"trial_type","trial_index","time_elapsed","internal_node_id","subject_id","task","startTime","totalTime","labels","view_history","rt","event","trial","time","trialtype","success","stimulus","key_press","stimType","arraySize","arrayFaces","arrayOutcomes","matchType","corrResp","arrayDur","targFace","targCol","targOutcome","trialType","corr"
"pavlovia","0","4","0.0-0.0","5ee653288976fc3af8448ae6","bdp_wmem","Tue May 11 2021 14:28:37 GMT-0500 (Central Daylight Time)","680958","Match,No Match","","","","","","","","","","","","","","","","","","","","",""
"instructions","1","6908","0.0-1.0","5ee653288976fc3af8448ae6","bdp_wmem","Tue May 11 2021 14:28:37 GMT-0500 (Central Daylight Time)","680958","Match,No Match","[{""page_index"":0,""viewing_time"":6902}]","6902","","","","","","","","","","","","","","","","","","",""
"","","","","5ee653288976fc3af8448ae6","bdp_wmem","Tue May 11 2021 14:28:37 GMT-0500 (Central Daylight Time)","680958","Match,No Match","","","fullscreenenter","2","10379","fullscreenenter","","","","","","","","","","","","","","",""
"fullscreen","2","11355","0.0-2.0","5ee653288976fc3af8448ae6","bdp_wmem","Tue May 11 2021 14:28:37 GMT-0500 (Central Daylight Time)","680958","Match,No Match","","","","","","","true","","","","","","","","","","","","","",""
"instructions","3","125582","0.0-4.0","5ee653288976fc3af8448ae6","bdp_wmem","Tue May 11 2021 14:28:37 GMT-0500 (Central Daylight Time)","680958","Match,No Match","[{""page_index"":0,""viewing_time"":28440},{""page_index"":1,""viewing_time"":43217},{""page_index"":2,""viewing_time"":31369},{""page_index"":3,""viewing_time"":4224},{""page_index"":4,""viewing_time"":6976}]","114226","","","","","","","","","","","","","","","","","","",""
"html-keyboard-response","4","126084","0.0-5.0-1.0","5ee653288976fc3af8448ae6","bdp_wmem","Tue May 11 2021 14:28:37 GMT-0500 (Central Daylight Time)","680958","Match,No Match","","null","","","","","","<div class='trialBorder'><div class='vertical-center'><img src='img/fixation2_sml.jpg'</img></div></div>","null","FIX","","","","","","","","","","",""
"html-keyboard-response","5","129086","0.0-5.0-2.0","5ee653288976fc3af8448ae6","bdp_wmem","Tue May 11 2021 14:28:37 GMT-0500 (Central Daylight Time)","680958","Match,No Match","","null","","","","","","<div class='trialBorder'><div class='vertical-center'><img style='vertical-align:center; align:center' src='img/fixation2_sml.jpg'></div><div class='arrayDiv2'><div class='tl'><img class='introPic' src='trustrating_stim/white_mw012.bmp'><br><font color='red'><strong>Keep</strong></font></div><div class='tr'><img class='introPic' src='trustrating_stim/white_mw070.bmp'><br><font color='green'><strong>Share</strong></font></div></div></div>","null","ARRAY","2","trustrating_stim/white_mw012.bmp,trustrating_stim/white_mw070.bmp","0,1","noMatchFace","i","3000","","","","",""
"html-keyboard-response","6","133088","0.0-5.0-3.0","5ee653288976fc3af8448ae6","bdp_wmem","Tue May 11 2021 14:28:37 GMT-0500 (Central Daylight Time)","680958","Match,No Match","","null","","","","","","<div class='trialBorder'><div class='vertical-center'><img src='img/fixation2_sml.jpg'</img></div></div>","null","DELAY","","","","","","","","","","",""
"html-keyboard-response","7","134934","0.0-5.0-4.0","5ee653288976fc3af8448ae6","bdp_wmem","Tue May 11 2021 14:28:37 GMT-0500 (Central Daylight Time)","680958","Match,No Match","","1845","","","","","","<div class='trialBorder'><div class='targDiv'><div class='tc'><img class='introPic' src='trustrating_stim/white_mw092.bmp'><br><font color='red'><strong>Keep</strong></font></div></div><div class='respDiv'><div class='respDivL'>Match<br>(e)</div><div class='respDivR'>No Match<br>(i)</div></div></div>","i","TARGET","2","trustrating_stim/white_mw012.bmp,trustrating_stim/white_mw070.bmp","0,1","noMatchFace","i","3000","trustrating_stim/white_mw092.bmp","red","Keep","PRACTICE","1"
"html-keyboard-response","8","135438","0.0-5.0-5.0","5ee653288976fc3af8448ae6","bdp_wmem","Tue May 11 2021 14:28:37 GMT-0500 (Central Daylight Time)","680958","Match,No Match","","null","","","","","","<div class='trialBorder'><div class='vertical-center'><img src='img/correct.jpg'></div><div class='respDiv'><div class='respDivL'>Match<br>(e)</div><div class='respDivR'><font style='color:orange'>No Match<br>(i)</font></div></div></div>","null","FEEDBACK","","","","","","","","","","",""
"html-keyboard-response","9","135940","0.0-5.0-1.1","5ee653288976fc3af8448ae6","bdp_wmem","Tue May 11 2021 14:28:37 GMT-0500 (Central Daylight Time)","680958","Match,No Match","","null","","","","","","<div class='trialBorder'><div class='vertical-center'><img src='img/fixation2_sml.jpg'</img></div></div>","null","FIX","","","","","","","","","","",""
"html-keyboard-response","10","137443","0.0-5.0-2.1","5ee653288976fc3af8448ae6","bdp_wmem","Tue May 11 2021 14:28:37 GMT-0500 (Central Daylight Time)","680958","Match,No Match","","null","","","","","","<div class='trialBorder'><div class='vertical-center'><img style='vertical-align:center; align:center' src='img/fixation2_sml.jpg'></div><div class='arrayDiv1'><div class='tc'><img class='introPic' src='trustrating_stim/white_mw092.bmp'><br><font color='red'><strong>Keep</strong></font></div></div></div>","null","ARRAY","1","trustrating_stim/white_mw092.bmp","0","noMatchFace","i","1500","","","","",""
"html-keyboard-response","11","141458","0.0-5.0-3.1","5ee653288976fc3af8448ae6","bdp_wmem","Tue May 11 2021 14:28:37 GMT-0500 (Central Daylight Time)","680958","Match,No Match","","null","","","","","","<div class='trialBorder'><div class='vertical-center'><img src='img/fixation2_sml.jpg'</img></div></div>","null","DELAY","","","","","","","","","","",""
"html-keyboard-response","12","143007","0.0-5.0-4.1","5ee653288976fc3af8448ae6","bdp_wmem","Tue May 11 2021 14:28:37 GMT-0500 (Central Daylight Time)","680958","Match,No Match","","1547","","","","","","<div class='trialBorder'><div class='targDiv'><div class='tc'><img class='introPic' src='trustrating_stim/white_mw013.bmp'><br><font color='red'><strong>Keep</strong></font></div></div><div class='respDiv'><div class='respDivL'>Match<br>(e)</div><div class='respDivR'>No Match<br>(i)</div></div></div>","i","TARGET","1","trustrating_stim/white_mw092.bmp","0","noMatchFace","i","1500","trustrating_stim/white_mw013.bmp","red","Keep","PRACTICE","1"
"html-keyboard-response","13","143508","0.0-5.0-5.1","5ee653288976fc3af8448ae6","bdp_wmem","Tue May 11 2021 14:28:37 GMT-0500 (Central Daylight Time)","680958","Match,No Match","","null","","","","","","<div class='trialBorder'><div class='vertical-center'><img src='img/correct.jpg'></div><div class='respDiv'><div class='respDivL'>Match<br>(e)</div><div class='respDivR'><font style='color:orange'>No Match<br>(i)</font></div></div></div>","null","FEEDBACK","","","","","","","","","","",""
"html-keyboard-response","14","144010","0.0-5.0-1.2","5ee653288976fc3af8448ae6","bdp_wmem","Tue May 11 2021 14:28:37 GMT-0500 (Central Daylight Time)","680958","Match,No Match","","null","","","","","","<div class='trialBorder'><div class='vertical-center'><img src='img/fixation2_sml.jpg'</img></div></div>","null","FIX","","","","","","","","","","",""
"html-keyboard-response","15","148513","0.0-5.0-2.2","5ee653288976fc3af8448ae6","bdp_wmem","Tue May 11 2021 14:28:37 GMT-0500 (Central Daylight Time)","680958","Match,No Match","","null","","","","","","<div class='trialBorder'><div class='vertical-center'><img style='vertical-align:center; align:center' src='img/fixation2_sml.jpg'></div><div class='arrayDiv3'><div class='tl'><img class='introPic' src='trustrating_stim/white_mw091.bmp'><br><font color='red'><strong>Keep</strong></font></div><div class='tc'><img class='introPic' src='trustrating_stim/white_mw012.bmp'><br><font color='green'><strong>Share</strong></font></div><div class='tr'><img class='introPic' src='trustrating_stim/white_mw015.bmp'><br><font color='green'><strong>Share</strong></font></div></div></div>","null","ARRAY","3","trustrating_stim/white_mw091.bmp,trustrating_stim/white_mw012.bmp,trustrating_stim/white_mw015.bmp","0,1,1","Match","e","4500","","","","",""
"html-keyboard-response","16","152514","0.0-5.0-3.2","5ee653288976fc3af8448ae6","bdp_wmem","Tue May 11 2021 14:28:37 GMT-0500 (Central Daylight Time)","680958","Match,No Match","","null","","","","","","<div class='trialBorder'><div class='vertical-center'><img src='img/fixation2_sml.jpg'</img></div></div>","null","DELAY","","","","","","","","","","",""
"html-keyboard-response","17","154359","0.0-5.0-4.2","5ee653288976fc3af8448ae6","bdp_wmem","Tue May 11 2021 14:28:37 GMT-0500 (Central Daylight Time)","680958","Match,No Match","","1844","","","","","","<div class='trialBorder'><div class='targDiv'><div class='tc'><img class='introPic' src='trustrating_stim/white_mw015.bmp'><br><font color='green'><strong>Share</strong></font></div></div><div class='respDiv'><div class='respDivL'>Match<br>(e)</div><div class='respDivR'>No Match<br>(i)</div></div></div>","e","TARGET","3","trustrating_stim/white_mw091.bmp,trustrating_stim/white_mw012.bmp,trustrating_stim/white_mw015.bmp","0,1,1","Match","e","4500","trustrating_stim/white_mw015.bmp","green","Share","PRACTICE","1"
"html-keyboard-response","18","154860","0.0-5.0-5.2","5ee653288976fc3af8448ae6","bdp_wmem","Tue May 11 2021 14:28:37 GMT-0500 (Central Daylight Time)","680958","Match,No Match","","null","","","","","","<div class='trialBorder'><div class='vertical-center'><img src='img/correct.jpg'></div><div class='respDiv'><div class='respDivL'><font style='color:orange'>Match<br>(e)</font></div><div class='respDivR'>No Match<br>(i)</div></div></div>","null","FEEDBACK","","","","","","","","","","",""
"html-keyboard-response","19","155362","0.0-5.0-1.3","5ee653288976fc3af8448ae6","bdp_wmem","Tue May 11 2021 14:28:37 GMT-0500 (Central Daylight Time)","680958","Match,No Match","","null","","","","","","<div class='trialBorder'><div class='vertical-center'><img src='img/fixation2_sml.jpg'</img></div></div>","null","FIX","","","","","","","","","","",""
"html-keyboard-response","20","159864","0.0-5.0-2.3","5ee653288976fc3af8448ae6","bdp_wmem","Tue May 11 2021 14:28:37 GMT-0500 (Central Daylight Time)","680958","Match,No Match","","null","","","","","","<div class='trialBorder'><div class='vertical-center'><img style='vertical-align:center; align:center' src='img/fixation2_sml.jpg'></div><div class='arrayDiv3'><div class='tl'><img class='introPic' src='trustrating_stim/white_mw040.bmp'><br><font color='green'><strong>Share</strong></font></div><div class='tc'><img class='introPic' src='trustrating_stim/white_mw070.bmp'><br><font color='green'><strong>Share</strong></font></div><div class='tr'><img class='introPic' src='trustrating_stim/white_mw015.bmp'><br><font color='red'><strong>Keep</strong></font></div></div></div>","null","ARRAY","3","trustrating_stim/white_mw040.bmp,trustrating_stim/white_mw070.bmp,trustrating_stim/white_mw015.bmp","1,1,0","noMatchOutcome","i","4500","","","","",""
"html-keyboard-response","21","163866","0.0-5.0-3.3","5ee653288976fc3af8448ae6","bdp_wmem","Tue May 11 2021 14:28:37 GMT-0500 (Central Daylight Time)","680958","Match,No Match","","null","","","","","","<div class='trialBorder'><div class='vertical-center'><img src='img/fixation2_sml.jpg'</img></div></div>","null","DELAY","","","","","","","","","","",""
"html-keyboard-response","22","165983","0.0-5.0-4.3","5ee653288976fc3af8448ae6","bdp_wmem","Tue May 11 2021 14:28:37 GMT-0500 (Central Daylight Time)","680958","Match,No Match","","2116","","","","","","<div class='trialBorder'><div class='targDiv'><div class='tc'><img class='introPic' src='trustrating_stim/white_mw015.bmp'><br><font color='green'><strong>Share</strong></font></div></div><div class='respDiv'><div class='respDivL'>Match<br>(e)</div><div class='respDivR'>No Match<br>(i)</div></div></div>","i","TARGET","3","trustrating_stim/white_mw040.bmp,trustrating_stim/white_mw070.bmp,trustrating_stim/white_mw015.bmp","1,1,0","noMatchOutcome","i","4500","trustrating_stim/white_mw015.bmp","green","Share","PRACTICE","1"
"html-keyboard-response","23","166501","0.0-5.0-5.3","5ee653288976fc3af8448ae6","bdp_wmem","Tue May 11 2021 14:28:37 GMT-0500 (Central Daylight Time)","680958","Match,No Match","","null","","","","","","<div class='trialBorder'><div class='vertical-center'><img src='img/correct.jpg'></div><div class='respDiv'><div class='respDivL'>Match<br>(e)</div><div class='respDivR'><font style='color:orange'>No Match<br>(i)</font></div></div></div>","null","FEEDBACK","","","","","","","","","","",""
"html-keyboard-response","24","167003","0.0-5.0-1.4","5ee653288976fc3af8448ae6","bdp_wmem","Tue May 11 2021 14:28:37 GMT-0500 (Central Daylight Time)","680958","Match,No Match","","null","","","","","","<div class='trialBorder'><div class='vertical-center'><img src='img/fixation2_sml.jpg'</img></div></div>","null","FIX","","","","","","","","","","",""
"html-keyboard-response","25","168504","0.0-5.0-2.4","5ee653288976fc3af8448ae6","bdp_wmem","Tue May 11 2021 14:28:37 GMT-0500 (Central Daylight Time)","680958","Match,No Match","","null","","","","","","<div class='trialBorder'><div class='vertical-center'><img style='vertical-align:center; align:center' src='img/fixation2_sml.jpg'></div><div class='arrayDiv1'><div class='tc'><img class='introPic' src='trustrating_stim/white_mw033.bmp'><br><font color='red'><strong>Keep</strong></font></div></div></div>","null","ARRAY","1","trustrating_stim/white_mw033.bmp","0","Match","e","1500","","","","",""
"html-keyboard-response","26","172505","0.0-5.0-3.4","5ee653288976fc3af8448ae6","bdp_wmem","Tue May 11 2021 14:28:37 GMT-0500 (Central Daylight Time)","680958","Match,No Match","","null","","","","","","<div class='trialBorder'><div class='vertical-center'><img src='img/fixation2_sml.jpg'</img></div></div>","null","DELAY","","","","","","","","","","",""
"html-keyboard-response","27","173943","0.0-5.0-4.4","5ee653288976fc3af8448ae6","bdp_wmem","Tue May 11 2021 14:28:37 GMT-0500 (Central Daylight Time)","680958","Match,No Match","","1437","","","","","","<div class='trialBorder'><div class='targDiv'><div class='tc'><img class='introPic' src='trustrating_stim/white_mw033.bmp'><br><font color='red'><strong>Keep</strong></font></div></div><div class='respDiv'><div class='respDivL'>Match<br>(e)</div><div class='respDivR'>No Match<br>(i)</div></div></div>","e","TARGET","1","trustrating_stim/white_mw033.bmp","0","Match","e","1500","trustrating_stim/white_mw033.bmp","red","Keep","PRACTICE","1"
"html-keyboard-response","28","174450","0.0-5.0-5.4","5ee653288976fc3af8448ae6","bdp_wmem","Tue May 11 2021 14:28:37 GMT-0500 (Central Daylight Time)","680958","Match,No Match","","null","","","","","","<div class='trialBorder'><div class='vertical-center'><img src='img/correct.jpg'></div><div class='respDiv'><div class='respDivL'><font style='color:orange'>Match<br>(e)</font></div><div class='respDivR'>No Match<br>(i)</div></div></div>","null","FEEDBACK","","","","","","","","","","",""
"html-keyboard-response","29","174952","0.0-5.0-1.5","5ee653288976fc3af8448ae6","bdp_wmem","Tue May 11 2021 14:28:37 GMT-0500 (Central Daylight Time)","680958","Match,No Match","","null","","","","","","<div class='trialBorder'><div class='vertical-center'><img src='img/fixation2_sml.jpg'</img></div></div>","null","FIX","","","","","","","","","","",""
"html-keyboard-response","30","177953","0.0-5.0-2.5","5ee653288976fc3af8448ae6","bdp_wmem","Tue May 11 2021 14:28:37 GMT-0500 (Central Daylight Time)","680958","Match,No Match","","null","","","","","","<div class='trialBorder'><div class='vertical-center'><img style='vertical-align:center; align:center' src='img/fixation2_sml.jpg'></div><div class='arrayDiv2'><div class='tl'><img class='introPic' src='trustrating_stim/white_mw003.bmp'><br><font color='red'><strong>Keep</strong></font></div><div class='tr'><img class='introPic' src='trustrating_stim/white_mw013.bmp'><br><font color='green'><strong>Share</strong></font></div></div></div>","null","ARRAY","2","trustrating_stim/white_mw003.bmp,trustrating_stim/white_mw013.bmp","0,1","Match","e","3000","","","","",""
"html-keyboard-response","31","181955","0.0-5.0-3.5","5ee653288976fc3af8448ae6","bdp_wmem","Tue May 11 2021 14:28:37 GMT-0500 (Central Daylight Time)","680958","Match,No Match","","null","","","","","","<div class='trialBorder'><div class='vertical-center'><img src='img/fixation2_sml.jpg'</img></div></div>","null","DELAY","","","","","","","","","","",""
"html-keyboard-response","32","184361","0.0-5.0-4.5","5ee653288976fc3af8448ae6","bdp_wmem","Tue May 11 2021 14:28:37 GMT-0500 (Central Daylight Time)","680958","Match,No Match","","2397","","","","","","<div class='trialBorder'><div class='targDiv'><div class='tc'><img class='introPic' src='trustrating_stim/white_mw003.bmp'><br><font color='red'><strong>Keep</strong></font></div></div><div class='respDiv'><div class='respDivL'>Match<br>(e)</div><div class='respDivR'>No Match<br>(i)</div></div></div>","e","TARGET","2","trustrating_stim/white_mw003.bmp,trustrating_stim/white_mw013.bmp","0,1","Match","e","3000","trustrating_stim/white_mw003.bmp","red","Keep","PRACTICE","1"
"html-keyboard-response","33","184863","0.0-5.0-5.5","5ee653288976fc3af8448ae6","bdp_wmem","Tue May 11 2021 14:28:37 GMT-0500 (Central Daylight Time)","680958","Match,No Match","","null","","","","","","<div class='trialBorder'><div class='vertical-center'><img src='img/correct.jpg'></div><div class='respDiv'><div class='respDivL'><font style='color:orange'>Match<br>(e)</font></div><div class='respDivR'>No Match<br>(i)</div></div></div>","null","FEEDBACK","","","","","","","","","","",""
"instructions","34","218929","0.0-6.0","5ee653288976fc3af8448ae6","bdp_wmem","Tue May 11 2021 14:28:37 GMT-0500 (Central Daylight Time)","680958","Match,No Match","[{""page_index"":0,""viewing_time"":34066}]","34066","","","","","","","","","","","","","","","","","","",""
"html-keyboard-response","35","219431","0.0-7.0-1.0","5ee653288976fc3af8448ae6","bdp_wmem","Tue May 11 2021 14:28:37 GMT-0500 (Central Daylight Time)","680958","Match,No Match","","null","","","","","","<div class='trialBorder'><div class='vertical-center'><img src='img/fixation2_sml.jpg'</img></div></div>","null","FIX","","","","","","","","","","",""
"html-keyboard-response","36","222434","0.0-7.0-2.0","5ee653288976fc3af8448ae6","bdp_wmem","Tue May 11 2021 14:28:37 GMT-0500 (Central Daylight Time)","680958","Match,No Match","","null","","","","","","<div class='trialBorder'><div class='vertical-center'><img style='vertical-align:center; align:center' src='img/fixation2_sml.jpg'></div><div class='arrayDiv2'><div class='tl'><img class='introPic' src='trustrating_stim/white_mw038.bmp'><br><font color='green'><strong>Share</strong></font></div><div class='tr'><img class='introPic' src='trustrating_stim/white_mw040.bmp'><br><font color='red'><strong>Keep</strong></font></div></div></div>","null","ARRAY","2","trustrating_stim/white_mw038.bmp,trustrating_stim/white_mw040.bmp","1,0","noMatchFace","i","3000","","","","",""
"html-keyboard-response","37","226435","0.0-7.0-3.0","5ee653288976fc3af8448ae6","bdp_wmem","Tue May 11 2021 14:28:37 GMT-0500 (Central Daylight Time)","680958","Match,No Match","","null","","","","","","<div class='trialBorder'><div class='vertical-center'><img src='img/fixation2_sml.jpg'</img></div></div>","null","DELAY","","","","","","","","","","",""
"html-keyboard-response","38","228073","0.0-7.0-4.0","5ee653288976fc3af8448ae6","bdp_wmem","Tue May 11 2021 14:28:37 GMT-0500 (Central Daylight Time)","680958","Match,No Match","","1637","","","","","","<div class='trialBorder'><div class='targDiv'><div class='tc'><img class='introPic' src='trustrating_stim/white_00050_931230_fa_edt.bmp'><br><font color='green'><strong>Share</strong></font></div></div><div class='respDiv'><div class='respDivL'>Match<br>(e)</div><div class='respDivR'>No Match<br>(i)</div></div></div>","i","TARGET","2","trustrating_stim/white_mw038.bmp,trustrating_stim/white_mw040.bmp","1,0","noMatchFace","i","3000","trustrating_stim/white_00050_931230_fa_edt.bmp","green","Share","REAL","1"
"html-keyboard-response","39","228574","0.0-7.0-5.0","5ee653288976fc3af8448ae6","bdp_wmem","Tue May 11 2021 14:28:37 GMT-0500 (Central Daylight Time)","680958","Match,No Match","","null","","","","","","<div class='trialBorder'><div class='vertical-center'><img src='img/correct.jpg'></div><div class='respDiv'><div class='respDivL'>Match<br>(e)</div><div class='respDivR'><font style='color:orange'>No Match<br>(i)</font></div></div></div>","null","FEEDBACK","","","","","","","","","","",""
"html-keyboard-response","40","229076","0.0-7.0-1.1","5ee653288976fc3af8448ae6","bdp_wmem","Tue May 11 2021 14:28:37 GMT-0500 (Central Daylight Time)","680958","Match,No Match","","null","","","","","","<div class='trialBorder'><div class='vertical-center'><img src='img/fixation2_sml.jpg'</img></div></div>","null","FIX","","","","","","","","","","",""
"html-keyboard-response","41","232077","0.0-7.0-2.1","5ee653288976fc3af8448ae6","bdp_wmem","Tue May 11 2021 14:28:37 GMT-0500 (Central Daylight Time)","680958","Match,No Match","","null","","","","","","<div class='trialBorder'><div class='vertical-center'><img style='vertical-align:center; align:center' src='img/fixation2_sml.jpg'></div><div class='arrayDiv2'><div class='tl'><img class='introPic' src='trustrating_stim/white_mw013.bmp'><br><font color='red'><strong>Keep</strong></font></div><div class='tr'><img class='introPic' src='trustrating_stim/white_mw038.bmp'><br><font color='green'><strong>Share</strong></font></div></div></div>","null","ARRAY","2","trustrating_stim/white_mw013.bmp,trustrating_stim/white_mw038.bmp","0,1","Match","e","3000","","","","",""
"html-keyboard-response","42","236081","0.0-7.0-3.1","5ee653288976fc3af8448ae6","bdp_wmem","Tue May 11 2021 14:28:37 GMT-0500 (Central Daylight Time)","680958","Match,No Match","","null","","","","","","<div class='trialBorder'><div class='vertical-center'><img src='img/fixation2_sml.jpg'</img></div></div>","null","DELAY","","","","","","","","","","",""
"html-keyboard-response","43","238322","0.0-7.0-4.1","5ee653288976fc3af8448ae6","bdp_wmem","Tue May 11 2021 14:28:37 GMT-0500 (Central Daylight Time)","680958","Match,No Match","","2238","","","","","","<div class='trialBorder'><div class='targDiv'><div class='tc'><img class='introPic' src='trustrating_stim/white_mw038.bmp'><br><font color='green'><strong>Share</strong></font></div></div><div class='respDiv'><div class='respDivL'>Match<br>(e)</div><div class='respDivR'>No Match<br>(i)</div></div></div>","e","TARGET","2","trustrating_stim/white_mw013.bmp,trustrating_stim/white_mw038.bmp","0,1","Match","e","3000","trustrating_stim/white_mw038.bmp","green","Share","REAL","1"
"html-keyboard-response","44","238823","0.0-7.0-5.1","5ee653288976fc3af8448ae6","bdp_wmem","Tue May 11 2021 14:28:37 GMT-0500 (Central Daylight Time)","680958","Match,No Match","","null","","","","","","<div class='trialBorder'><div class='vertical-center'><img src='img/correct.jpg'></div><div class='respDiv'><div class='respDivL'><font style='color:orange'>Match<br>(e)</font></div><div class='respDivR'>No Match<br>(i)</div></div></div>","null","FEEDBACK","","","","","","","","","","",""
"html-keyboard-response","45","239324","0.0-7.0-1.2","5ee653288976fc3af8448ae6","bdp_wmem","Tue May 11 2021 14:28:37 GMT-0500 (Central Daylight Time)","680958","Match,No Match","","null","","","","","","<div class='trialBorder'><div class='vertical-center'><img src='img/fixation2_sml.jpg'</img></div></div>","null","FIX","","","","","","","","","","",""
"html-keyboard-response","46","240827","0.0-7.0-2.2","5ee653288976fc3af8448ae6","bdp_wmem","Tue May 11 2021 14:28:37 GMT-0500 (Central Daylight Time)","680958","Match,No Match","","null","","","","","","<div class='trialBorder'><div class='vertical-center'><img style='vertical-align:center; align:center' src='img/fixation2_sml.jpg'></div><div class='arrayDiv1'><div class='tc'><img class='introPic' src='trustrating_stim/white_mw092.bmp'><br><font color='green'><strong>Share</strong></font></div></div></div>","null","ARRAY","1","trustrating_stim/white_mw092.bmp","1","Match","e","1500","","","","",""
"html-keyboard-response","47","244828","0.0-7.0-3.2","5ee653288976fc3af8448ae6","bdp_wmem","Tue May 11 2021 14:28:37 GMT-0500 (Central Daylight Time)","680958","Match,No Match","","null","","","","","","<div class='trialBorder'><div class='vertical-center'><img src='img/fixation2_sml.jpg'</img></div></div>","null","DELAY","","","","","","","","","","",""
"html-keyboard-response","48","246209","0.0-7.0-4.2","5ee653288976fc3af8448ae6","bdp_wmem","Tue May 11 2021 14:28:37 GMT-0500 (Central Daylight Time)","680958","Match,No Match","","1380","","","","","","<div class='trialBorder'><div class='targDiv'><div class='tc'><img class='introPic' src='trustrating_stim/white_mw092.bmp'><br><font color='green'><strong>Share</strong></font></div></div><div class='respDiv'><div class='respDivL'>Match<br>(e)</div><div class='respDivR'>No Match<br>(i)</div></div></div>","e","TARGET","1","trustrating_stim/white_mw092.bmp","1","Match","e","1500","trustrating_stim/white_mw092.bmp","green","Share","REAL","1"
"html-keyboard-response","49","246710","0.0-7.0-5.2","5ee653288976fc3af8448ae6","bdp_wmem","Tue May 11 2021 14:28:37 GMT-0500 (Central Daylight Time)","680958","Match,No Match","","null","","","","","","<div class='trialBorder'><div class='vertical-center'><img src='img/correct.jpg'></div><div class='respDiv'><div class='respDivL'><font style='color:orange'>Match<br>(e)</font></div><div class='respDivR'>No Match<br>(i)</div></div></div>","null","FEEDBACK","","","","","","","","","","",""
"html-keyboard-response","50","247211","0.0-7.0-1.3","5ee653288976fc3af8448ae6","bdp_wmem","Tue May 11 2021 14:28:37 GMT-0500 (Central Daylight Time)","680958","Match,No Match","","null","","","","","","<div class='trialBorder'><div class='vertical-center'><img src='img/fixation2_sml.jpg'</img></div></div>","null","FIX","","","","","","","","","","",""
"html-keyboard-response","51","250224","0.0-7.0-2.3","5ee653288976fc3af8448ae6","bdp_wmem","Tue May 11 2021 14:28:37 GMT-0500 (Central Daylight Time)","680958","Match,No Match","","null","","","","","","<div class='trialBorder'><div class='vertical-center'><img style='vertical-align:center; align:center' src='img/fixation2_sml.jpg'></div><div class='arrayDiv2'><div class='tl'><img class='introPic' src='trustrating_stim/white_mw038.bmp'><br><font color='green'><strong>Share</strong></font></div><div class='tr'><img class='introPic' src='trustrating_stim/white_mw033.bmp'><br><font color='red'><strong>Keep</strong></font></div></div></div>","null","ARRAY","2","trustrating_stim/white_mw038.bmp,trustrating_stim/white_mw033.bmp","1,0","noMatchOutcome","i","3000","","","","",""
"html-keyboard-response","52","254225","0.0-7.0-3.3","5ee653288976fc3af8448ae6","bdp_wmem","Tue May 11 2021 14:28:37 GMT-0500 (Central Daylight Time)","680958","Match,No Match","","null","","","","","","<div class='trialBorder'><div class='vertical-center'><img src='img/fixation2_sml.jpg'</img></div></div>","null","DELAY","","","","","","","","","","",""
"html-keyboard-response","53","256042","0.0-7.0-4.3","5ee653288976fc3af8448ae6","bdp_wmem","Tue May 11 2021 14:28:37 GMT-0500 (Central Daylight Time)","680958","Match,No Match","","1816","","","","","","<div class='trialBorder'><div class='targDiv'><div class='tc'><img class='introPic' src='trustrating_stim/white_mw038.bmp'><br><font color='red'><strong>Keep</strong></font></div></div><div class='respDiv'><div class='respDivL'>Match<br>(e)</div><div class='respDivR'>No Match<br>(i)</div></div></div>","i","TARGET","2","trustrating_stim/white_mw038.bmp,trustrating_stim/white_mw033.bmp","1,0","noMatchOutcome","i","3000","trustrating_stim/white_mw038.bmp","red","Keep","REAL","1"
"html-keyboard-response","54","256544","0.0-7.0-5.3","5ee653288976fc3af8448ae6","bdp_wmem","Tue May 11 2021 14:28:37 GMT-0500 (Central Daylight Time)","680958","Match,No Match","","null","","","","","","<div class='trialBorder'><div class='vertical-center'><img src='img/correct.jpg'></div><div class='respDiv'><div class='respDivL'>Match<br>(e)</div><div class='respDivR'><font style='color:orange'>No Match<br>(i)</font></div></div></div>","null","FEEDBACK","","","","","","","","","","",""
"html-keyboard-response","55","257045","0.0-7.0-1.4","5ee653288976fc3af8448ae6","bdp_wmem","Tue May 11 2021 14:28:37 GMT-0500 (Central Daylight Time)","680958","Match,No Match","","null","","","","","","<div class='trialBorder'><div class='vertical-center'><img src='img/fixation2_sml.jpg'</img></div></div>","null","FIX","","","","","","","","","","",""
"html-keyboard-response","56","258547","0.0-7.0-2.4","5ee653288976fc3af8448ae6","bdp_wmem","Tue May 11 2021 14:28:37 GMT-0500 (Central Daylight Time)","680958","Match,No Match","","null","","","","","","<div class='trialBorder'><div class='vertical-center'><img style='vertical-align:center; align:center' src='img/fixation2_sml.jpg'></div><div class='arrayDiv1'><div class='tc'><img class='introPic' src='trustrating_stim/white_mw092.bmp'><br><font color='green'><strong>Share</strong></font></div></div></div>","null","ARRAY","1","trustrating_stim/white_mw092.bmp","1","Match","e","1500","","","","",""
"html-keyboard-response","57","262548","0.0-7.0-3.4","5ee653288976fc3af8448ae6","bdp_wmem","Tue May 11 2021 14:28:37 GMT-0500 (Central Daylight Time)","680958","Match,No Match","","null","","","","","","<div class='trialBorder'><div class='vertical-center'><img src='img/fixation2_sml.jpg'</img></div></div>","null","DELAY","","","","","","","","","","",""
"html-keyboard-response","58","264794","0.0-7.0-4.4","5ee653288976fc3af8448ae6","bdp_wmem","Tue May 11 2021 14:28:37 GMT-0500 (Central Daylight Time)","680958","Match,No Match","","2245","","","","","","<div class='trialBorder'><div class='targDiv'><div class='tc'><img class='introPic' src='trustrating_stim/white_mw092.bmp'><br><font color='green'><strong>Share</strong></font></div></div><div class='respDiv'><div class='respDivL'>Match<br>(e)</div><div class='respDivR'>No Match<br>(i)</div></div></div>","e","TARGET","1","trustrating_stim/white_mw092.bmp","1","Match","e","1500","trustrating_stim/white_mw092.bmp","green","Share","REAL","1"
"html-keyboard-response","59","265297","0.0-7.0-5.4","5ee653288976fc3af8448ae6","bdp_wmem","Tue May 11 2021 14:28:37 GMT-0500 (Central Daylight Time)","680958","Match,No Match","","null","","","","","","<div class='trialBorder'><div class='vertical-center'><img src='img/correct.jpg'></div><div class='respDiv'><div class='respDivL'><font style='color:orange'>Match<br>(e)</font></div><div class='respDivR'>No Match<br>(i)</div></div></div>","null","FEEDBACK","","","","","","","","","","",""
"html-keyboard-response","60","265798","0.0-7.0-1.5","5ee653288976fc3af8448ae6","bdp_wmem","Tue May 11 2021 14:28:37 GMT-0500 (Central Daylight Time)","680958","Match,No Match","","null","","","","","","<div class='trialBorder'><div class='vertical-center'><img src='img/fixation2_sml.jpg'</img></div></div>","null","FIX","","","","","","","","","","",""
"html-keyboard-response","61","268804","0.0-7.0-2.5","5ee653288976fc3af8448ae6","bdp_wmem","Tue May 11 2021 14:28:37 GMT-0500 (Central Daylight Time)","680958","Match,No Match","","null","","","","","","<div class='trialBorder'><div class='vertical-center'><img style='vertical-align:center; align:center' src='img/fixation2_sml.jpg'></div><div class='arrayDiv2'><div class='tl'><img class='introPic' src='trustrating_stim/white_mw040.bmp'><br><font color='green'><strong>Share</strong></font></div><div class='tr'><img class='introPic' src='trustrating_stim/white_mw092.bmp'><br><font color='red'><strong>Keep</strong></font></div></div></div>","null","ARRAY","2","trustrating_stim/white_mw040.bmp,trustrating_stim/white_mw092.bmp","1,0","Match","e","3000","","","","",""
"html-keyboard-response","62","272806","0.0-7.0-3.5","5ee653288976fc3af8448ae6","bdp_wmem","Tue May 11 2021 14:28:37 GMT-0500 (Central Daylight Time)","680958","Match,No Match","","null","","","","","","<div class='trialBorder'><div class='vertical-center'><img src='img/fixation2_sml.jpg'</img></div></div>","null","DELAY","","","","","","","","","","",""
"html-keyboard-response","63","274507","0.0-7.0-4.5","5ee653288976fc3af8448ae6","bdp_wmem","Tue May 11 2021 14:28:37 GMT-0500 (Central Daylight Time)","680958","Match,No Match","","1699","","","","","","<div class='trialBorder'><div class='targDiv'><div class='tc'><img class='introPic' src='trustrating_stim/white_mw040.bmp'><br><font color='green'><strong>Share</strong></font></div></div><div class='respDiv'><div class='respDivL'>Match<br>(e)</div><div class='respDivR'>No Match<br>(i)</div></div></div>","i","TARGET","2","trustrating_stim/white_mw040.bmp,trustrating_stim/white_mw092.bmp","1,0","Match","e","3000","trustrating_stim/white_mw040.bmp","green","Share","REAL","0"
"html-keyboard-response","64","275008","0.0-7.0-5.5","5ee653288976fc3af8448ae6","bdp_wmem","Tue May 11 2021 14:28:37 GMT-0500 (Central Daylight Time)","680958","Match,No Match","","null","","","","","","<div class='trialBorder'><div class='vertical-center'><img src='img/error.jpg'></div><div class='respDiv'><div class='respDivL'>Match<br>(e)</div><div class='respDivR'><font style='color:orange'>No Match<br>(i)</font></div></div></div>","null","FEEDBACK","","","","","","","","","","",""
"html-keyboard-response","65","275510","0.0-7.0-1.6","5ee653288976fc3af8448ae6","bdp_wmem","Tue May 11 2021 14:28:37 GMT-0500 (Central Daylight Time)","680958","Match,No Match","","null","","","","","","<div class='trialBorder'><div class='vertical-center'><img src='img/fixation2_sml.jpg'</img></div></div>","null","FIX","","","","","","","","","","",""
"html-keyboard-response","66","277012","0.0-7.0-2.6","5ee653288976fc3af8448ae6","bdp_wmem","Tue May 11 2021 14:28:37 GMT-0500 (Central Daylight Time)","680958","Match,No Match","","null","","","","","","<div class='trialBorder'><div class='vertical-center'><img style='vertical-align:center; align:center' src='img/fixation2_sml.jpg'></div><div class='arrayDiv1'><div class='tc'><img class='introPic' src='trustrating_stim/white_mw040.bmp'><br><font color='green'><strong>Share</strong></font></div></div></div>","null","ARRAY","1","trustrating_stim/white_mw040.bmp","1","noMatchFace","i","1500","","","","",""
"html-keyboard-response","67","281013","0.0-7.0-3.6","5ee653288976fc3af8448ae6","bdp_wmem","Tue May 11 2021 14:28:37 GMT-0500 (Central Daylight Time)","680958","Match,No Match","","null","","","","","","<div class='trialBorder'><div class='vertical-center'><img src='img/fixation2_sml.jpg'</img></div></div>","null","DELAY","","","","","","","","","","",""
"html-keyboard-response","68","282250","0.0-7.0-4.6","5ee653288976fc3af8448ae6","bdp_wmem","Tue May 11 2021 14:28:37 GMT-0500 (Central Daylight Time)","680958","Match,No Match","","1235","","","","","","<div class='trialBorder'><div class='targDiv'><div class='tc'><img class='introPic' src='trustrating_stim/white_mw070.bmp'><br><font color='green'><strong>Share</strong></font></div></div><div class='respDiv'><div class='respDivL'>Match<br>(e)</div><div class='respDivR'>No Match<br>(i)</div></div></div>","i","TARGET","1","trustrating_stim/white_mw040.bmp","1","noMatchFace","i","1500","trustrating_stim/white_mw070.bmp","green","Share","REAL","1"
"html-keyboard-response","69","282766","0.0-7.0-5.6","5ee653288976fc3af8448ae6","bdp_wmem","Tue May 11 2021 14:28:37 GMT-0500 (Central Daylight Time)","680958","Match,No Match","","null","","","","","","<div class='trialBorder'><div class='vertical-center'><img src='img/correct.jpg'></div><div class='respDiv'><div class='respDivL'>Match<br>(e)</div><div class='respDivR'><font style='color:orange'>No Match<br>(i)</font></div></div></div>","null","FEEDBACK","","","","","","","","","","",""
"html-keyboard-response","70","283268","0.0-7.0-1.7","5ee653288976fc3af8448ae6","bdp_wmem","Tue May 11 2021 14:28:37 GMT-0500 (Central Daylight Time)","680958","Match,No Match","","null","","","","","","<div class='trialBorder'><div class='vertical-center'><img src='img/fixation2_sml.jpg'</img></div></div>","null","FIX","","","","","","","","","","",""
"html-keyboard-response","71","287771","0.0-7.0-2.7","5ee653288976fc3af8448ae6","bdp_wmem","Tue May 11 2021 14:28:37 GMT-0500 (Central Daylight Time)","680958","Match,No Match","","null","","","","","","<div class='trialBorder'><div class='vertical-center'><img style='vertical-align:center; align:center' src='img/fixation2_sml.jpg'></div><div class='arrayDiv3'><div class='tl'><img class='introPic' src='trustrating_stim/white_00050_931230_fa_edt.bmp'><br><font color='green'><strong>Share</strong></font></div><div class='tc'><img class='introPic' src='trustrating_stim/white_00807_941205_fb_edt.bmp'><br><font color='red'><strong>Keep</strong></font></div><div class='tr'><img class='introPic' src='trustrating_stim/white_mw015.bmp'><br><font color='red'><strong>Keep</strong></font></div></div></div>","null","ARRAY","3","trustrating_stim/white_00050_931230_fa_edt.bmp,trustrating_stim/white_00807_941205_fb_edt.bmp,trustrating_stim/white_mw015.bmp","1,0,0","noMatchOutcome","i","4500","","","","",""
"html-keyboard-response","72","291779","0.0-7.0-3.7","5ee653288976fc3af8448ae6","bdp_wmem","Tue May 11 2021 14:28:37 GMT-0500 (Central Daylight Time)","680958","Match,No Match","","null","","","","","","<div class='trialBorder'><div class='vertical-center'><img src='img/fixation2_sml.jpg'</img></div></div>","null","DELAY","","","","","","","","","","",""
"html-keyboard-response","73","293475","0.0-7.0-4.7","5ee653288976fc3af8448ae6","bdp_wmem","Tue May 11 2021 14:28:37 GMT-0500 (Central Daylight Time)","680958","Match,No Match","","1694","","","","","","<div class='trialBorder'><div class='targDiv'><div class='tc'><img class='introPic' src='trustrating_stim/white_mw015.bmp'><br><font color='green'><strong>Share</strong></font></div></div><div class='respDiv'><div class='respDivL'>Match<br>(e)</div><div class='respDivR'>No Match<br>(i)</div></div></div>","e","TARGET","3","trustrating_stim/white_00050_931230_fa_edt.bmp,trustrating_stim/white_00807_941205_fb_edt.bmp,trustrating_stim/white_mw015.bmp","1,0,0","noMatchOutcome","i","4500","trustrating_stim/white_mw015.bmp","green","Share","REAL","0"
"html-keyboard-response","74","293977","0.0-7.0-5.7","5ee653288976fc3af8448ae6","bdp_wmem","Tue May 11 2021 14:28:37 GMT-0500 (Central Daylight Time)","680958","Match,No Match","","null","","","","","","<div class='trialBorder'><div class='vertical-center'><img src='img/error.jpg'></div><div class='respDiv'><div class='respDivL'><font style='color:orange'>Match<br>(e)</font></div><div class='respDivR'>No Match<br>(i)</div></div></div>","null","FEEDBACK","","","","","","","","","","",""
"html-keyboard-response","75","294478","0.0-7.0-1.8","5ee653288976fc3af8448ae6","bdp_wmem","Tue May 11 2021 14:28:37 GMT-0500 (Central Daylight Time)","680958","Match,No Match","","null","","","","","","<div class='trialBorder'><div class='vertical-center'><img src='img/fixation2_sml.jpg'</img></div></div>","null","FIX","","","","","","","","","","",""
"html-keyboard-response","76","298979","0.0-7.0-2.8","5ee653288976fc3af8448ae6","bdp_wmem","Tue May 11 2021 14:28:37 GMT-0500 (Central Daylight Time)","680958","Match,No Match","","null","","","","","","<div class='trialBorder'><div class='vertical-center'><img style='vertical-align:center; align:center' src='img/fixation2_sml.jpg'></div><div class='arrayDiv3'><div class='tl'><img class='introPic' src='trustrating_stim/white_mw091.bmp'><br><font color='green'><strong>Share</strong></font></div><div class='tc'><img class='introPic' src='trustrating_stim/white_mw070.bmp'><br><font color='red'><strong>Keep</strong></font></div><div class='tr'><img class='introPic' src='trustrating_stim/white_mw033.bmp'><br><font color='red'><strong>Keep</strong></font></div></div></div>","null","ARRAY","3","trustrating_stim/white_mw091.bmp,trustrating_stim/white_mw070.bmp,trustrating_stim/white_mw033.bmp","1,0,0","noMatchOutcome","i","4500","","","","",""
"html-keyboard-response","77","302982","0.0-7.0-3.8","5ee653288976fc3af8448ae6","bdp_wmem","Tue May 11 2021 14:28:37 GMT-0500 (Central Daylight Time)","680958","Match,No Match","","null","","","","","","<div class='trialBorder'><div class='vertical-center'><img src='img/fixation2_sml.jpg'</img></div></div>","null","DELAY","","","","","","","","","","",""
"html-keyboard-response","78","305612","0.0-7.0-4.8","5ee653288976fc3af8448ae6","bdp_wmem","Tue May 11 2021 14:28:37 GMT-0500 (Central Daylight Time)","680958","Match,No Match","","2629","","","","","","<div class='trialBorder'><div class='targDiv'><div class='tc'><img class='introPic' src='trustrating_stim/white_mw070.bmp'><br><font color='green'><strong>Share</strong></font></div></div><div class='respDiv'><div class='respDivL'>Match<br>(e)</div><div class='respDivR'>No Match<br>(i)</div></div></div>","i","TARGET","3","trustrating_stim/white_mw091.bmp,trustrating_stim/white_mw070.bmp,trustrating_stim/white_mw033.bmp","1,0,0","noMatchOutcome","i","4500","trustrating_stim/white_mw070.bmp","green","Share","REAL","1"
"html-keyboard-response","79","306113","0.0-7.0-5.8","5ee653288976fc3af8448ae6","bdp_wmem","Tue May 11 2021 14:28:37 GMT-0500 (Central Daylight Time)","680958","Match,No Match","","null","","","","","","<div class='trialBorder'><div class='vertical-center'><img src='img/correct.jpg'></div><div class='respDiv'><div class='respDivL'>Match<br>(e)</div><div class='respDivR'><font style='color:orange'>No Match<br>(i)</font></div></div></div>","null","FEEDBACK","","","","","","","","","","",""
"html-keyboard-response","80","306614","0.0-7.0-1.9","5ee653288976fc3af8448ae6","bdp_wmem","Tue May 11 2021 14:28:37 GMT-0500 (Central Daylight Time)","680958","Match,No Match","","null","","","","","","<div class='trialBorder'><div class='vertical-center'><img src='img/fixation2_sml.jpg'</img></div></div>","null","FIX","","","","","","","","","","",""
"html-keyboard-response","81","308115","0.0-7.0-2.9","5ee653288976fc3af8448ae6","bdp_wmem","Tue May 11 2021 14:28:37 GMT-0500 (Central Daylight Time)","680958","Match,No Match","","null","","","","","","<div class='trialBorder'><div class='vertical-center'><img style='vertical-align:center; align:center' src='img/fixation2_sml.jpg'></div><div class='arrayDiv1'><div class='tc'><img class='introPic' src='trustrating_stim/white_mw003.bmp'><br><font color='green'><strong>Share</strong></font></div></div></div>","null","ARRAY","1","trustrating_stim/white_mw003.bmp","1","Match","e","1500","","","","",""
"html-keyboard-response","82","312117","0.0-7.0-3.9","5ee653288976fc3af8448ae6","bdp_wmem","Tue May 11 2021 14:28:37 GMT-0500 (Central Daylight Time)","680958","Match,No Match","","null","","","","","","<div class='trialBorder'><div class='vertical-center'><img src='img/fixation2_sml.jpg'</img></div></div>","null","DELAY","","","","","","","","","","",""
"html-keyboard-response","83","313291","0.0-7.0-4.9","5ee653288976fc3af8448ae6","bdp_wmem","Tue May 11 2021 14:28:37 GMT-0500 (Central Daylight Time)","680958","Match,No Match","","1172","","","","","","<div class='trialBorder'><div class='targDiv'><div class='tc'><img class='introPic' src='trustrating_stim/white_mw003.bmp'><br><font color='green'><strong>Share</strong></font></div></div><div class='respDiv'><div class='respDivL'>Match<br>(e)</div><div class='respDivR'>No Match<br>(i)</div></div></div>","e","TARGET","1","trustrating_stim/white_mw003.bmp","1","Match","e","1500","trustrating_stim/white_mw003.bmp","green","Share","REAL","1"
"html-keyboard-response","84","313794","0.0-7.0-5.9","5ee653288976fc3af8448ae6","bdp_wmem","Tue May 11 2021 14:28:37 GMT-0500 (Central Daylight Time)","680958","Match,No Match","","null","","","","","","<div class='trialBorder'><div class='vertical-center'><img src='img/correct.jpg'></div><div class='respDiv'><div class='respDivL'><font style='color:orange'>Match<br>(e)</font></div><div class='respDivR'>No Match<br>(i)</div></div></div>","null","FEEDBACK","","","","","","","","","","",""
"html-keyboard-response","85","314299","0.0-7.0-1.10","5ee653288976fc3af8448ae6","bdp_wmem","Tue May 11 2021 14:28:37 GMT-0500 (Central Daylight Time)","680958","Match,No Match","","null","","","","","","<div class='trialBorder'><div class='vertical-center'><img src='img/fixation2_sml.jpg'</img></div></div>","null","FIX","","","","","","","","","","",""
"html-keyboard-response","86","317300","0.0-7.0-2.10","5ee653288976fc3af8448ae6","bdp_wmem","Tue May 11 2021 14:28:37 GMT-0500 (Central Daylight Time)","680958","Match,No Match","","null","","","","","","<div class='trialBorder'><div class='vertical-center'><img style='vertical-align:center; align:center' src='img/fixation2_sml.jpg'></div><div class='arrayDiv2'><div class='tl'><img class='introPic' src='trustrating_stim/white_mw012.bmp'><br><font color='green'><strong>Share</strong></font></div><div class='tr'><img class='introPic' src='trustrating_stim/white_mw038.bmp'><br><font color='red'><strong>Keep</strong></font></div></div></div>","null","ARRAY","2","trustrating_stim/white_mw012.bmp,trustrating_stim/white_mw038.bmp","1,0","Match","e","3000","","","","",""
"html-keyboard-response","87","321301","0.0-7.0-3.10","5ee653288976fc3af8448ae6","bdp_wmem","Tue May 11 2021 14:28:37 GMT-0500 (Central Daylight Time)","680958","Match,No Match","","null","","","","","","<div class='trialBorder'><div class='vertical-center'><img src='img/fixation2_sml.jpg'</img></div></div>","null","DELAY","","","","","","","","","","",""
"html-keyboard-response","88","322692","0.0-7.0-4.10","5ee653288976fc3af8448ae6","bdp_wmem","Tue May 11 2021 14:28:37 GMT-0500 (Central Daylight Time)","680958","Match,No Match","","1389","","","","","","<div class='trialBorder'><div class='targDiv'><div class='tc'><img class='introPic' src='trustrating_stim/white_mw012.bmp'><br><font color='green'><strong>Share</strong></font></div></div><div class='respDiv'><div class='respDivL'>Match<br>(e)</div><div class='respDivR'>No Match<br>(i)</div></div></div>","e","TARGET","2","trustrating_stim/white_mw012.bmp,trustrating_stim/white_mw038.bmp","1,0","Match","e","3000","trustrating_stim/white_mw012.bmp","green","Share","REAL","1"
"html-keyboard-response","89","323193","0.0-7.0-5.10","5ee653288976fc3af8448ae6","bdp_wmem","Tue May 11 2021 14:28:37 GMT-0500 (Central Daylight Time)","680958","Match,No Match","","null","","","","","","<div class='trialBorder'><div class='vertical-center'><img src='img/correct.jpg'></div><div class='respDiv'><div class='respDivL'><font style='color:orange'>Match<br>(e)</font></div><div class='respDivR'>No Match<br>(i)</div></div></div>","null","FEEDBACK","","","","","","","","","","",""
"html-keyboard-response","90","323698","0.0-7.0-1.11","5ee653288976fc3af8448ae6","bdp_wmem","Tue May 11 2021 14:28:37 GMT-0500 (Central Daylight Time)","680958","Match,No Match","","null","","","","","","<div class='trialBorder'><div class='vertical-center'><img src='img/fixation2_sml.jpg'</img></div></div>","null","FIX","","","","","","","","","","",""
"html-keyboard-response","91","325201","0.0-7.0-2.11","5ee653288976fc3af8448ae6","bdp_wmem","Tue May 11 2021 14:28:37 GMT-0500 (Central Daylight Time)","680958","Match,No Match","","null","","","","","","<div class='trialBorder'><div class='vertical-center'><img style='vertical-align:center; align:center' src='img/fixation2_sml.jpg'></div><div class='arrayDiv1'><div class='tc'><img class='introPic' src='trustrating_stim/white_00807_941205_fb_edt.bmp'><br><font color='red'><strong>Keep</strong></font></div></div></div>","null","ARRAY","1","trustrating_stim/white_00807_941205_fb_edt.bmp","0","noMatchOutcome","i","1500","","","","",""
"html-keyboard-response","92","329203","0.0-7.0-3.11","5ee653288976fc3af8448ae6","bdp_wmem","Tue May 11 2021 14:28:37 GMT-0500 (Central Daylight Time)","680958","Match,No Match","","null","","","","","","<div class='trialBorder'><div class='vertical-center'><img src='img/fixation2_sml.jpg'</img></div></div>","null","DELAY","","","","","","","","","","",""
"html-keyboard-response","93","330372","0.0-7.0-4.11","5ee653288976fc3af8448ae6","bdp_wmem","Tue May 11 2021 14:28:37 GMT-0500 (Central Daylight Time)","680958","Match,No Match","","1168","","","","","","<div class='trialBorder'><div class='targDiv'><div class='tc'><img class='introPic' src='trustrating_stim/white_00807_941205_fb_edt.bmp'><br><font color='green'><strong>Share</strong></font></div></div><div class='respDiv'><div class='respDivL'>Match<br>(e)</div><div class='respDivR'>No Match<br>(i)</div></div></div>","i","TARGET","1","trustrating_stim/white_00807_941205_fb_edt.bmp","0","noMatchOutcome","i","1500","trustrating_stim/white_00807_941205_fb_edt.bmp","green","Share","REAL","1"
"html-keyboard-response","94","330873","0.0-7.0-5.11","5ee653288976fc3af8448ae6","bdp_wmem","Tue May 11 2021 14:28:37 GMT-0500 (Central Daylight Time)","680958","Match,No Match","","null","","","","","","<div class='trialBorder'><div class='vertical-center'><img src='img/correct.jpg'></div><div class='respDiv'><div class='respDivL'>Match<br>(e)</div><div class='respDivR'><font style='color:orange'>No Match<br>(i)</font></div></div></div>","null","FEEDBACK","","","","","","","","","","",""
"html-keyboard-response","95","331376","0.0-7.0-1.12","5ee653288976fc3af8448ae6","bdp_wmem","Tue May 11 2021 14:28:37 GMT-0500 (Central Daylight Time)","680958","Match,No Match","","null","","","","","","<div class='trialBorder'><div class='vertical-center'><img src='img/fixation2_sml.jpg'</img></div></div>","null","FIX","","","","","","","","","","",""
"html-keyboard-response","96","335880","0.0-7.0-2.12","5ee653288976fc3af8448ae6","bdp_wmem","Tue May 11 2021 14:28:37 GMT-0500 (Central Daylight Time)","680958","Match,No Match","","null","","","","","","<div class='trialBorder'><div class='vertical-center'><img style='vertical-align:center; align:center' src='img/fixation2_sml.jpg'></div><div class='arrayDiv3'><div class='tl'><img class='introPic' src='trustrating_stim/white_mw092.bmp'><br><font color='red'><strong>Keep</strong></font></div><div class='tc'><img class='introPic' src='trustrating_stim/white_mw003.bmp'><br><font color='green'><strong>Share</strong></font></div><div class='tr'><img class='introPic' src='trustrating_stim/white_mw013.bmp'><br><font color='green'><strong>Share</strong></font></div></div></div>","null","ARRAY","3","trustrating_stim/white_mw092.bmp,trustrating_stim/white_mw003.bmp,trustrating_stim/white_mw013.bmp","0,1,1","Match","e","4500","","","","",""
"html-keyboard-response","97","339890","0.0-7.0-3.12","5ee653288976fc3af8448ae6","bdp_wmem","Tue May 11 2021 14:28:37 GMT-0500 (Central Daylight Time)","680958","Match,No Match","","null","","","","","","<div class='trialBorder'><div class='vertical-center'><img src='img/fixation2_sml.jpg'</img></div></div>","null","DELAY","","","","","","","","","","",""
"html-keyboard-response","98","341421","0.0-7.0-4.12","5ee653288976fc3af8448ae6","bdp_wmem","Tue May 11 2021 14:28:37 GMT-0500 (Central Daylight Time)","680958","Match,No Match","","1527","","","","","","<div class='trialBorder'><div class='targDiv'><div class='tc'><img class='introPic' src='trustrating_stim/white_mw092.bmp'><br><font color='red'><strong>Keep</strong></font></div></div><div class='respDiv'><div class='respDivL'>Match<br>(e)</div><div class='respDivR'>No Match<br>(i)</div></div></div>","e","TARGET","3","trustrating_stim/white_mw092.bmp,trustrating_stim/white_mw003.bmp,trustrating_stim/white_mw013.bmp","0,1,1","Match","e","4500","trustrating_stim/white_mw092.bmp","red","Keep","REAL","1"
"html-keyboard-response","99","341922","0.0-7.0-5.12","5ee653288976fc3af8448ae6","bdp_wmem","Tue May 11 2021 14:28:37 GMT-0500 (Central Daylight Time)","680958","Match,No Match","","null","","","","","","<div class='trialBorder'><div class='vertical-center'><img src='img/correct.jpg'></div><div class='respDiv'><div class='respDivL'><font style='color:orange'>Match<br>(e)</font></div><div class='respDivR'>No Match<br>(i)</div></div></div>","null","FEEDBACK","","","","","","","","","","",""
"html-keyboard-response","100","342423","0.0-7.0-1.13","5ee653288976fc3af8448ae6","bdp_wmem","Tue May 11 2021 14:28:37 GMT-0500 (Central Daylight Time)","680958","Match,No Match","","null","","","","","","<div class='trialBorder'><div class='vertical-center'><img src='img/fixation2_sml.jpg'</img></div></div>","null","FIX","","","","","","","","","","",""
"html-keyboard-response","101","346926","0.0-7.0-2.13","5ee653288976fc3af8448ae6","bdp_wmem","Tue May 11 2021 14:28:37 GMT-0500 (Central Daylight Time)","680958","Match,No Match","","null","","","","","","<div class='trialBorder'><div class='vertical-center'><img style='vertical-align:center; align:center' src='img/fixation2_sml.jpg'></div><div class='arrayDiv3'><div class='tl'><img class='introPic' src='trustrating_stim/white_00050_931230_fa_edt.bmp'><br><font color='green'><strong>Share</strong></font></div><div class='tc'><img class='introPic' src='trustrating_stim/white_mw012.bmp'><br><font color='red'><strong>Keep</strong></font></div><div class='tr'><img class='introPic' src='trustrating_stim/white_mw015.bmp'><br><font color='red'><strong>Keep</strong></font></div></div></div>","null","ARRAY","3","trustrating_stim/white_00050_931230_fa_edt.bmp,trustrating_stim/white_mw012.bmp,trustrating_stim/white_mw015.bmp","1,0,0","Match","e","4500","","","","",""
"html-keyboard-response","102","350927","0.0-7.0-3.13","5ee653288976fc3af8448ae6","bdp_wmem","Tue May 11 2021 14:28:37 GMT-0500 (Central Daylight Time)","680958","Match,No Match","","null","","","","","","<div class='trialBorder'><div class='vertical-center'><img src='img/fixation2_sml.jpg'</img></div></div>","null","DELAY","","","","","","","","","","",""
"html-keyboard-response","103","353340","0.0-7.0-4.13","5ee653288976fc3af8448ae6","bdp_wmem","Tue May 11 2021 14:28:37 GMT-0500 (Central Daylight Time)","680958","Match,No Match","","2412","","","","","","<div class='trialBorder'><div class='targDiv'><div class='tc'><img class='introPic' src='trustrating_stim/white_mw012.bmp'><br><font color='red'><strong>Keep</strong></font></div></div><div class='respDiv'><div class='respDivL'>Match<br>(e)</div><div class='respDivR'>No Match<br>(i)</div></div></div>","e","TARGET","3","trustrating_stim/white_00050_931230_fa_edt.bmp,trustrating_stim/white_mw012.bmp,trustrating_stim/white_mw015.bmp","1,0,0","Match","e","4500","trustrating_stim/white_mw012.bmp","red","Keep","REAL","1"
"html-keyboard-response","104","353843","0.0-7.0-5.13","5ee653288976fc3af8448ae6","bdp_wmem","Tue May 11 2021 14:28:37 GMT-0500 (Central Daylight Time)","680958","Match,No Match","","null","","","","","","<div class='trialBorder'><div class='vertical-center'><img src='img/correct.jpg'></div><div class='respDiv'><div class='respDivL'><font style='color:orange'>Match<br>(e)</font></div><div class='respDivR'>No Match<br>(i)</div></div></div>","null","FEEDBACK","","","","","","","","","","",""
"html-keyboard-response","105","354345","0.0-7.0-1.14","5ee653288976fc3af8448ae6","bdp_wmem","Tue May 11 2021 14:28:37 GMT-0500 (Central Daylight Time)","680958","Match,No Match","","null","","","","","","<div class='trialBorder'><div class='vertical-center'><img src='img/fixation2_sml.jpg'</img></div></div>","null","FIX","","","","","","","","","","",""
"html-keyboard-response","106","357346","0.0-7.0-2.14","5ee653288976fc3af8448ae6","bdp_wmem","Tue May 11 2021 14:28:37 GMT-0500 (Central Daylight Time)","680958","Match,No Match","","null","","","","","","<div class='trialBorder'><div class='vertical-center'><img style='vertical-align:center; align:center' src='img/fixation2_sml.jpg'></div><div class='arrayDiv2'><div class='tl'><img class='introPic' src='trustrating_stim/white_mw012.bmp'><br><font color='red'><strong>Keep</strong></font></div><div class='tr'><img class='introPic' src='trustrating_stim/white_mw003.bmp'><br><font color='green'><strong>Share</strong></font></div></div></div>","null","ARRAY","2","trustrating_stim/white_mw012.bmp,trustrating_stim/white_mw003.bmp","0,1","Match","e","3000","","","","",""
"html-keyboard-response","107","361348","0.0-7.0-3.14","5ee653288976fc3af8448ae6","bdp_wmem","Tue May 11 2021 14:28:37 GMT-0500 (Central Daylight Time)","680958","Match,No Match","","null","","","","","","<div class='trialBorder'><div class='vertical-center'><img src='img/fixation2_sml.jpg'</img></div></div>","null","DELAY","","","","","","","","","","",""
"html-keyboard-response","108","364549","0.0-7.0-4.14","5ee653288976fc3af8448ae6","bdp_wmem","Tue May 11 2021 14:28:37 GMT-0500 (Central Daylight Time)","680958","Match,No Match","","3200","","","","","","<div class='trialBorder'><div class='targDiv'><div class='tc'><img class='introPic' src='trustrating_stim/white_mw003.bmp'><br><font color='green'><strong>Share</strong></font></div></div><div class='respDiv'><div class='respDivL'>Match<br>(e)</div><div class='respDivR'>No Match<br>(i)</div></div></div>","i","TARGET","2","trustrating_stim/white_mw012.bmp,trustrating_stim/white_mw003.bmp","0,1","Match","e","3000","trustrating_stim/white_mw003.bmp","green","Share","REAL","0"
"html-keyboard-response","109","365050","0.0-7.0-5.14","5ee653288976fc3af8448ae6","bdp_wmem","Tue May 11 2021 14:28:37 GMT-0500 (Central Daylight Time)","680958","Match,No Match","","null","","","","","","<div class='trialBorder'><div class='vertical-center'><img src='img/error.jpg'></div><div class='respDiv'><div class='respDivL'>Match<br>(e)</div><div class='respDivR'><font style='color:orange'>No Match<br>(i)</font></div></div></div>","null","FEEDBACK","","","","","","","","","","",""
"html-keyboard-response","110","365552","0.0-7.0-1.15","5ee653288976fc3af8448ae6","bdp_wmem","Tue May 11 2021 14:28:37 GMT-0500 (Central Daylight Time)","680958","Match,No Match","","null","","","","","","<div class='trialBorder'><div class='vertical-center'><img src='img/fixation2_sml.jpg'</img></div></div>","null","FIX","","","","","","","","","","",""
"html-keyboard-response","111","370054","0.0-7.0-2.15","5ee653288976fc3af8448ae6","bdp_wmem","Tue May 11 2021 14:28:37 GMT-0500 (Central Daylight Time)","680958","Match,No Match","","null","","","","","","<div class='trialBorder'><div class='vertical-center'><img style='vertical-align:center; align:center' src='img/fixation2_sml.jpg'></div><div class='arrayDiv3'><div class='tl'><img class='introPic' src='trustrating_stim/white_mw003.bmp'><br><font color='green'><strong>Share</strong></font></div><div class='tc'><img class='introPic' src='trustrating_stim/white_mw091.bmp'><br><font color='red'><strong>Keep</strong></font></div><div class='tr'><img class='introPic' src='trustrating_stim/white_mw070.bmp'><br><font color='red'><strong>Keep</strong></font></div></div></div>","null","ARRAY","3","trustrating_stim/white_mw003.bmp,trustrating_stim/white_mw091.bmp,trustrating_stim/white_mw070.bmp","1,0,0","noMatchOutcome","i","4500","","","","",""
"html-keyboard-response","112","374058","0.0-7.0-3.15","5ee653288976fc3af8448ae6","bdp_wmem","Tue May 11 2021 14:28:37 GMT-0500 (Central Daylight Time)","680958","Match,No Match","","null","","","","","","<div class='trialBorder'><div class='vertical-center'><img src='img/fixation2_sml.jpg'</img></div></div>","null","DELAY","","","","","","","","","","",""
"html-keyboard-response","113","375605","0.0-7.0-4.15","5ee653288976fc3af8448ae6","bdp_wmem","Tue May 11 2021 14:28:37 GMT-0500 (Central Daylight Time)","680958","Match,No Match","","1544","","","","","","<div class='trialBorder'><div class='targDiv'><div class='tc'><img class='introPic' src='trustrating_stim/white_mw070.bmp'><br><font color='green'><strong>Share</strong></font></div></div><div class='respDiv'><div class='respDivL'>Match<br>(e)</div><div class='respDivR'>No Match<br>(i)</div></div></div>","i","TARGET","3","trustrating_stim/white_mw003.bmp,trustrating_stim/white_mw091.bmp,trustrating_stim/white_mw070.bmp","1,0,0","noMatchOutcome","i","4500","trustrating_stim/white_mw070.bmp","green","Share","REAL","1"
"html-keyboard-response","114","376116","0.0-7.0-5.15","5ee653288976fc3af8448ae6","bdp_wmem","Tue May 11 2021 14:28:37 GMT-0500 (Central Daylight Time)","680958","Match,No Match","","null","","","","","","<div class='trialBorder'><div class='vertical-center'><img src='img/correct.jpg'></div><div class='respDiv'><div class='respDivL'>Match<br>(e)</div><div class='respDivR'><font style='color:orange'>No Match<br>(i)</font></div></div></div>","null","FEEDBACK","","","","","","","","","","",""
"html-keyboard-response","115","376618","0.0-7.0-1.16","5ee653288976fc3af8448ae6","bdp_wmem","Tue May 11 2021 14:28:37 GMT-0500 (Central Daylight Time)","680958","Match,No Match","","null","","","","","","<div class='trialBorder'><div class='vertical-center'><img src='img/fixation2_sml.jpg'</img></div></div>","null","FIX","","","","","","","","","","",""
"html-keyboard-response","116","378119","0.0-7.0-2.16","5ee653288976fc3af8448ae6","bdp_wmem","Tue May 11 2021 14:28:37 GMT-0500 (Central Daylight Time)","680958","Match,No Match","","null","","","","","","<div class='trialBorder'><div class='vertical-center'><img style='vertical-align:center; align:center' src='img/fixation2_sml.jpg'></div><div class='arrayDiv1'><div class='tc'><img class='introPic' src='trustrating_stim/white_mw038.bmp'><br><font color='red'><strong>Keep</strong></font></div></div></div>","null","ARRAY","1","trustrating_stim/white_mw038.bmp","0","noMatchOutcome","i","1500","","","","",""
"html-keyboard-response","117","382125","0.0-7.0-3.16","5ee653288976fc3af8448ae6","bdp_wmem","Tue May 11 2021 14:28:37 GMT-0500 (Central Daylight Time)","680958","Match,No Match","","null","","","","","","<div class='trialBorder'><div class='vertical-center'><img src='img/fixation2_sml.jpg'</img></div></div>","null","DELAY","","","","","","","","","","",""
"html-keyboard-response","118","383365","0.0-7.0-4.16","5ee653288976fc3af8448ae6","bdp_wmem","Tue May 11 2021 14:28:37 GMT-0500 (Central Daylight Time)","680958","Match,No Match","","1239","","","","","","<div class='trialBorder'><div class='targDiv'><div class='tc'><img class='introPic' src='trustrating_stim/white_mw038.bmp'><br><font color='green'><strong>Share</strong></font></div></div><div class='respDiv'><div class='respDivL'>Match<br>(e)</div><div class='respDivR'>No Match<br>(i)</div></div></div>","i","TARGET","1","trustrating_stim/white_mw038.bmp","0","noMatchOutcome","i","1500","trustrating_stim/white_mw038.bmp","green","Share","REAL","1"
"html-keyboard-response","119","383866","0.0-7.0-5.16","5ee653288976fc3af8448ae6","bdp_wmem","Tue May 11 2021 14:28:37 GMT-0500 (Central Daylight Time)","680958","Match,No Match","","null","","","","","","<div class='trialBorder'><div class='vertical-center'><img src='img/correct.jpg'></div><div class='respDiv'><div class='respDivL'>Match<br>(e)</div><div class='respDivR'><font style='color:orange'>No Match<br>(i)</font></div></div></div>","null","FEEDBACK","","","","","","","","","","",""
"html-keyboard-response","120","384382","0.0-7.0-1.17","5ee653288976fc3af8448ae6","bdp_wmem","Tue May 11 2021 14:28:37 GMT-0500 (Central Daylight Time)","680958","Match,No Match","","null","","","","","","<div class='trialBorder'><div class='vertical-center'><img src='img/fixation2_sml.jpg'</img></div></div>","null","FIX","","","","","","","","","","",""
"html-keyboard-response","121","385884","0.0-7.0-2.17","5ee653288976fc3af8448ae6","bdp_wmem","Tue May 11 2021 14:28:37 GMT-0500 (Central Daylight Time)","680958","Match,No Match","","null","","","","","","<div class='trialBorder'><div class='vertical-center'><img style='vertical-align:center; align:center' src='img/fixation2_sml.jpg'></div><div class='arrayDiv1'><div class='tc'><img class='introPic' src='trustrating_stim/white_mw003.bmp'><br><font color='green'><strong>Share</strong></font></div></div></div>","null","ARRAY","1","trustrating_stim/white_mw003.bmp","1","noMatchFace","i","1500","","","","",""
"html-keyboard-response","122","389886","0.0-7.0-3.17","5ee653288976fc3af8448ae6","bdp_wmem","Tue May 11 2021 14:28:37 GMT-0500 (Central Daylight Time)","680958","Match,No Match","","null","","","","","","<div class='trialBorder'><div class='vertical-center'><img src='img/fixation2_sml.jpg'</img></div></div>","null","DELAY","","","","","","","","","","",""
"html-keyboard-response","123","391174","0.0-7.0-4.17","5ee653288976fc3af8448ae6","bdp_wmem","Tue May 11 2021 14:28:37 GMT-0500 (Central Daylight Time)","680958","Match,No Match","","1286","","","","","","<div class='trialBorder'><div class='targDiv'><div class='tc'><img class='introPic' src='trustrating_stim/white_mw015.bmp'><br><font color='green'><strong>Share</strong></font></div></div><div class='respDiv'><div class='respDivL'>Match<br>(e)</div><div class='respDivR'>No Match<br>(i)</div></div></div>","i","TARGET","1","trustrating_stim/white_mw003.bmp","1","noMatchFace","i","1500","trustrating_stim/white_mw015.bmp","green","Share","REAL","1"
"html-keyboard-response","124","391681","0.0-7.0-5.17","5ee653288976fc3af8448ae6","bdp_wmem","Tue May 11 2021 14:28:37 GMT-0500 (Central Daylight Time)","680958","Match,No Match","","null","","","","","","<div class='trialBorder'><div class='vertical-center'><img src='img/correct.jpg'></div><div class='respDiv'><div class='respDivL'>Match<br>(e)</div><div class='respDivR'><font style='color:orange'>No Match<br>(i)</font></div></div></div>","null","FEEDBACK","","","","","","","","","","",""
"html-keyboard-response","125","392183","0.0-7.0-1.18","5ee653288976fc3af8448ae6","bdp_wmem","Tue May 11 2021 14:28:37 GMT-0500 (Central Daylight Time)","680958","Match,No Match","","null","","","","","","<div class='trialBorder'><div class='vertical-center'><img src='img/fixation2_sml.jpg'</img></div></div>","null","FIX","","","","","","","","","","",""
"html-keyboard-response","126","395194","0.0-7.0-2.18","5ee653288976fc3af8448ae6","bdp_wmem","Tue May 11 2021 14:28:37 GMT-0500 (Central Daylight Time)","680958","Match,No Match","","null","","","","","","<div class='trialBorder'><div class='vertical-center'><img style='vertical-align:center; align:center' src='img/fixation2_sml.jpg'></div><div class='arrayDiv2'><div class='tl'><img class='introPic' src='trustrating_stim/white_00050_931230_fa_edt.bmp'><br><font color='green'><strong>Share</strong></font></div><div class='tr'><img class='introPic' src='trustrating_stim/white_mw033.bmp'><br><font color='red'><strong>Keep</strong></font></div></div></div>","null","ARRAY","2","trustrating_stim/white_00050_931230_fa_edt.bmp,trustrating_stim/white_mw033.bmp","1,0","Match","e","3000","","","","",""
"html-keyboard-response","127","399195","0.0-7.0-3.18","5ee653288976fc3af8448ae6","bdp_wmem","Tue May 11 2021 14:28:37 GMT-0500 (Central Daylight Time)","680958","Match,No Match","","null","","","","","","<div class='trialBorder'><div class='vertical-center'><img src='img/fixation2_sml.jpg'</img></div></div>","null","DELAY","","","","","","","","","","",""
"html-keyboard-response","128","400765","0.0-7.0-4.18","5ee653288976fc3af8448ae6","bdp_wmem","Tue May 11 2021 14:28:37 GMT-0500 (Central Daylight Time)","680958","Match,No Match","","1569","","","","","","<div class='trialBorder'><div class='targDiv'><div class='tc'><img class='introPic' src='trustrating_stim/white_00050_931230_fa_edt.bmp'><br><font color='green'><strong>Share</strong></font></div></div><div class='respDiv'><div class='respDivL'>Match<br>(e)</div><div class='respDivR'>No Match<br>(i)</div></div></div>","e","TARGET","2","trustrating_stim/white_00050_931230_fa_edt.bmp,trustrating_stim/white_mw033.bmp","1,0","Match","e","3000","trustrating_stim/white_00050_931230_fa_edt.bmp","green","Share","REAL","1"
"html-keyboard-response","129","401267","0.0-7.0-5.18","5ee653288976fc3af8448ae6","bdp_wmem","Tue May 11 2021 14:28:37 GMT-0500 (Central Daylight Time)","680958","Match,No Match","","null","","","","","","<div class='trialBorder'><div class='vertical-center'><img src='img/correct.jpg'></div><div class='respDiv'><div class='respDivL'><font style='color:orange'>Match<br>(e)</font></div><div class='respDivR'>No Match<br>(i)</div></div></div>","null","FEEDBACK","","","","","","","","","","",""
"html-keyboard-response","130","401769","0.0-7.0-1.19","5ee653288976fc3af8448ae6","bdp_wmem","Tue May 11 2021 14:28:37 GMT-0500 (Central Daylight Time)","680958","Match,No Match","","null","","","","","","<div class='trialBorder'><div class='vertical-center'><img src='img/fixation2_sml.jpg'</img></div></div>","null","FIX","","","","","","","","","","",""
"html-keyboard-response","131","406270","0.0-7.0-2.19","5ee653288976fc3af8448ae6","bdp_wmem","Tue May 11 2021 14:28:37 GMT-0500 (Central Daylight Time)","680958","Match,No Match","","null","","","","","","<div class='trialBorder'><div class='vertical-center'><img style='vertical-align:center; align:center' src='img/fixation2_sml.jpg'></div><div class='arrayDiv3'><div class='tl'><img class='introPic' src='trustrating_stim/white_mw013.bmp'><br><font color='green'><strong>Share</strong></font></div><div class='tc'><img class='introPic' src='trustrating_stim/white_mw092.bmp'><br><font color='red'><strong>Keep</strong></font></div><div class='tr'><img class='introPic' src='trustrating_stim/white_mw003.bmp'><br><font color='red'><strong>Keep</strong></font></div></div></div>","null","ARRAY","3","trustrating_stim/white_mw013.bmp,trustrating_stim/white_mw092.bmp,trustrating_stim/white_mw003.bmp","1,0,0","noMatchFace","i","4500","","","","",""
"html-keyboard-response","132","410272","0.0-7.0-3.19","5ee653288976fc3af8448ae6","bdp_wmem","Tue May 11 2021 14:28:37 GMT-0500 (Central Daylight Time)","680958","Match,No Match","","null","","","","","","<div class='trialBorder'><div class='vertical-center'><img src='img/fixation2_sml.jpg'</img></div></div>","null","DELAY","","","","","","","","","","",""
"html-keyboard-response","133","411903","0.0-7.0-4.19","5ee653288976fc3af8448ae6","bdp_wmem","Tue May 11 2021 14:28:37 GMT-0500 (Central Daylight Time)","680958","Match,No Match","","1630","","","","","","<div class='trialBorder'><div class='targDiv'><div class='tc'><img class='introPic' src='trustrating_stim/white_mw012.bmp'><br><font color='red'><strong>Keep</strong></font></div></div><div class='respDiv'><div class='respDivL'>Match<br>(e)</div><div class='respDivR'>No Match<br>(i)</div></div></div>","e","TARGET","3","trustrating_stim/white_mw013.bmp,trustrating_stim/white_mw092.bmp,trustrating_stim/white_mw003.bmp","1,0,0","noMatchFace","i","4500","trustrating_stim/white_mw012.bmp","red","Keep","REAL","0"
"html-keyboard-response","134","412404","0.0-7.0-5.19","5ee653288976fc3af8448ae6","bdp_wmem","Tue May 11 2021 14:28:37 GMT-0500 (Central Daylight Time)","680958","Match,No Match","","null","","","","","","<div class='trialBorder'><div class='vertical-center'><img src='img/error.jpg'></div><div class='respDiv'><div class='respDivL'><font style='color:orange'>Match<br>(e)</font></div><div class='respDivR'>No Match<br>(i)</div></div></div>","null","FEEDBACK","","","","","","","","","","",""
"html-keyboard-response","135","412914","0.0-7.0-1.20","5ee653288976fc3af8448ae6","bdp_wmem","Tue May 11 2021 14:28:37 GMT-0500 (Central Daylight Time)","680958","Match,No Match","","null","","","","","","<div class='trialBorder'><div class='vertical-center'><img src='img/fixation2_sml.jpg'</img></div></div>","null","FIX","","","","","","","","","","",""
"html-keyboard-response","136","417416","0.0-7.0-2.20","5ee653288976fc3af8448ae6","bdp_wmem","Tue May 11 2021 14:28:37 GMT-0500 (Central Daylight Time)","680958","Match,No Match","","null","","","","","","<div class='trialBorder'><div class='vertical-center'><img style='vertical-align:center; align:center' src='img/fixation2_sml.jpg'></div><div class='arrayDiv3'><div class='tl'><img class='introPic' src='trustrating_stim/white_mw033.bmp'><br><font color='red'><strong>Keep</strong></font></div><div class='tc'><img class='introPic' src='trustrating_stim/white_mw012.bmp'><br><font color='green'><strong>Share</strong></font></div><div class='tr'><img class='introPic' src='trustrating_stim/white_mw091.bmp'><br><font color='red'><strong>Keep</strong></font></div></div></div>","null","ARRAY","3","trustrating_stim/white_mw033.bmp,trustrating_stim/white_mw012.bmp,trustrating_stim/white_mw091.bmp","0,1,0","noMatchFace","i","4500","","","","",""
"html-keyboard-response","137","421417","0.0-7.0-3.20","5ee653288976fc3af8448ae6","bdp_wmem","Tue May 11 2021 14:28:37 GMT-0500 (Central Daylight Time)","680958","Match,No Match","","null","","","","","","<div class='trialBorder'><div class='vertical-center'><img src='img/fixation2_sml.jpg'</img></div></div>","null","DELAY","","","","","","","","","","",""
"html-keyboard-response","138","422607","0.0-7.0-4.20","5ee653288976fc3af8448ae6","bdp_wmem","Tue May 11 2021 14:28:37 GMT-0500 (Central Daylight Time)","680958","Match,No Match","","1189","","","","","","<div class='trialBorder'><div class='targDiv'><div class='tc'><img class='introPic' src='trustrating_stim/white_00807_941205_fb_edt.bmp'><br><font color='green'><strong>Share</strong></font></div></div><div class='respDiv'><div class='respDivL'>Match<br>(e)</div><div class='respDivR'>No Match<br>(i)</div></div></div>","i","TARGET","3","trustrating_stim/white_mw033.bmp,trustrating_stim/white_mw012.bmp,trustrating_stim/white_mw091.bmp","0,1,0","noMatchFace","i","4500","trustrating_stim/white_00807_941205_fb_edt.bmp","green","Share","REAL","1"
"html-keyboard-response","139","423109","0.0-7.0-5.20","5ee653288976fc3af8448ae6","bdp_wmem","Tue May 11 2021 14:28:37 GMT-0500 (Central Daylight Time)","680958","Match,No Match","","null","","","","","","<div class='trialBorder'><div class='vertical-center'><img src='img/correct.jpg'></div><div class='respDiv'><div class='respDivL'>Match<br>(e)</div><div class='respDivR'><font style='color:orange'>No Match<br>(i)</font></div></div></div>","null","FEEDBACK","","","","","","","","","","",""
"html-keyboard-response","140","423612","0.0-7.0-1.21","5ee653288976fc3af8448ae6","bdp_wmem","Tue May 11 2021 14:28:37 GMT-0500 (Central Daylight Time)","680958","Match,No Match","","null","","","","","","<div class='trialBorder'><div class='vertical-center'><img src='img/fixation2_sml.jpg'</img></div></div>","null","FIX","","","","","","","","","","",""
"html-keyboard-response","141","425113","0.0-7.0-2.21","5ee653288976fc3af8448ae6","bdp_wmem","Tue May 11 2021 14:28:37 GMT-0500 (Central Daylight Time)","680958","Match,No Match","","null","","","","","","<div class='trialBorder'><div class='vertical-center'><img style='vertical-align:center; align:center' src='img/fixation2_sml.jpg'></div><div class='arrayDiv1'><div class='tc'><img class='introPic' src='trustrating_stim/white_mw015.bmp'><br><font color='green'><strong>Share</strong></font></div></div></div>","null","ARRAY","1","trustrating_stim/white_mw015.bmp","1","Match","e","1500","","","","",""
"html-keyboard-response","142","429115","0.0-7.0-3.21","5ee653288976fc3af8448ae6","bdp_wmem","Tue May 11 2021 14:28:37 GMT-0500 (Central Daylight Time)","680958","Match,No Match","","null","","","","","","<div class='trialBorder'><div class='vertical-center'><img src='img/fixation2_sml.jpg'</img></div></div>","null","DELAY","","","","","","","","","","",""
"html-keyboard-response","143","430344","0.0-7.0-4.21","5ee653288976fc3af8448ae6","bdp_wmem","Tue May 11 2021 14:28:37 GMT-0500 (Central Daylight Time)","680958","Match,No Match","","1227","","","","","","<div class='trialBorder'><div class='targDiv'><div class='tc'><img class='introPic' src='trustrating_stim/white_mw015.bmp'><br><font color='green'><strong>Share</strong></font></div></div><div class='respDiv'><div class='respDivL'>Match<br>(e)</div><div class='respDivR'>No Match<br>(i)</div></div></div>","e","TARGET","1","trustrating_stim/white_mw015.bmp","1","Match","e","1500","trustrating_stim/white_mw015.bmp","green","Share","REAL","1"
"html-keyboard-response","144","430848","0.0-7.0-5.21","5ee653288976fc3af8448ae6","bdp_wmem","Tue May 11 2021 14:28:37 GMT-0500 (Central Daylight Time)","680958","Match,No Match","","null","","","","","","<div class='trialBorder'><div class='vertical-center'><img src='img/correct.jpg'></div><div class='respDiv'><div class='respDivL'><font style='color:orange'>Match<br>(e)</font></div><div class='respDivR'>No Match<br>(i)</div></div></div>","null","FEEDBACK","","","","","","","","","","",""
"html-keyboard-response","145","431350","0.0-7.0-1.22","5ee653288976fc3af8448ae6","bdp_wmem","Tue May 11 2021 14:28:37 GMT-0500 (Central Daylight Time)","680958","Match,No Match","","null","","","","","","<div class='trialBorder'><div class='vertical-center'><img src='img/fixation2_sml.jpg'</img></div></div>","null","FIX","","","","","","","","","","",""
"html-keyboard-response","146","435851","0.0-7.0-2.22","5ee653288976fc3af8448ae6","bdp_wmem","Tue May 11 2021 14:28:37 GMT-0500 (Central Daylight Time)","680958","Match,No Match","","null","","","","","","<div class='trialBorder'><div class='vertical-center'><img style='vertical-align:center; align:center' src='img/fixation2_sml.jpg'></div><div class='arrayDiv3'><div class='tl'><img class='introPic' src='trustrating_stim/white_mw013.bmp'><br><font color='red'><strong>Keep</strong></font></div><div class='tc'><img class='introPic' src='trustrating_stim/white_mw003.bmp'><br><font color='green'><strong>Share</strong></font></div><div class='tr'><img class='introPic' src='trustrating_stim/white_mw091.bmp'><br><font color='red'><strong>Keep</strong></font></div></div></div>","null","ARRAY","3","trustrating_stim/white_mw013.bmp,trustrating_stim/white_mw003.bmp,trustrating_stim/white_mw091.bmp","0,1,0","Match","e","4500","","","","",""
"html-keyboard-response","147","439853","0.0-7.0-3.22","5ee653288976fc3af8448ae6","bdp_wmem","Tue May 11 2021 14:28:37 GMT-0500 (Central Daylight Time)","680958","Match,No Match","","null","","","","","","<div class='trialBorder'><div class='vertical-center'><img src='img/fixation2_sml.jpg'</img></div></div>","null","DELAY","","","","","","","","","","",""
"html-keyboard-response","148","440816","0.0-7.0-4.22","5ee653288976fc3af8448ae6","bdp_wmem","Tue May 11 2021 14:28:37 GMT-0500 (Central Daylight Time)","680958","Match,No Match","","961","","","","","","<div class='trialBorder'><div class='targDiv'><div class='tc'><img class='introPic' src='trustrating_stim/white_mw013.bmp'><br><font color='red'><strong>Keep</strong></font></div></div><div class='respDiv'><div class='respDivL'>Match<br>(e)</div><div class='respDivR'>No Match<br>(i)</div></div></div>","e","TARGET","3","trustrating_stim/white_mw013.bmp,trustrating_stim/white_mw003.bmp,trustrating_stim/white_mw091.bmp","0,1,0","Match","e","4500","trustrating_stim/white_mw013.bmp","red","Keep","REAL","1"
"html-keyboard-response","149","441317","0.0-7.0-5.22","5ee653288976fc3af8448ae6","bdp_wmem","Tue May 11 2021 14:28:37 GMT-0500 (Central Daylight Time)","680958","Match,No Match","","null","","","","","","<div class='trialBorder'><div class='vertical-center'><img src='img/correct.jpg'></div><div class='respDiv'><div class='respDivL'><font style='color:orange'>Match<br>(e)</font></div><div class='respDivR'>No Match<br>(i)</div></div></div>","null","FEEDBACK","","","","","","","","","","",""
"html-keyboard-response","150","441818","0.0-7.0-1.23","5ee653288976fc3af8448ae6","bdp_wmem","Tue May 11 2021 14:28:37 GMT-0500 (Central Daylight Time)","680958","Match,No Match","","null","","","","","","<div class='trialBorder'><div class='vertical-center'><img src='img/fixation2_sml.jpg'</img></div></div>","null","FIX","","","","","","","","","","",""
"html-keyboard-response","151","446320","0.0-7.0-2.23","5ee653288976fc3af8448ae6","bdp_wmem","Tue May 11 2021 14:28:37 GMT-0500 (Central Daylight Time)","680958","Match,No Match","","null","","","","","","<div class='trialBorder'><div class='vertical-center'><img style='vertical-align:center; align:center' src='img/fixation2_sml.jpg'></div><div class='arrayDiv3'><div class='tl'><img class='introPic' src='trustrating_stim/white_mw003.bmp'><br><font color='green'><strong>Share</strong></font></div><div class='tc'><img class='introPic' src='trustrating_stim/white_mw013.bmp'><br><font color='green'><strong>Share</strong></font></div><div class='tr'><img class='introPic' src='trustrating_stim/white_mw012.bmp'><br><font color='red'><strong>Keep</strong></font></div></div></div>","null","ARRAY","3","trustrating_stim/white_mw003.bmp,trustrating_stim/white_mw013.bmp,trustrating_stim/white_mw012.bmp","1,1,0","noMatchFace","i","4500","","","","",""
"html-keyboard-response","152","450321","0.0-7.0-3.23","5ee653288976fc3af8448ae6","bdp_wmem","Tue May 11 2021 14:28:37 GMT-0500 (Central Daylight Time)","680958","Match,No Match","","null","","","","","","<div class='trialBorder'><div class='vertical-center'><img src='img/fixation2_sml.jpg'</img></div></div>","null","DELAY","","","","","","","","","","",""
"html-keyboard-response","153","451472","0.0-7.0-4.23","5ee653288976fc3af8448ae6","bdp_wmem","Tue May 11 2021 14:28:37 GMT-0500 (Central Daylight Time)","680958","Match,No Match","","1150","","","","","","<div class='trialBorder'><div class='targDiv'><div class='tc'><img class='introPic' src='trustrating_stim/white_mw040.bmp'><br><font color='red'><strong>Keep</strong></font></div></div><div class='respDiv'><div class='respDivL'>Match<br>(e)</div><div class='respDivR'>No Match<br>(i)</div></div></div>","i","TARGET","3","trustrating_stim/white_mw003.bmp,trustrating_stim/white_mw013.bmp,trustrating_stim/white_mw012.bmp","1,1,0","noMatchFace","i","4500","trustrating_stim/white_mw040.bmp","red","Keep","REAL","1"
"html-keyboard-response","154","451973","0.0-7.0-5.23","5ee653288976fc3af8448ae6","bdp_wmem","Tue May 11 2021 14:28:37 GMT-0500 (Central Daylight Time)","680958","Match,No Match","","null","","","","","","<div class='trialBorder'><div class='vertical-center'><img src='img/correct.jpg'></div><div class='respDiv'><div class='respDivL'>Match<br>(e)</div><div class='respDivR'><font style='color:orange'>No Match<br>(i)</font></div></div></div>","null","FEEDBACK","","","","","","","","","","",""
"html-keyboard-response","155","452475","0.0-7.0-1.24","5ee653288976fc3af8448ae6","bdp_wmem","Tue May 11 2021 14:28:37 GMT-0500 (Central Daylight Time)","680958","Match,No Match","","null","","","","","","<div class='trialBorder'><div class='vertical-center'><img src='img/fixation2_sml.jpg'</img></div></div>","null","FIX","","","","","","","","","","",""
"html-keyboard-response","156","455482","0.0-7.0-2.24","5ee653288976fc3af8448ae6","bdp_wmem","Tue May 11 2021 14:28:37 GMT-0500 (Central Daylight Time)","680958","Match,No Match","","null","","","","","","<div class='trialBorder'><div class='vertical-center'><img style='vertical-align:center; align:center' src='img/fixation2_sml.jpg'></div><div class='arrayDiv2'><div class='tl'><img class='introPic' src='trustrating_stim/white_mw040.bmp'><br><font color='green'><strong>Share</strong></font></div><div class='tr'><img class='introPic' src='trustrating_stim/white_mw070.bmp'><br><font color='red'><strong>Keep</strong></font></div></div></div>","null","ARRAY","2","trustrating_stim/white_mw040.bmp,trustrating_stim/white_mw070.bmp","1,0","noMatchOutcome","i","3000","","","","",""
"html-keyboard-response","157","459485","0.0-7.0-3.24","5ee653288976fc3af8448ae6","bdp_wmem","Tue May 11 2021 14:28:37 GMT-0500 (Central Daylight Time)","680958","Match,No Match","","null","","","","","","<div class='trialBorder'><div class='vertical-center'><img src='img/fixation2_sml.jpg'</img></div></div>","null","DELAY","","","","","","","","","","",""
"html-keyboard-response","158","460811","0.0-7.0-4.24","5ee653288976fc3af8448ae6","bdp_wmem","Tue May 11 2021 14:28:37 GMT-0500 (Central Daylight Time)","680958","Match,No Match","","1325","","","","","","<div class='trialBorder'><div class='targDiv'><div class='tc'><img class='introPic' src='trustrating_stim/white_mw040.bmp'><br><font color='red'><strong>Keep</strong></font></div></div><div class='respDiv'><div class='respDivL'>Match<br>(e)</div><div class='respDivR'>No Match<br>(i)</div></div></div>","e","TARGET","2","trustrating_stim/white_mw040.bmp,trustrating_stim/white_mw070.bmp","1,0","noMatchOutcome","i","3000","trustrating_stim/white_mw040.bmp","red","Keep","REAL","0"
"html-keyboard-response","159","461319","0.0-7.0-5.24","5ee653288976fc3af8448ae6","bdp_wmem","Tue May 11 2021 14:28:37 GMT-0500 (Central Daylight Time)","680958","Match,No Match","","null","","","","","","<div class='trialBorder'><div class='vertical-center'><img src='img/error.jpg'></div><div class='respDiv'><div class='respDivL'><font style='color:orange'>Match<br>(e)</font></div><div class='respDivR'>No Match<br>(i)</div></div></div>","null","FEEDBACK","","","","","","","","","","",""
"html-keyboard-response","160","461821","0.0-7.0-1.25","5ee653288976fc3af8448ae6","bdp_wmem","Tue May 11 2021 14:28:37 GMT-0500 (Central Daylight Time)","680958","Match,No Match","","null","","","","","","<div class='trialBorder'><div class='vertical-center'><img src='img/fixation2_sml.jpg'</img></div></div>","null","FIX","","","","","","","","","","",""
"html-keyboard-response","161","466323","0.0-7.0-2.25","5ee653288976fc3af8448ae6","bdp_wmem","Tue May 11 2021 14:28:37 GMT-0500 (Central Daylight Time)","680958","Match,No Match","","null","","","","","","<div class='trialBorder'><div class='vertical-center'><img style='vertical-align:center; align:center' src='img/fixation2_sml.jpg'></div><div class='arrayDiv3'><div class='tl'><img class='introPic' src='trustrating_stim/white_mw040.bmp'><br><font color='red'><strong>Keep</strong></font></div><div class='tc'><img class='introPic' src='trustrating_stim/white_mw038.bmp'><br><font color='red'><strong>Keep</strong></font></div><div class='tr'><img class='introPic' src='trustrating_stim/white_mw070.bmp'><br><font color='green'><strong>Share</strong></font></div></div></div>","null","ARRAY","3","trustrating_stim/white_mw040.bmp,trustrating_stim/white_mw038.bmp,trustrating_stim/white_mw070.bmp","0,0,1","Match","e","4500","","","","",""
"html-keyboard-response","162","470325","0.0-7.0-3.25","5ee653288976fc3af8448ae6","bdp_wmem","Tue May 11 2021 14:28:37 GMT-0500 (Central Daylight Time)","680958","Match,No Match","","null","","","","","","<div class='trialBorder'><div class='vertical-center'><img src='img/fixation2_sml.jpg'</img></div></div>","null","DELAY","","","","","","","","","","",""
"html-keyboard-response","163","471521","0.0-7.0-4.25","5ee653288976fc3af8448ae6","bdp_wmem","Tue May 11 2021 14:28:37 GMT-0500 (Central Daylight Time)","680958","Match,No Match","","1194","","","","","","<div class='trialBorder'><div class='targDiv'><div class='tc'><img class='introPic' src='trustrating_stim/white_mw070.bmp'><br><font color='green'><strong>Share</strong></font></div></div><div class='respDiv'><div class='respDivL'>Match<br>(e)</div><div class='respDivR'>No Match<br>(i)</div></div></div>","e","TARGET","3","trustrating_stim/white_mw040.bmp,trustrating_stim/white_mw038.bmp,trustrating_stim/white_mw070.bmp","0,0,1","Match","e","4500","trustrating_stim/white_mw070.bmp","green","Share","REAL","1"
"html-keyboard-response","164","472022","0.0-7.0-5.25","5ee653288976fc3af8448ae6","bdp_wmem","Tue May 11 2021 14:28:37 GMT-0500 (Central Daylight Time)","680958","Match,No Match","","null","","","","","","<div class='trialBorder'><div class='vertical-center'><img src='img/correct.jpg'></div><div class='respDiv'><div class='respDivL'><font style='color:orange'>Match<br>(e)</font></div><div class='respDivR'>No Match<br>(i)</div></div></div>","null","FEEDBACK","","","","","","","","","","",""
"html-keyboard-response","165","472524","0.0-7.0-1.26","5ee653288976fc3af8448ae6","bdp_wmem","Tue May 11 2021 14:28:37 GMT-0500 (Central Daylight Time)","680958","Match,No Match","","null","","","","","","<div class='trialBorder'><div class='vertical-center'><img src='img/fixation2_sml.jpg'</img></div></div>","null","FIX","","","","","","","","","","",""
"html-keyboard-response","166","474027","0.0-7.0-2.26","5ee653288976fc3af8448ae6","bdp_wmem","Tue May 11 2021 14:28:37 GMT-0500 (Central Daylight Time)","680958","Match,No Match","","null","","","","","","<div class='trialBorder'><div class='vertical-center'><img style='vertical-align:center; align:center' src='img/fixation2_sml.jpg'></div><div class='arrayDiv1'><div class='tc'><img class='introPic' src='trustrating_stim/white_mw092.bmp'><br><font color='red'><strong>Keep</strong></font></div></div></div>","null","ARRAY","1","trustrating_stim/white_mw092.bmp","0","noMatchOutcome","i","1500","","","","",""
"html-keyboard-response","167","478029","0.0-7.0-3.26","5ee653288976fc3af8448ae6","bdp_wmem","Tue May 11 2021 14:28:37 GMT-0500 (Central Daylight Time)","680958","Match,No Match","","null","","","","","","<div class='trialBorder'><div class='vertical-center'><img src='img/fixation2_sml.jpg'</img></div></div>","null","DELAY","","","","","","","","","","",""
"html-keyboard-response","168","479712","0.0-7.0-4.26","5ee653288976fc3af8448ae6","bdp_wmem","Tue May 11 2021 14:28:37 GMT-0500 (Central Daylight Time)","680958","Match,No Match","","1682","","","","","","<div class='trialBorder'><div class='targDiv'><div class='tc'><img class='introPic' src='trustrating_stim/white_mw092.bmp'><br><font color='green'><strong>Share</strong></font></div></div><div class='respDiv'><div class='respDivL'>Match<br>(e)</div><div class='respDivR'>No Match<br>(i)</div></div></div>","i","TARGET","1","trustrating_stim/white_mw092.bmp","0","noMatchOutcome","i","1500","trustrating_stim/white_mw092.bmp","green","Share","REAL","1"
"html-keyboard-response","169","480213","0.0-7.0-5.26","5ee653288976fc3af8448ae6","bdp_wmem","Tue May 11 2021 14:28:37 GMT-0500 (Central Daylight Time)","680958","Match,No Match","","null","","","","","","<div class='trialBorder'><div class='vertical-center'><img src='img/correct.jpg'></div><div class='respDiv'><div class='respDivL'>Match<br>(e)</div><div class='respDivR'><font style='color:orange'>No Match<br>(i)</font></div></div></div>","null","FEEDBACK","","","","","","","","","","",""
"html-keyboard-response","170","480716","0.0-7.0-1.27","5ee653288976fc3af8448ae6","bdp_wmem","Tue May 11 2021 14:28:37 GMT-0500 (Central Daylight Time)","680958","Match,No Match","","null","","","","","","<div class='trialBorder'><div class='vertical-center'><img src='img/fixation2_sml.jpg'</img></div></div>","null","FIX","","","","","","","","","","",""
"html-keyboard-response","171","483718","0.0-7.0-2.27","5ee653288976fc3af8448ae6","bdp_wmem","Tue May 11 2021 14:28:37 GMT-0500 (Central Daylight Time)","680958","Match,No Match","","null","","","","","","<div class='trialBorder'><div class='vertical-center'><img style='vertical-align:center; align:center' src='img/fixation2_sml.jpg'></div><div class='arrayDiv2'><div class='tl'><img class='introPic' src='trustrating_stim/white_mw012.bmp'><br><font color='green'><strong>Share</strong></font></div><div class='tr'><img class='introPic' src='trustrating_stim/white_mw038.bmp'><br><font color='red'><strong>Keep</strong></font></div></div></div>","null","ARRAY","2","trustrating_stim/white_mw012.bmp,trustrating_stim/white_mw038.bmp","1,0","noMatchOutcome","i","3000","","","","",""
"html-keyboard-response","172","487720","0.0-7.0-3.27","5ee653288976fc3af8448ae6","bdp_wmem","Tue May 11 2021 14:28:37 GMT-0500 (Central Daylight Time)","680958","Match,No Match","","null","","","","","","<div class='trialBorder'><div class='vertical-center'><img src='img/fixation2_sml.jpg'</img></div></div>","null","DELAY","","","","","","","","","","",""
"html-keyboard-response","173","489722","0.0-7.0-4.27","5ee653288976fc3af8448ae6","bdp_wmem","Tue May 11 2021 14:28:37 GMT-0500 (Central Daylight Time)","680958","Match,No Match","","2000","","","","","","<div class='trialBorder'><div class='targDiv'><div class='tc'><img class='introPic' src='trustrating_stim/white_mw038.bmp'><br><font color='green'><strong>Share</strong></font></div></div><div class='respDiv'><div class='respDivL'>Match<br>(e)</div><div class='respDivR'>No Match<br>(i)</div></div></div>","i","TARGET","2","trustrating_stim/white_mw012.bmp,trustrating_stim/white_mw038.bmp","1,0","noMatchOutcome","i","3000","trustrating_stim/white_mw038.bmp","green","Share","REAL","1"
"html-keyboard-response","174","490226","0.0-7.0-5.27","5ee653288976fc3af8448ae6","bdp_wmem","Tue May 11 2021 14:28:37 GMT-0500 (Central Daylight Time)","680958","Match,No Match","","null","","","","","","<div class='trialBorder'><div class='vertical-center'><img src='img/correct.jpg'></div><div class='respDiv'><div class='respDivL'>Match<br>(e)</div><div class='respDivR'><font style='color:orange'>No Match<br>(i)</font></div></div></div>","null","FEEDBACK","","","","","","","","","","",""
"html-keyboard-response","175","490728","0.0-7.0-1.28","5ee653288976fc3af8448ae6","bdp_wmem","Tue May 11 2021 14:28:37 GMT-0500 (Central Daylight Time)","680958","Match,No Match","","null","","","","","","<div class='trialBorder'><div class='vertical-center'><img src='img/fixation2_sml.jpg'</img></div></div>","null","FIX","","","","","","","","","","",""
"html-keyboard-response","176","493732","0.0-7.0-2.28","5ee653288976fc3af8448ae6","bdp_wmem","Tue May 11 2021 14:28:37 GMT-0500 (Central Daylight Time)","680958","Match,No Match","","null","","","","","","<div class='trialBorder'><div class='vertical-center'><img style='vertical-align:center; align:center' src='img/fixation2_sml.jpg'></div><div class='arrayDiv2'><div class='tl'><img class='introPic' src='trustrating_stim/white_mw091.bmp'><br><font color='red'><strong>Keep</strong></font></div><div class='tr'><img class='introPic' src='trustrating_stim/white_00807_941205_fb_edt.bmp'><br><font color='green'><strong>Share</strong></font></div></div></div>","null","ARRAY","2","trustrating_stim/white_mw091.bmp,trustrating_stim/white_00807_941205_fb_edt.bmp","0,1","Match","e","3000","","","","",""
"html-keyboard-response","177","497743","0.0-7.0-3.28","5ee653288976fc3af8448ae6","bdp_wmem","Tue May 11 2021 14:28:37 GMT-0500 (Central Daylight Time)","680958","Match,No Match","","null","","","","","","<div class='trialBorder'><div class='vertical-center'><img src='img/fixation2_sml.jpg'</img></div></div>","null","DELAY","","","","","","","","","","",""
"html-keyboard-response","178","498993","0.0-7.0-4.28","5ee653288976fc3af8448ae6","bdp_wmem","Tue May 11 2021 14:28:37 GMT-0500 (Central Daylight Time)","680958","Match,No Match","","1248","","","","","","<div class='trialBorder'><div class='targDiv'><div class='tc'><img class='introPic' src='trustrating_stim/white_mw091.bmp'><br><font color='red'><strong>Keep</strong></font></div></div><div class='respDiv'><div class='respDivL'>Match<br>(e)</div><div class='respDivR'>No Match<br>(i)</div></div></div>","e","TARGET","2","trustrating_stim/white_mw091.bmp,trustrating_stim/white_00807_941205_fb_edt.bmp","0,1","Match","e","3000","trustrating_stim/white_mw091.bmp","red","Keep","REAL","1"
"html-keyboard-response","179","499495","0.0-7.0-5.28","5ee653288976fc3af8448ae6","bdp_wmem","Tue May 11 2021 14:28:37 GMT-0500 (Central Daylight Time)","680958","Match,No Match","","null","","","","","","<div class='trialBorder'><div class='vertical-center'><img src='img/correct.jpg'></div><div class='respDiv'><div class='respDivL'><font style='color:orange'>Match<br>(e)</font></div><div class='respDivR'>No Match<br>(i)</div></div></div>","null","FEEDBACK","","","","","","","","","","",""
"html-keyboard-response","180","499996","0.0-7.0-1.29","5ee653288976fc3af8448ae6","bdp_wmem","Tue May 11 2021 14:28:37 GMT-0500 (Central Daylight Time)","680958","Match,No Match","","null","","","","","","<div class='trialBorder'><div class='vertical-center'><img src='img/fixation2_sml.jpg'</img></div></div>","null","FIX","","","","","","","","","","",""
"html-keyboard-response","181","504503","0.0-7.0-2.29","5ee653288976fc3af8448ae6","bdp_wmem","Tue May 11 2021 14:28:37 GMT-0500 (Central Daylight Time)","680958","Match,No Match","","null","","","","","","<div class='trialBorder'><div class='vertical-center'><img style='vertical-align:center; align:center' src='img/fixation2_sml.jpg'></div><div class='arrayDiv3'><div class='tl'><img class='introPic' src='trustrating_stim/white_00807_941205_fb_edt.bmp'><br><font color='green'><strong>Share</strong></font></div><div class='tc'><img class='introPic' src='trustrating_stim/white_mw012.bmp'><br><font color='red'><strong>Keep</strong></font></div><div class='tr'><img class='introPic' src='trustrating_stim/white_mw092.bmp'><br><font color='green'><strong>Share</strong></font></div></div></div>","null","ARRAY","3","trustrating_stim/white_00807_941205_fb_edt.bmp,trustrating_stim/white_mw012.bmp,trustrating_stim/white_mw092.bmp","1,0,1","Match","e","4500","","","","",""
"html-keyboard-response","182","508506","0.0-7.0-3.29","5ee653288976fc3af8448ae6","bdp_wmem","Tue May 11 2021 14:28:37 GMT-0500 (Central Daylight Time)","680958","Match,No Match","","null","","","","","","<div class='trialBorder'><div class='vertical-center'><img src='img/fixation2_sml.jpg'</img></div></div>","null","DELAY","","","","","","","","","","",""
"html-keyboard-response","183","510274","0.0-7.0-4.29","5ee653288976fc3af8448ae6","bdp_wmem","Tue May 11 2021 14:28:37 GMT-0500 (Central Daylight Time)","680958","Match,No Match","","1766","","","","","","<div class='trialBorder'><div class='targDiv'><div class='tc'><img class='introPic' src='trustrating_stim/white_mw012.bmp'><br><font color='red'><strong>Keep</strong></font></div></div><div class='respDiv'><div class='respDivL'>Match<br>(e)</div><div class='respDivR'>No Match<br>(i)</div></div></div>","e","TARGET","3","trustrating_stim/white_00807_941205_fb_edt.bmp,trustrating_stim/white_mw012.bmp,trustrating_stim/white_mw092.bmp","1,0,1","Match","e","4500","trustrating_stim/white_mw012.bmp","red","Keep","REAL","1"
"html-keyboard-response","184","510781","0.0-7.0-5.29","5ee653288976fc3af8448ae6","bdp_wmem","Tue May 11 2021 14:28:37 GMT-0500 (Central Daylight Time)","680958","Match,No Match","","null","","","","","","<div class='trialBorder'><div class='vertical-center'><img src='img/correct.jpg'></div><div class='respDiv'><div class='respDivL'><font style='color:orange'>Match<br>(e)</font></div><div class='respDivR'>No Match<br>(i)</div></div></div>","null","FEEDBACK","","","","","","","","","","",""
"html-keyboard-response","185","511285","0.0-7.0-1.30","5ee653288976fc3af8448ae6","bdp_wmem","Tue May 11 2021 14:28:37 GMT-0500 (Central Daylight Time)","680958","Match,No Match","","null","","","","","","<div class='trialBorder'><div class='vertical-center'><img src='img/fixation2_sml.jpg'</img></div></div>","null","FIX","","","","","","","","","","",""
