"event","trial","time","trialtype","subject_id","task","startTime","totalTime","labels","trial_type","trial_index","time_elapsed","internal_node_id","view_history","rt","success","stimulus","key_press","stimType","arraySize","arrayFaces","arrayOutcomes","matchType","corrResp","arrayDur","targFace","targCol","targOutcome","trialType","corr"
"focus","0","0","focusevent","636598a7a571403968d03bf2","bdp_wmem","Tue Mar 14 2023 21:25:06 GMT-0400 (Eastern Daylight Time)","713881","Match,No Match","","","","","","","","","","","","","","","","","","","","",""
"","","","","636598a7a571403968d03bf2","bdp_wmem","Tue Mar 14 2023 21:25:06 GMT-0400 (Eastern Daylight Time)","713881","Match,No Match","pavlovia","0","4","0.0-0.0","","","","","","","","","","","","","","","","",""
"","","","","636598a7a571403968d03bf2","bdp_wmem","Tue Mar 14 2023 21:25:06 GMT-0400 (Eastern Daylight Time)","713881","Match,No Match","instructions","1","4148","0.0-1.0","[{""page_index"":0,""viewing_time"":4142}]","4143","","","","","","","","","","","","","","",""
"fullscreenexit","2","9004","fullscreenexit","636598a7a571403968d03bf2","bdp_wmem","Tue Mar 14 2023 21:25:06 GMT-0400 (Eastern Daylight Time)","713881","Match,No Match","","","","","","","","","","","","","","","","","","","","",""
"","","","","636598a7a571403968d03bf2","bdp_wmem","Tue Mar 14 2023 21:25:06 GMT-0400 (Eastern Daylight Time)","713881","Match,No Match","fullscreen","2","9783","0.0-2.0","","","true","","","","","","","","","","","","","",""
"","","","fullscreenfail","636598a7a571403968d03bf2","bdp_wmem","Tue Mar 14 2023 21:25:06 GMT-0400 (Eastern Daylight Time)","713881","Match,No Match","image-keyboard-response","3","11579","0.0-3.0-0.0","","1793","","","32","","","","","","","","","","","",""
"","","","","636598a7a571403968d03bf2","bdp_wmem","Tue Mar 14 2023 21:25:06 GMT-0400 (Eastern Daylight Time)","713881","Match,No Match","instructions","4","166149","0.0-4.0","[{""page_index"":0,""viewing_time"":25930},{""page_index"":1,""viewing_time"":52528},{""page_index"":2,""viewing_time"":14127},{""page_index"":3,""viewing_time"":7369},{""page_index"":4,""viewing_time"":54354}]","154308","","","","","","","","","","","","","","",""
"","","","","636598a7a571403968d03bf2","bdp_wmem","Tue Mar 14 2023 21:25:06 GMT-0400 (Eastern Daylight Time)","713881","Match,No Match","html-keyboard-response","5","166669","0.0-5.0-1.0","","null","","<div class='trialBorder'><div class='vertical-center'><img src='img/fixation2_sml.jpg'</img></div></div>","null","FIX","","","","","","","","","","",""
"","","","","636598a7a571403968d03bf2","bdp_wmem","Tue Mar 14 2023 21:25:06 GMT-0400 (Eastern Daylight Time)","713881","Match,No Match","html-keyboard-response","6","168183","0.0-5.0-2.0","","null","","<div class='trialBorder'><div class='vertical-center'><img style='vertical-align:center; align:center' src='img/fixation2_sml.jpg'></div><div class='arrayDiv1'><div class='tc'><img class='introPic' src='trustrating_stim/white_mw078.bmp'><br><font color='red'><strong>Keep</strong></font></div></div></div>","null","ARRAY","1","trustrating_stim/white_mw078.bmp","0","Match","e","1500","","","","",""
"","","","","636598a7a571403968d03bf2","bdp_wmem","Tue Mar 14 2023 21:25:06 GMT-0400 (Eastern Daylight Time)","713881","Match,No Match","html-keyboard-response","7","172195","0.0-5.0-3.0","","null","","<div class='trialBorder'><div class='vertical-center'><img src='img/fixation2_sml.jpg'</img></div></div>","null","DELAY","","","","","","","","","","",""
"","","","","636598a7a571403968d03bf2","bdp_wmem","Tue Mar 14 2023 21:25:06 GMT-0400 (Eastern Daylight Time)","713881","Match,No Match","html-keyboard-response","8","173523","0.0-5.0-4.0","","1326","","<div class='trialBorder'><div class='targDiv'><div class='tc'><img class='introPic' src='trustrating_stim/white_mw078.bmp'><br><font color='red'><strong>Keep</strong></font></div></div><div class='respDiv'><div class='respDivL'>Match<br>(e)</div><div class='respDivR'>No Match<br>(i)</div></div></div>","e","TARGET","1","trustrating_stim/white_mw078.bmp","0","Match","e","1500","trustrating_stim/white_mw078.bmp","red","Keep","PRACTICE","1"
"","","","","636598a7a571403968d03bf2","bdp_wmem","Tue Mar 14 2023 21:25:06 GMT-0400 (Eastern Daylight Time)","713881","Match,No Match","html-keyboard-response","9","174037","0.0-5.0-5.0","","null","","<div class='trialBorder'><div class='vertical-center'><img src='img/correct.jpg'></div><div class='respDiv'><div class='respDivL'><font style='color:orange'>Match<br>(e)</font></div><div class='respDivR'>No Match<br>(i)</div></div></div>","null","FEEDBACK","","","","","","","","","","",""
"","","","","636598a7a571403968d03bf2","bdp_wmem","Tue Mar 14 2023 21:25:06 GMT-0400 (Eastern Daylight Time)","713881","Match,No Match","html-keyboard-response","10","174551","0.0-5.0-1.1","","null","","<div class='trialBorder'><div class='vertical-center'><img src='img/fixation2_sml.jpg'</img></div></div>","null","FIX","","","","","","","","","","",""
"","","","","636598a7a571403968d03bf2","bdp_wmem","Tue Mar 14 2023 21:25:06 GMT-0400 (Eastern Daylight Time)","713881","Match,No Match","html-keyboard-response","11","179063","0.0-5.0-2.1","","null","","<div class='trialBorder'><div class='vertical-center'><img style='vertical-align:center; align:center' src='img/fixation2_sml.jpg'></div><div class='arrayDiv3'><div class='tl'><img class='introPic' src='trustrating_stim/white_mw085.bmp'><br><font color='red'><strong>Keep</strong></font></div><div class='tc'><img class='introPic' src='trustrating_stim/white_mw092.bmp'><br><font color='green'><strong>Share</strong></font></div><div class='tr'><img class='introPic' src='trustrating_stim/white_mw038.bmp'><br><font color='green'><strong>Share</strong></font></div></div></div>","null","ARRAY","3","trustrating_stim/white_mw085.bmp,trustrating_stim/white_mw092.bmp,trustrating_stim/white_mw038.bmp","0,1,1","Match","e","4500","","","","",""
"","","","","636598a7a571403968d03bf2","bdp_wmem","Tue Mar 14 2023 21:25:06 GMT-0400 (Eastern Daylight Time)","713881","Match,No Match","html-keyboard-response","12","183078","0.0-5.0-3.1","","null","","<div class='trialBorder'><div class='vertical-center'><img src='img/fixation2_sml.jpg'</img></div></div>","null","DELAY","","","","","","","","","","",""
"","","","","636598a7a571403968d03bf2","bdp_wmem","Tue Mar 14 2023 21:25:06 GMT-0400 (Eastern Daylight Time)","713881","Match,No Match","html-keyboard-response","13","184155","0.0-5.0-4.1","","1076","","<div class='trialBorder'><div class='targDiv'><div class='tc'><img class='introPic' src='trustrating_stim/white_mw092.bmp'><br><font color='green'><strong>Share</strong></font></div></div><div class='respDiv'><div class='respDivL'>Match<br>(e)</div><div class='respDivR'>No Match<br>(i)</div></div></div>","e","TARGET","3","trustrating_stim/white_mw085.bmp,trustrating_stim/white_mw092.bmp,trustrating_stim/white_mw038.bmp","0,1,1","Match","e","4500","trustrating_stim/white_mw092.bmp","green","Share","PRACTICE","1"
"","","","","636598a7a571403968d03bf2","bdp_wmem","Tue Mar 14 2023 21:25:06 GMT-0400 (Eastern Daylight Time)","713881","Match,No Match","html-keyboard-response","14","184665","0.0-5.0-5.1","","null","","<div class='trialBorder'><div class='vertical-center'><img src='img/correct.jpg'></div><div class='respDiv'><div class='respDivL'><font style='color:orange'>Match<br>(e)</font></div><div class='respDivR'>No Match<br>(i)</div></div></div>","null","FEEDBACK","","","","","","","","","","",""
"","","","","636598a7a571403968d03bf2","bdp_wmem","Tue Mar 14 2023 21:25:06 GMT-0400 (Eastern Daylight Time)","713881","Match,No Match","html-keyboard-response","15","185180","0.0-5.0-1.2","","null","","<div class='trialBorder'><div class='vertical-center'><img src='img/fixation2_sml.jpg'</img></div></div>","null","FIX","","","","","","","","","","",""
"","","","","636598a7a571403968d03bf2","bdp_wmem","Tue Mar 14 2023 21:25:06 GMT-0400 (Eastern Daylight Time)","713881","Match,No Match","html-keyboard-response","16","188185","0.0-5.0-2.2","","null","","<div class='trialBorder'><div class='vertical-center'><img style='vertical-align:center; align:center' src='img/fixation2_sml.jpg'></div><div class='arrayDiv2'><div class='tl'><img class='introPic' src='trustrating_stim/white_mw013.bmp'><br><font color='red'><strong>Keep</strong></font></div><div class='tr'><img class='introPic' src='trustrating_stim/white_mw010.bmp'><br><font color='green'><strong>Share</strong></font></div></div></div>","null","ARRAY","2","trustrating_stim/white_mw013.bmp,trustrating_stim/white_mw010.bmp","0,1","noMatchOutcome","i","3000","","","","",""
"","","","","636598a7a571403968d03bf2","bdp_wmem","Tue Mar 14 2023 21:25:06 GMT-0400 (Eastern Daylight Time)","713881","Match,No Match","html-keyboard-response","17","192199","0.0-5.0-3.2","","null","","<div class='trialBorder'><div class='vertical-center'><img src='img/fixation2_sml.jpg'</img></div></div>","null","DELAY","","","","","","","","","","",""
"","","","","636598a7a571403968d03bf2","bdp_wmem","Tue Mar 14 2023 21:25:06 GMT-0400 (Eastern Daylight Time)","713881","Match,No Match","html-keyboard-response","18","193084","0.0-5.0-4.2","","884","","<div class='trialBorder'><div class='targDiv'><div class='tc'><img class='introPic' src='trustrating_stim/white_mw010.bmp'><br><font color='red'><strong>Keep</strong></font></div></div><div class='respDiv'><div class='respDivL'>Match<br>(e)</div><div class='respDivR'>No Match<br>(i)</div></div></div>","e","TARGET","2","trustrating_stim/white_mw013.bmp,trustrating_stim/white_mw010.bmp","0,1","noMatchOutcome","i","3000","trustrating_stim/white_mw010.bmp","red","Keep","PRACTICE","0"
"","","","","636598a7a571403968d03bf2","bdp_wmem","Tue Mar 14 2023 21:25:06 GMT-0400 (Eastern Daylight Time)","713881","Match,No Match","html-keyboard-response","19","193589","0.0-5.0-5.2","","null","","<div class='trialBorder'><div class='vertical-center'><img src='img/error.jpg'></div><div class='respDiv'><div class='respDivL'><font style='color:orange'>Match<br>(e)</font></div><div class='respDivR'>No Match<br>(i)</div></div></div>","null","FEEDBACK","","","","","","","","","","",""
"","","","","636598a7a571403968d03bf2","bdp_wmem","Tue Mar 14 2023 21:25:06 GMT-0400 (Eastern Daylight Time)","713881","Match,No Match","html-keyboard-response","20","194106","0.0-5.0-1.3","","null","","<div class='trialBorder'><div class='vertical-center'><img src='img/fixation2_sml.jpg'</img></div></div>","null","FIX","","","","","","","","","","",""
"","","","","636598a7a571403968d03bf2","bdp_wmem","Tue Mar 14 2023 21:25:06 GMT-0400 (Eastern Daylight Time)","713881","Match,No Match","html-keyboard-response","21","198617","0.0-5.0-2.3","","null","","<div class='trialBorder'><div class='vertical-center'><img style='vertical-align:center; align:center' src='img/fixation2_sml.jpg'></div><div class='arrayDiv3'><div class='tl'><img class='introPic' src='trustrating_stim/white_mw085.bmp'><br><font color='red'><strong>Keep</strong></font></div><div class='tc'><img class='introPic' src='trustrating_stim/white_mw012.bmp'><br><font color='green'><strong>Share</strong></font></div><div class='tr'><img class='introPic' src='trustrating_stim/white_mw010.bmp'><br><font color='green'><strong>Share</strong></font></div></div></div>","null","ARRAY","3","trustrating_stim/white_mw085.bmp,trustrating_stim/white_mw012.bmp,trustrating_stim/white_mw010.bmp","0,1,1","noMatchOutcome","i","4500","","","","",""
"","","","","636598a7a571403968d03bf2","bdp_wmem","Tue Mar 14 2023 21:25:06 GMT-0400 (Eastern Daylight Time)","713881","Match,No Match","html-keyboard-response","22","202633","0.0-5.0-3.3","","null","","<div class='trialBorder'><div class='vertical-center'><img src='img/fixation2_sml.jpg'</img></div></div>","null","DELAY","","","","","","","","","","",""
"","","","","636598a7a571403968d03bf2","bdp_wmem","Tue Mar 14 2023 21:25:06 GMT-0400 (Eastern Daylight Time)","713881","Match,No Match","html-keyboard-response","23","203332","0.0-5.0-4.3","","699","","<div class='trialBorder'><div class='targDiv'><div class='tc'><img class='introPic' src='trustrating_stim/white_mw012.bmp'><br><font color='red'><strong>Keep</strong></font></div></div><div class='respDiv'><div class='respDivL'>Match<br>(e)</div><div class='respDivR'>No Match<br>(i)</div></div></div>","e","TARGET","3","trustrating_stim/white_mw085.bmp,trustrating_stim/white_mw012.bmp,trustrating_stim/white_mw010.bmp","0,1,1","noMatchOutcome","i","4500","trustrating_stim/white_mw012.bmp","red","Keep","PRACTICE","0"
"","","","","636598a7a571403968d03bf2","bdp_wmem","Tue Mar 14 2023 21:25:06 GMT-0400 (Eastern Daylight Time)","713881","Match,No Match","html-keyboard-response","24","203835","0.0-5.0-5.3","","null","","<div class='trialBorder'><div class='vertical-center'><img src='img/error.jpg'></div><div class='respDiv'><div class='respDivL'><font style='color:orange'>Match<br>(e)</font></div><div class='respDivR'>No Match<br>(i)</div></div></div>","null","FEEDBACK","","","","","","","","","","",""
"","","","","636598a7a571403968d03bf2","bdp_wmem","Tue Mar 14 2023 21:25:06 GMT-0400 (Eastern Daylight Time)","713881","Match,No Match","html-keyboard-response","25","204348","0.0-5.0-1.4","","null","","<div class='trialBorder'><div class='vertical-center'><img src='img/fixation2_sml.jpg'</img></div></div>","null","FIX","","","","","","","","","","",""
"","","","","636598a7a571403968d03bf2","bdp_wmem","Tue Mar 14 2023 21:25:06 GMT-0400 (Eastern Daylight Time)","713881","Match,No Match","html-keyboard-response","26","207363","0.0-5.0-2.4","","null","","<div class='trialBorder'><div class='vertical-center'><img style='vertical-align:center; align:center' src='img/fixation2_sml.jpg'></div><div class='arrayDiv2'><div class='tl'><img class='introPic' src='trustrating_stim/white_mw038.bmp'><br><font color='green'><strong>Share</strong></font></div><div class='tr'><img class='introPic' src='trustrating_stim/white_mw092.bmp'><br><font color='red'><strong>Keep</strong></font></div></div></div>","null","ARRAY","2","trustrating_stim/white_mw038.bmp,trustrating_stim/white_mw092.bmp","1,0","Match","e","3000","","","","",""
"","","","","636598a7a571403968d03bf2","bdp_wmem","Tue Mar 14 2023 21:25:06 GMT-0400 (Eastern Daylight Time)","713881","Match,No Match","html-keyboard-response","27","211368","0.0-5.0-3.4","","null","","<div class='trialBorder'><div class='vertical-center'><img src='img/fixation2_sml.jpg'</img></div></div>","null","DELAY","","","","","","","","","","",""
"","","","","636598a7a571403968d03bf2","bdp_wmem","Tue Mar 14 2023 21:25:06 GMT-0400 (Eastern Daylight Time)","713881","Match,No Match","html-keyboard-response","28","213445","0.0-5.0-4.4","","2075","","<div class='trialBorder'><div class='targDiv'><div class='tc'><img class='introPic' src='trustrating_stim/white_mw092.bmp'><br><font color='red'><strong>Keep</strong></font></div></div><div class='respDiv'><div class='respDivL'>Match<br>(e)</div><div class='respDivR'>No Match<br>(i)</div></div></div>","i","TARGET","2","trustrating_stim/white_mw038.bmp,trustrating_stim/white_mw092.bmp","1,0","Match","e","3000","trustrating_stim/white_mw092.bmp","red","Keep","PRACTICE","0"
"","","","","636598a7a571403968d03bf2","bdp_wmem","Tue Mar 14 2023 21:25:06 GMT-0400 (Eastern Daylight Time)","713881","Match,No Match","html-keyboard-response","29","213956","0.0-5.0-5.4","","null","","<div class='trialBorder'><div class='vertical-center'><img src='img/error.jpg'></div><div class='respDiv'><div class='respDivL'>Match<br>(e)</div><div class='respDivR'><font style='color:orange'>No Match<br>(i)</font></div></div></div>","null","FEEDBACK","","","","","","","","","","",""
"","","","","636598a7a571403968d03bf2","bdp_wmem","Tue Mar 14 2023 21:25:06 GMT-0400 (Eastern Daylight Time)","713881","Match,No Match","html-keyboard-response","30","214457","0.0-5.0-1.5","","null","","<div class='trialBorder'><div class='vertical-center'><img src='img/fixation2_sml.jpg'</img></div></div>","null","FIX","","","","","","","","","","",""
"","","","","636598a7a571403968d03bf2","bdp_wmem","Tue Mar 14 2023 21:25:06 GMT-0400 (Eastern Daylight Time)","713881","Match,No Match","html-keyboard-response","31","215958","0.0-5.0-2.5","","null","","<div class='trialBorder'><div class='vertical-center'><img style='vertical-align:center; align:center' src='img/fixation2_sml.jpg'></div><div class='arrayDiv1'><div class='tc'><img class='introPic' src='trustrating_stim/white_mw038.bmp'><br><font color='red'><strong>Keep</strong></font></div></div></div>","null","ARRAY","1","trustrating_stim/white_mw038.bmp","0","noMatchFace","i","1500","","","","",""
"","","","","636598a7a571403968d03bf2","bdp_wmem","Tue Mar 14 2023 21:25:06 GMT-0400 (Eastern Daylight Time)","713881","Match,No Match","html-keyboard-response","32","219971","0.0-5.0-3.5","","null","","<div class='trialBorder'><div class='vertical-center'><img src='img/fixation2_sml.jpg'</img></div></div>","null","DELAY","","","","","","","","","","",""
"","","","","636598a7a571403968d03bf2","bdp_wmem","Tue Mar 14 2023 21:25:06 GMT-0400 (Eastern Daylight Time)","713881","Match,No Match","html-keyboard-response","33","221412","0.0-5.0-4.5","","1441","","<div class='trialBorder'><div class='targDiv'><div class='tc'><img class='introPic' src='trustrating_stim/white_mw078.bmp'><br><font color='red'><strong>Keep</strong></font></div></div><div class='respDiv'><div class='respDivL'>Match<br>(e)</div><div class='respDivR'>No Match<br>(i)</div></div></div>","i","TARGET","1","trustrating_stim/white_mw038.bmp","0","noMatchFace","i","1500","trustrating_stim/white_mw078.bmp","red","Keep","PRACTICE","1"
"","","","","636598a7a571403968d03bf2","bdp_wmem","Tue Mar 14 2023 21:25:06 GMT-0400 (Eastern Daylight Time)","713881","Match,No Match","html-keyboard-response","34","221916","0.0-5.0-5.5","","null","","<div class='trialBorder'><div class='vertical-center'><img src='img/correct.jpg'></div><div class='respDiv'><div class='respDivL'>Match<br>(e)</div><div class='respDivR'><font style='color:orange'>No Match<br>(i)</font></div></div></div>","null","FEEDBACK","","","","","","","","","","",""
"","","","","636598a7a571403968d03bf2","bdp_wmem","Tue Mar 14 2023 21:25:06 GMT-0400 (Eastern Daylight Time)","713881","Match,No Match","instructions","35","234195","0.0-6.0","[{""page_index"":0,""viewing_time"":12277}]","12278","","","","","","","","","","","","","","",""
"","","","","636598a7a571403968d03bf2","bdp_wmem","Tue Mar 14 2023 21:25:06 GMT-0400 (Eastern Daylight Time)","713881","Match,No Match","html-keyboard-response","36","234698","0.0-7.0-1.0","","null","","<div class='trialBorder'><div class='vertical-center'><img src='img/fixation2_sml.jpg'</img></div></div>","null","FIX","","","","","","","","","","",""
"","","","","636598a7a571403968d03bf2","bdp_wmem","Tue Mar 14 2023 21:25:06 GMT-0400 (Eastern Daylight Time)","713881","Match,No Match","html-keyboard-response","37","239205","0.0-7.0-2.0","","null","","<div class='trialBorder'><div class='vertical-center'><img style='vertical-align:center; align:center' src='img/fixation2_sml.jpg'></div><div class='arrayDiv3'><div class='tl'><img class='introPic' src='trustrating_stim/white_mw070.bmp'><br><font color='green'><strong>Share</strong></font></div><div class='tc'><img class='introPic' src='trustrating_stim/white_mw040.bmp'><br><font color='green'><strong>Share</strong></font></div><div class='tr'><img class='introPic' src='trustrating_stim/white_mw092.bmp'><br><font color='red'><strong>Keep</strong></font></div></div></div>","null","ARRAY","3","trustrating_stim/white_mw070.bmp,trustrating_stim/white_mw040.bmp,trustrating_stim/white_mw092.bmp","1,1,0","Match","e","4500","","","","",""
"","","","","636598a7a571403968d03bf2","bdp_wmem","Tue Mar 14 2023 21:25:06 GMT-0400 (Eastern Daylight Time)","713881","Match,No Match","html-keyboard-response","38","243209","0.0-7.0-3.0","","null","","<div class='trialBorder'><div class='vertical-center'><img src='img/fixation2_sml.jpg'</img></div></div>","null","DELAY","","","","","","","","","","",""
"","","","","636598a7a571403968d03bf2","bdp_wmem","Tue Mar 14 2023 21:25:06 GMT-0400 (Eastern Daylight Time)","713881","Match,No Match","html-keyboard-response","39","244916","0.0-7.0-4.0","","1706","","<div class='trialBorder'><div class='targDiv'><div class='tc'><img class='introPic' src='trustrating_stim/white_mw092.bmp'><br><font color='red'><strong>Keep</strong></font></div></div><div class='respDiv'><div class='respDivL'>Match<br>(e)</div><div class='respDivR'>No Match<br>(i)</div></div></div>","e","TARGET","3","trustrating_stim/white_mw070.bmp,trustrating_stim/white_mw040.bmp,trustrating_stim/white_mw092.bmp","1,1,0","Match","e","4500","trustrating_stim/white_mw092.bmp","red","Keep","REAL","1"
"","","","","636598a7a571403968d03bf2","bdp_wmem","Tue Mar 14 2023 21:25:06 GMT-0400 (Eastern Daylight Time)","713881","Match,No Match","html-keyboard-response","40","245425","0.0-7.0-5.0","","null","","<div class='trialBorder'><div class='vertical-center'><img src='img/correct.jpg'></div><div class='respDiv'><div class='respDivL'><font style='color:orange'>Match<br>(e)</font></div><div class='respDivR'>No Match<br>(i)</div></div></div>","null","FEEDBACK","","","","","","","","","","",""
"","","","","636598a7a571403968d03bf2","bdp_wmem","Tue Mar 14 2023 21:25:06 GMT-0400 (Eastern Daylight Time)","713881","Match,No Match","html-keyboard-response","41","245926","0.0-7.0-1.1","","null","","<div class='trialBorder'><div class='vertical-center'><img src='img/fixation2_sml.jpg'</img></div></div>","null","FIX","","","","","","","","","","",""
"","","","","636598a7a571403968d03bf2","bdp_wmem","Tue Mar 14 2023 21:25:06 GMT-0400 (Eastern Daylight Time)","713881","Match,No Match","html-keyboard-response","42","248932","0.0-7.0-2.1","","null","","<div class='trialBorder'><div class='vertical-center'><img style='vertical-align:center; align:center' src='img/fixation2_sml.jpg'></div><div class='arrayDiv2'><div class='tl'><img class='introPic' src='trustrating_stim/white_mw010.bmp'><br><font color='green'><strong>Share</strong></font></div><div class='tr'><img class='introPic' src='trustrating_stim/white_mw013.bmp'><br><font color='red'><strong>Keep</strong></font></div></div></div>","null","ARRAY","2","trustrating_stim/white_mw010.bmp,trustrating_stim/white_mw013.bmp","1,0","noMatchOutcome","i","3000","","","","",""
"","","","","636598a7a571403968d03bf2","bdp_wmem","Tue Mar 14 2023 21:25:06 GMT-0400 (Eastern Daylight Time)","713881","Match,No Match","html-keyboard-response","43","252936","0.0-7.0-3.1","","null","","<div class='trialBorder'><div class='vertical-center'><img src='img/fixation2_sml.jpg'</img></div></div>","null","DELAY","","","","","","","","","","",""
"","","","","636598a7a571403968d03bf2","bdp_wmem","Tue Mar 14 2023 21:25:06 GMT-0400 (Eastern Daylight Time)","713881","Match,No Match","html-keyboard-response","44","254076","0.0-7.0-4.1","","1139","","<div class='trialBorder'><div class='targDiv'><div class='tc'><img class='introPic' src='trustrating_stim/white_mw013.bmp'><br><font color='green'><strong>Share</strong></font></div></div><div class='respDiv'><div class='respDivL'>Match<br>(e)</div><div class='respDivR'>No Match<br>(i)</div></div></div>","e","TARGET","2","trustrating_stim/white_mw010.bmp,trustrating_stim/white_mw013.bmp","1,0","noMatchOutcome","i","3000","trustrating_stim/white_mw013.bmp","green","Share","REAL","0"
"","","","","636598a7a571403968d03bf2","bdp_wmem","Tue Mar 14 2023 21:25:06 GMT-0400 (Eastern Daylight Time)","713881","Match,No Match","html-keyboard-response","45","254587","0.0-7.0-5.1","","null","","<div class='trialBorder'><div class='vertical-center'><img src='img/error.jpg'></div><div class='respDiv'><div class='respDivL'><font style='color:orange'>Match<br>(e)</font></div><div class='respDivR'>No Match<br>(i)</div></div></div>","null","FEEDBACK","","","","","","","","","","",""
"","","","","636598a7a571403968d03bf2","bdp_wmem","Tue Mar 14 2023 21:25:06 GMT-0400 (Eastern Daylight Time)","713881","Match,No Match","html-keyboard-response","46","255090","0.0-7.0-1.2","","null","","<div class='trialBorder'><div class='vertical-center'><img src='img/fixation2_sml.jpg'</img></div></div>","null","FIX","","","","","","","","","","",""
"","","","","636598a7a571403968d03bf2","bdp_wmem","Tue Mar 14 2023 21:25:06 GMT-0400 (Eastern Daylight Time)","713881","Match,No Match","html-keyboard-response","47","258094","0.0-7.0-2.2","","null","","<div class='trialBorder'><div class='vertical-center'><img style='vertical-align:center; align:center' src='img/fixation2_sml.jpg'></div><div class='arrayDiv2'><div class='tl'><img class='introPic' src='trustrating_stim/white_mw091.bmp'><br><font color='green'><strong>Share</strong></font></div><div class='tr'><img class='introPic' src='trustrating_stim/white_mw085.bmp'><br><font color='red'><strong>Keep</strong></font></div></div></div>","null","ARRAY","2","trustrating_stim/white_mw091.bmp,trustrating_stim/white_mw085.bmp","1,0","noMatchFace","i","3000","","","","",""
"","","","","636598a7a571403968d03bf2","bdp_wmem","Tue Mar 14 2023 21:25:06 GMT-0400 (Eastern Daylight Time)","713881","Match,No Match","html-keyboard-response","48","262105","0.0-7.0-3.2","","null","","<div class='trialBorder'><div class='vertical-center'><img src='img/fixation2_sml.jpg'</img></div></div>","null","DELAY","","","","","","","","","","",""
"","","","","636598a7a571403968d03bf2","bdp_wmem","Tue Mar 14 2023 21:25:06 GMT-0400 (Eastern Daylight Time)","713881","Match,No Match","html-keyboard-response","49","263294","0.0-7.0-4.2","","1188","","<div class='trialBorder'><div class='targDiv'><div class='tc'><img class='introPic' src='trustrating_stim/white_mw042.bmp'><br><font color='red'><strong>Keep</strong></font></div></div><div class='respDiv'><div class='respDivL'>Match<br>(e)</div><div class='respDivR'>No Match<br>(i)</div></div></div>","i","TARGET","2","trustrating_stim/white_mw091.bmp,trustrating_stim/white_mw085.bmp","1,0","noMatchFace","i","3000","trustrating_stim/white_mw042.bmp","red","Keep","REAL","1"
"","","","","636598a7a571403968d03bf2","bdp_wmem","Tue Mar 14 2023 21:25:06 GMT-0400 (Eastern Daylight Time)","713881","Match,No Match","html-keyboard-response","50","263805","0.0-7.0-5.2","","null","","<div class='trialBorder'><div class='vertical-center'><img src='img/correct.jpg'></div><div class='respDiv'><div class='respDivL'>Match<br>(e)</div><div class='respDivR'><font style='color:orange'>No Match<br>(i)</font></div></div></div>","null","FEEDBACK","","","","","","","","","","",""
"","","","","636598a7a571403968d03bf2","bdp_wmem","Tue Mar 14 2023 21:25:06 GMT-0400 (Eastern Daylight Time)","713881","Match,No Match","html-keyboard-response","51","264319","0.0-7.0-1.3","","null","","<div class='trialBorder'><div class='vertical-center'><img src='img/fixation2_sml.jpg'</img></div></div>","null","FIX","","","","","","","","","","",""
"","","","","636598a7a571403968d03bf2","bdp_wmem","Tue Mar 14 2023 21:25:06 GMT-0400 (Eastern Daylight Time)","713881","Match,No Match","html-keyboard-response","52","265824","0.0-7.0-2.3","","null","","<div class='trialBorder'><div class='vertical-center'><img style='vertical-align:center; align:center' src='img/fixation2_sml.jpg'></div><div class='arrayDiv1'><div class='tc'><img class='introPic' src='trustrating_stim/white_mw091.bmp'><br><font color='green'><strong>Share</strong></font></div></div></div>","null","ARRAY","1","trustrating_stim/white_mw091.bmp","1","Match","e","1500","","","","",""
"","","","","636598a7a571403968d03bf2","bdp_wmem","Tue Mar 14 2023 21:25:06 GMT-0400 (Eastern Daylight Time)","713881","Match,No Match","html-keyboard-response","53","269828","0.0-7.0-3.3","","null","","<div class='trialBorder'><div class='vertical-center'><img src='img/fixation2_sml.jpg'</img></div></div>","null","DELAY","","","","","","","","","","",""
"","","","","636598a7a571403968d03bf2","bdp_wmem","Tue Mar 14 2023 21:25:06 GMT-0400 (Eastern Daylight Time)","713881","Match,No Match","html-keyboard-response","54","270476","0.0-7.0-4.3","","647","","<div class='trialBorder'><div class='targDiv'><div class='tc'><img class='introPic' src='trustrating_stim/white_mw091.bmp'><br><font color='green'><strong>Share</strong></font></div></div><div class='respDiv'><div class='respDivL'>Match<br>(e)</div><div class='respDivR'>No Match<br>(i)</div></div></div>","e","TARGET","1","trustrating_stim/white_mw091.bmp","1","Match","e","1500","trustrating_stim/white_mw091.bmp","green","Share","REAL","1"
"","","","","636598a7a571403968d03bf2","bdp_wmem","Tue Mar 14 2023 21:25:06 GMT-0400 (Eastern Daylight Time)","713881","Match,No Match","html-keyboard-response","55","270993","0.0-7.0-5.3","","null","","<div class='trialBorder'><div class='vertical-center'><img src='img/correct.jpg'></div><div class='respDiv'><div class='respDivL'><font style='color:orange'>Match<br>(e)</font></div><div class='respDivR'>No Match<br>(i)</div></div></div>","null","FEEDBACK","","","","","","","","","","",""
"","","","","636598a7a571403968d03bf2","bdp_wmem","Tue Mar 14 2023 21:25:06 GMT-0400 (Eastern Daylight Time)","713881","Match,No Match","html-keyboard-response","56","271494","0.0-7.0-1.4","","null","","<div class='trialBorder'><div class='vertical-center'><img src='img/fixation2_sml.jpg'</img></div></div>","null","FIX","","","","","","","","","","",""
"","","","","636598a7a571403968d03bf2","bdp_wmem","Tue Mar 14 2023 21:25:06 GMT-0400 (Eastern Daylight Time)","713881","Match,No Match","html-keyboard-response","57","276010","0.0-7.0-2.4","","null","","<div class='trialBorder'><div class='vertical-center'><img style='vertical-align:center; align:center' src='img/fixation2_sml.jpg'></div><div class='arrayDiv3'><div class='tl'><img class='introPic' src='trustrating_stim/white_mw010.bmp'><br><font color='red'><strong>Keep</strong></font></div><div class='tc'><img class='introPic' src='trustrating_stim/white_mw092.bmp'><br><font color='red'><strong>Keep</strong></font></div><div class='tr'><img class='introPic' src='trustrating_stim/white_mw070.bmp'><br><font color='green'><strong>Share</strong></font></div></div></div>","null","ARRAY","3","trustrating_stim/white_mw010.bmp,trustrating_stim/white_mw092.bmp,trustrating_stim/white_mw070.bmp","0,0,1","noMatchFace","i","4500","","","","",""
"","","","","636598a7a571403968d03bf2","bdp_wmem","Tue Mar 14 2023 21:25:06 GMT-0400 (Eastern Daylight Time)","713881","Match,No Match","html-keyboard-response","58","280011","0.0-7.0-3.4","","null","","<div class='trialBorder'><div class='vertical-center'><img src='img/fixation2_sml.jpg'</img></div></div>","null","DELAY","","","","","","","","","","",""
"","","","","636598a7a571403968d03bf2","bdp_wmem","Tue Mar 14 2023 21:25:06 GMT-0400 (Eastern Daylight Time)","713881","Match,No Match","html-keyboard-response","59","281219","0.0-7.0-4.4","","1206","","<div class='trialBorder'><div class='targDiv'><div class='tc'><img class='introPic' src='trustrating_stim/white_mw012.bmp'><br><font color='red'><strong>Keep</strong></font></div></div><div class='respDiv'><div class='respDivL'>Match<br>(e)</div><div class='respDivR'>No Match<br>(i)</div></div></div>","i","TARGET","3","trustrating_stim/white_mw010.bmp,trustrating_stim/white_mw092.bmp,trustrating_stim/white_mw070.bmp","0,0,1","noMatchFace","i","4500","trustrating_stim/white_mw012.bmp","red","Keep","REAL","1"
"","","","","636598a7a571403968d03bf2","bdp_wmem","Tue Mar 14 2023 21:25:06 GMT-0400 (Eastern Daylight Time)","713881","Match,No Match","html-keyboard-response","60","281735","0.0-7.0-5.4","","null","","<div class='trialBorder'><div class='vertical-center'><img src='img/correct.jpg'></div><div class='respDiv'><div class='respDivL'>Match<br>(e)</div><div class='respDivR'><font style='color:orange'>No Match<br>(i)</font></div></div></div>","null","FEEDBACK","","","","","","","","","","",""
"","","","","636598a7a571403968d03bf2","bdp_wmem","Tue Mar 14 2023 21:25:06 GMT-0400 (Eastern Daylight Time)","713881","Match,No Match","html-keyboard-response","61","282247","0.0-7.0-1.5","","null","","<div class='trialBorder'><div class='vertical-center'><img src='img/fixation2_sml.jpg'</img></div></div>","null","FIX","","","","","","","","","","",""
"","","","","636598a7a571403968d03bf2","bdp_wmem","Tue Mar 14 2023 21:25:06 GMT-0400 (Eastern Daylight Time)","713881","Match,No Match","html-keyboard-response","62","283761","0.0-7.0-2.5","","null","","<div class='trialBorder'><div class='vertical-center'><img style='vertical-align:center; align:center' src='img/fixation2_sml.jpg'></div><div class='arrayDiv1'><div class='tc'><img class='introPic' src='trustrating_stim/white_mw040.bmp'><br><font color='red'><strong>Keep</strong></font></div></div></div>","null","ARRAY","1","trustrating_stim/white_mw040.bmp","0","noMatchFace","i","1500","","","","",""
"","","","","636598a7a571403968d03bf2","bdp_wmem","Tue Mar 14 2023 21:25:06 GMT-0400 (Eastern Daylight Time)","713881","Match,No Match","html-keyboard-response","63","287766","0.0-7.0-3.5","","null","","<div class='trialBorder'><div class='vertical-center'><img src='img/fixation2_sml.jpg'</img></div></div>","null","DELAY","","","","","","","","","","",""
"","","","","636598a7a571403968d03bf2","bdp_wmem","Tue Mar 14 2023 21:25:06 GMT-0400 (Eastern Daylight Time)","713881","Match,No Match","html-keyboard-response","64","288754","0.0-7.0-4.5","","987","","<div class='trialBorder'><div class='targDiv'><div class='tc'><img class='introPic' src='trustrating_stim/white_mw042.bmp'><br><font color='red'><strong>Keep</strong></font></div></div><div class='respDiv'><div class='respDivL'>Match<br>(e)</div><div class='respDivR'>No Match<br>(i)</div></div></div>","i","TARGET","1","trustrating_stim/white_mw040.bmp","0","noMatchFace","i","1500","trustrating_stim/white_mw042.bmp","red","Keep","REAL","1"
"","","","","636598a7a571403968d03bf2","bdp_wmem","Tue Mar 14 2023 21:25:06 GMT-0400 (Eastern Daylight Time)","713881","Match,No Match","html-keyboard-response","65","289267","0.0-7.0-5.5","","null","","<div class='trialBorder'><div class='vertical-center'><img src='img/correct.jpg'></div><div class='respDiv'><div class='respDivL'>Match<br>(e)</div><div class='respDivR'><font style='color:orange'>No Match<br>(i)</font></div></div></div>","null","FEEDBACK","","","","","","","","","","",""
"","","","","636598a7a571403968d03bf2","bdp_wmem","Tue Mar 14 2023 21:25:06 GMT-0400 (Eastern Daylight Time)","713881","Match,No Match","html-keyboard-response","66","289781","0.0-7.0-1.6","","null","","<div class='trialBorder'><div class='vertical-center'><img src='img/fixation2_sml.jpg'</img></div></div>","null","FIX","","","","","","","","","","",""
"","","","","636598a7a571403968d03bf2","bdp_wmem","Tue Mar 14 2023 21:25:06 GMT-0400 (Eastern Daylight Time)","713881","Match,No Match","html-keyboard-response","67","292795","0.0-7.0-2.6","","null","","<div class='trialBorder'><div class='vertical-center'><img style='vertical-align:center; align:center' src='img/fixation2_sml.jpg'></div><div class='arrayDiv2'><div class='tl'><img class='introPic' src='trustrating_stim/white_mw092.bmp'><br><font color='green'><strong>Share</strong></font></div><div class='tr'><img class='introPic' src='trustrating_stim/white_mw038.bmp'><br><font color='red'><strong>Keep</strong></font></div></div></div>","null","ARRAY","2","trustrating_stim/white_mw092.bmp,trustrating_stim/white_mw038.bmp","1,0","Match","e","3000","","","","",""
"","","","","636598a7a571403968d03bf2","bdp_wmem","Tue Mar 14 2023 21:25:06 GMT-0400 (Eastern Daylight Time)","713881","Match,No Match","html-keyboard-response","68","296802","0.0-7.0-3.6","","null","","<div class='trialBorder'><div class='vertical-center'><img src='img/fixation2_sml.jpg'</img></div></div>","null","DELAY","","","","","","","","","","",""
"","","","","636598a7a571403968d03bf2","bdp_wmem","Tue Mar 14 2023 21:25:06 GMT-0400 (Eastern Daylight Time)","713881","Match,No Match","html-keyboard-response","69","297754","0.0-7.0-4.6","","951","","<div class='trialBorder'><div class='targDiv'><div class='tc'><img class='introPic' src='trustrating_stim/white_mw092.bmp'><br><font color='green'><strong>Share</strong></font></div></div><div class='respDiv'><div class='respDivL'>Match<br>(e)</div><div class='respDivR'>No Match<br>(i)</div></div></div>","e","TARGET","2","trustrating_stim/white_mw092.bmp,trustrating_stim/white_mw038.bmp","1,0","Match","e","3000","trustrating_stim/white_mw092.bmp","green","Share","REAL","1"
"","","","","636598a7a571403968d03bf2","bdp_wmem","Tue Mar 14 2023 21:25:06 GMT-0400 (Eastern Daylight Time)","713881","Match,No Match","html-keyboard-response","70","298269","0.0-7.0-5.6","","null","","<div class='trialBorder'><div class='vertical-center'><img src='img/correct.jpg'></div><div class='respDiv'><div class='respDivL'><font style='color:orange'>Match<br>(e)</font></div><div class='respDivR'>No Match<br>(i)</div></div></div>","null","FEEDBACK","","","","","","","","","","",""
"","","","","636598a7a571403968d03bf2","bdp_wmem","Tue Mar 14 2023 21:25:06 GMT-0400 (Eastern Daylight Time)","713881","Match,No Match","html-keyboard-response","71","298781","0.0-7.0-1.7","","null","","<div class='trialBorder'><div class='vertical-center'><img src='img/fixation2_sml.jpg'</img></div></div>","null","FIX","","","","","","","","","","",""
"","","","","636598a7a571403968d03bf2","bdp_wmem","Tue Mar 14 2023 21:25:06 GMT-0400 (Eastern Daylight Time)","713881","Match,No Match","html-keyboard-response","72","300287","0.0-7.0-2.7","","null","","<div class='trialBorder'><div class='vertical-center'><img style='vertical-align:center; align:center' src='img/fixation2_sml.jpg'></div><div class='arrayDiv1'><div class='tc'><img class='introPic' src='trustrating_stim/white_mw085.bmp'><br><font color='red'><strong>Keep</strong></font></div></div></div>","null","ARRAY","1","trustrating_stim/white_mw085.bmp","0","noMatchOutcome","i","1500","","","","",""
"","","","","636598a7a571403968d03bf2","bdp_wmem","Tue Mar 14 2023 21:25:06 GMT-0400 (Eastern Daylight Time)","713881","Match,No Match","html-keyboard-response","73","304300","0.0-7.0-3.7","","null","","<div class='trialBorder'><div class='vertical-center'><img src='img/fixation2_sml.jpg'</img></div></div>","null","DELAY","","","","","","","","","","",""
"","","","","636598a7a571403968d03bf2","bdp_wmem","Tue Mar 14 2023 21:25:06 GMT-0400 (Eastern Daylight Time)","713881","Match,No Match","html-keyboard-response","74","304867","0.0-7.0-4.7","","565","","<div class='trialBorder'><div class='targDiv'><div class='tc'><img class='introPic' src='trustrating_stim/white_mw085.bmp'><br><font color='green'><strong>Share</strong></font></div></div><div class='respDiv'><div class='respDivL'>Match<br>(e)</div><div class='respDivR'>No Match<br>(i)</div></div></div>","e","TARGET","1","trustrating_stim/white_mw085.bmp","0","noMatchOutcome","i","1500","trustrating_stim/white_mw085.bmp","green","Share","REAL","0"
"","","","","636598a7a571403968d03bf2","bdp_wmem","Tue Mar 14 2023 21:25:06 GMT-0400 (Eastern Daylight Time)","713881","Match,No Match","html-keyboard-response","75","305375","0.0-7.0-5.7","","null","","<div class='trialBorder'><div class='vertical-center'><img src='img/error.jpg'></div><div class='respDiv'><div class='respDivL'><font style='color:orange'>Match<br>(e)</font></div><div class='respDivR'>No Match<br>(i)</div></div></div>","null","FEEDBACK","","","","","","","","","","",""
"","","","","636598a7a571403968d03bf2","bdp_wmem","Tue Mar 14 2023 21:25:06 GMT-0400 (Eastern Daylight Time)","713881","Match,No Match","html-keyboard-response","76","305878","0.0-7.0-1.8","","null","","<div class='trialBorder'><div class='vertical-center'><img src='img/fixation2_sml.jpg'</img></div></div>","null","FIX","","","","","","","","","","",""
"","","","","636598a7a571403968d03bf2","bdp_wmem","Tue Mar 14 2023 21:25:06 GMT-0400 (Eastern Daylight Time)","713881","Match,No Match","html-keyboard-response","77","308894","0.0-7.0-2.8","","null","","<div class='trialBorder'><div class='vertical-center'><img style='vertical-align:center; align:center' src='img/fixation2_sml.jpg'></div><div class='arrayDiv2'><div class='tl'><img class='introPic' src='trustrating_stim/white_mw091.bmp'><br><font color='green'><strong>Share</strong></font></div><div class='tr'><img class='introPic' src='trustrating_stim/white_mw092.bmp'><br><font color='red'><strong>Keep</strong></font></div></div></div>","null","ARRAY","2","trustrating_stim/white_mw091.bmp,trustrating_stim/white_mw092.bmp","1,0","Match","e","3000","","","","",""
"","","","","636598a7a571403968d03bf2","bdp_wmem","Tue Mar 14 2023 21:25:06 GMT-0400 (Eastern Daylight Time)","713881","Match,No Match","html-keyboard-response","78","312903","0.0-7.0-3.8","","null","","<div class='trialBorder'><div class='vertical-center'><img src='img/fixation2_sml.jpg'</img></div></div>","null","DELAY","","","","","","","","","","",""
"","","","","636598a7a571403968d03bf2","bdp_wmem","Tue Mar 14 2023 21:25:06 GMT-0400 (Eastern Daylight Time)","713881","Match,No Match","html-keyboard-response","79","313922","0.0-7.0-4.8","","1017","","<div class='trialBorder'><div class='targDiv'><div class='tc'><img class='introPic' src='trustrating_stim/white_mw091.bmp'><br><font color='green'><strong>Share</strong></font></div></div><div class='respDiv'><div class='respDivL'>Match<br>(e)</div><div class='respDivR'>No Match<br>(i)</div></div></div>","e","TARGET","2","trustrating_stim/white_mw091.bmp,trustrating_stim/white_mw092.bmp","1,0","Match","e","3000","trustrating_stim/white_mw091.bmp","green","Share","REAL","1"
"","","","","636598a7a571403968d03bf2","bdp_wmem","Tue Mar 14 2023 21:25:06 GMT-0400 (Eastern Daylight Time)","713881","Match,No Match","html-keyboard-response","80","314432","0.0-7.0-5.8","","null","","<div class='trialBorder'><div class='vertical-center'><img src='img/correct.jpg'></div><div class='respDiv'><div class='respDivL'><font style='color:orange'>Match<br>(e)</font></div><div class='respDivR'>No Match<br>(i)</div></div></div>","null","FEEDBACK","","","","","","","","","","",""
"","","","","636598a7a571403968d03bf2","bdp_wmem","Tue Mar 14 2023 21:25:06 GMT-0400 (Eastern Daylight Time)","713881","Match,No Match","html-keyboard-response","81","314933","0.0-7.0-1.9","","null","","<div class='trialBorder'><div class='vertical-center'><img src='img/fixation2_sml.jpg'</img></div></div>","null","FIX","","","","","","","","","","",""
"","","","","636598a7a571403968d03bf2","bdp_wmem","Tue Mar 14 2023 21:25:06 GMT-0400 (Eastern Daylight Time)","713881","Match,No Match","html-keyboard-response","82","316444","0.0-7.0-2.9","","null","","<div class='trialBorder'><div class='vertical-center'><img style='vertical-align:center; align:center' src='img/fixation2_sml.jpg'></div><div class='arrayDiv1'><div class='tc'><img class='introPic' src='trustrating_stim/white_mw078.bmp'><br><font color='red'><strong>Keep</strong></font></div></div></div>","null","ARRAY","1","trustrating_stim/white_mw078.bmp","0","Match","e","1500","","","","",""
"","","","","636598a7a571403968d03bf2","bdp_wmem","Tue Mar 14 2023 21:25:06 GMT-0400 (Eastern Daylight Time)","713881","Match,No Match","html-keyboard-response","83","320457","0.0-7.0-3.9","","null","","<div class='trialBorder'><div class='vertical-center'><img src='img/fixation2_sml.jpg'</img></div></div>","null","DELAY","","","","","","","","","","",""
"","","","","636598a7a571403968d03bf2","bdp_wmem","Tue Mar 14 2023 21:25:06 GMT-0400 (Eastern Daylight Time)","713881","Match,No Match","html-keyboard-response","84","321634","0.0-7.0-4.9","","1176","","<div class='trialBorder'><div class='targDiv'><div class='tc'><img class='introPic' src='trustrating_stim/white_mw078.bmp'><br><font color='red'><strong>Keep</strong></font></div></div><div class='respDiv'><div class='respDivL'>Match<br>(e)</div><div class='respDivR'>No Match<br>(i)</div></div></div>","e","TARGET","1","trustrating_stim/white_mw078.bmp","0","Match","e","1500","trustrating_stim/white_mw078.bmp","red","Keep","REAL","1"
"","","","","636598a7a571403968d03bf2","bdp_wmem","Tue Mar 14 2023 21:25:06 GMT-0400 (Eastern Daylight Time)","713881","Match,No Match","html-keyboard-response","85","322147","0.0-7.0-5.9","","null","","<div class='trialBorder'><div class='vertical-center'><img src='img/correct.jpg'></div><div class='respDiv'><div class='respDivL'><font style='color:orange'>Match<br>(e)</font></div><div class='respDivR'>No Match<br>(i)</div></div></div>","null","FEEDBACK","","","","","","","","","","",""
"","","","","636598a7a571403968d03bf2","bdp_wmem","Tue Mar 14 2023 21:25:06 GMT-0400 (Eastern Daylight Time)","713881","Match,No Match","html-keyboard-response","86","322660","0.0-7.0-1.10","","null","","<div class='trialBorder'><div class='vertical-center'><img src='img/fixation2_sml.jpg'</img></div></div>","null","FIX","","","","","","","","","","",""
"","","","","636598a7a571403968d03bf2","bdp_wmem","Tue Mar 14 2023 21:25:06 GMT-0400 (Eastern Daylight Time)","713881","Match,No Match","html-keyboard-response","87","325672","0.0-7.0-2.10","","null","","<div class='trialBorder'><div class='vertical-center'><img style='vertical-align:center; align:center' src='img/fixation2_sml.jpg'></div><div class='arrayDiv2'><div class='tl'><img class='introPic' src='trustrating_stim/white_mw040.bmp'><br><font color='red'><strong>Keep</strong></font></div><div class='tr'><img class='introPic' src='trustrating_stim/white_mw092.bmp'><br><font color='green'><strong>Share</strong></font></div></div></div>","null","ARRAY","2","trustrating_stim/white_mw040.bmp,trustrating_stim/white_mw092.bmp","0,1","noMatchOutcome","i","3000","","","","",""
"","","","","636598a7a571403968d03bf2","bdp_wmem","Tue Mar 14 2023 21:25:06 GMT-0400 (Eastern Daylight Time)","713881","Match,No Match","html-keyboard-response","88","329680","0.0-7.0-3.10","","null","","<div class='trialBorder'><div class='vertical-center'><img src='img/fixation2_sml.jpg'</img></div></div>","null","DELAY","","","","","","","","","","",""
"","","","","636598a7a571403968d03bf2","bdp_wmem","Tue Mar 14 2023 21:25:06 GMT-0400 (Eastern Daylight Time)","713881","Match,No Match","html-keyboard-response","89","330890","0.0-7.0-4.10","","1209","","<div class='trialBorder'><div class='targDiv'><div class='tc'><img class='introPic' src='trustrating_stim/white_mw040.bmp'><br><font color='green'><strong>Share</strong></font></div></div><div class='respDiv'><div class='respDivL'>Match<br>(e)</div><div class='respDivR'>No Match<br>(i)</div></div></div>","e","TARGET","2","trustrating_stim/white_mw040.bmp,trustrating_stim/white_mw092.bmp","0,1","noMatchOutcome","i","3000","trustrating_stim/white_mw040.bmp","green","Share","REAL","0"
"","","","","636598a7a571403968d03bf2","bdp_wmem","Tue Mar 14 2023 21:25:06 GMT-0400 (Eastern Daylight Time)","713881","Match,No Match","html-keyboard-response","90","331401","0.0-7.0-5.10","","null","","<div class='trialBorder'><div class='vertical-center'><img src='img/error.jpg'></div><div class='respDiv'><div class='respDivL'><font style='color:orange'>Match<br>(e)</font></div><div class='respDivR'>No Match<br>(i)</div></div></div>","null","FEEDBACK","","","","","","","","","","",""
"","","","","636598a7a571403968d03bf2","bdp_wmem","Tue Mar 14 2023 21:25:06 GMT-0400 (Eastern Daylight Time)","713881","Match,No Match","html-keyboard-response","91","331915","0.0-7.0-1.11","","null","","<div class='trialBorder'><div class='vertical-center'><img src='img/fixation2_sml.jpg'</img></div></div>","null","FIX","","","","","","","","","","",""
"","","","","636598a7a571403968d03bf2","bdp_wmem","Tue Mar 14 2023 21:25:06 GMT-0400 (Eastern Daylight Time)","713881","Match,No Match","html-keyboard-response","92","336424","0.0-7.0-2.11","","null","","<div class='trialBorder'><div class='vertical-center'><img style='vertical-align:center; align:center' src='img/fixation2_sml.jpg'></div><div class='arrayDiv3'><div class='tl'><img class='introPic' src='trustrating_stim/white_mw013.bmp'><br><font color='green'><strong>Share</strong></font></div><div class='tc'><img class='introPic' src='trustrating_stim/white_mw038.bmp'><br><font color='red'><strong>Keep</strong></font></div><div class='tr'><img class='introPic' src='trustrating_stim/white_mw040.bmp'><br><font color='red'><strong>Keep</strong></font></div></div></div>","null","ARRAY","3","trustrating_stim/white_mw013.bmp,trustrating_stim/white_mw038.bmp,trustrating_stim/white_mw040.bmp","1,0,0","Match","e","4500","","","","",""
"","","","","636598a7a571403968d03bf2","bdp_wmem","Tue Mar 14 2023 21:25:06 GMT-0400 (Eastern Daylight Time)","713881","Match,No Match","html-keyboard-response","93","340433","0.0-7.0-3.11","","null","","<div class='trialBorder'><div class='vertical-center'><img src='img/fixation2_sml.jpg'</img></div></div>","null","DELAY","","","","","","","","","","",""
"","","","","636598a7a571403968d03bf2","bdp_wmem","Tue Mar 14 2023 21:25:06 GMT-0400 (Eastern Daylight Time)","713881","Match,No Match","html-keyboard-response","94","342531","0.0-7.0-4.11","","2098","","<div class='trialBorder'><div class='targDiv'><div class='tc'><img class='introPic' src='trustrating_stim/white_mw013.bmp'><br><font color='green'><strong>Share</strong></font></div></div><div class='respDiv'><div class='respDivL'>Match<br>(e)</div><div class='respDivR'>No Match<br>(i)</div></div></div>","e","TARGET","3","trustrating_stim/white_mw013.bmp,trustrating_stim/white_mw038.bmp,trustrating_stim/white_mw040.bmp","1,0,0","Match","e","4500","trustrating_stim/white_mw013.bmp","green","Share","REAL","1"
"","","","","636598a7a571403968d03bf2","bdp_wmem","Tue Mar 14 2023 21:25:06 GMT-0400 (Eastern Daylight Time)","713881","Match,No Match","html-keyboard-response","95","343035","0.0-7.0-5.11","","null","","<div class='trialBorder'><div class='vertical-center'><img src='img/correct.jpg'></div><div class='respDiv'><div class='respDivL'><font style='color:orange'>Match<br>(e)</font></div><div class='respDivR'>No Match<br>(i)</div></div></div>","null","FEEDBACK","","","","","","","","","","",""
"","","","","636598a7a571403968d03bf2","bdp_wmem","Tue Mar 14 2023 21:25:06 GMT-0400 (Eastern Daylight Time)","713881","Match,No Match","html-keyboard-response","96","343536","0.0-7.0-1.12","","null","","<div class='trialBorder'><div class='vertical-center'><img src='img/fixation2_sml.jpg'</img></div></div>","null","FIX","","","","","","","","","","",""
"","","","","636598a7a571403968d03bf2","bdp_wmem","Tue Mar 14 2023 21:25:06 GMT-0400 (Eastern Daylight Time)","713881","Match,No Match","html-keyboard-response","97","346547","0.0-7.0-2.12","","null","","<div class='trialBorder'><div class='vertical-center'><img style='vertical-align:center; align:center' src='img/fixation2_sml.jpg'></div><div class='arrayDiv2'><div class='tl'><img class='introPic' src='trustrating_stim/white_mw012.bmp'><br><font color='green'><strong>Share</strong></font></div><div class='tr'><img class='introPic' src='trustrating_stim/white_mw010.bmp'><br><font color='red'><strong>Keep</strong></font></div></div></div>","null","ARRAY","2","trustrating_stim/white_mw012.bmp,trustrating_stim/white_mw010.bmp","1,0","Match","e","3000","","","","",""
"","","","","636598a7a571403968d03bf2","bdp_wmem","Tue Mar 14 2023 21:25:06 GMT-0400 (Eastern Daylight Time)","713881","Match,No Match","html-keyboard-response","98","350558","0.0-7.0-3.12","","null","","<div class='trialBorder'><div class='vertical-center'><img src='img/fixation2_sml.jpg'</img></div></div>","null","DELAY","","","","","","","","","","",""
"","","","","636598a7a571403968d03bf2","bdp_wmem","Tue Mar 14 2023 21:25:06 GMT-0400 (Eastern Daylight Time)","713881","Match,No Match","html-keyboard-response","99","351618","0.0-7.0-4.12","","1060","","<div class='trialBorder'><div class='targDiv'><div class='tc'><img class='introPic' src='trustrating_stim/white_mw010.bmp'><br><font color='red'><strong>Keep</strong></font></div></div><div class='respDiv'><div class='respDivL'>Match<br>(e)</div><div class='respDivR'>No Match<br>(i)</div></div></div>","e","TARGET","2","trustrating_stim/white_mw012.bmp,trustrating_stim/white_mw010.bmp","1,0","Match","e","3000","trustrating_stim/white_mw010.bmp","red","Keep","REAL","1"
"","","","","636598a7a571403968d03bf2","bdp_wmem","Tue Mar 14 2023 21:25:06 GMT-0400 (Eastern Daylight Time)","713881","Match,No Match","html-keyboard-response","100","352121","0.0-7.0-5.12","","null","","<div class='trialBorder'><div class='vertical-center'><img src='img/correct.jpg'></div><div class='respDiv'><div class='respDivL'><font style='color:orange'>Match<br>(e)</font></div><div class='respDivR'>No Match<br>(i)</div></div></div>","null","FEEDBACK","","","","","","","","","","",""
"","","","","636598a7a571403968d03bf2","bdp_wmem","Tue Mar 14 2023 21:25:06 GMT-0400 (Eastern Daylight Time)","713881","Match,No Match","html-keyboard-response","101","352635","0.0-7.0-1.13","","null","","<div class='trialBorder'><div class='vertical-center'><img src='img/fixation2_sml.jpg'</img></div></div>","null","FIX","","","","","","","","","","",""
"","","","","636598a7a571403968d03bf2","bdp_wmem","Tue Mar 14 2023 21:25:06 GMT-0400 (Eastern Daylight Time)","713881","Match,No Match","html-keyboard-response","102","354143","0.0-7.0-2.13","","null","","<div class='trialBorder'><div class='vertical-center'><img style='vertical-align:center; align:center' src='img/fixation2_sml.jpg'></div><div class='arrayDiv1'><div class='tc'><img class='introPic' src='trustrating_stim/white_mw092.bmp'><br><font color='red'><strong>Keep</strong></font></div></div></div>","null","ARRAY","1","trustrating_stim/white_mw092.bmp","0","Match","e","1500","","","","",""
"","","","","636598a7a571403968d03bf2","bdp_wmem","Tue Mar 14 2023 21:25:06 GMT-0400 (Eastern Daylight Time)","713881","Match,No Match","html-keyboard-response","103","358148","0.0-7.0-3.13","","null","","<div class='trialBorder'><div class='vertical-center'><img src='img/fixation2_sml.jpg'</img></div></div>","null","DELAY","","","","","","","","","","",""
"","","","","636598a7a571403968d03bf2","bdp_wmem","Tue Mar 14 2023 21:25:06 GMT-0400 (Eastern Daylight Time)","713881","Match,No Match","html-keyboard-response","104","359859","0.0-7.0-4.13","","1710","","<div class='trialBorder'><div class='targDiv'><div class='tc'><img class='introPic' src='trustrating_stim/white_mw092.bmp'><br><font color='red'><strong>Keep</strong></font></div></div><div class='respDiv'><div class='respDivL'>Match<br>(e)</div><div class='respDivR'>No Match<br>(i)</div></div></div>","e","TARGET","1","trustrating_stim/white_mw092.bmp","0","Match","e","1500","trustrating_stim/white_mw092.bmp","red","Keep","REAL","1"
"","","","","636598a7a571403968d03bf2","bdp_wmem","Tue Mar 14 2023 21:25:06 GMT-0400 (Eastern Daylight Time)","713881","Match,No Match","html-keyboard-response","105","360359","0.0-7.0-5.13","","null","","<div class='trialBorder'><div class='vertical-center'><img src='img/correct.jpg'></div><div class='respDiv'><div class='respDivL'><font style='color:orange'>Match<br>(e)</font></div><div class='respDivR'>No Match<br>(i)</div></div></div>","null","FEEDBACK","","","","","","","","","","",""
"","","","","636598a7a571403968d03bf2","bdp_wmem","Tue Mar 14 2023 21:25:06 GMT-0400 (Eastern Daylight Time)","713881","Match,No Match","html-keyboard-response","106","360860","0.0-7.0-1.14","","null","","<div class='trialBorder'><div class='vertical-center'><img src='img/fixation2_sml.jpg'</img></div></div>","null","FIX","","","","","","","","","","",""
"","","","","636598a7a571403968d03bf2","bdp_wmem","Tue Mar 14 2023 21:25:06 GMT-0400 (Eastern Daylight Time)","713881","Match,No Match","html-keyboard-response","107","362373","0.0-7.0-2.14","","null","","<div class='trialBorder'><div class='vertical-center'><img style='vertical-align:center; align:center' src='img/fixation2_sml.jpg'></div><div class='arrayDiv1'><div class='tc'><img class='introPic' src='trustrating_stim/white_mw038.bmp'><br><font color='red'><strong>Keep</strong></font></div></div></div>","null","ARRAY","1","trustrating_stim/white_mw038.bmp","0","noMatchFace","i","1500","","","","",""
"","","","","636598a7a571403968d03bf2","bdp_wmem","Tue Mar 14 2023 21:25:06 GMT-0400 (Eastern Daylight Time)","713881","Match,No Match","html-keyboard-response","108","366379","0.0-7.0-3.14","","null","","<div class='trialBorder'><div class='vertical-center'><img src='img/fixation2_sml.jpg'</img></div></div>","null","DELAY","","","","","","","","","","",""
"","","","","636598a7a571403968d03bf2","bdp_wmem","Tue Mar 14 2023 21:25:06 GMT-0400 (Eastern Daylight Time)","713881","Match,No Match","html-keyboard-response","109","379403","0.0-7.0-4.14","","13023","","<div class='trialBorder'><div class='targDiv'><div class='tc'><img class='introPic' src='trustrating_stim/white_mw070.bmp'><br><font color='red'><strong>Keep</strong></font></div></div><div class='respDiv'><div class='respDivL'>Match<br>(e)</div><div class='respDivR'>No Match<br>(i)</div></div></div>","e","TARGET","1","trustrating_stim/white_mw038.bmp","0","noMatchFace","i","1500","trustrating_stim/white_mw070.bmp","red","Keep","REAL","0"
"","","","","636598a7a571403968d03bf2","bdp_wmem","Tue Mar 14 2023 21:25:06 GMT-0400 (Eastern Daylight Time)","713881","Match,No Match","html-keyboard-response","110","379916","0.0-7.0-5.14","","null","","<div class='trialBorder'><div class='vertical-center'><img src='img/error.jpg'></div><div class='respDiv'><div class='respDivL'><font style='color:orange'>Match<br>(e)</font></div><div class='respDivR'>No Match<br>(i)</div></div></div>","null","FEEDBACK","","","","","","","","","","",""
"","","","","636598a7a571403968d03bf2","bdp_wmem","Tue Mar 14 2023 21:25:06 GMT-0400 (Eastern Daylight Time)","713881","Match,No Match","html-keyboard-response","111","380417","0.0-7.0-1.15","","null","","<div class='trialBorder'><div class='vertical-center'><img src='img/fixation2_sml.jpg'</img></div></div>","null","FIX","","","","","","","","","","",""
"","","","","636598a7a571403968d03bf2","bdp_wmem","Tue Mar 14 2023 21:25:06 GMT-0400 (Eastern Daylight Time)","713881","Match,No Match","html-keyboard-response","112","383421","0.0-7.0-2.15","","null","","<div class='trialBorder'><div class='vertical-center'><img style='vertical-align:center; align:center' src='img/fixation2_sml.jpg'></div><div class='arrayDiv2'><div class='tl'><img class='introPic' src='trustrating_stim/white_mw042.bmp'><br><font color='green'><strong>Share</strong></font></div><div class='tr'><img class='introPic' src='trustrating_stim/white_mw091.bmp'><br><font color='red'><strong>Keep</strong></font></div></div></div>","null","ARRAY","2","trustrating_stim/white_mw042.bmp,trustrating_stim/white_mw091.bmp","1,0","noMatchOutcome","i","3000","","","","",""
"","","","","636598a7a571403968d03bf2","bdp_wmem","Tue Mar 14 2023 21:25:06 GMT-0400 (Eastern Daylight Time)","713881","Match,No Match","html-keyboard-response","113","387429","0.0-7.0-3.15","","null","","<div class='trialBorder'><div class='vertical-center'><img src='img/fixation2_sml.jpg'</img></div></div>","null","DELAY","","","","","","","","","","",""
"","","","","636598a7a571403968d03bf2","bdp_wmem","Tue Mar 14 2023 21:25:06 GMT-0400 (Eastern Daylight Time)","713881","Match,No Match","html-keyboard-response","114","388428","0.0-7.0-4.15","","997","","<div class='trialBorder'><div class='targDiv'><div class='tc'><img class='introPic' src='trustrating_stim/white_mw091.bmp'><br><font color='green'><strong>Share</strong></font></div></div><div class='respDiv'><div class='respDivL'>Match<br>(e)</div><div class='respDivR'>No Match<br>(i)</div></div></div>","e","TARGET","2","trustrating_stim/white_mw042.bmp,trustrating_stim/white_mw091.bmp","1,0","noMatchOutcome","i","3000","trustrating_stim/white_mw091.bmp","green","Share","REAL","0"
"","","","","636598a7a571403968d03bf2","bdp_wmem","Tue Mar 14 2023 21:25:06 GMT-0400 (Eastern Daylight Time)","713881","Match,No Match","html-keyboard-response","115","388935","0.0-7.0-5.15","","null","","<div class='trialBorder'><div class='vertical-center'><img src='img/error.jpg'></div><div class='respDiv'><div class='respDivL'><font style='color:orange'>Match<br>(e)</font></div><div class='respDivR'>No Match<br>(i)</div></div></div>","null","FEEDBACK","","","","","","","","","","",""
"","","","","636598a7a571403968d03bf2","bdp_wmem","Tue Mar 14 2023 21:25:06 GMT-0400 (Eastern Daylight Time)","713881","Match,No Match","html-keyboard-response","116","389449","0.0-7.0-1.16","","null","","<div class='trialBorder'><div class='vertical-center'><img src='img/fixation2_sml.jpg'</img></div></div>","null","FIX","","","","","","","","","","",""
"","","","","636598a7a571403968d03bf2","bdp_wmem","Tue Mar 14 2023 21:25:06 GMT-0400 (Eastern Daylight Time)","713881","Match,No Match","html-keyboard-response","117","393951","0.0-7.0-2.16","","null","","<div class='trialBorder'><div class='vertical-center'><img style='vertical-align:center; align:center' src='img/fixation2_sml.jpg'></div><div class='arrayDiv3'><div class='tl'><img class='introPic' src='trustrating_stim/white_mw012.bmp'><br><font color='red'><strong>Keep</strong></font></div><div class='tc'><img class='introPic' src='trustrating_stim/white_mw040.bmp'><br><font color='green'><strong>Share</strong></font></div><div class='tr'><img class='introPic' src='trustrating_stim/white_mw085.bmp'><br><font color='green'><strong>Share</strong></font></div></div></div>","null","ARRAY","3","trustrating_stim/white_mw012.bmp,trustrating_stim/white_mw040.bmp,trustrating_stim/white_mw085.bmp","0,1,1","Match","e","4500","","","","",""
"","","","","636598a7a571403968d03bf2","bdp_wmem","Tue Mar 14 2023 21:25:06 GMT-0400 (Eastern Daylight Time)","713881","Match,No Match","html-keyboard-response","118","397953","0.0-7.0-3.16","","null","","<div class='trialBorder'><div class='vertical-center'><img src='img/fixation2_sml.jpg'</img></div></div>","null","DELAY","","","","","","","","","","",""
"","","","","636598a7a571403968d03bf2","bdp_wmem","Tue Mar 14 2023 21:25:06 GMT-0400 (Eastern Daylight Time)","713881","Match,No Match","html-keyboard-response","119","399364","0.0-7.0-4.16","","1410","","<div class='trialBorder'><div class='targDiv'><div class='tc'><img class='introPic' src='trustrating_stim/white_mw085.bmp'><br><font color='green'><strong>Share</strong></font></div></div><div class='respDiv'><div class='respDivL'>Match<br>(e)</div><div class='respDivR'>No Match<br>(i)</div></div></div>","e","TARGET","3","trustrating_stim/white_mw012.bmp,trustrating_stim/white_mw040.bmp,trustrating_stim/white_mw085.bmp","0,1,1","Match","e","4500","trustrating_stim/white_mw085.bmp","green","Share","REAL","1"
"","","","","636598a7a571403968d03bf2","bdp_wmem","Tue Mar 14 2023 21:25:06 GMT-0400 (Eastern Daylight Time)","713881","Match,No Match","html-keyboard-response","120","399872","0.0-7.0-5.16","","null","","<div class='trialBorder'><div class='vertical-center'><img src='img/correct.jpg'></div><div class='respDiv'><div class='respDivL'><font style='color:orange'>Match<br>(e)</font></div><div class='respDivR'>No Match<br>(i)</div></div></div>","null","FEEDBACK","","","","","","","","","","",""
"","","","","636598a7a571403968d03bf2","bdp_wmem","Tue Mar 14 2023 21:25:06 GMT-0400 (Eastern Daylight Time)","713881","Match,No Match","html-keyboard-response","121","400386","0.0-7.0-1.17","","null","","<div class='trialBorder'><div class='vertical-center'><img src='img/fixation2_sml.jpg'</img></div></div>","null","FIX","","","","","","","","","","",""
"","","","","636598a7a571403968d03bf2","bdp_wmem","Tue Mar 14 2023 21:25:06 GMT-0400 (Eastern Daylight Time)","713881","Match,No Match","html-keyboard-response","122","403389","0.0-7.0-2.17","","null","","<div class='trialBorder'><div class='vertical-center'><img style='vertical-align:center; align:center' src='img/fixation2_sml.jpg'></div><div class='arrayDiv2'><div class='tl'><img class='introPic' src='trustrating_stim/white_mw091.bmp'><br><font color='red'><strong>Keep</strong></font></div><div class='tr'><img class='introPic' src='trustrating_stim/white_mw040.bmp'><br><font color='green'><strong>Share</strong></font></div></div></div>","null","ARRAY","2","trustrating_stim/white_mw091.bmp,trustrating_stim/white_mw040.bmp","0,1","noMatchFace","i","3000","","","","",""
"","","","","636598a7a571403968d03bf2","bdp_wmem","Tue Mar 14 2023 21:25:06 GMT-0400 (Eastern Daylight Time)","713881","Match,No Match","html-keyboard-response","123","407391","0.0-7.0-3.17","","null","","<div class='trialBorder'><div class='vertical-center'><img src='img/fixation2_sml.jpg'</img></div></div>","null","DELAY","","","","","","","","","","",""
"","","","","636598a7a571403968d03bf2","bdp_wmem","Tue Mar 14 2023 21:25:06 GMT-0400 (Eastern Daylight Time)","713881","Match,No Match","html-keyboard-response","124","408642","0.0-7.0-4.17","","1251","","<div class='trialBorder'><div class='targDiv'><div class='tc'><img class='introPic' src='trustrating_stim/white_mw003.bmp'><br><font color='red'><strong>Keep</strong></font></div></div><div class='respDiv'><div class='respDivL'>Match<br>(e)</div><div class='respDivR'>No Match<br>(i)</div></div></div>","i","TARGET","2","trustrating_stim/white_mw091.bmp,trustrating_stim/white_mw040.bmp","0,1","noMatchFace","i","3000","trustrating_stim/white_mw003.bmp","red","Keep","REAL","1"
"","","","","636598a7a571403968d03bf2","bdp_wmem","Tue Mar 14 2023 21:25:06 GMT-0400 (Eastern Daylight Time)","713881","Match,No Match","html-keyboard-response","125","409158","0.0-7.0-5.17","","null","","<div class='trialBorder'><div class='vertical-center'><img src='img/correct.jpg'></div><div class='respDiv'><div class='respDivL'>Match<br>(e)</div><div class='respDivR'><font style='color:orange'>No Match<br>(i)</font></div></div></div>","null","FEEDBACK","","","","","","","","","","",""
"","","","","636598a7a571403968d03bf2","bdp_wmem","Tue Mar 14 2023 21:25:06 GMT-0400 (Eastern Daylight Time)","713881","Match,No Match","html-keyboard-response","126","409672","0.0-7.0-1.18","","null","","<div class='trialBorder'><div class='vertical-center'><img src='img/fixation2_sml.jpg'</img></div></div>","null","FIX","","","","","","","","","","",""
"","","","","636598a7a571403968d03bf2","bdp_wmem","Tue Mar 14 2023 21:25:06 GMT-0400 (Eastern Daylight Time)","713881","Match,No Match","html-keyboard-response","127","411174","0.0-7.0-2.18","","null","","<div class='trialBorder'><div class='vertical-center'><img style='vertical-align:center; align:center' src='img/fixation2_sml.jpg'></div><div class='arrayDiv1'><div class='tc'><img class='introPic' src='trustrating_stim/white_mw042.bmp'><br><font color='green'><strong>Share</strong></font></div></div></div>","null","ARRAY","1","trustrating_stim/white_mw042.bmp","1","noMatchOutcome","i","1500","","","","",""
"","","","","636598a7a571403968d03bf2","bdp_wmem","Tue Mar 14 2023 21:25:06 GMT-0400 (Eastern Daylight Time)","713881","Match,No Match","html-keyboard-response","128","415188","0.0-7.0-3.18","","null","","<div class='trialBorder'><div class='vertical-center'><img src='img/fixation2_sml.jpg'</img></div></div>","null","DELAY","","","","","","","","","","",""
"","","","","636598a7a571403968d03bf2","bdp_wmem","Tue Mar 14 2023 21:25:06 GMT-0400 (Eastern Daylight Time)","713881","Match,No Match","html-keyboard-response","129","416132","0.0-7.0-4.18","","943","","<div class='trialBorder'><div class='targDiv'><div class='tc'><img class='introPic' src='trustrating_stim/white_mw042.bmp'><br><font color='red'><strong>Keep</strong></font></div></div><div class='respDiv'><div class='respDivL'>Match<br>(e)</div><div class='respDivR'>No Match<br>(i)</div></div></div>","i","TARGET","1","trustrating_stim/white_mw042.bmp","1","noMatchOutcome","i","1500","trustrating_stim/white_mw042.bmp","red","Keep","REAL","1"
"","","","","636598a7a571403968d03bf2","bdp_wmem","Tue Mar 14 2023 21:25:06 GMT-0400 (Eastern Daylight Time)","713881","Match,No Match","html-keyboard-response","130","416648","0.0-7.0-5.18","","null","","<div class='trialBorder'><div class='vertical-center'><img src='img/correct.jpg'></div><div class='respDiv'><div class='respDivL'>Match<br>(e)</div><div class='respDivR'><font style='color:orange'>No Match<br>(i)</font></div></div></div>","null","FEEDBACK","","","","","","","","","","",""
"","","","","636598a7a571403968d03bf2","bdp_wmem","Tue Mar 14 2023 21:25:06 GMT-0400 (Eastern Daylight Time)","713881","Match,No Match","html-keyboard-response","131","417162","0.0-7.0-1.19","","null","","<div class='trialBorder'><div class='vertical-center'><img src='img/fixation2_sml.jpg'</img></div></div>","null","FIX","","","","","","","","","","",""
"","","","","636598a7a571403968d03bf2","bdp_wmem","Tue Mar 14 2023 21:25:06 GMT-0400 (Eastern Daylight Time)","713881","Match,No Match","html-keyboard-response","132","418677","0.0-7.0-2.19","","null","","<div class='trialBorder'><div class='vertical-center'><img style='vertical-align:center; align:center' src='img/fixation2_sml.jpg'></div><div class='arrayDiv1'><div class='tc'><img class='introPic' src='trustrating_stim/white_mw040.bmp'><br><font color='green'><strong>Share</strong></font></div></div></div>","null","ARRAY","1","trustrating_stim/white_mw040.bmp","1","noMatchFace","i","1500","","","","",""
"","","","","636598a7a571403968d03bf2","bdp_wmem","Tue Mar 14 2023 21:25:06 GMT-0400 (Eastern Daylight Time)","713881","Match,No Match","html-keyboard-response","133","422682","0.0-7.0-3.19","","null","","<div class='trialBorder'><div class='vertical-center'><img src='img/fixation2_sml.jpg'</img></div></div>","null","DELAY","","","","","","","","","","",""
"","","","","636598a7a571403968d03bf2","bdp_wmem","Tue Mar 14 2023 21:25:06 GMT-0400 (Eastern Daylight Time)","713881","Match,No Match","html-keyboard-response","134","424266","0.0-7.0-4.19","","1583","","<div class='trialBorder'><div class='targDiv'><div class='tc'><img class='introPic' src='trustrating_stim/white_mw012.bmp'><br><font color='green'><strong>Share</strong></font></div></div><div class='respDiv'><div class='respDivL'>Match<br>(e)</div><div class='respDivR'>No Match<br>(i)</div></div></div>","i","TARGET","1","trustrating_stim/white_mw040.bmp","1","noMatchFace","i","1500","trustrating_stim/white_mw012.bmp","green","Share","REAL","1"
"","","","","636598a7a571403968d03bf2","bdp_wmem","Tue Mar 14 2023 21:25:06 GMT-0400 (Eastern Daylight Time)","713881","Match,No Match","html-keyboard-response","135","424769","0.0-7.0-5.19","","null","","<div class='trialBorder'><div class='vertical-center'><img src='img/correct.jpg'></div><div class='respDiv'><div class='respDivL'>Match<br>(e)</div><div class='respDivR'><font style='color:orange'>No Match<br>(i)</font></div></div></div>","null","FEEDBACK","","","","","","","","","","",""
"","","","","636598a7a571403968d03bf2","bdp_wmem","Tue Mar 14 2023 21:25:06 GMT-0400 (Eastern Daylight Time)","713881","Match,No Match","html-keyboard-response","136","425270","0.0-7.0-1.20","","null","","<div class='trialBorder'><div class='vertical-center'><img src='img/fixation2_sml.jpg'</img></div></div>","null","FIX","","","","","","","","","","",""
"","","","","636598a7a571403968d03bf2","bdp_wmem","Tue Mar 14 2023 21:25:06 GMT-0400 (Eastern Daylight Time)","713881","Match,No Match","html-keyboard-response","137","429773","0.0-7.0-2.20","","null","","<div class='trialBorder'><div class='vertical-center'><img style='vertical-align:center; align:center' src='img/fixation2_sml.jpg'></div><div class='arrayDiv3'><div class='tl'><img class='introPic' src='trustrating_stim/white_mw040.bmp'><br><font color='green'><strong>Share</strong></font></div><div class='tc'><img class='introPic' src='trustrating_stim/white_mw012.bmp'><br><font color='red'><strong>Keep</strong></font></div><div class='tr'><img class='introPic' src='trustrating_stim/white_mw013.bmp'><br><font color='green'><strong>Share</strong></font></div></div></div>","null","ARRAY","3","trustrating_stim/white_mw040.bmp,trustrating_stim/white_mw012.bmp,trustrating_stim/white_mw013.bmp","1,0,1","noMatchFace","i","4500","","","","",""
"","","","","636598a7a571403968d03bf2","bdp_wmem","Tue Mar 14 2023 21:25:06 GMT-0400 (Eastern Daylight Time)","713881","Match,No Match","html-keyboard-response","138","433776","0.0-7.0-3.20","","null","","<div class='trialBorder'><div class='vertical-center'><img src='img/fixation2_sml.jpg'</img></div></div>","null","DELAY","","","","","","","","","","",""
"","","","","636598a7a571403968d03bf2","bdp_wmem","Tue Mar 14 2023 21:25:06 GMT-0400 (Eastern Daylight Time)","713881","Match,No Match","html-keyboard-response","139","435267","0.0-7.0-4.20","","1491","","<div class='trialBorder'><div class='targDiv'><div class='tc'><img class='introPic' src='trustrating_stim/white_mw091.bmp'><br><font color='red'><strong>Keep</strong></font></div></div><div class='respDiv'><div class='respDivL'>Match<br>(e)</div><div class='respDivR'>No Match<br>(i)</div></div></div>","i","TARGET","3","trustrating_stim/white_mw040.bmp,trustrating_stim/white_mw012.bmp,trustrating_stim/white_mw013.bmp","1,0,1","noMatchFace","i","4500","trustrating_stim/white_mw091.bmp","red","Keep","REAL","1"
"","","","","636598a7a571403968d03bf2","bdp_wmem","Tue Mar 14 2023 21:25:06 GMT-0400 (Eastern Daylight Time)","713881","Match,No Match","html-keyboard-response","140","435768","0.0-7.0-5.20","","null","","<div class='trialBorder'><div class='vertical-center'><img src='img/correct.jpg'></div><div class='respDiv'><div class='respDivL'>Match<br>(e)</div><div class='respDivR'><font style='color:orange'>No Match<br>(i)</font></div></div></div>","null","FEEDBACK","","","","","","","","","","",""
"","","","","636598a7a571403968d03bf2","bdp_wmem","Tue Mar 14 2023 21:25:06 GMT-0400 (Eastern Daylight Time)","713881","Match,No Match","html-keyboard-response","141","436283","0.0-7.0-1.21","","null","","<div class='trialBorder'><div class='vertical-center'><img src='img/fixation2_sml.jpg'</img></div></div>","null","FIX","","","","","","","","","","",""
"","","","","636598a7a571403968d03bf2","bdp_wmem","Tue Mar 14 2023 21:25:06 GMT-0400 (Eastern Daylight Time)","713881","Match,No Match","html-keyboard-response","142","440796","0.0-7.0-2.21","","null","","<div class='trialBorder'><div class='vertical-center'><img style='vertical-align:center; align:center' src='img/fixation2_sml.jpg'></div><div class='arrayDiv3'><div class='tl'><img class='introPic' src='trustrating_stim/white_mw085.bmp'><br><font color='green'><strong>Share</strong></font></div><div class='tc'><img class='introPic' src='trustrating_stim/white_mw003.bmp'><br><font color='red'><strong>Keep</strong></font></div><div class='tr'><img class='introPic' src='trustrating_stim/white_mw038.bmp'><br><font color='red'><strong>Keep</strong></font></div></div></div>","null","ARRAY","3","trustrating_stim/white_mw085.bmp,trustrating_stim/white_mw003.bmp,trustrating_stim/white_mw038.bmp","1,0,0","noMatchFace","i","4500","","","","",""
"","","","","636598a7a571403968d03bf2","bdp_wmem","Tue Mar 14 2023 21:25:06 GMT-0400 (Eastern Daylight Time)","713881","Match,No Match","html-keyboard-response","143","444798","0.0-7.0-3.21","","null","","<div class='trialBorder'><div class='vertical-center'><img src='img/fixation2_sml.jpg'</img></div></div>","null","DELAY","","","","","","","","","","",""
"","","","","636598a7a571403968d03bf2","bdp_wmem","Tue Mar 14 2023 21:25:06 GMT-0400 (Eastern Daylight Time)","713881","Match,No Match","html-keyboard-response","144","446411","0.0-7.0-4.21","","1613","","<div class='trialBorder'><div class='targDiv'><div class='tc'><img class='introPic' src='trustrating_stim/white_mw012.bmp'><br><font color='red'><strong>Keep</strong></font></div></div><div class='respDiv'><div class='respDivL'>Match<br>(e)</div><div class='respDivR'>No Match<br>(i)</div></div></div>","i","TARGET","3","trustrating_stim/white_mw085.bmp,trustrating_stim/white_mw003.bmp,trustrating_stim/white_mw038.bmp","1,0,0","noMatchFace","i","4500","trustrating_stim/white_mw012.bmp","red","Keep","REAL","1"
"","","","","636598a7a571403968d03bf2","bdp_wmem","Tue Mar 14 2023 21:25:06 GMT-0400 (Eastern Daylight Time)","713881","Match,No Match","html-keyboard-response","145","446916","0.0-7.0-5.21","","null","","<div class='trialBorder'><div class='vertical-center'><img src='img/correct.jpg'></div><div class='respDiv'><div class='respDivL'>Match<br>(e)</div><div class='respDivR'><font style='color:orange'>No Match<br>(i)</font></div></div></div>","null","FEEDBACK","","","","","","","","","","",""
"","","","","636598a7a571403968d03bf2","bdp_wmem","Tue Mar 14 2023 21:25:06 GMT-0400 (Eastern Daylight Time)","713881","Match,No Match","html-keyboard-response","146","447417","0.0-7.0-1.22","","null","","<div class='trialBorder'><div class='vertical-center'><img src='img/fixation2_sml.jpg'</img></div></div>","null","FIX","","","","","","","","","","",""
"","","","","636598a7a571403968d03bf2","bdp_wmem","Tue Mar 14 2023 21:25:06 GMT-0400 (Eastern Daylight Time)","713881","Match,No Match","html-keyboard-response","147","450423","0.0-7.0-2.22","","null","","<div class='trialBorder'><div class='vertical-center'><img style='vertical-align:center; align:center' src='img/fixation2_sml.jpg'></div><div class='arrayDiv2'><div class='tl'><img class='introPic' src='trustrating_stim/white_mw013.bmp'><br><font color='green'><strong>Share</strong></font></div><div class='tr'><img class='introPic' src='trustrating_stim/white_mw010.bmp'><br><font color='red'><strong>Keep</strong></font></div></div></div>","null","ARRAY","2","trustrating_stim/white_mw013.bmp,trustrating_stim/white_mw010.bmp","1,0","noMatchOutcome","i","3000","","","","",""
"","","","","636598a7a571403968d03bf2","bdp_wmem","Tue Mar 14 2023 21:25:06 GMT-0400 (Eastern Daylight Time)","713881","Match,No Match","html-keyboard-response","148","454432","0.0-7.0-3.22","","null","","<div class='trialBorder'><div class='vertical-center'><img src='img/fixation2_sml.jpg'</img></div></div>","null","DELAY","","","","","","","","","","",""
"","","","","636598a7a571403968d03bf2","bdp_wmem","Tue Mar 14 2023 21:25:06 GMT-0400 (Eastern Daylight Time)","713881","Match,No Match","html-keyboard-response","149","461411","0.0-7.0-4.22","","6979","","<div class='trialBorder'><div class='targDiv'><div class='tc'><img class='introPic' src='trustrating_stim/white_mw013.bmp'><br><font color='red'><strong>Keep</strong></font></div></div><div class='respDiv'><div class='respDivL'>Match<br>(e)</div><div class='respDivR'>No Match<br>(i)</div></div></div>","e","TARGET","2","trustrating_stim/white_mw013.bmp,trustrating_stim/white_mw010.bmp","1,0","noMatchOutcome","i","3000","trustrating_stim/white_mw013.bmp","red","Keep","REAL","0"
"","","","","636598a7a571403968d03bf2","bdp_wmem","Tue Mar 14 2023 21:25:06 GMT-0400 (Eastern Daylight Time)","713881","Match,No Match","html-keyboard-response","150","461920","0.0-7.0-5.22","","null","","<div class='trialBorder'><div class='vertical-center'><img src='img/error.jpg'></div><div class='respDiv'><div class='respDivL'><font style='color:orange'>Match<br>(e)</font></div><div class='respDivR'>No Match<br>(i)</div></div></div>","null","FEEDBACK","","","","","","","","","","",""
"","","","","636598a7a571403968d03bf2","bdp_wmem","Tue Mar 14 2023 21:25:06 GMT-0400 (Eastern Daylight Time)","713881","Match,No Match","html-keyboard-response","151","462434","0.0-7.0-1.23","","null","","<div class='trialBorder'><div class='vertical-center'><img src='img/fixation2_sml.jpg'</img></div></div>","null","FIX","","","","","","","","","","",""
"","","","","636598a7a571403968d03bf2","bdp_wmem","Tue Mar 14 2023 21:25:06 GMT-0400 (Eastern Daylight Time)","713881","Match,No Match","html-keyboard-response","152","465447","0.0-7.0-2.23","","null","","<div class='trialBorder'><div class='vertical-center'><img style='vertical-align:center; align:center' src='img/fixation2_sml.jpg'></div><div class='arrayDiv2'><div class='tl'><img class='introPic' src='trustrating_stim/white_mw078.bmp'><br><font color='red'><strong>Keep</strong></font></div><div class='tr'><img class='introPic' src='trustrating_stim/white_mw003.bmp'><br><font color='green'><strong>Share</strong></font></div></div></div>","null","ARRAY","2","trustrating_stim/white_mw078.bmp,trustrating_stim/white_mw003.bmp","0,1","Match","e","3000","","","","",""
"","","","","636598a7a571403968d03bf2","bdp_wmem","Tue Mar 14 2023 21:25:06 GMT-0400 (Eastern Daylight Time)","713881","Match,No Match","html-keyboard-response","153","469454","0.0-7.0-3.23","","null","","<div class='trialBorder'><div class='vertical-center'><img src='img/fixation2_sml.jpg'</img></div></div>","null","DELAY","","","","","","","","","","",""
"","","","","636598a7a571403968d03bf2","bdp_wmem","Tue Mar 14 2023 21:25:06 GMT-0400 (Eastern Daylight Time)","713881","Match,No Match","html-keyboard-response","154","470435","0.0-7.0-4.23","","980","","<div class='trialBorder'><div class='targDiv'><div class='tc'><img class='introPic' src='trustrating_stim/white_mw078.bmp'><br><font color='red'><strong>Keep</strong></font></div></div><div class='respDiv'><div class='respDivL'>Match<br>(e)</div><div class='respDivR'>No Match<br>(i)</div></div></div>","i","TARGET","2","trustrating_stim/white_mw078.bmp,trustrating_stim/white_mw003.bmp","0,1","Match","e","3000","trustrating_stim/white_mw078.bmp","red","Keep","REAL","0"
"","","","","636598a7a571403968d03bf2","bdp_wmem","Tue Mar 14 2023 21:25:06 GMT-0400 (Eastern Daylight Time)","713881","Match,No Match","html-keyboard-response","155","470938","0.0-7.0-5.23","","null","","<div class='trialBorder'><div class='vertical-center'><img src='img/error.jpg'></div><div class='respDiv'><div class='respDivL'>Match<br>(e)</div><div class='respDivR'><font style='color:orange'>No Match<br>(i)</font></div></div></div>","null","FEEDBACK","","","","","","","","","","",""
"","","","","636598a7a571403968d03bf2","bdp_wmem","Tue Mar 14 2023 21:25:06 GMT-0400 (Eastern Daylight Time)","713881","Match,No Match","html-keyboard-response","156","471455","0.0-7.0-1.24","","null","","<div class='trialBorder'><div class='vertical-center'><img src='img/fixation2_sml.jpg'</img></div></div>","null","FIX","","","","","","","","","","",""
"","","","","636598a7a571403968d03bf2","bdp_wmem","Tue Mar 14 2023 21:25:06 GMT-0400 (Eastern Daylight Time)","713881","Match,No Match","html-keyboard-response","157","475959","0.0-7.0-2.24","","null","","<div class='trialBorder'><div class='vertical-center'><img style='vertical-align:center; align:center' src='img/fixation2_sml.jpg'></div><div class='arrayDiv3'><div class='tl'><img class='introPic' src='trustrating_stim/white_mw091.bmp'><br><font color='red'><strong>Keep</strong></font></div><div class='tc'><img class='introPic' src='trustrating_stim/white_mw038.bmp'><br><font color='green'><strong>Share</strong></font></div><div class='tr'><img class='introPic' src='trustrating_stim/white_mw070.bmp'><br><font color='green'><strong>Share</strong></font></div></div></div>","null","ARRAY","3","trustrating_stim/white_mw091.bmp,trustrating_stim/white_mw038.bmp,trustrating_stim/white_mw070.bmp","0,1,1","noMatchOutcome","i","4500","","","","",""
"","","","","636598a7a571403968d03bf2","bdp_wmem","Tue Mar 14 2023 21:25:06 GMT-0400 (Eastern Daylight Time)","713881","Match,No Match","html-keyboard-response","158","479975","0.0-7.0-3.24","","null","","<div class='trialBorder'><div class='vertical-center'><img src='img/fixation2_sml.jpg'</img></div></div>","null","DELAY","","","","","","","","","","",""
"","","","","636598a7a571403968d03bf2","bdp_wmem","Tue Mar 14 2023 21:25:06 GMT-0400 (Eastern Daylight Time)","713881","Match,No Match","html-keyboard-response","159","481514","0.0-7.0-4.24","","1539","","<div class='trialBorder'><div class='targDiv'><div class='tc'><img class='introPic' src='trustrating_stim/white_mw038.bmp'><br><font color='red'><strong>Keep</strong></font></div></div><div class='respDiv'><div class='respDivL'>Match<br>(e)</div><div class='respDivR'>No Match<br>(i)</div></div></div>","e","TARGET","3","trustrating_stim/white_mw091.bmp,trustrating_stim/white_mw038.bmp,trustrating_stim/white_mw070.bmp","0,1,1","noMatchOutcome","i","4500","trustrating_stim/white_mw038.bmp","red","Keep","REAL","0"
"","","","","636598a7a571403968d03bf2","bdp_wmem","Tue Mar 14 2023 21:25:06 GMT-0400 (Eastern Daylight Time)","713881","Match,No Match","html-keyboard-response","160","482016","0.0-7.0-5.24","","null","","<div class='trialBorder'><div class='vertical-center'><img src='img/error.jpg'></div><div class='respDiv'><div class='respDivL'><font style='color:orange'>Match<br>(e)</font></div><div class='respDivR'>No Match<br>(i)</div></div></div>","null","FEEDBACK","","","","","","","","","","",""
"","","","","636598a7a571403968d03bf2","bdp_wmem","Tue Mar 14 2023 21:25:06 GMT-0400 (Eastern Daylight Time)","713881","Match,No Match","html-keyboard-response","161","482530","0.0-7.0-1.25","","null","","<div class='trialBorder'><div class='vertical-center'><img src='img/fixation2_sml.jpg'</img></div></div>","null","FIX","","","","","","","","","","",""
"","","","","636598a7a571403968d03bf2","bdp_wmem","Tue Mar 14 2023 21:25:06 GMT-0400 (Eastern Daylight Time)","713881","Match,No Match","html-keyboard-response","162","487039","0.0-7.0-2.25","","null","","<div class='trialBorder'><div class='vertical-center'><img style='vertical-align:center; align:center' src='img/fixation2_sml.jpg'></div><div class='arrayDiv3'><div class='tl'><img class='introPic' src='trustrating_stim/white_mw091.bmp'><br><font color='red'><strong>Keep</strong></font></div><div class='tc'><img class='introPic' src='trustrating_stim/white_mw013.bmp'><br><font color='green'><strong>Share</strong></font></div><div class='tr'><img class='introPic' src='trustrating_stim/white_mw010.bmp'><br><font color='red'><strong>Keep</strong></font></div></div></div>","null","ARRAY","3","trustrating_stim/white_mw091.bmp,trustrating_stim/white_mw013.bmp,trustrating_stim/white_mw010.bmp","0,1,0","noMatchFace","i","4500","","","","",""
"","","","","636598a7a571403968d03bf2","bdp_wmem","Tue Mar 14 2023 21:25:06 GMT-0400 (Eastern Daylight Time)","713881","Match,No Match","html-keyboard-response","163","491042","0.0-7.0-3.25","","null","","<div class='trialBorder'><div class='vertical-center'><img src='img/fixation2_sml.jpg'</img></div></div>","null","DELAY","","","","","","","","","","",""
"","","","","636598a7a571403968d03bf2","bdp_wmem","Tue Mar 14 2023 21:25:06 GMT-0400 (Eastern Daylight Time)","713881","Match,No Match","html-keyboard-response","164","492308","0.0-7.0-4.25","","1265","","<div class='trialBorder'><div class='targDiv'><div class='tc'><img class='introPic' src='trustrating_stim/white_mw003.bmp'><br><font color='red'><strong>Keep</strong></font></div></div><div class='respDiv'><div class='respDivL'>Match<br>(e)</div><div class='respDivR'>No Match<br>(i)</div></div></div>","i","TARGET","3","trustrating_stim/white_mw091.bmp,trustrating_stim/white_mw013.bmp,trustrating_stim/white_mw010.bmp","0,1,0","noMatchFace","i","4500","trustrating_stim/white_mw003.bmp","red","Keep","REAL","1"
"","","","","636598a7a571403968d03bf2","bdp_wmem","Tue Mar 14 2023 21:25:06 GMT-0400 (Eastern Daylight Time)","713881","Match,No Match","html-keyboard-response","165","492812","0.0-7.0-5.25","","null","","<div class='trialBorder'><div class='vertical-center'><img src='img/correct.jpg'></div><div class='respDiv'><div class='respDivL'>Match<br>(e)</div><div class='respDivR'><font style='color:orange'>No Match<br>(i)</font></div></div></div>","null","FEEDBACK","","","","","","","","","","",""
"","","","","636598a7a571403968d03bf2","bdp_wmem","Tue Mar 14 2023 21:25:06 GMT-0400 (Eastern Daylight Time)","713881","Match,No Match","html-keyboard-response","166","493324","0.0-7.0-1.26","","null","","<div class='trialBorder'><div class='vertical-center'><img src='img/fixation2_sml.jpg'</img></div></div>","null","FIX","","","","","","","","","","",""
"","","","","636598a7a571403968d03bf2","bdp_wmem","Tue Mar 14 2023 21:25:06 GMT-0400 (Eastern Daylight Time)","713881","Match,No Match","html-keyboard-response","167","494840","0.0-7.0-2.26","","null","","<div class='trialBorder'><div class='vertical-center'><img style='vertical-align:center; align:center' src='img/fixation2_sml.jpg'></div><div class='arrayDiv1'><div class='tc'><img class='introPic' src='trustrating_stim/white_mw038.bmp'><br><font color='red'><strong>Keep</strong></font></div></div></div>","null","ARRAY","1","trustrating_stim/white_mw038.bmp","0","Match","e","1500","","","","",""
"","","","","636598a7a571403968d03bf2","bdp_wmem","Tue Mar 14 2023 21:25:06 GMT-0400 (Eastern Daylight Time)","713881","Match,No Match","html-keyboard-response","168","498845","0.0-7.0-3.26","","null","","<div class='trialBorder'><div class='vertical-center'><img src='img/fixation2_sml.jpg'</img></div></div>","null","DELAY","","","","","","","","","","",""
"","","","","636598a7a571403968d03bf2","bdp_wmem","Tue Mar 14 2023 21:25:06 GMT-0400 (Eastern Daylight Time)","713881","Match,No Match","html-keyboard-response","169","500114","0.0-7.0-4.26","","1269","","<div class='trialBorder'><div class='targDiv'><div class='tc'><img class='introPic' src='trustrating_stim/white_mw038.bmp'><br><font color='red'><strong>Keep</strong></font></div></div><div class='respDiv'><div class='respDivL'>Match<br>(e)</div><div class='respDivR'>No Match<br>(i)</div></div></div>","e","TARGET","1","trustrating_stim/white_mw038.bmp","0","Match","e","1500","trustrating_stim/white_mw038.bmp","red","Keep","REAL","1"
"","","","","636598a7a571403968d03bf2","bdp_wmem","Tue Mar 14 2023 21:25:06 GMT-0400 (Eastern Daylight Time)","713881","Match,No Match","html-keyboard-response","170","500620","0.0-7.0-5.26","","null","","<div class='trialBorder'><div class='vertical-center'><img src='img/correct.jpg'></div><div class='respDiv'><div class='respDivL'><font style='color:orange'>Match<br>(e)</font></div><div class='respDivR'>No Match<br>(i)</div></div></div>","null","FEEDBACK","","","","","","","","","","",""
"","","","","636598a7a571403968d03bf2","bdp_wmem","Tue Mar 14 2023 21:25:06 GMT-0400 (Eastern Daylight Time)","713881","Match,No Match","html-keyboard-response","171","501135","0.0-7.0-1.27","","null","","<div class='trialBorder'><div class='vertical-center'><img src='img/fixation2_sml.jpg'</img></div></div>","null","FIX","","","","","","","","","","",""
"","","","","636598a7a571403968d03bf2","bdp_wmem","Tue Mar 14 2023 21:25:06 GMT-0400 (Eastern Daylight Time)","713881","Match,No Match","html-keyboard-response","172","505643","0.0-7.0-2.27","","null","","<div class='trialBorder'><div class='vertical-center'><img style='vertical-align:center; align:center' src='img/fixation2_sml.jpg'></div><div class='arrayDiv3'><div class='tl'><img class='introPic' src='trustrating_stim/white_mw003.bmp'><br><font color='red'><strong>Keep</strong></font></div><div class='tc'><img class='introPic' src='trustrating_stim/white_mw085.bmp'><br><font color='red'><strong>Keep</strong></font></div><div class='tr'><img class='introPic' src='trustrating_stim/white_mw078.bmp'><br><font color='green'><strong>Share</strong></font></div></div></div>","null","ARRAY","3","trustrating_stim/white_mw003.bmp,trustrating_stim/white_mw085.bmp,trustrating_stim/white_mw078.bmp","0,0,1","Match","e","4500","","","","",""
"","","","","636598a7a571403968d03bf2","bdp_wmem","Tue Mar 14 2023 21:25:06 GMT-0400 (Eastern Daylight Time)","713881","Match,No Match","html-keyboard-response","173","509653","0.0-7.0-3.27","","null","","<div class='trialBorder'><div class='vertical-center'><img src='img/fixation2_sml.jpg'</img></div></div>","null","DELAY","","","","","","","","","","",""
"","","","","636598a7a571403968d03bf2","bdp_wmem","Tue Mar 14 2023 21:25:06 GMT-0400 (Eastern Daylight Time)","713881","Match,No Match","html-keyboard-response","174","511252","0.0-7.0-4.27","","1599","","<div class='trialBorder'><div class='targDiv'><div class='tc'><img class='introPic' src='trustrating_stim/white_mw078.bmp'><br><font color='green'><strong>Share</strong></font></div></div><div class='respDiv'><div class='respDivL'>Match<br>(e)</div><div class='respDivR'>No Match<br>(i)</div></div></div>","e","TARGET","3","trustrating_stim/white_mw003.bmp,trustrating_stim/white_mw085.bmp,trustrating_stim/white_mw078.bmp","0,0,1","Match","e","4500","trustrating_stim/white_mw078.bmp","green","Share","REAL","1"
"","","","","636598a7a571403968d03bf2","bdp_wmem","Tue Mar 14 2023 21:25:06 GMT-0400 (Eastern Daylight Time)","713881","Match,No Match","html-keyboard-response","175","511763","0.0-7.0-5.27","","null","","<div class='trialBorder'><div class='vertical-center'><img src='img/correct.jpg'></div><div class='respDiv'><div class='respDivL'><font style='color:orange'>Match<br>(e)</font></div><div class='respDivR'>No Match<br>(i)</div></div></div>","null","FEEDBACK","","","","","","","","","","",""
"","","","","636598a7a571403968d03bf2","bdp_wmem","Tue Mar 14 2023 21:25:06 GMT-0400 (Eastern Daylight Time)","713881","Match,No Match","html-keyboard-response","176","512278","0.0-7.0-1.28","","null","","<div class='trialBorder'><div class='vertical-center'><img src='img/fixation2_sml.jpg'</img></div></div>","null","FIX","","","","","","","","","","",""
"","","","","636598a7a571403968d03bf2","bdp_wmem","Tue Mar 14 2023 21:25:06 GMT-0400 (Eastern Daylight Time)","713881","Match,No Match","html-keyboard-response","177","515290","0.0-7.0-2.28","","null","","<div class='trialBorder'><div class='vertical-center'><img style='vertical-align:center; align:center' src='img/fixation2_sml.jpg'></div><div class='arrayDiv2'><div class='tl'><img class='introPic' src='trustrating_stim/white_mw085.bmp'><br><font color='green'><strong>Share</strong></font></div><div class='tr'><img class='introPic' src='trustrating_stim/white_mw040.bmp'><br><font color='red'><strong>Keep</strong></font></div></div></div>","null","ARRAY","2","trustrating_stim/white_mw085.bmp,trustrating_stim/white_mw040.bmp","1,0","noMatchFace","i","3000","","","","",""
"","","","","636598a7a571403968d03bf2","bdp_wmem","Tue Mar 14 2023 21:25:06 GMT-0400 (Eastern Daylight Time)","713881","Match,No Match","html-keyboard-response","178","519302","0.0-7.0-3.28","","null","","<div class='trialBorder'><div class='vertical-center'><img src='img/fixation2_sml.jpg'</img></div></div>","null","DELAY","","","","","","","","","","",""
"","","","","636598a7a571403968d03bf2","bdp_wmem","Tue Mar 14 2023 21:25:06 GMT-0400 (Eastern Daylight Time)","713881","Match,No Match","html-keyboard-response","179","521578","0.0-7.0-4.28","","2275","","<div class='trialBorder'><div class='targDiv'><div class='tc'><img class='introPic' src='trustrating_stim/white_mw078.bmp'><br><font color='red'><strong>Keep</strong></font></div></div><div class='respDiv'><div class='respDivL'>Match<br>(e)</div><div class='respDivR'>No Match<br>(i)</div></div></div>","i","TARGET","2","trustrating_stim/white_mw085.bmp,trustrating_stim/white_mw040.bmp","1,0","noMatchFace","i","3000","trustrating_stim/white_mw078.bmp","red","Keep","REAL","1"
"","","","","636598a7a571403968d03bf2","bdp_wmem","Tue Mar 14 2023 21:25:06 GMT-0400 (Eastern Daylight Time)","713881","Match,No Match","html-keyboard-response","180","522095","0.0-7.0-5.28","","null","","<div class='trialBorder'><div class='vertical-center'><img src='img/correct.jpg'></div><div class='respDiv'><div class='respDivL'>Match<br>(e)</div><div class='respDivR'><font style='color:orange'>No Match<br>(i)</font></div></div></div>","null","FEEDBACK","","","","","","","","","","",""
"","","","","636598a7a571403968d03bf2","bdp_wmem","Tue Mar 14 2023 21:25:06 GMT-0400 (Eastern Daylight Time)","713881","Match,No Match","html-keyboard-response","181","522609","0.0-7.0-1.29","","null","","<div class='trialBorder'><div class='vertical-center'><img src='img/fixation2_sml.jpg'</img></div></div>","null","FIX","","","","","","","","","","",""
"","","","","636598a7a571403968d03bf2","bdp_wmem","Tue Mar 14 2023 21:25:06 GMT-0400 (Eastern Daylight Time)","713881","Match,No Match","html-keyboard-response","182","527122","0.0-7.0-2.29","","null","","<div class='trialBorder'><div class='vertical-center'><img style='vertical-align:center; align:center' src='img/fixation2_sml.jpg'></div><div class='arrayDiv3'><div class='tl'><img class='introPic' src='trustrating_stim/white_mw091.bmp'><br><font color='green'><strong>Share</strong></font></div><div class='tc'><img class='introPic' src='trustrating_stim/white_mw012.bmp'><br><font color='green'><strong>Share</strong></font></div><div class='tr'><img class='introPic' src='trustrating_stim/white_mw042.bmp'><br><font color='red'><strong>Keep</strong></font></div></div></div>","null","ARRAY","3","trustrating_stim/white_mw091.bmp,trustrating_stim/white_mw012.bmp,trustrating_stim/white_mw042.bmp","1,1,0","Match","e","4500","","","","",""
"","","","","636598a7a571403968d03bf2","bdp_wmem","Tue Mar 14 2023 21:25:06 GMT-0400 (Eastern Daylight Time)","713881","Match,No Match","html-keyboard-response","183","531135","0.0-7.0-3.29","","null","","<div class='trialBorder'><div class='vertical-center'><img src='img/fixation2_sml.jpg'</img></div></div>","null","DELAY","","","","","","","","","","",""
"","","","","636598a7a571403968d03bf2","bdp_wmem","Tue Mar 14 2023 21:25:06 GMT-0400 (Eastern Daylight Time)","713881","Match,No Match","html-keyboard-response","184","533924","0.0-7.0-4.29","","2789","","<div class='trialBorder'><div class='targDiv'><div class='tc'><img class='introPic' src='trustrating_stim/white_mw042.bmp'><br><font color='red'><strong>Keep</strong></font></div></div><div class='respDiv'><div class='respDivL'>Match<br>(e)</div><div class='respDivR'>No Match<br>(i)</div></div></div>","e","TARGET","3","trustrating_stim/white_mw091.bmp,trustrating_stim/white_mw012.bmp,trustrating_stim/white_mw042.bmp","1,1,0","Match","e","4500","trustrating_stim/white_mw042.bmp","red","Keep","REAL","1"
"","","","","636598a7a571403968d03bf2","bdp_wmem","Tue Mar 14 2023 21:25:06 GMT-0400 (Eastern Daylight Time)","713881","Match,No Match","html-keyboard-response","185","534429","0.0-7.0-5.29","","null","","<div class='trialBorder'><div class='vertical-center'><img src='img/correct.jpg'></div><div class='respDiv'><div class='respDivL'><font style='color:orange'>Match<br>(e)</font></div><div class='respDivR'>No Match<br>(i)</div></div></div>","null","FEEDBACK","","","","","","","","","","",""
"","","","","636598a7a571403968d03bf2","bdp_wmem","Tue Mar 14 2023 21:25:06 GMT-0400 (Eastern Daylight Time)","713881","Match,No Match","html-keyboard-response","186","534942","0.0-7.0-1.30","","null","","<div class='trialBorder'><div class='vertical-center'><img src='img/fixation2_sml.jpg'</img></div></div>","null","FIX","","","","","","","","","","",""
"","","","","636598a7a571403968d03bf2","bdp_wmem","Tue Mar 14 2023 21:25:06 GMT-0400 (Eastern Daylight Time)","713881","Match,No Match","html-keyboard-response","187","537948","0.0-7.0-2.30","","null","","<div class='trialBorder'><div class='vertical-center'><img style='vertical-align:center; align:center' src='img/fixation2_sml.jpg'></div><div class='arrayDiv2'><div class='tl'><img class='introPic' src='trustrating_stim/white_mw040.bmp'><br><font color='red'><strong>Keep</strong></font></div><div class='tr'><img class='introPic' src='trustrating_stim/white_mw013.bmp'><br><font color='green'><strong>Share</strong></font></div></div></div>","null","ARRAY","2","trustrating_stim/white_mw040.bmp,trustrating_stim/white_mw013.bmp","0,1","Match","e","3000","","","","",""
