"trial_type","trial_index","time_elapsed","internal_node_id","subject_id","task","startTime","totalTime","labels","view_history","rt","event","trial","time","trialtype","success","stimulus","key_press","stimType","arraySize","arrayFaces","arrayOutcomes","matchType","corrResp","arrayDur","targFace","targCol","targOutcome","trialType","corr"
"pavlovia","0","4","0.0-0.0","63356ce6be65e7962bfc424d","bdp_wmem","Tue Mar 14 2023 20:12:11 GMT-0500 (Central Daylight Time)","682173","Match,No Match","","","","","","","","","","","","","","","","","","","","",""
"instructions","1","3237","0.0-1.0","63356ce6be65e7962bfc424d","bdp_wmem","Tue Mar 14 2023 20:12:11 GMT-0500 (Central Daylight Time)","682173","Match,No Match","[{""page_index"":0,""viewing_time"":3232}]","3232","","","","","","","","","","","","","","","","","","",""
"","","","","63356ce6be65e7962bfc424d","bdp_wmem","Tue Mar 14 2023 20:12:11 GMT-0500 (Central Daylight Time)","682173","Match,No Match","","","fullscreenenter","2","7808","fullscreenenter","","","","","","","","","","","","","","",""
"fullscreen","2","8789","0.0-2.0","63356ce6be65e7962bfc424d","bdp_wmem","Tue Mar 14 2023 20:12:11 GMT-0500 (Central Daylight Time)","682173","Match,No Match","","","","","","","true","","","","","","","","","","","","","",""
"instructions","3","141237","0.0-4.0","63356ce6be65e7962bfc424d","bdp_wmem","Tue Mar 14 2023 20:12:11 GMT-0500 (Central Daylight Time)","682173","Match,No Match","[{""page_index"":0,""viewing_time"":33207},{""page_index"":1,""viewing_time"":39952},{""page_index"":2,""viewing_time"":24363},{""page_index"":3,""viewing_time"":7041},{""page_index"":4,""viewing_time"":27884}]","132447","","","","","","","","","","","","","","","","","","",""
"html-keyboard-response","4","141739","0.0-5.0-1.0","63356ce6be65e7962bfc424d","bdp_wmem","Tue Mar 14 2023 20:12:11 GMT-0500 (Central Daylight Time)","682173","Match,No Match","","null","","","","","","<div class='trialBorder'><div class='vertical-center'><img src='img/fixation2_sml.jpg'</img></div></div>","null","FIX","","","","","","","","","","",""
"html-keyboard-response","5","146241","0.0-5.0-2.0","63356ce6be65e7962bfc424d","bdp_wmem","Tue Mar 14 2023 20:12:11 GMT-0500 (Central Daylight Time)","682173","Match,No Match","","null","","","","","","<div class='trialBorder'><div class='vertical-center'><img style='vertical-align:center; align:center' src='img/fixation2_sml.jpg'></div><div class='arrayDiv3'><div class='tl'><img class='introPic' src='trustrating_stim/white_mw012.bmp'><br><font color='red'><strong>Keep</strong></font></div><div class='tc'><img class='introPic' src='trustrating_stim/white_mw003.bmp'><br><font color='green'><strong>Share</strong></font></div><div class='tr'><img class='introPic' src='trustrating_stim/white_mw042.bmp'><br><font color='green'><strong>Share</strong></font></div></div></div>","null","ARRAY","3","trustrating_stim/white_mw012.bmp,trustrating_stim/white_mw003.bmp,trustrating_stim/white_mw042.bmp","0,1,1","Match","e","4500","","","","",""
"html-keyboard-response","6","150242","0.0-5.0-3.0","63356ce6be65e7962bfc424d","bdp_wmem","Tue Mar 14 2023 20:12:11 GMT-0500 (Central Daylight Time)","682173","Match,No Match","","null","","","","","","<div class='trialBorder'><div class='vertical-center'><img src='img/fixation2_sml.jpg'</img></div></div>","null","DELAY","","","","","","","","","","",""
"html-keyboard-response","7","152539","0.0-5.0-4.0","63356ce6be65e7962bfc424d","bdp_wmem","Tue Mar 14 2023 20:12:11 GMT-0500 (Central Daylight Time)","682173","Match,No Match","","2295","","","","","","<div class='trialBorder'><div class='targDiv'><div class='tc'><img class='introPic' src='trustrating_stim/white_mw042.bmp'><br><font color='green'><strong>Share</strong></font></div></div><div class='respDiv'><div class='respDivL'>Match<br>(e)</div><div class='respDivR'>No Match<br>(i)</div></div></div>","e","TARGET","3","trustrating_stim/white_mw012.bmp,trustrating_stim/white_mw003.bmp,trustrating_stim/white_mw042.bmp","0,1,1","Match","e","4500","trustrating_stim/white_mw042.bmp","green","Share","PRACTICE","1"
"html-keyboard-response","8","153040","0.0-5.0-5.0","63356ce6be65e7962bfc424d","bdp_wmem","Tue Mar 14 2023 20:12:11 GMT-0500 (Central Daylight Time)","682173","Match,No Match","","null","","","","","","<div class='trialBorder'><div class='vertical-center'><img src='img/correct.jpg'></div><div class='respDiv'><div class='respDivL'><font style='color:orange'>Match<br>(e)</font></div><div class='respDivR'>No Match<br>(i)</div></div></div>","null","FEEDBACK","","","","","","","","","","",""
"html-keyboard-response","9","153541","0.0-5.0-1.1","63356ce6be65e7962bfc424d","bdp_wmem","Tue Mar 14 2023 20:12:11 GMT-0500 (Central Daylight Time)","682173","Match,No Match","","null","","","","","","<div class='trialBorder'><div class='vertical-center'><img src='img/fixation2_sml.jpg'</img></div></div>","null","FIX","","","","","","","","","","",""
"html-keyboard-response","10","156543","0.0-5.0-2.1","63356ce6be65e7962bfc424d","bdp_wmem","Tue Mar 14 2023 20:12:11 GMT-0500 (Central Daylight Time)","682173","Match,No Match","","null","","","","","","<div class='trialBorder'><div class='vertical-center'><img style='vertical-align:center; align:center' src='img/fixation2_sml.jpg'></div><div class='arrayDiv2'><div class='tl'><img class='introPic' src='trustrating_stim/white_mw003.bmp'><br><font color='green'><strong>Share</strong></font></div><div class='tr'><img class='introPic' src='trustrating_stim/white_mw013.bmp'><br><font color='red'><strong>Keep</strong></font></div></div></div>","null","ARRAY","2","trustrating_stim/white_mw003.bmp,trustrating_stim/white_mw013.bmp","1,0","noMatchOutcome","i","3000","","","","",""
"html-keyboard-response","11","160544","0.0-5.0-3.1","63356ce6be65e7962bfc424d","bdp_wmem","Tue Mar 14 2023 20:12:11 GMT-0500 (Central Daylight Time)","682173","Match,No Match","","null","","","","","","<div class='trialBorder'><div class='vertical-center'><img src='img/fixation2_sml.jpg'</img></div></div>","null","DELAY","","","","","","","","","","",""
"html-keyboard-response","12","163357","0.0-5.0-4.1","63356ce6be65e7962bfc424d","bdp_wmem","Tue Mar 14 2023 20:12:11 GMT-0500 (Central Daylight Time)","682173","Match,No Match","","2811","","","","","","<div class='trialBorder'><div class='targDiv'><div class='tc'><img class='introPic' src='trustrating_stim/white_mw013.bmp'><br><font color='green'><strong>Share</strong></font></div></div><div class='respDiv'><div class='respDivL'>Match<br>(e)</div><div class='respDivR'>No Match<br>(i)</div></div></div>","i","TARGET","2","trustrating_stim/white_mw003.bmp,trustrating_stim/white_mw013.bmp","1,0","noMatchOutcome","i","3000","trustrating_stim/white_mw013.bmp","green","Share","PRACTICE","1"
"html-keyboard-response","13","163859","0.0-5.0-5.1","63356ce6be65e7962bfc424d","bdp_wmem","Tue Mar 14 2023 20:12:11 GMT-0500 (Central Daylight Time)","682173","Match,No Match","","null","","","","","","<div class='trialBorder'><div class='vertical-center'><img src='img/correct.jpg'></div><div class='respDiv'><div class='respDivL'>Match<br>(e)</div><div class='respDivR'><font style='color:orange'>No Match<br>(i)</font></div></div></div>","null","FEEDBACK","","","","","","","","","","",""
"html-keyboard-response","14","164360","0.0-5.0-1.2","63356ce6be65e7962bfc424d","bdp_wmem","Tue Mar 14 2023 20:12:11 GMT-0500 (Central Daylight Time)","682173","Match,No Match","","null","","","","","","<div class='trialBorder'><div class='vertical-center'><img src='img/fixation2_sml.jpg'</img></div></div>","null","FIX","","","","","","","","","","",""
"html-keyboard-response","15","165862","0.0-5.0-2.2","63356ce6be65e7962bfc424d","bdp_wmem","Tue Mar 14 2023 20:12:11 GMT-0500 (Central Daylight Time)","682173","Match,No Match","","null","","","","","","<div class='trialBorder'><div class='vertical-center'><img style='vertical-align:center; align:center' src='img/fixation2_sml.jpg'></div><div class='arrayDiv1'><div class='tc'><img class='introPic' src='trustrating_stim/white_mw040.bmp'><br><font color='red'><strong>Keep</strong></font></div></div></div>","null","ARRAY","1","trustrating_stim/white_mw040.bmp","0","noMatchFace","i","1500","","","","",""
"html-keyboard-response","16","169863","0.0-5.0-3.2","63356ce6be65e7962bfc424d","bdp_wmem","Tue Mar 14 2023 20:12:11 GMT-0500 (Central Daylight Time)","682173","Match,No Match","","null","","","","","","<div class='trialBorder'><div class='vertical-center'><img src='img/fixation2_sml.jpg'</img></div></div>","null","DELAY","","","","","","","","","","",""
"html-keyboard-response","17","171219","0.0-5.0-4.2","63356ce6be65e7962bfc424d","bdp_wmem","Tue Mar 14 2023 20:12:11 GMT-0500 (Central Daylight Time)","682173","Match,No Match","","1355","","","","","","<div class='trialBorder'><div class='targDiv'><div class='tc'><img class='introPic' src='trustrating_stim/white_mw013.bmp'><br><font color='red'><strong>Keep</strong></font></div></div><div class='respDiv'><div class='respDivL'>Match<br>(e)</div><div class='respDivR'>No Match<br>(i)</div></div></div>","i","TARGET","1","trustrating_stim/white_mw040.bmp","0","noMatchFace","i","1500","trustrating_stim/white_mw013.bmp","red","Keep","PRACTICE","1"
"html-keyboard-response","18","171720","0.0-5.0-5.2","63356ce6be65e7962bfc424d","bdp_wmem","Tue Mar 14 2023 20:12:11 GMT-0500 (Central Daylight Time)","682173","Match,No Match","","null","","","","","","<div class='trialBorder'><div class='vertical-center'><img src='img/correct.jpg'></div><div class='respDiv'><div class='respDivL'>Match<br>(e)</div><div class='respDivR'><font style='color:orange'>No Match<br>(i)</font></div></div></div>","null","FEEDBACK","","","","","","","","","","",""
"html-keyboard-response","19","172222","0.0-5.0-1.3","63356ce6be65e7962bfc424d","bdp_wmem","Tue Mar 14 2023 20:12:11 GMT-0500 (Central Daylight Time)","682173","Match,No Match","","null","","","","","","<div class='trialBorder'><div class='vertical-center'><img src='img/fixation2_sml.jpg'</img></div></div>","null","FIX","","","","","","","","","","",""
"html-keyboard-response","20","173724","0.0-5.0-2.3","63356ce6be65e7962bfc424d","bdp_wmem","Tue Mar 14 2023 20:12:11 GMT-0500 (Central Daylight Time)","682173","Match,No Match","","null","","","","","","<div class='trialBorder'><div class='vertical-center'><img style='vertical-align:center; align:center' src='img/fixation2_sml.jpg'></div><div class='arrayDiv1'><div class='tc'><img class='introPic' src='trustrating_stim/white_mw042.bmp'><br><font color='red'><strong>Keep</strong></font></div></div></div>","null","ARRAY","1","trustrating_stim/white_mw042.bmp","0","Match","e","1500","","","","",""
"html-keyboard-response","21","177725","0.0-5.0-3.3","63356ce6be65e7962bfc424d","bdp_wmem","Tue Mar 14 2023 20:12:11 GMT-0500 (Central Daylight Time)","682173","Match,No Match","","null","","","","","","<div class='trialBorder'><div class='vertical-center'><img src='img/fixation2_sml.jpg'</img></div></div>","null","DELAY","","","","","","","","","","",""
"html-keyboard-response","22","180596","0.0-5.0-4.3","63356ce6be65e7962bfc424d","bdp_wmem","Tue Mar 14 2023 20:12:11 GMT-0500 (Central Daylight Time)","682173","Match,No Match","","2870","","","","","","<div class='trialBorder'><div class='targDiv'><div class='tc'><img class='introPic' src='trustrating_stim/white_mw042.bmp'><br><font color='red'><strong>Keep</strong></font></div></div><div class='respDiv'><div class='respDivL'>Match<br>(e)</div><div class='respDivR'>No Match<br>(i)</div></div></div>","e","TARGET","1","trustrating_stim/white_mw042.bmp","0","Match","e","1500","trustrating_stim/white_mw042.bmp","red","Keep","PRACTICE","1"
"html-keyboard-response","23","181098","0.0-5.0-5.3","63356ce6be65e7962bfc424d","bdp_wmem","Tue Mar 14 2023 20:12:11 GMT-0500 (Central Daylight Time)","682173","Match,No Match","","null","","","","","","<div class='trialBorder'><div class='vertical-center'><img src='img/correct.jpg'></div><div class='respDiv'><div class='respDivL'><font style='color:orange'>Match<br>(e)</font></div><div class='respDivR'>No Match<br>(i)</div></div></div>","null","FEEDBACK","","","","","","","","","","",""
"html-keyboard-response","24","181599","0.0-5.0-1.4","63356ce6be65e7962bfc424d","bdp_wmem","Tue Mar 14 2023 20:12:11 GMT-0500 (Central Daylight Time)","682173","Match,No Match","","null","","","","","","<div class='trialBorder'><div class='vertical-center'><img src='img/fixation2_sml.jpg'</img></div></div>","null","FIX","","","","","","","","","","",""
"html-keyboard-response","25","186101","0.0-5.0-2.4","63356ce6be65e7962bfc424d","bdp_wmem","Tue Mar 14 2023 20:12:11 GMT-0500 (Central Daylight Time)","682173","Match,No Match","","null","","","","","","<div class='trialBorder'><div class='vertical-center'><img style='vertical-align:center; align:center' src='img/fixation2_sml.jpg'></div><div class='arrayDiv3'><div class='tl'><img class='introPic' src='trustrating_stim/white_mw040.bmp'><br><font color='green'><strong>Share</strong></font></div><div class='tc'><img class='introPic' src='trustrating_stim/white_mw092.bmp'><br><font color='red'><strong>Keep</strong></font></div><div class='tr'><img class='introPic' src='trustrating_stim/white_mw085.bmp'><br><font color='green'><strong>Share</strong></font></div></div></div>","null","ARRAY","3","trustrating_stim/white_mw040.bmp,trustrating_stim/white_mw092.bmp,trustrating_stim/white_mw085.bmp","1,0,1","noMatchOutcome","i","4500","","","","",""
"html-keyboard-response","26","190102","0.0-5.0-3.4","63356ce6be65e7962bfc424d","bdp_wmem","Tue Mar 14 2023 20:12:11 GMT-0500 (Central Daylight Time)","682173","Match,No Match","","null","","","","","","<div class='trialBorder'><div class='vertical-center'><img src='img/fixation2_sml.jpg'</img></div></div>","null","DELAY","","","","","","","","","","",""
"html-keyboard-response","27","193064","0.0-5.0-4.4","63356ce6be65e7962bfc424d","bdp_wmem","Tue Mar 14 2023 20:12:11 GMT-0500 (Central Daylight Time)","682173","Match,No Match","","2961","","","","","","<div class='trialBorder'><div class='targDiv'><div class='tc'><img class='introPic' src='trustrating_stim/white_mw040.bmp'><br><font color='red'><strong>Keep</strong></font></div></div><div class='respDiv'><div class='respDivL'>Match<br>(e)</div><div class='respDivR'>No Match<br>(i)</div></div></div>","e","TARGET","3","trustrating_stim/white_mw040.bmp,trustrating_stim/white_mw092.bmp,trustrating_stim/white_mw085.bmp","1,0,1","noMatchOutcome","i","4500","trustrating_stim/white_mw040.bmp","red","Keep","PRACTICE","0"
"html-keyboard-response","28","193566","0.0-5.0-5.4","63356ce6be65e7962bfc424d","bdp_wmem","Tue Mar 14 2023 20:12:11 GMT-0500 (Central Daylight Time)","682173","Match,No Match","","null","","","","","","<div class='trialBorder'><div class='vertical-center'><img src='img/error.jpg'></div><div class='respDiv'><div class='respDivL'><font style='color:orange'>Match<br>(e)</font></div><div class='respDivR'>No Match<br>(i)</div></div></div>","null","FEEDBACK","","","","","","","","","","",""
"html-keyboard-response","29","194067","0.0-5.0-1.5","63356ce6be65e7962bfc424d","bdp_wmem","Tue Mar 14 2023 20:12:11 GMT-0500 (Central Daylight Time)","682173","Match,No Match","","null","","","","","","<div class='trialBorder'><div class='vertical-center'><img src='img/fixation2_sml.jpg'</img></div></div>","null","FIX","","","","","","","","","","",""
"html-keyboard-response","30","197069","0.0-5.0-2.5","63356ce6be65e7962bfc424d","bdp_wmem","Tue Mar 14 2023 20:12:11 GMT-0500 (Central Daylight Time)","682173","Match,No Match","","null","","","","","","<div class='trialBorder'><div class='vertical-center'><img style='vertical-align:center; align:center' src='img/fixation2_sml.jpg'></div><div class='arrayDiv2'><div class='tl'><img class='introPic' src='trustrating_stim/white_mw070.bmp'><br><font color='green'><strong>Share</strong></font></div><div class='tr'><img class='introPic' src='trustrating_stim/white_mw038.bmp'><br><font color='red'><strong>Keep</strong></font></div></div></div>","null","ARRAY","2","trustrating_stim/white_mw070.bmp,trustrating_stim/white_mw038.bmp","1,0","Match","e","3000","","","","",""
"html-keyboard-response","31","201070","0.0-5.0-3.5","63356ce6be65e7962bfc424d","bdp_wmem","Tue Mar 14 2023 20:12:11 GMT-0500 (Central Daylight Time)","682173","Match,No Match","","null","","","","","","<div class='trialBorder'><div class='vertical-center'><img src='img/fixation2_sml.jpg'</img></div></div>","null","DELAY","","","","","","","","","","",""
"html-keyboard-response","32","203180","0.0-5.0-4.5","63356ce6be65e7962bfc424d","bdp_wmem","Tue Mar 14 2023 20:12:11 GMT-0500 (Central Daylight Time)","682173","Match,No Match","","2109","","","","","","<div class='trialBorder'><div class='targDiv'><div class='tc'><img class='introPic' src='trustrating_stim/white_mw070.bmp'><br><font color='green'><strong>Share</strong></font></div></div><div class='respDiv'><div class='respDivL'>Match<br>(e)</div><div class='respDivR'>No Match<br>(i)</div></div></div>","e","TARGET","2","trustrating_stim/white_mw070.bmp,trustrating_stim/white_mw038.bmp","1,0","Match","e","3000","trustrating_stim/white_mw070.bmp","green","Share","PRACTICE","1"
"html-keyboard-response","33","203683","0.0-5.0-5.5","63356ce6be65e7962bfc424d","bdp_wmem","Tue Mar 14 2023 20:12:11 GMT-0500 (Central Daylight Time)","682173","Match,No Match","","null","","","","","","<div class='trialBorder'><div class='vertical-center'><img src='img/correct.jpg'></div><div class='respDiv'><div class='respDivL'><font style='color:orange'>Match<br>(e)</font></div><div class='respDivR'>No Match<br>(i)</div></div></div>","null","FEEDBACK","","","","","","","","","","",""
"instructions","34","208112","0.0-6.0","63356ce6be65e7962bfc424d","bdp_wmem","Tue Mar 14 2023 20:12:11 GMT-0500 (Central Daylight Time)","682173","Match,No Match","[{""page_index"":0,""viewing_time"":4429}]","4429","","","","","","","","","","","","","","","","","","",""
"html-keyboard-response","35","208613","0.0-7.0-1.0","63356ce6be65e7962bfc424d","bdp_wmem","Tue Mar 14 2023 20:12:11 GMT-0500 (Central Daylight Time)","682173","Match,No Match","","null","","","","","","<div class='trialBorder'><div class='vertical-center'><img src='img/fixation2_sml.jpg'</img></div></div>","null","FIX","","","","","","","","","","",""
"html-keyboard-response","36","213115","0.0-7.0-2.0","63356ce6be65e7962bfc424d","bdp_wmem","Tue Mar 14 2023 20:12:11 GMT-0500 (Central Daylight Time)","682173","Match,No Match","","null","","","","","","<div class='trialBorder'><div class='vertical-center'><img style='vertical-align:center; align:center' src='img/fixation2_sml.jpg'></div><div class='arrayDiv3'><div class='tl'><img class='introPic' src='trustrating_stim/white_mw038.bmp'><br><font color='green'><strong>Share</strong></font></div><div class='tc'><img class='introPic' src='trustrating_stim/white_mw012.bmp'><br><font color='green'><strong>Share</strong></font></div><div class='tr'><img class='introPic' src='trustrating_stim/white_mw042.bmp'><br><font color='red'><strong>Keep</strong></font></div></div></div>","null","ARRAY","3","trustrating_stim/white_mw038.bmp,trustrating_stim/white_mw012.bmp,trustrating_stim/white_mw042.bmp","1,1,0","noMatchOutcome","i","4500","","","","",""
"html-keyboard-response","37","217117","0.0-7.0-3.0","63356ce6be65e7962bfc424d","bdp_wmem","Tue Mar 14 2023 20:12:11 GMT-0500 (Central Daylight Time)","682173","Match,No Match","","null","","","","","","<div class='trialBorder'><div class='vertical-center'><img src='img/fixation2_sml.jpg'</img></div></div>","null","DELAY","","","","","","","","","","",""
"html-keyboard-response","38","219038","0.0-7.0-4.0","63356ce6be65e7962bfc424d","bdp_wmem","Tue Mar 14 2023 20:12:11 GMT-0500 (Central Daylight Time)","682173","Match,No Match","","1920","","","","","","<div class='trialBorder'><div class='targDiv'><div class='tc'><img class='introPic' src='trustrating_stim/white_mw038.bmp'><br><font color='red'><strong>Keep</strong></font></div></div><div class='respDiv'><div class='respDivL'>Match<br>(e)</div><div class='respDivR'>No Match<br>(i)</div></div></div>","i","TARGET","3","trustrating_stim/white_mw038.bmp,trustrating_stim/white_mw012.bmp,trustrating_stim/white_mw042.bmp","1,1,0","noMatchOutcome","i","4500","trustrating_stim/white_mw038.bmp","red","Keep","REAL","1"
"html-keyboard-response","39","219539","0.0-7.0-5.0","63356ce6be65e7962bfc424d","bdp_wmem","Tue Mar 14 2023 20:12:11 GMT-0500 (Central Daylight Time)","682173","Match,No Match","","null","","","","","","<div class='trialBorder'><div class='vertical-center'><img src='img/correct.jpg'></div><div class='respDiv'><div class='respDivL'>Match<br>(e)</div><div class='respDivR'><font style='color:orange'>No Match<br>(i)</font></div></div></div>","null","FEEDBACK","","","","","","","","","","",""
"html-keyboard-response","40","220040","0.0-7.0-1.1","63356ce6be65e7962bfc424d","bdp_wmem","Tue Mar 14 2023 20:12:11 GMT-0500 (Central Daylight Time)","682173","Match,No Match","","null","","","","","","<div class='trialBorder'><div class='vertical-center'><img src='img/fixation2_sml.jpg'</img></div></div>","null","FIX","","","","","","","","","","",""
"html-keyboard-response","41","221541","0.0-7.0-2.1","63356ce6be65e7962bfc424d","bdp_wmem","Tue Mar 14 2023 20:12:11 GMT-0500 (Central Daylight Time)","682173","Match,No Match","","null","","","","","","<div class='trialBorder'><div class='vertical-center'><img style='vertical-align:center; align:center' src='img/fixation2_sml.jpg'></div><div class='arrayDiv1'><div class='tc'><img class='introPic' src='trustrating_stim/white_mw070.bmp'><br><font color='green'><strong>Share</strong></font></div></div></div>","null","ARRAY","1","trustrating_stim/white_mw070.bmp","1","Match","e","1500","","","","",""
"html-keyboard-response","42","225542","0.0-7.0-3.1","63356ce6be65e7962bfc424d","bdp_wmem","Tue Mar 14 2023 20:12:11 GMT-0500 (Central Daylight Time)","682173","Match,No Match","","null","","","","","","<div class='trialBorder'><div class='vertical-center'><img src='img/fixation2_sml.jpg'</img></div></div>","null","DELAY","","","","","","","","","","",""
"html-keyboard-response","43","227491","0.0-7.0-4.1","63356ce6be65e7962bfc424d","bdp_wmem","Tue Mar 14 2023 20:12:11 GMT-0500 (Central Daylight Time)","682173","Match,No Match","","1947","","","","","","<div class='trialBorder'><div class='targDiv'><div class='tc'><img class='introPic' src='trustrating_stim/white_mw070.bmp'><br><font color='green'><strong>Share</strong></font></div></div><div class='respDiv'><div class='respDivL'>Match<br>(e)</div><div class='respDivR'>No Match<br>(i)</div></div></div>","e","TARGET","1","trustrating_stim/white_mw070.bmp","1","Match","e","1500","trustrating_stim/white_mw070.bmp","green","Share","REAL","1"
"html-keyboard-response","44","227992","0.0-7.0-5.1","63356ce6be65e7962bfc424d","bdp_wmem","Tue Mar 14 2023 20:12:11 GMT-0500 (Central Daylight Time)","682173","Match,No Match","","null","","","","","","<div class='trialBorder'><div class='vertical-center'><img src='img/correct.jpg'></div><div class='respDiv'><div class='respDivL'><font style='color:orange'>Match<br>(e)</font></div><div class='respDivR'>No Match<br>(i)</div></div></div>","null","FEEDBACK","","","","","","","","","","",""
"html-keyboard-response","45","228492","0.0-7.0-1.2","63356ce6be65e7962bfc424d","bdp_wmem","Tue Mar 14 2023 20:12:11 GMT-0500 (Central Daylight Time)","682173","Match,No Match","","null","","","","","","<div class='trialBorder'><div class='vertical-center'><img src='img/fixation2_sml.jpg'</img></div></div>","null","FIX","","","","","","","","","","",""
"html-keyboard-response","46","229994","0.0-7.0-2.2","63356ce6be65e7962bfc424d","bdp_wmem","Tue Mar 14 2023 20:12:11 GMT-0500 (Central Daylight Time)","682173","Match,No Match","","null","","","","","","<div class='trialBorder'><div class='vertical-center'><img style='vertical-align:center; align:center' src='img/fixation2_sml.jpg'></div><div class='arrayDiv1'><div class='tc'><img class='introPic' src='trustrating_stim/white_mw013.bmp'><br><font color='red'><strong>Keep</strong></font></div></div></div>","null","ARRAY","1","trustrating_stim/white_mw013.bmp","0","noMatchFace","i","1500","","","","",""
"html-keyboard-response","47","233996","0.0-7.0-3.2","63356ce6be65e7962bfc424d","bdp_wmem","Tue Mar 14 2023 20:12:11 GMT-0500 (Central Daylight Time)","682173","Match,No Match","","null","","","","","","<div class='trialBorder'><div class='vertical-center'><img src='img/fixation2_sml.jpg'</img></div></div>","null","DELAY","","","","","","","","","","",""
"html-keyboard-response","48","235457","0.0-7.0-4.2","63356ce6be65e7962bfc424d","bdp_wmem","Tue Mar 14 2023 20:12:11 GMT-0500 (Central Daylight Time)","682173","Match,No Match","","1461","","","","","","<div class='trialBorder'><div class='targDiv'><div class='tc'><img class='introPic' src='trustrating_stim/white_mw040.bmp'><br><font color='red'><strong>Keep</strong></font></div></div><div class='respDiv'><div class='respDivL'>Match<br>(e)</div><div class='respDivR'>No Match<br>(i)</div></div></div>","i","TARGET","1","trustrating_stim/white_mw013.bmp","0","noMatchFace","i","1500","trustrating_stim/white_mw040.bmp","red","Keep","REAL","1"
"html-keyboard-response","49","235958","0.0-7.0-5.2","63356ce6be65e7962bfc424d","bdp_wmem","Tue Mar 14 2023 20:12:11 GMT-0500 (Central Daylight Time)","682173","Match,No Match","","null","","","","","","<div class='trialBorder'><div class='vertical-center'><img src='img/correct.jpg'></div><div class='respDiv'><div class='respDivL'>Match<br>(e)</div><div class='respDivR'><font style='color:orange'>No Match<br>(i)</font></div></div></div>","null","FEEDBACK","","","","","","","","","","",""
"html-keyboard-response","50","236460","0.0-7.0-1.3","63356ce6be65e7962bfc424d","bdp_wmem","Tue Mar 14 2023 20:12:11 GMT-0500 (Central Daylight Time)","682173","Match,No Match","","null","","","","","","<div class='trialBorder'><div class='vertical-center'><img src='img/fixation2_sml.jpg'</img></div></div>","null","FIX","","","","","","","","","","",""
"html-keyboard-response","51","240961","0.0-7.0-2.3","63356ce6be65e7962bfc424d","bdp_wmem","Tue Mar 14 2023 20:12:11 GMT-0500 (Central Daylight Time)","682173","Match,No Match","","null","","","","","","<div class='trialBorder'><div class='vertical-center'><img style='vertical-align:center; align:center' src='img/fixation2_sml.jpg'></div><div class='arrayDiv3'><div class='tl'><img class='introPic' src='trustrating_stim/white_mw012.bmp'><br><font color='red'><strong>Keep</strong></font></div><div class='tc'><img class='introPic' src='trustrating_stim/white_mw092.bmp'><br><font color='green'><strong>Share</strong></font></div><div class='tr'><img class='introPic' src='trustrating_stim/white_mw003.bmp'><br><font color='green'><strong>Share</strong></font></div></div></div>","null","ARRAY","3","trustrating_stim/white_mw012.bmp,trustrating_stim/white_mw092.bmp,trustrating_stim/white_mw003.bmp","0,1,1","Match","e","4500","","","","",""
"html-keyboard-response","52","244963","0.0-7.0-3.3","63356ce6be65e7962bfc424d","bdp_wmem","Tue Mar 14 2023 20:12:11 GMT-0500 (Central Daylight Time)","682173","Match,No Match","","null","","","","","","<div class='trialBorder'><div class='vertical-center'><img src='img/fixation2_sml.jpg'</img></div></div>","null","DELAY","","","","","","","","","","",""
"html-keyboard-response","53","246828","0.0-7.0-4.3","63356ce6be65e7962bfc424d","bdp_wmem","Tue Mar 14 2023 20:12:11 GMT-0500 (Central Daylight Time)","682173","Match,No Match","","1864","","","","","","<div class='trialBorder'><div class='targDiv'><div class='tc'><img class='introPic' src='trustrating_stim/white_mw092.bmp'><br><font color='green'><strong>Share</strong></font></div></div><div class='respDiv'><div class='respDivL'>Match<br>(e)</div><div class='respDivR'>No Match<br>(i)</div></div></div>","i","TARGET","3","trustrating_stim/white_mw012.bmp,trustrating_stim/white_mw092.bmp,trustrating_stim/white_mw003.bmp","0,1,1","Match","e","4500","trustrating_stim/white_mw092.bmp","green","Share","REAL","0"
"html-keyboard-response","54","247330","0.0-7.0-5.3","63356ce6be65e7962bfc424d","bdp_wmem","Tue Mar 14 2023 20:12:11 GMT-0500 (Central Daylight Time)","682173","Match,No Match","","null","","","","","","<div class='trialBorder'><div class='vertical-center'><img src='img/error.jpg'></div><div class='respDiv'><div class='respDivL'>Match<br>(e)</div><div class='respDivR'><font style='color:orange'>No Match<br>(i)</font></div></div></div>","null","FEEDBACK","","","","","","","","","","",""
"html-keyboard-response","55","247832","0.0-7.0-1.4","63356ce6be65e7962bfc424d","bdp_wmem","Tue Mar 14 2023 20:12:11 GMT-0500 (Central Daylight Time)","682173","Match,No Match","","null","","","","","","<div class='trialBorder'><div class='vertical-center'><img src='img/fixation2_sml.jpg'</img></div></div>","null","FIX","","","","","","","","","","",""
"html-keyboard-response","56","249333","0.0-7.0-2.4","63356ce6be65e7962bfc424d","bdp_wmem","Tue Mar 14 2023 20:12:11 GMT-0500 (Central Daylight Time)","682173","Match,No Match","","null","","","","","","<div class='trialBorder'><div class='vertical-center'><img style='vertical-align:center; align:center' src='img/fixation2_sml.jpg'></div><div class='arrayDiv1'><div class='tc'><img class='introPic' src='trustrating_stim/white_mw078.bmp'><br><font color='red'><strong>Keep</strong></font></div></div></div>","null","ARRAY","1","trustrating_stim/white_mw078.bmp","0","noMatchOutcome","i","1500","","","","",""
"html-keyboard-response","57","253334","0.0-7.0-3.4","63356ce6be65e7962bfc424d","bdp_wmem","Tue Mar 14 2023 20:12:11 GMT-0500 (Central Daylight Time)","682173","Match,No Match","","null","","","","","","<div class='trialBorder'><div class='vertical-center'><img src='img/fixation2_sml.jpg'</img></div></div>","null","DELAY","","","","","","","","","","",""
"html-keyboard-response","58","254849","0.0-7.0-4.4","63356ce6be65e7962bfc424d","bdp_wmem","Tue Mar 14 2023 20:12:11 GMT-0500 (Central Daylight Time)","682173","Match,No Match","","1513","","","","","","<div class='trialBorder'><div class='targDiv'><div class='tc'><img class='introPic' src='trustrating_stim/white_mw078.bmp'><br><font color='green'><strong>Share</strong></font></div></div><div class='respDiv'><div class='respDivL'>Match<br>(e)</div><div class='respDivR'>No Match<br>(i)</div></div></div>","i","TARGET","1","trustrating_stim/white_mw078.bmp","0","noMatchOutcome","i","1500","trustrating_stim/white_mw078.bmp","green","Share","REAL","1"
"html-keyboard-response","59","255350","0.0-7.0-5.4","63356ce6be65e7962bfc424d","bdp_wmem","Tue Mar 14 2023 20:12:11 GMT-0500 (Central Daylight Time)","682173","Match,No Match","","null","","","","","","<div class='trialBorder'><div class='vertical-center'><img src='img/correct.jpg'></div><div class='respDiv'><div class='respDivL'>Match<br>(e)</div><div class='respDivR'><font style='color:orange'>No Match<br>(i)</font></div></div></div>","null","FEEDBACK","","","","","","","","","","",""
"html-keyboard-response","60","255851","0.0-7.0-1.5","63356ce6be65e7962bfc424d","bdp_wmem","Tue Mar 14 2023 20:12:11 GMT-0500 (Central Daylight Time)","682173","Match,No Match","","null","","","","","","<div class='trialBorder'><div class='vertical-center'><img src='img/fixation2_sml.jpg'</img></div></div>","null","FIX","","","","","","","","","","",""
"html-keyboard-response","61","260353","0.0-7.0-2.5","63356ce6be65e7962bfc424d","bdp_wmem","Tue Mar 14 2023 20:12:11 GMT-0500 (Central Daylight Time)","682173","Match,No Match","","null","","","","","","<div class='trialBorder'><div class='vertical-center'><img style='vertical-align:center; align:center' src='img/fixation2_sml.jpg'></div><div class='arrayDiv3'><div class='tl'><img class='introPic' src='trustrating_stim/white_mw012.bmp'><br><font color='green'><strong>Share</strong></font></div><div class='tc'><img class='introPic' src='trustrating_stim/white_mw092.bmp'><br><font color='red'><strong>Keep</strong></font></div><div class='tr'><img class='introPic' src='trustrating_stim/white_mw003.bmp'><br><font color='green'><strong>Share</strong></font></div></div></div>","null","ARRAY","3","trustrating_stim/white_mw012.bmp,trustrating_stim/white_mw092.bmp,trustrating_stim/white_mw003.bmp","1,0,1","noMatchFace","i","4500","","","","",""
"html-keyboard-response","62","264354","0.0-7.0-3.5","63356ce6be65e7962bfc424d","bdp_wmem","Tue Mar 14 2023 20:12:11 GMT-0500 (Central Daylight Time)","682173","Match,No Match","","null","","","","","","<div class='trialBorder'><div class='vertical-center'><img src='img/fixation2_sml.jpg'</img></div></div>","null","DELAY","","","","","","","","","","",""
"html-keyboard-response","63","265926","0.0-7.0-4.5","63356ce6be65e7962bfc424d","bdp_wmem","Tue Mar 14 2023 20:12:11 GMT-0500 (Central Daylight Time)","682173","Match,No Match","","1571","","","","","","<div class='trialBorder'><div class='targDiv'><div class='tc'><img class='introPic' src='trustrating_stim/white_mw013.bmp'><br><font color='green'><strong>Share</strong></font></div></div><div class='respDiv'><div class='respDivL'>Match<br>(e)</div><div class='respDivR'>No Match<br>(i)</div></div></div>","i","TARGET","3","trustrating_stim/white_mw012.bmp,trustrating_stim/white_mw092.bmp,trustrating_stim/white_mw003.bmp","1,0,1","noMatchFace","i","4500","trustrating_stim/white_mw013.bmp","green","Share","REAL","1"
"html-keyboard-response","64","266427","0.0-7.0-5.5","63356ce6be65e7962bfc424d","bdp_wmem","Tue Mar 14 2023 20:12:11 GMT-0500 (Central Daylight Time)","682173","Match,No Match","","null","","","","","","<div class='trialBorder'><div class='vertical-center'><img src='img/correct.jpg'></div><div class='respDiv'><div class='respDivL'>Match<br>(e)</div><div class='respDivR'><font style='color:orange'>No Match<br>(i)</font></div></div></div>","null","FEEDBACK","","","","","","","","","","",""
"html-keyboard-response","65","266928","0.0-7.0-1.6","63356ce6be65e7962bfc424d","bdp_wmem","Tue Mar 14 2023 20:12:11 GMT-0500 (Central Daylight Time)","682173","Match,No Match","","null","","","","","","<div class='trialBorder'><div class='vertical-center'><img src='img/fixation2_sml.jpg'</img></div></div>","null","FIX","","","","","","","","","","",""
"html-keyboard-response","66","268430","0.0-7.0-2.6","63356ce6be65e7962bfc424d","bdp_wmem","Tue Mar 14 2023 20:12:11 GMT-0500 (Central Daylight Time)","682173","Match,No Match","","null","","","","","","<div class='trialBorder'><div class='vertical-center'><img style='vertical-align:center; align:center' src='img/fixation2_sml.jpg'></div><div class='arrayDiv1'><div class='tc'><img class='introPic' src='trustrating_stim/white_mw091.bmp'><br><font color='red'><strong>Keep</strong></font></div></div></div>","null","ARRAY","1","trustrating_stim/white_mw091.bmp","0","Match","e","1500","","","","",""
"html-keyboard-response","67","272432","0.0-7.0-3.6","63356ce6be65e7962bfc424d","bdp_wmem","Tue Mar 14 2023 20:12:11 GMT-0500 (Central Daylight Time)","682173","Match,No Match","","null","","","","","","<div class='trialBorder'><div class='vertical-center'><img src='img/fixation2_sml.jpg'</img></div></div>","null","DELAY","","","","","","","","","","",""
"html-keyboard-response","68","273876","0.0-7.0-4.6","63356ce6be65e7962bfc424d","bdp_wmem","Tue Mar 14 2023 20:12:11 GMT-0500 (Central Daylight Time)","682173","Match,No Match","","1443","","","","","","<div class='trialBorder'><div class='targDiv'><div class='tc'><img class='introPic' src='trustrating_stim/white_mw091.bmp'><br><font color='red'><strong>Keep</strong></font></div></div><div class='respDiv'><div class='respDivL'>Match<br>(e)</div><div class='respDivR'>No Match<br>(i)</div></div></div>","e","TARGET","1","trustrating_stim/white_mw091.bmp","0","Match","e","1500","trustrating_stim/white_mw091.bmp","red","Keep","REAL","1"
"html-keyboard-response","69","274377","0.0-7.0-5.6","63356ce6be65e7962bfc424d","bdp_wmem","Tue Mar 14 2023 20:12:11 GMT-0500 (Central Daylight Time)","682173","Match,No Match","","null","","","","","","<div class='trialBorder'><div class='vertical-center'><img src='img/correct.jpg'></div><div class='respDiv'><div class='respDivL'><font style='color:orange'>Match<br>(e)</font></div><div class='respDivR'>No Match<br>(i)</div></div></div>","null","FEEDBACK","","","","","","","","","","",""
"html-keyboard-response","70","274878","0.0-7.0-1.7","63356ce6be65e7962bfc424d","bdp_wmem","Tue Mar 14 2023 20:12:11 GMT-0500 (Central Daylight Time)","682173","Match,No Match","","null","","","","","","<div class='trialBorder'><div class='vertical-center'><img src='img/fixation2_sml.jpg'</img></div></div>","null","FIX","","","","","","","","","","",""
"html-keyboard-response","71","279380","0.0-7.0-2.7","63356ce6be65e7962bfc424d","bdp_wmem","Tue Mar 14 2023 20:12:11 GMT-0500 (Central Daylight Time)","682173","Match,No Match","","null","","","","","","<div class='trialBorder'><div class='vertical-center'><img style='vertical-align:center; align:center' src='img/fixation2_sml.jpg'></div><div class='arrayDiv3'><div class='tl'><img class='introPic' src='trustrating_stim/white_mw092.bmp'><br><font color='green'><strong>Share</strong></font></div><div class='tc'><img class='introPic' src='trustrating_stim/white_mw040.bmp'><br><font color='green'><strong>Share</strong></font></div><div class='tr'><img class='introPic' src='trustrating_stim/white_mw012.bmp'><br><font color='red'><strong>Keep</strong></font></div></div></div>","null","ARRAY","3","trustrating_stim/white_mw092.bmp,trustrating_stim/white_mw040.bmp,trustrating_stim/white_mw012.bmp","1,1,0","Match","e","4500","","","","",""
"html-keyboard-response","72","283381","0.0-7.0-3.7","63356ce6be65e7962bfc424d","bdp_wmem","Tue Mar 14 2023 20:12:11 GMT-0500 (Central Daylight Time)","682173","Match,No Match","","null","","","","","","<div class='trialBorder'><div class='vertical-center'><img src='img/fixation2_sml.jpg'</img></div></div>","null","DELAY","","","","","","","","","","",""
"html-keyboard-response","73","285637","0.0-7.0-4.7","63356ce6be65e7962bfc424d","bdp_wmem","Tue Mar 14 2023 20:12:11 GMT-0500 (Central Daylight Time)","682173","Match,No Match","","2255","","","","","","<div class='trialBorder'><div class='targDiv'><div class='tc'><img class='introPic' src='trustrating_stim/white_mw040.bmp'><br><font color='green'><strong>Share</strong></font></div></div><div class='respDiv'><div class='respDivL'>Match<br>(e)</div><div class='respDivR'>No Match<br>(i)</div></div></div>","e","TARGET","3","trustrating_stim/white_mw092.bmp,trustrating_stim/white_mw040.bmp,trustrating_stim/white_mw012.bmp","1,1,0","Match","e","4500","trustrating_stim/white_mw040.bmp","green","Share","REAL","1"
"html-keyboard-response","74","286138","0.0-7.0-5.7","63356ce6be65e7962bfc424d","bdp_wmem","Tue Mar 14 2023 20:12:11 GMT-0500 (Central Daylight Time)","682173","Match,No Match","","null","","","","","","<div class='trialBorder'><div class='vertical-center'><img src='img/correct.jpg'></div><div class='respDiv'><div class='respDivL'><font style='color:orange'>Match<br>(e)</font></div><div class='respDivR'>No Match<br>(i)</div></div></div>","null","FEEDBACK","","","","","","","","","","",""
"html-keyboard-response","75","286639","0.0-7.0-1.8","63356ce6be65e7962bfc424d","bdp_wmem","Tue Mar 14 2023 20:12:11 GMT-0500 (Central Daylight Time)","682173","Match,No Match","","null","","","","","","<div class='trialBorder'><div class='vertical-center'><img src='img/fixation2_sml.jpg'</img></div></div>","null","FIX","","","","","","","","","","",""
"html-keyboard-response","76","291141","0.0-7.0-2.8","63356ce6be65e7962bfc424d","bdp_wmem","Tue Mar 14 2023 20:12:11 GMT-0500 (Central Daylight Time)","682173","Match,No Match","","null","","","","","","<div class='trialBorder'><div class='vertical-center'><img style='vertical-align:center; align:center' src='img/fixation2_sml.jpg'></div><div class='arrayDiv3'><div class='tl'><img class='introPic' src='trustrating_stim/white_mw070.bmp'><br><font color='green'><strong>Share</strong></font></div><div class='tc'><img class='introPic' src='trustrating_stim/white_mw091.bmp'><br><font color='red'><strong>Keep</strong></font></div><div class='tr'><img class='introPic' src='trustrating_stim/white_mw010.bmp'><br><font color='green'><strong>Share</strong></font></div></div></div>","null","ARRAY","3","trustrating_stim/white_mw070.bmp,trustrating_stim/white_mw091.bmp,trustrating_stim/white_mw010.bmp","1,0,1","noMatchOutcome","i","4500","","","","",""
"html-keyboard-response","77","295142","0.0-7.0-3.8","63356ce6be65e7962bfc424d","bdp_wmem","Tue Mar 14 2023 20:12:11 GMT-0500 (Central Daylight Time)","682173","Match,No Match","","null","","","","","","<div class='trialBorder'><div class='vertical-center'><img src='img/fixation2_sml.jpg'</img></div></div>","null","DELAY","","","","","","","","","","",""
"html-keyboard-response","78","297171","0.0-7.0-4.8","63356ce6be65e7962bfc424d","bdp_wmem","Tue Mar 14 2023 20:12:11 GMT-0500 (Central Daylight Time)","682173","Match,No Match","","2028","","","","","","<div class='trialBorder'><div class='targDiv'><div class='tc'><img class='introPic' src='trustrating_stim/white_mw070.bmp'><br><font color='red'><strong>Keep</strong></font></div></div><div class='respDiv'><div class='respDivL'>Match<br>(e)</div><div class='respDivR'>No Match<br>(i)</div></div></div>","i","TARGET","3","trustrating_stim/white_mw070.bmp,trustrating_stim/white_mw091.bmp,trustrating_stim/white_mw010.bmp","1,0,1","noMatchOutcome","i","4500","trustrating_stim/white_mw070.bmp","red","Keep","REAL","1"
"html-keyboard-response","79","297672","0.0-7.0-5.8","63356ce6be65e7962bfc424d","bdp_wmem","Tue Mar 14 2023 20:12:11 GMT-0500 (Central Daylight Time)","682173","Match,No Match","","null","","","","","","<div class='trialBorder'><div class='vertical-center'><img src='img/correct.jpg'></div><div class='respDiv'><div class='respDivL'>Match<br>(e)</div><div class='respDivR'><font style='color:orange'>No Match<br>(i)</font></div></div></div>","null","FEEDBACK","","","","","","","","","","",""
"html-keyboard-response","80","298173","0.0-7.0-1.9","63356ce6be65e7962bfc424d","bdp_wmem","Tue Mar 14 2023 20:12:11 GMT-0500 (Central Daylight Time)","682173","Match,No Match","","null","","","","","","<div class='trialBorder'><div class='vertical-center'><img src='img/fixation2_sml.jpg'</img></div></div>","null","FIX","","","","","","","","","","",""
"html-keyboard-response","81","299674","0.0-7.0-2.9","63356ce6be65e7962bfc424d","bdp_wmem","Tue Mar 14 2023 20:12:11 GMT-0500 (Central Daylight Time)","682173","Match,No Match","","null","","","","","","<div class='trialBorder'><div class='vertical-center'><img style='vertical-align:center; align:center' src='img/fixation2_sml.jpg'></div><div class='arrayDiv1'><div class='tc'><img class='introPic' src='trustrating_stim/white_mw092.bmp'><br><font color='green'><strong>Share</strong></font></div></div></div>","null","ARRAY","1","trustrating_stim/white_mw092.bmp","1","Match","e","1500","","","","",""
"html-keyboard-response","82","303675","0.0-7.0-3.9","63356ce6be65e7962bfc424d","bdp_wmem","Tue Mar 14 2023 20:12:11 GMT-0500 (Central Daylight Time)","682173","Match,No Match","","null","","","","","","<div class='trialBorder'><div class='vertical-center'><img src='img/fixation2_sml.jpg'</img></div></div>","null","DELAY","","","","","","","","","","",""
"html-keyboard-response","83","305042","0.0-7.0-4.9","63356ce6be65e7962bfc424d","bdp_wmem","Tue Mar 14 2023 20:12:11 GMT-0500 (Central Daylight Time)","682173","Match,No Match","","1366","","","","","","<div class='trialBorder'><div class='targDiv'><div class='tc'><img class='introPic' src='trustrating_stim/white_mw092.bmp'><br><font color='green'><strong>Share</strong></font></div></div><div class='respDiv'><div class='respDivL'>Match<br>(e)</div><div class='respDivR'>No Match<br>(i)</div></div></div>","e","TARGET","1","trustrating_stim/white_mw092.bmp","1","Match","e","1500","trustrating_stim/white_mw092.bmp","green","Share","REAL","1"
"html-keyboard-response","84","305543","0.0-7.0-5.9","63356ce6be65e7962bfc424d","bdp_wmem","Tue Mar 14 2023 20:12:11 GMT-0500 (Central Daylight Time)","682173","Match,No Match","","null","","","","","","<div class='trialBorder'><div class='vertical-center'><img src='img/correct.jpg'></div><div class='respDiv'><div class='respDivL'><font style='color:orange'>Match<br>(e)</font></div><div class='respDivR'>No Match<br>(i)</div></div></div>","null","FEEDBACK","","","","","","","","","","",""
"html-keyboard-response","85","306045","0.0-7.0-1.10","63356ce6be65e7962bfc424d","bdp_wmem","Tue Mar 14 2023 20:12:11 GMT-0500 (Central Daylight Time)","682173","Match,No Match","","null","","","","","","<div class='trialBorder'><div class='vertical-center'><img src='img/fixation2_sml.jpg'</img></div></div>","null","FIX","","","","","","","","","","",""
"html-keyboard-response","86","310547","0.0-7.0-2.10","63356ce6be65e7962bfc424d","bdp_wmem","Tue Mar 14 2023 20:12:11 GMT-0500 (Central Daylight Time)","682173","Match,No Match","","null","","","","","","<div class='trialBorder'><div class='vertical-center'><img style='vertical-align:center; align:center' src='img/fixation2_sml.jpg'></div><div class='arrayDiv3'><div class='tl'><img class='introPic' src='trustrating_stim/white_mw091.bmp'><br><font color='red'><strong>Keep</strong></font></div><div class='tc'><img class='introPic' src='trustrating_stim/white_mw070.bmp'><br><font color='red'><strong>Keep</strong></font></div><div class='tr'><img class='introPic' src='trustrating_stim/white_mw040.bmp'><br><font color='green'><strong>Share</strong></font></div></div></div>","null","ARRAY","3","trustrating_stim/white_mw091.bmp,trustrating_stim/white_mw070.bmp,trustrating_stim/white_mw040.bmp","0,0,1","noMatchOutcome","i","4500","","","","",""
"html-keyboard-response","87","314547","0.0-7.0-3.10","63356ce6be65e7962bfc424d","bdp_wmem","Tue Mar 14 2023 20:12:11 GMT-0500 (Central Daylight Time)","682173","Match,No Match","","null","","","","","","<div class='trialBorder'><div class='vertical-center'><img src='img/fixation2_sml.jpg'</img></div></div>","null","DELAY","","","","","","","","","","",""
"html-keyboard-response","88","316158","0.0-7.0-4.10","63356ce6be65e7962bfc424d","bdp_wmem","Tue Mar 14 2023 20:12:11 GMT-0500 (Central Daylight Time)","682173","Match,No Match","","1609","","","","","","<div class='trialBorder'><div class='targDiv'><div class='tc'><img class='introPic' src='trustrating_stim/white_mw091.bmp'><br><font color='green'><strong>Share</strong></font></div></div><div class='respDiv'><div class='respDivL'>Match<br>(e)</div><div class='respDivR'>No Match<br>(i)</div></div></div>","e","TARGET","3","trustrating_stim/white_mw091.bmp,trustrating_stim/white_mw070.bmp,trustrating_stim/white_mw040.bmp","0,0,1","noMatchOutcome","i","4500","trustrating_stim/white_mw091.bmp","green","Share","REAL","0"
"html-keyboard-response","89","316660","0.0-7.0-5.10","63356ce6be65e7962bfc424d","bdp_wmem","Tue Mar 14 2023 20:12:11 GMT-0500 (Central Daylight Time)","682173","Match,No Match","","null","","","","","","<div class='trialBorder'><div class='vertical-center'><img src='img/error.jpg'></div><div class='respDiv'><div class='respDivL'><font style='color:orange'>Match<br>(e)</font></div><div class='respDivR'>No Match<br>(i)</div></div></div>","null","FEEDBACK","","","","","","","","","","",""
"html-keyboard-response","90","317161","0.0-7.0-1.11","63356ce6be65e7962bfc424d","bdp_wmem","Tue Mar 14 2023 20:12:11 GMT-0500 (Central Daylight Time)","682173","Match,No Match","","null","","","","","","<div class='trialBorder'><div class='vertical-center'><img src='img/fixation2_sml.jpg'</img></div></div>","null","FIX","","","","","","","","","","",""
"html-keyboard-response","91","320162","0.0-7.0-2.11","63356ce6be65e7962bfc424d","bdp_wmem","Tue Mar 14 2023 20:12:11 GMT-0500 (Central Daylight Time)","682173","Match,No Match","","null","","","","","","<div class='trialBorder'><div class='vertical-center'><img style='vertical-align:center; align:center' src='img/fixation2_sml.jpg'></div><div class='arrayDiv2'><div class='tl'><img class='introPic' src='trustrating_stim/white_mw042.bmp'><br><font color='green'><strong>Share</strong></font></div><div class='tr'><img class='introPic' src='trustrating_stim/white_mw003.bmp'><br><font color='red'><strong>Keep</strong></font></div></div></div>","null","ARRAY","2","trustrating_stim/white_mw042.bmp,trustrating_stim/white_mw003.bmp","1,0","Match","e","3000","","","","",""
"html-keyboard-response","92","324163","0.0-7.0-3.11","63356ce6be65e7962bfc424d","bdp_wmem","Tue Mar 14 2023 20:12:11 GMT-0500 (Central Daylight Time)","682173","Match,No Match","","null","","","","","","<div class='trialBorder'><div class='vertical-center'><img src='img/fixation2_sml.jpg'</img></div></div>","null","DELAY","","","","","","","","","","",""
"html-keyboard-response","93","326683","0.0-7.0-4.11","63356ce6be65e7962bfc424d","bdp_wmem","Tue Mar 14 2023 20:12:11 GMT-0500 (Central Daylight Time)","682173","Match,No Match","","2518","","","","","","<div class='trialBorder'><div class='targDiv'><div class='tc'><img class='introPic' src='trustrating_stim/white_mw042.bmp'><br><font color='green'><strong>Share</strong></font></div></div><div class='respDiv'><div class='respDivL'>Match<br>(e)</div><div class='respDivR'>No Match<br>(i)</div></div></div>","e","TARGET","2","trustrating_stim/white_mw042.bmp,trustrating_stim/white_mw003.bmp","1,0","Match","e","3000","trustrating_stim/white_mw042.bmp","green","Share","REAL","1"
"html-keyboard-response","94","327184","0.0-7.0-5.11","63356ce6be65e7962bfc424d","bdp_wmem","Tue Mar 14 2023 20:12:11 GMT-0500 (Central Daylight Time)","682173","Match,No Match","","null","","","","","","<div class='trialBorder'><div class='vertical-center'><img src='img/correct.jpg'></div><div class='respDiv'><div class='respDivL'><font style='color:orange'>Match<br>(e)</font></div><div class='respDivR'>No Match<br>(i)</div></div></div>","null","FEEDBACK","","","","","","","","","","",""
"html-keyboard-response","95","327685","0.0-7.0-1.12","63356ce6be65e7962bfc424d","bdp_wmem","Tue Mar 14 2023 20:12:11 GMT-0500 (Central Daylight Time)","682173","Match,No Match","","null","","","","","","<div class='trialBorder'><div class='vertical-center'><img src='img/fixation2_sml.jpg'</img></div></div>","null","FIX","","","","","","","","","","",""
"html-keyboard-response","96","330687","0.0-7.0-2.12","63356ce6be65e7962bfc424d","bdp_wmem","Tue Mar 14 2023 20:12:11 GMT-0500 (Central Daylight Time)","682173","Match,No Match","","null","","","","","","<div class='trialBorder'><div class='vertical-center'><img style='vertical-align:center; align:center' src='img/fixation2_sml.jpg'></div><div class='arrayDiv2'><div class='tl'><img class='introPic' src='trustrating_stim/white_mw010.bmp'><br><font color='green'><strong>Share</strong></font></div><div class='tr'><img class='introPic' src='trustrating_stim/white_mw092.bmp'><br><font color='red'><strong>Keep</strong></font></div></div></div>","null","ARRAY","2","trustrating_stim/white_mw010.bmp,trustrating_stim/white_mw092.bmp","1,0","noMatchFace","i","3000","","","","",""
"html-keyboard-response","97","334688","0.0-7.0-3.12","63356ce6be65e7962bfc424d","bdp_wmem","Tue Mar 14 2023 20:12:11 GMT-0500 (Central Daylight Time)","682173","Match,No Match","","null","","","","","","<div class='trialBorder'><div class='vertical-center'><img src='img/fixation2_sml.jpg'</img></div></div>","null","DELAY","","","","","","","","","","",""
"html-keyboard-response","98","336513","0.0-7.0-4.12","63356ce6be65e7962bfc424d","bdp_wmem","Tue Mar 14 2023 20:12:11 GMT-0500 (Central Daylight Time)","682173","Match,No Match","","1824","","","","","","<div class='trialBorder'><div class='targDiv'><div class='tc'><img class='introPic' src='trustrating_stim/white_mw042.bmp'><br><font color='green'><strong>Share</strong></font></div></div><div class='respDiv'><div class='respDivL'>Match<br>(e)</div><div class='respDivR'>No Match<br>(i)</div></div></div>","i","TARGET","2","trustrating_stim/white_mw010.bmp,trustrating_stim/white_mw092.bmp","1,0","noMatchFace","i","3000","trustrating_stim/white_mw042.bmp","green","Share","REAL","1"
"html-keyboard-response","99","337015","0.0-7.0-5.12","63356ce6be65e7962bfc424d","bdp_wmem","Tue Mar 14 2023 20:12:11 GMT-0500 (Central Daylight Time)","682173","Match,No Match","","null","","","","","","<div class='trialBorder'><div class='vertical-center'><img src='img/correct.jpg'></div><div class='respDiv'><div class='respDivL'>Match<br>(e)</div><div class='respDivR'><font style='color:orange'>No Match<br>(i)</font></div></div></div>","null","FEEDBACK","","","","","","","","","","",""
"html-keyboard-response","100","337517","0.0-7.0-1.13","63356ce6be65e7962bfc424d","bdp_wmem","Tue Mar 14 2023 20:12:11 GMT-0500 (Central Daylight Time)","682173","Match,No Match","","null","","","","","","<div class='trialBorder'><div class='vertical-center'><img src='img/fixation2_sml.jpg'</img></div></div>","null","FIX","","","","","","","","","","",""
"html-keyboard-response","101","340518","0.0-7.0-2.13","63356ce6be65e7962bfc424d","bdp_wmem","Tue Mar 14 2023 20:12:11 GMT-0500 (Central Daylight Time)","682173","Match,No Match","","null","","","","","","<div class='trialBorder'><div class='vertical-center'><img style='vertical-align:center; align:center' src='img/fixation2_sml.jpg'></div><div class='arrayDiv2'><div class='tl'><img class='introPic' src='trustrating_stim/white_mw078.bmp'><br><font color='red'><strong>Keep</strong></font></div><div class='tr'><img class='introPic' src='trustrating_stim/white_mw085.bmp'><br><font color='green'><strong>Share</strong></font></div></div></div>","null","ARRAY","2","trustrating_stim/white_mw078.bmp,trustrating_stim/white_mw085.bmp","0,1","noMatchOutcome","i","3000","","","","",""
"html-keyboard-response","102","344520","0.0-7.0-3.13","63356ce6be65e7962bfc424d","bdp_wmem","Tue Mar 14 2023 20:12:11 GMT-0500 (Central Daylight Time)","682173","Match,No Match","","null","","","","","","<div class='trialBorder'><div class='vertical-center'><img src='img/fixation2_sml.jpg'</img></div></div>","null","DELAY","","","","","","","","","","",""
"html-keyboard-response","103","346385","0.0-7.0-4.13","63356ce6be65e7962bfc424d","bdp_wmem","Tue Mar 14 2023 20:12:11 GMT-0500 (Central Daylight Time)","682173","Match,No Match","","1864","","","","","","<div class='trialBorder'><div class='targDiv'><div class='tc'><img class='introPic' src='trustrating_stim/white_mw078.bmp'><br><font color='green'><strong>Share</strong></font></div></div><div class='respDiv'><div class='respDivL'>Match<br>(e)</div><div class='respDivR'>No Match<br>(i)</div></div></div>","i","TARGET","2","trustrating_stim/white_mw078.bmp,trustrating_stim/white_mw085.bmp","0,1","noMatchOutcome","i","3000","trustrating_stim/white_mw078.bmp","green","Share","REAL","1"
"html-keyboard-response","104","346886","0.0-7.0-5.13","63356ce6be65e7962bfc424d","bdp_wmem","Tue Mar 14 2023 20:12:11 GMT-0500 (Central Daylight Time)","682173","Match,No Match","","null","","","","","","<div class='trialBorder'><div class='vertical-center'><img src='img/correct.jpg'></div><div class='respDiv'><div class='respDivL'>Match<br>(e)</div><div class='respDivR'><font style='color:orange'>No Match<br>(i)</font></div></div></div>","null","FEEDBACK","","","","","","","","","","",""
"html-keyboard-response","105","347387","0.0-7.0-1.14","63356ce6be65e7962bfc424d","bdp_wmem","Tue Mar 14 2023 20:12:11 GMT-0500 (Central Daylight Time)","682173","Match,No Match","","null","","","","","","<div class='trialBorder'><div class='vertical-center'><img src='img/fixation2_sml.jpg'</img></div></div>","null","FIX","","","","","","","","","","",""
"html-keyboard-response","106","350389","0.0-7.0-2.14","63356ce6be65e7962bfc424d","bdp_wmem","Tue Mar 14 2023 20:12:11 GMT-0500 (Central Daylight Time)","682173","Match,No Match","","null","","","","","","<div class='trialBorder'><div class='vertical-center'><img style='vertical-align:center; align:center' src='img/fixation2_sml.jpg'></div><div class='arrayDiv2'><div class='tl'><img class='introPic' src='trustrating_stim/white_mw042.bmp'><br><font color='red'><strong>Keep</strong></font></div><div class='tr'><img class='introPic' src='trustrating_stim/white_mw010.bmp'><br><font color='green'><strong>Share</strong></font></div></div></div>","null","ARRAY","2","trustrating_stim/white_mw042.bmp,trustrating_stim/white_mw010.bmp","0,1","Match","e","3000","","","","",""
"html-keyboard-response","107","354390","0.0-7.0-3.14","63356ce6be65e7962bfc424d","bdp_wmem","Tue Mar 14 2023 20:12:11 GMT-0500 (Central Daylight Time)","682173","Match,No Match","","null","","","","","","<div class='trialBorder'><div class='vertical-center'><img src='img/fixation2_sml.jpg'</img></div></div>","null","DELAY","","","","","","","","","","",""
"html-keyboard-response","108","357276","0.0-7.0-4.14","63356ce6be65e7962bfc424d","bdp_wmem","Tue Mar 14 2023 20:12:11 GMT-0500 (Central Daylight Time)","682173","Match,No Match","","2884","","","","","","<div class='trialBorder'><div class='targDiv'><div class='tc'><img class='introPic' src='trustrating_stim/white_mw010.bmp'><br><font color='green'><strong>Share</strong></font></div></div><div class='respDiv'><div class='respDivL'>Match<br>(e)</div><div class='respDivR'>No Match<br>(i)</div></div></div>","i","TARGET","2","trustrating_stim/white_mw042.bmp,trustrating_stim/white_mw010.bmp","0,1","Match","e","3000","trustrating_stim/white_mw010.bmp","green","Share","REAL","0"
"html-keyboard-response","109","357777","0.0-7.0-5.14","63356ce6be65e7962bfc424d","bdp_wmem","Tue Mar 14 2023 20:12:11 GMT-0500 (Central Daylight Time)","682173","Match,No Match","","null","","","","","","<div class='trialBorder'><div class='vertical-center'><img src='img/error.jpg'></div><div class='respDiv'><div class='respDivL'>Match<br>(e)</div><div class='respDivR'><font style='color:orange'>No Match<br>(i)</font></div></div></div>","null","FEEDBACK","","","","","","","","","","",""
"html-keyboard-response","110","358277","0.0-7.0-1.15","63356ce6be65e7962bfc424d","bdp_wmem","Tue Mar 14 2023 20:12:11 GMT-0500 (Central Daylight Time)","682173","Match,No Match","","null","","","","","","<div class='trialBorder'><div class='vertical-center'><img src='img/fixation2_sml.jpg'</img></div></div>","null","FIX","","","","","","","","","","",""
"html-keyboard-response","111","359779","0.0-7.0-2.15","63356ce6be65e7962bfc424d","bdp_wmem","Tue Mar 14 2023 20:12:11 GMT-0500 (Central Daylight Time)","682173","Match,No Match","","null","","","","","","<div class='trialBorder'><div class='vertical-center'><img style='vertical-align:center; align:center' src='img/fixation2_sml.jpg'></div><div class='arrayDiv1'><div class='tc'><img class='introPic' src='trustrating_stim/white_mw013.bmp'><br><font color='red'><strong>Keep</strong></font></div></div></div>","null","ARRAY","1","trustrating_stim/white_mw013.bmp","0","noMatchOutcome","i","1500","","","","",""
"html-keyboard-response","112","363781","0.0-7.0-3.15","63356ce6be65e7962bfc424d","bdp_wmem","Tue Mar 14 2023 20:12:11 GMT-0500 (Central Daylight Time)","682173","Match,No Match","","null","","","","","","<div class='trialBorder'><div class='vertical-center'><img src='img/fixation2_sml.jpg'</img></div></div>","null","DELAY","","","","","","","","","","",""
"html-keyboard-response","113","364980","0.0-7.0-4.15","63356ce6be65e7962bfc424d","bdp_wmem","Tue Mar 14 2023 20:12:11 GMT-0500 (Central Daylight Time)","682173","Match,No Match","","1198","","","","","","<div class='trialBorder'><div class='targDiv'><div class='tc'><img class='introPic' src='trustrating_stim/white_mw013.bmp'><br><font color='green'><strong>Share</strong></font></div></div><div class='respDiv'><div class='respDivL'>Match<br>(e)</div><div class='respDivR'>No Match<br>(i)</div></div></div>","i","TARGET","1","trustrating_stim/white_mw013.bmp","0","noMatchOutcome","i","1500","trustrating_stim/white_mw013.bmp","green","Share","REAL","1"
"html-keyboard-response","114","365481","0.0-7.0-5.15","63356ce6be65e7962bfc424d","bdp_wmem","Tue Mar 14 2023 20:12:11 GMT-0500 (Central Daylight Time)","682173","Match,No Match","","null","","","","","","<div class='trialBorder'><div class='vertical-center'><img src='img/correct.jpg'></div><div class='respDiv'><div class='respDivL'>Match<br>(e)</div><div class='respDivR'><font style='color:orange'>No Match<br>(i)</font></div></div></div>","null","FEEDBACK","","","","","","","","","","",""
"html-keyboard-response","115","365982","0.0-7.0-1.16","63356ce6be65e7962bfc424d","bdp_wmem","Tue Mar 14 2023 20:12:11 GMT-0500 (Central Daylight Time)","682173","Match,No Match","","null","","","","","","<div class='trialBorder'><div class='vertical-center'><img src='img/fixation2_sml.jpg'</img></div></div>","null","FIX","","","","","","","","","","",""
"html-keyboard-response","116","368984","0.0-7.0-2.16","63356ce6be65e7962bfc424d","bdp_wmem","Tue Mar 14 2023 20:12:11 GMT-0500 (Central Daylight Time)","682173","Match,No Match","","null","","","","","","<div class='trialBorder'><div class='vertical-center'><img style='vertical-align:center; align:center' src='img/fixation2_sml.jpg'></div><div class='arrayDiv2'><div class='tl'><img class='introPic' src='trustrating_stim/white_mw078.bmp'><br><font color='green'><strong>Share</strong></font></div><div class='tr'><img class='introPic' src='trustrating_stim/white_mw012.bmp'><br><font color='red'><strong>Keep</strong></font></div></div></div>","null","ARRAY","2","trustrating_stim/white_mw078.bmp,trustrating_stim/white_mw012.bmp","1,0","noMatchOutcome","i","3000","","","","",""
"html-keyboard-response","117","372985","0.0-7.0-3.16","63356ce6be65e7962bfc424d","bdp_wmem","Tue Mar 14 2023 20:12:11 GMT-0500 (Central Daylight Time)","682173","Match,No Match","","null","","","","","","<div class='trialBorder'><div class='vertical-center'><img src='img/fixation2_sml.jpg'</img></div></div>","null","DELAY","","","","","","","","","","",""
"html-keyboard-response","118","375969","0.0-7.0-4.16","63356ce6be65e7962bfc424d","bdp_wmem","Tue Mar 14 2023 20:12:11 GMT-0500 (Central Daylight Time)","682173","Match,No Match","","2982","","","","","","<div class='trialBorder'><div class='targDiv'><div class='tc'><img class='introPic' src='trustrating_stim/white_mw012.bmp'><br><font color='green'><strong>Share</strong></font></div></div><div class='respDiv'><div class='respDivL'>Match<br>(e)</div><div class='respDivR'>No Match<br>(i)</div></div></div>","i","TARGET","2","trustrating_stim/white_mw078.bmp,trustrating_stim/white_mw012.bmp","1,0","noMatchOutcome","i","3000","trustrating_stim/white_mw012.bmp","green","Share","REAL","1"
"html-keyboard-response","119","376470","0.0-7.0-5.16","63356ce6be65e7962bfc424d","bdp_wmem","Tue Mar 14 2023 20:12:11 GMT-0500 (Central Daylight Time)","682173","Match,No Match","","null","","","","","","<div class='trialBorder'><div class='vertical-center'><img src='img/correct.jpg'></div><div class='respDiv'><div class='respDivL'>Match<br>(e)</div><div class='respDivR'><font style='color:orange'>No Match<br>(i)</font></div></div></div>","null","FEEDBACK","","","","","","","","","","",""
"html-keyboard-response","120","376971","0.0-7.0-1.17","63356ce6be65e7962bfc424d","bdp_wmem","Tue Mar 14 2023 20:12:11 GMT-0500 (Central Daylight Time)","682173","Match,No Match","","null","","","","","","<div class='trialBorder'><div class='vertical-center'><img src='img/fixation2_sml.jpg'</img></div></div>","null","FIX","","","","","","","","","","",""
"html-keyboard-response","121","378473","0.0-7.0-2.17","63356ce6be65e7962bfc424d","bdp_wmem","Tue Mar 14 2023 20:12:11 GMT-0500 (Central Daylight Time)","682173","Match,No Match","","null","","","","","","<div class='trialBorder'><div class='vertical-center'><img style='vertical-align:center; align:center' src='img/fixation2_sml.jpg'></div><div class='arrayDiv1'><div class='tc'><img class='introPic' src='trustrating_stim/white_mw070.bmp'><br><font color='green'><strong>Share</strong></font></div></div></div>","null","ARRAY","1","trustrating_stim/white_mw070.bmp","1","noMatchOutcome","i","1500","","","","",""
"html-keyboard-response","122","382475","0.0-7.0-3.17","63356ce6be65e7962bfc424d","bdp_wmem","Tue Mar 14 2023 20:12:11 GMT-0500 (Central Daylight Time)","682173","Match,No Match","","null","","","","","","<div class='trialBorder'><div class='vertical-center'><img src='img/fixation2_sml.jpg'</img></div></div>","null","DELAY","","","","","","","","","","",""
"html-keyboard-response","123","383847","0.0-7.0-4.17","63356ce6be65e7962bfc424d","bdp_wmem","Tue Mar 14 2023 20:12:11 GMT-0500 (Central Daylight Time)","682173","Match,No Match","","1370","","","","","","<div class='trialBorder'><div class='targDiv'><div class='tc'><img class='introPic' src='trustrating_stim/white_mw070.bmp'><br><font color='red'><strong>Keep</strong></font></div></div><div class='respDiv'><div class='respDivL'>Match<br>(e)</div><div class='respDivR'>No Match<br>(i)</div></div></div>","i","TARGET","1","trustrating_stim/white_mw070.bmp","1","noMatchOutcome","i","1500","trustrating_stim/white_mw070.bmp","red","Keep","REAL","1"
"html-keyboard-response","124","384348","0.0-7.0-5.17","63356ce6be65e7962bfc424d","bdp_wmem","Tue Mar 14 2023 20:12:11 GMT-0500 (Central Daylight Time)","682173","Match,No Match","","null","","","","","","<div class='trialBorder'><div class='vertical-center'><img src='img/correct.jpg'></div><div class='respDiv'><div class='respDivL'>Match<br>(e)</div><div class='respDivR'><font style='color:orange'>No Match<br>(i)</font></div></div></div>","null","FEEDBACK","","","","","","","","","","",""
"html-keyboard-response","125","384850","0.0-7.0-1.18","63356ce6be65e7962bfc424d","bdp_wmem","Tue Mar 14 2023 20:12:11 GMT-0500 (Central Daylight Time)","682173","Match,No Match","","null","","","","","","<div class='trialBorder'><div class='vertical-center'><img src='img/fixation2_sml.jpg'</img></div></div>","null","FIX","","","","","","","","","","",""
"html-keyboard-response","126","387851","0.0-7.0-2.18","63356ce6be65e7962bfc424d","bdp_wmem","Tue Mar 14 2023 20:12:11 GMT-0500 (Central Daylight Time)","682173","Match,No Match","","null","","","","","","<div class='trialBorder'><div class='vertical-center'><img style='vertical-align:center; align:center' src='img/fixation2_sml.jpg'></div><div class='arrayDiv2'><div class='tl'><img class='introPic' src='trustrating_stim/white_mw070.bmp'><br><font color='red'><strong>Keep</strong></font></div><div class='tr'><img class='introPic' src='trustrating_stim/white_mw038.bmp'><br><font color='green'><strong>Share</strong></font></div></div></div>","null","ARRAY","2","trustrating_stim/white_mw070.bmp,trustrating_stim/white_mw038.bmp","0,1","Match","e","3000","","","","",""
"html-keyboard-response","127","391852","0.0-7.0-3.18","63356ce6be65e7962bfc424d","bdp_wmem","Tue Mar 14 2023 20:12:11 GMT-0500 (Central Daylight Time)","682173","Match,No Match","","null","","","","","","<div class='trialBorder'><div class='vertical-center'><img src='img/fixation2_sml.jpg'</img></div></div>","null","DELAY","","","","","","","","","","",""
"html-keyboard-response","128","393427","0.0-7.0-4.18","63356ce6be65e7962bfc424d","bdp_wmem","Tue Mar 14 2023 20:12:11 GMT-0500 (Central Daylight Time)","682173","Match,No Match","","1574","","","","","","<div class='trialBorder'><div class='targDiv'><div class='tc'><img class='introPic' src='trustrating_stim/white_mw038.bmp'><br><font color='green'><strong>Share</strong></font></div></div><div class='respDiv'><div class='respDivL'>Match<br>(e)</div><div class='respDivR'>No Match<br>(i)</div></div></div>","e","TARGET","2","trustrating_stim/white_mw070.bmp,trustrating_stim/white_mw038.bmp","0,1","Match","e","3000","trustrating_stim/white_mw038.bmp","green","Share","REAL","1"
"html-keyboard-response","129","393928","0.0-7.0-5.18","63356ce6be65e7962bfc424d","bdp_wmem","Tue Mar 14 2023 20:12:11 GMT-0500 (Central Daylight Time)","682173","Match,No Match","","null","","","","","","<div class='trialBorder'><div class='vertical-center'><img src='img/correct.jpg'></div><div class='respDiv'><div class='respDivL'><font style='color:orange'>Match<br>(e)</font></div><div class='respDivR'>No Match<br>(i)</div></div></div>","null","FEEDBACK","","","","","","","","","","",""
"html-keyboard-response","130","394428","0.0-7.0-1.19","63356ce6be65e7962bfc424d","bdp_wmem","Tue Mar 14 2023 20:12:11 GMT-0500 (Central Daylight Time)","682173","Match,No Match","","null","","","","","","<div class='trialBorder'><div class='vertical-center'><img src='img/fixation2_sml.jpg'</img></div></div>","null","FIX","","","","","","","","","","",""
"html-keyboard-response","131","397431","0.0-7.0-2.19","63356ce6be65e7962bfc424d","bdp_wmem","Tue Mar 14 2023 20:12:11 GMT-0500 (Central Daylight Time)","682173","Match,No Match","","null","","","","","","<div class='trialBorder'><div class='vertical-center'><img style='vertical-align:center; align:center' src='img/fixation2_sml.jpg'></div><div class='arrayDiv2'><div class='tl'><img class='introPic' src='trustrating_stim/white_mw003.bmp'><br><font color='green'><strong>Share</strong></font></div><div class='tr'><img class='introPic' src='trustrating_stim/white_mw091.bmp'><br><font color='red'><strong>Keep</strong></font></div></div></div>","null","ARRAY","2","trustrating_stim/white_mw003.bmp,trustrating_stim/white_mw091.bmp","1,0","noMatchOutcome","i","3000","","","","",""
"html-keyboard-response","132","401432","0.0-7.0-3.19","63356ce6be65e7962bfc424d","bdp_wmem","Tue Mar 14 2023 20:12:11 GMT-0500 (Central Daylight Time)","682173","Match,No Match","","null","","","","","","<div class='trialBorder'><div class='vertical-center'><img src='img/fixation2_sml.jpg'</img></div></div>","null","DELAY","","","","","","","","","","",""
"html-keyboard-response","133","403016","0.0-7.0-4.19","63356ce6be65e7962bfc424d","bdp_wmem","Tue Mar 14 2023 20:12:11 GMT-0500 (Central Daylight Time)","682173","Match,No Match","","1583","","","","","","<div class='trialBorder'><div class='targDiv'><div class='tc'><img class='introPic' src='trustrating_stim/white_mw091.bmp'><br><font color='green'><strong>Share</strong></font></div></div><div class='respDiv'><div class='respDivL'>Match<br>(e)</div><div class='respDivR'>No Match<br>(i)</div></div></div>","i","TARGET","2","trustrating_stim/white_mw003.bmp,trustrating_stim/white_mw091.bmp","1,0","noMatchOutcome","i","3000","trustrating_stim/white_mw091.bmp","green","Share","REAL","1"
"html-keyboard-response","134","403518","0.0-7.0-5.19","63356ce6be65e7962bfc424d","bdp_wmem","Tue Mar 14 2023 20:12:11 GMT-0500 (Central Daylight Time)","682173","Match,No Match","","null","","","","","","<div class='trialBorder'><div class='vertical-center'><img src='img/correct.jpg'></div><div class='respDiv'><div class='respDivL'>Match<br>(e)</div><div class='respDivR'><font style='color:orange'>No Match<br>(i)</font></div></div></div>","null","FEEDBACK","","","","","","","","","","",""
"html-keyboard-response","135","404019","0.0-7.0-1.20","63356ce6be65e7962bfc424d","bdp_wmem","Tue Mar 14 2023 20:12:11 GMT-0500 (Central Daylight Time)","682173","Match,No Match","","null","","","","","","<div class='trialBorder'><div class='vertical-center'><img src='img/fixation2_sml.jpg'</img></div></div>","null","FIX","","","","","","","","","","",""
"html-keyboard-response","136","407020","0.0-7.0-2.20","63356ce6be65e7962bfc424d","bdp_wmem","Tue Mar 14 2023 20:12:11 GMT-0500 (Central Daylight Time)","682173","Match,No Match","","null","","","","","","<div class='trialBorder'><div class='vertical-center'><img style='vertical-align:center; align:center' src='img/fixation2_sml.jpg'></div><div class='arrayDiv2'><div class='tl'><img class='introPic' src='trustrating_stim/white_mw042.bmp'><br><font color='green'><strong>Share</strong></font></div><div class='tr'><img class='introPic' src='trustrating_stim/white_mw038.bmp'><br><font color='red'><strong>Keep</strong></font></div></div></div>","null","ARRAY","2","trustrating_stim/white_mw042.bmp,trustrating_stim/white_mw038.bmp","1,0","Match","e","3000","","","","",""
"html-keyboard-response","137","411021","0.0-7.0-3.20","63356ce6be65e7962bfc424d","bdp_wmem","Tue Mar 14 2023 20:12:11 GMT-0500 (Central Daylight Time)","682173","Match,No Match","","null","","","","","","<div class='trialBorder'><div class='vertical-center'><img src='img/fixation2_sml.jpg'</img></div></div>","null","DELAY","","","","","","","","","","",""
"html-keyboard-response","138","412935","0.0-7.0-4.20","63356ce6be65e7962bfc424d","bdp_wmem","Tue Mar 14 2023 20:12:11 GMT-0500 (Central Daylight Time)","682173","Match,No Match","","1913","","","","","","<div class='trialBorder'><div class='targDiv'><div class='tc'><img class='introPic' src='trustrating_stim/white_mw042.bmp'><br><font color='green'><strong>Share</strong></font></div></div><div class='respDiv'><div class='respDivL'>Match<br>(e)</div><div class='respDivR'>No Match<br>(i)</div></div></div>","e","TARGET","2","trustrating_stim/white_mw042.bmp,trustrating_stim/white_mw038.bmp","1,0","Match","e","3000","trustrating_stim/white_mw042.bmp","green","Share","REAL","1"
"html-keyboard-response","139","413436","0.0-7.0-5.20","63356ce6be65e7962bfc424d","bdp_wmem","Tue Mar 14 2023 20:12:11 GMT-0500 (Central Daylight Time)","682173","Match,No Match","","null","","","","","","<div class='trialBorder'><div class='vertical-center'><img src='img/correct.jpg'></div><div class='respDiv'><div class='respDivL'><font style='color:orange'>Match<br>(e)</font></div><div class='respDivR'>No Match<br>(i)</div></div></div>","null","FEEDBACK","","","","","","","","","","",""
"html-keyboard-response","140","413937","0.0-7.0-1.21","63356ce6be65e7962bfc424d","bdp_wmem","Tue Mar 14 2023 20:12:11 GMT-0500 (Central Daylight Time)","682173","Match,No Match","","null","","","","","","<div class='trialBorder'><div class='vertical-center'><img src='img/fixation2_sml.jpg'</img></div></div>","null","FIX","","","","","","","","","","",""
"html-keyboard-response","141","416938","0.0-7.0-2.21","63356ce6be65e7962bfc424d","bdp_wmem","Tue Mar 14 2023 20:12:11 GMT-0500 (Central Daylight Time)","682173","Match,No Match","","null","","","","","","<div class='trialBorder'><div class='vertical-center'><img style='vertical-align:center; align:center' src='img/fixation2_sml.jpg'></div><div class='arrayDiv2'><div class='tl'><img class='introPic' src='trustrating_stim/white_mw092.bmp'><br><font color='red'><strong>Keep</strong></font></div><div class='tr'><img class='introPic' src='trustrating_stim/white_mw070.bmp'><br><font color='green'><strong>Share</strong></font></div></div></div>","null","ARRAY","2","trustrating_stim/white_mw092.bmp,trustrating_stim/white_mw070.bmp","0,1","Match","e","3000","","","","",""
"html-keyboard-response","142","420940","0.0-7.0-3.21","63356ce6be65e7962bfc424d","bdp_wmem","Tue Mar 14 2023 20:12:11 GMT-0500 (Central Daylight Time)","682173","Match,No Match","","null","","","","","","<div class='trialBorder'><div class='vertical-center'><img src='img/fixation2_sml.jpg'</img></div></div>","null","DELAY","","","","","","","","","","",""
"html-keyboard-response","143","422599","0.0-7.0-4.21","63356ce6be65e7962bfc424d","bdp_wmem","Tue Mar 14 2023 20:12:11 GMT-0500 (Central Daylight Time)","682173","Match,No Match","","1658","","","","","","<div class='trialBorder'><div class='targDiv'><div class='tc'><img class='introPic' src='trustrating_stim/white_mw070.bmp'><br><font color='green'><strong>Share</strong></font></div></div><div class='respDiv'><div class='respDivL'>Match<br>(e)</div><div class='respDivR'>No Match<br>(i)</div></div></div>","e","TARGET","2","trustrating_stim/white_mw092.bmp,trustrating_stim/white_mw070.bmp","0,1","Match","e","3000","trustrating_stim/white_mw070.bmp","green","Share","REAL","1"
"html-keyboard-response","144","423100","0.0-7.0-5.21","63356ce6be65e7962bfc424d","bdp_wmem","Tue Mar 14 2023 20:12:11 GMT-0500 (Central Daylight Time)","682173","Match,No Match","","null","","","","","","<div class='trialBorder'><div class='vertical-center'><img src='img/correct.jpg'></div><div class='respDiv'><div class='respDivL'><font style='color:orange'>Match<br>(e)</font></div><div class='respDivR'>No Match<br>(i)</div></div></div>","null","FEEDBACK","","","","","","","","","","",""
"html-keyboard-response","145","423601","0.0-7.0-1.22","63356ce6be65e7962bfc424d","bdp_wmem","Tue Mar 14 2023 20:12:11 GMT-0500 (Central Daylight Time)","682173","Match,No Match","","null","","","","","","<div class='trialBorder'><div class='vertical-center'><img src='img/fixation2_sml.jpg'</img></div></div>","null","FIX","","","","","","","","","","",""
"html-keyboard-response","146","428103","0.0-7.0-2.22","63356ce6be65e7962bfc424d","bdp_wmem","Tue Mar 14 2023 20:12:11 GMT-0500 (Central Daylight Time)","682173","Match,No Match","","null","","","","","","<div class='trialBorder'><div class='vertical-center'><img style='vertical-align:center; align:center' src='img/fixation2_sml.jpg'></div><div class='arrayDiv3'><div class='tl'><img class='introPic' src='trustrating_stim/white_mw092.bmp'><br><font color='red'><strong>Keep</strong></font></div><div class='tc'><img class='introPic' src='trustrating_stim/white_mw040.bmp'><br><font color='red'><strong>Keep</strong></font></div><div class='tr'><img class='introPic' src='trustrating_stim/white_mw038.bmp'><br><font color='green'><strong>Share</strong></font></div></div></div>","null","ARRAY","3","trustrating_stim/white_mw092.bmp,trustrating_stim/white_mw040.bmp,trustrating_stim/white_mw038.bmp","0,0,1","Match","e","4500","","","","",""
"html-keyboard-response","147","432104","0.0-7.0-3.22","63356ce6be65e7962bfc424d","bdp_wmem","Tue Mar 14 2023 20:12:11 GMT-0500 (Central Daylight Time)","682173","Match,No Match","","null","","","","","","<div class='trialBorder'><div class='vertical-center'><img src='img/fixation2_sml.jpg'</img></div></div>","null","DELAY","","","","","","","","","","",""
"html-keyboard-response","148","434891","0.0-7.0-4.22","63356ce6be65e7962bfc424d","bdp_wmem","Tue Mar 14 2023 20:12:11 GMT-0500 (Central Daylight Time)","682173","Match,No Match","","2786","","","","","","<div class='trialBorder'><div class='targDiv'><div class='tc'><img class='introPic' src='trustrating_stim/white_mw092.bmp'><br><font color='red'><strong>Keep</strong></font></div></div><div class='respDiv'><div class='respDivL'>Match<br>(e)</div><div class='respDivR'>No Match<br>(i)</div></div></div>","e","TARGET","3","trustrating_stim/white_mw092.bmp,trustrating_stim/white_mw040.bmp,trustrating_stim/white_mw038.bmp","0,0,1","Match","e","4500","trustrating_stim/white_mw092.bmp","red","Keep","REAL","1"
"html-keyboard-response","149","435392","0.0-7.0-5.22","63356ce6be65e7962bfc424d","bdp_wmem","Tue Mar 14 2023 20:12:11 GMT-0500 (Central Daylight Time)","682173","Match,No Match","","null","","","","","","<div class='trialBorder'><div class='vertical-center'><img src='img/correct.jpg'></div><div class='respDiv'><div class='respDivL'><font style='color:orange'>Match<br>(e)</font></div><div class='respDivR'>No Match<br>(i)</div></div></div>","null","FEEDBACK","","","","","","","","","","",""
"html-keyboard-response","150","435893","0.0-7.0-1.23","63356ce6be65e7962bfc424d","bdp_wmem","Tue Mar 14 2023 20:12:11 GMT-0500 (Central Daylight Time)","682173","Match,No Match","","null","","","","","","<div class='trialBorder'><div class='vertical-center'><img src='img/fixation2_sml.jpg'</img></div></div>","null","FIX","","","","","","","","","","",""
"html-keyboard-response","151","438896","0.0-7.0-2.23","63356ce6be65e7962bfc424d","bdp_wmem","Tue Mar 14 2023 20:12:11 GMT-0500 (Central Daylight Time)","682173","Match,No Match","","null","","","","","","<div class='trialBorder'><div class='vertical-center'><img style='vertical-align:center; align:center' src='img/fixation2_sml.jpg'></div><div class='arrayDiv2'><div class='tl'><img class='introPic' src='trustrating_stim/white_mw070.bmp'><br><font color='red'><strong>Keep</strong></font></div><div class='tr'><img class='introPic' src='trustrating_stim/white_mw078.bmp'><br><font color='green'><strong>Share</strong></font></div></div></div>","null","ARRAY","2","trustrating_stim/white_mw070.bmp,trustrating_stim/white_mw078.bmp","0,1","Match","e","3000","","","","",""
"html-keyboard-response","152","442897","0.0-7.0-3.23","63356ce6be65e7962bfc424d","bdp_wmem","Tue Mar 14 2023 20:12:11 GMT-0500 (Central Daylight Time)","682173","Match,No Match","","null","","","","","","<div class='trialBorder'><div class='vertical-center'><img src='img/fixation2_sml.jpg'</img></div></div>","null","DELAY","","","","","","","","","","",""
"html-keyboard-response","153","444884","0.0-7.0-4.23","63356ce6be65e7962bfc424d","bdp_wmem","Tue Mar 14 2023 20:12:11 GMT-0500 (Central Daylight Time)","682173","Match,No Match","","1985","","","","","","<div class='trialBorder'><div class='targDiv'><div class='tc'><img class='introPic' src='trustrating_stim/white_mw070.bmp'><br><font color='red'><strong>Keep</strong></font></div></div><div class='respDiv'><div class='respDivL'>Match<br>(e)</div><div class='respDivR'>No Match<br>(i)</div></div></div>","e","TARGET","2","trustrating_stim/white_mw070.bmp,trustrating_stim/white_mw078.bmp","0,1","Match","e","3000","trustrating_stim/white_mw070.bmp","red","Keep","REAL","1"
"html-keyboard-response","154","445386","0.0-7.0-5.23","63356ce6be65e7962bfc424d","bdp_wmem","Tue Mar 14 2023 20:12:11 GMT-0500 (Central Daylight Time)","682173","Match,No Match","","null","","","","","","<div class='trialBorder'><div class='vertical-center'><img src='img/correct.jpg'></div><div class='respDiv'><div class='respDivL'><font style='color:orange'>Match<br>(e)</font></div><div class='respDivR'>No Match<br>(i)</div></div></div>","null","FEEDBACK","","","","","","","","","","",""
"html-keyboard-response","155","445887","0.0-7.0-1.24","63356ce6be65e7962bfc424d","bdp_wmem","Tue Mar 14 2023 20:12:11 GMT-0500 (Central Daylight Time)","682173","Match,No Match","","null","","","","","","<div class='trialBorder'><div class='vertical-center'><img src='img/fixation2_sml.jpg'</img></div></div>","null","FIX","","","","","","","","","","",""
"html-keyboard-response","156","450388","0.0-7.0-2.24","63356ce6be65e7962bfc424d","bdp_wmem","Tue Mar 14 2023 20:12:11 GMT-0500 (Central Daylight Time)","682173","Match,No Match","","null","","","","","","<div class='trialBorder'><div class='vertical-center'><img style='vertical-align:center; align:center' src='img/fixation2_sml.jpg'></div><div class='arrayDiv3'><div class='tl'><img class='introPic' src='trustrating_stim/white_mw085.bmp'><br><font color='green'><strong>Share</strong></font></div><div class='tc'><img class='introPic' src='trustrating_stim/white_mw042.bmp'><br><font color='red'><strong>Keep</strong></font></div><div class='tr'><img class='introPic' src='trustrating_stim/white_mw078.bmp'><br><font color='green'><strong>Share</strong></font></div></div></div>","null","ARRAY","3","trustrating_stim/white_mw085.bmp,trustrating_stim/white_mw042.bmp,trustrating_stim/white_mw078.bmp","1,0,1","Match","e","4500","","","","",""
"html-keyboard-response","157","454390","0.0-7.0-3.24","63356ce6be65e7962bfc424d","bdp_wmem","Tue Mar 14 2023 20:12:11 GMT-0500 (Central Daylight Time)","682173","Match,No Match","","null","","","","","","<div class='trialBorder'><div class='vertical-center'><img src='img/fixation2_sml.jpg'</img></div></div>","null","DELAY","","","","","","","","","","",""
"html-keyboard-response","158","457870","0.0-7.0-4.24","63356ce6be65e7962bfc424d","bdp_wmem","Tue Mar 14 2023 20:12:11 GMT-0500 (Central Daylight Time)","682173","Match,No Match","","3479","","","","","","<div class='trialBorder'><div class='targDiv'><div class='tc'><img class='introPic' src='trustrating_stim/white_mw085.bmp'><br><font color='green'><strong>Share</strong></font></div></div><div class='respDiv'><div class='respDivL'>Match<br>(e)</div><div class='respDivR'>No Match<br>(i)</div></div></div>","e","TARGET","3","trustrating_stim/white_mw085.bmp,trustrating_stim/white_mw042.bmp,trustrating_stim/white_mw078.bmp","1,0,1","Match","e","4500","trustrating_stim/white_mw085.bmp","green","Share","REAL","1"
"html-keyboard-response","159","458372","0.0-7.0-5.24","63356ce6be65e7962bfc424d","bdp_wmem","Tue Mar 14 2023 20:12:11 GMT-0500 (Central Daylight Time)","682173","Match,No Match","","null","","","","","","<div class='trialBorder'><div class='vertical-center'><img src='img/correct.jpg'></div><div class='respDiv'><div class='respDivL'><font style='color:orange'>Match<br>(e)</font></div><div class='respDivR'>No Match<br>(i)</div></div></div>","null","FEEDBACK","","","","","","","","","","",""
"html-keyboard-response","160","458872","0.0-7.0-1.25","63356ce6be65e7962bfc424d","bdp_wmem","Tue Mar 14 2023 20:12:11 GMT-0500 (Central Daylight Time)","682173","Match,No Match","","null","","","","","","<div class='trialBorder'><div class='vertical-center'><img src='img/fixation2_sml.jpg'</img></div></div>","null","FIX","","","","","","","","","","",""
"html-keyboard-response","161","460373","0.0-7.0-2.25","63356ce6be65e7962bfc424d","bdp_wmem","Tue Mar 14 2023 20:12:11 GMT-0500 (Central Daylight Time)","682173","Match,No Match","","null","","","","","","<div class='trialBorder'><div class='vertical-center'><img style='vertical-align:center; align:center' src='img/fixation2_sml.jpg'></div><div class='arrayDiv1'><div class='tc'><img class='introPic' src='trustrating_stim/white_mw040.bmp'><br><font color='green'><strong>Share</strong></font></div></div></div>","null","ARRAY","1","trustrating_stim/white_mw040.bmp","1","noMatchFace","i","1500","","","","",""
"html-keyboard-response","162","464374","0.0-7.0-3.25","63356ce6be65e7962bfc424d","bdp_wmem","Tue Mar 14 2023 20:12:11 GMT-0500 (Central Daylight Time)","682173","Match,No Match","","null","","","","","","<div class='trialBorder'><div class='vertical-center'><img src='img/fixation2_sml.jpg'</img></div></div>","null","DELAY","","","","","","","","","","",""
"html-keyboard-response","163","465598","0.0-7.0-4.25","63356ce6be65e7962bfc424d","bdp_wmem","Tue Mar 14 2023 20:12:11 GMT-0500 (Central Daylight Time)","682173","Match,No Match","","1223","","","","","","<div class='trialBorder'><div class='targDiv'><div class='tc'><img class='introPic' src='trustrating_stim/white_mw070.bmp'><br><font color='green'><strong>Share</strong></font></div></div><div class='respDiv'><div class='respDivL'>Match<br>(e)</div><div class='respDivR'>No Match<br>(i)</div></div></div>","i","TARGET","1","trustrating_stim/white_mw040.bmp","1","noMatchFace","i","1500","trustrating_stim/white_mw070.bmp","green","Share","REAL","1"
"html-keyboard-response","164","466099","0.0-7.0-5.25","63356ce6be65e7962bfc424d","bdp_wmem","Tue Mar 14 2023 20:12:11 GMT-0500 (Central Daylight Time)","682173","Match,No Match","","null","","","","","","<div class='trialBorder'><div class='vertical-center'><img src='img/correct.jpg'></div><div class='respDiv'><div class='respDivL'>Match<br>(e)</div><div class='respDivR'><font style='color:orange'>No Match<br>(i)</font></div></div></div>","null","FEEDBACK","","","","","","","","","","",""
"html-keyboard-response","165","466602","0.0-7.0-1.26","63356ce6be65e7962bfc424d","bdp_wmem","Tue Mar 14 2023 20:12:11 GMT-0500 (Central Daylight Time)","682173","Match,No Match","","null","","","","","","<div class='trialBorder'><div class='vertical-center'><img src='img/fixation2_sml.jpg'</img></div></div>","null","FIX","","","","","","","","","","",""
"html-keyboard-response","166","468103","0.0-7.0-2.26","63356ce6be65e7962bfc424d","bdp_wmem","Tue Mar 14 2023 20:12:11 GMT-0500 (Central Daylight Time)","682173","Match,No Match","","null","","","","","","<div class='trialBorder'><div class='vertical-center'><img style='vertical-align:center; align:center' src='img/fixation2_sml.jpg'></div><div class='arrayDiv1'><div class='tc'><img class='introPic' src='trustrating_stim/white_mw012.bmp'><br><font color='red'><strong>Keep</strong></font></div></div></div>","null","ARRAY","1","trustrating_stim/white_mw012.bmp","0","noMatchOutcome","i","1500","","","","",""
"html-keyboard-response","167","472105","0.0-7.0-3.26","63356ce6be65e7962bfc424d","bdp_wmem","Tue Mar 14 2023 20:12:11 GMT-0500 (Central Daylight Time)","682173","Match,No Match","","null","","","","","","<div class='trialBorder'><div class='vertical-center'><img src='img/fixation2_sml.jpg'</img></div></div>","null","DELAY","","","","","","","","","","",""
"html-keyboard-response","168","473584","0.0-7.0-4.26","63356ce6be65e7962bfc424d","bdp_wmem","Tue Mar 14 2023 20:12:11 GMT-0500 (Central Daylight Time)","682173","Match,No Match","","1477","","","","","","<div class='trialBorder'><div class='targDiv'><div class='tc'><img class='introPic' src='trustrating_stim/white_mw012.bmp'><br><font color='green'><strong>Share</strong></font></div></div><div class='respDiv'><div class='respDivL'>Match<br>(e)</div><div class='respDivR'>No Match<br>(i)</div></div></div>","i","TARGET","1","trustrating_stim/white_mw012.bmp","0","noMatchOutcome","i","1500","trustrating_stim/white_mw012.bmp","green","Share","REAL","1"
"html-keyboard-response","169","474085","0.0-7.0-5.26","63356ce6be65e7962bfc424d","bdp_wmem","Tue Mar 14 2023 20:12:11 GMT-0500 (Central Daylight Time)","682173","Match,No Match","","null","","","","","","<div class='trialBorder'><div class='vertical-center'><img src='img/correct.jpg'></div><div class='respDiv'><div class='respDivL'>Match<br>(e)</div><div class='respDivR'><font style='color:orange'>No Match<br>(i)</font></div></div></div>","null","FEEDBACK","","","","","","","","","","",""
"html-keyboard-response","170","474586","0.0-7.0-1.27","63356ce6be65e7962bfc424d","bdp_wmem","Tue Mar 14 2023 20:12:11 GMT-0500 (Central Daylight Time)","682173","Match,No Match","","null","","","","","","<div class='trialBorder'><div class='vertical-center'><img src='img/fixation2_sml.jpg'</img></div></div>","null","FIX","","","","","","","","","","",""
"html-keyboard-response","171","477588","0.0-7.0-2.27","63356ce6be65e7962bfc424d","bdp_wmem","Tue Mar 14 2023 20:12:11 GMT-0500 (Central Daylight Time)","682173","Match,No Match","","null","","","","","","<div class='trialBorder'><div class='vertical-center'><img style='vertical-align:center; align:center' src='img/fixation2_sml.jpg'></div><div class='arrayDiv2'><div class='tl'><img class='introPic' src='trustrating_stim/white_mw085.bmp'><br><font color='green'><strong>Share</strong></font></div><div class='tr'><img class='introPic' src='trustrating_stim/white_mw070.bmp'><br><font color='red'><strong>Keep</strong></font></div></div></div>","null","ARRAY","2","trustrating_stim/white_mw085.bmp,trustrating_stim/white_mw070.bmp","1,0","noMatchFace","i","3000","","","","",""
"html-keyboard-response","172","481590","0.0-7.0-3.27","63356ce6be65e7962bfc424d","bdp_wmem","Tue Mar 14 2023 20:12:11 GMT-0500 (Central Daylight Time)","682173","Match,No Match","","null","","","","","","<div class='trialBorder'><div class='vertical-center'><img src='img/fixation2_sml.jpg'</img></div></div>","null","DELAY","","","","","","","","","","",""
"html-keyboard-response","173","483265","0.0-7.0-4.27","63356ce6be65e7962bfc424d","bdp_wmem","Tue Mar 14 2023 20:12:11 GMT-0500 (Central Daylight Time)","682173","Match,No Match","","1674","","","","","","<div class='trialBorder'><div class='targDiv'><div class='tc'><img class='introPic' src='trustrating_stim/white_mw003.bmp'><br><font color='green'><strong>Share</strong></font></div></div><div class='respDiv'><div class='respDivL'>Match<br>(e)</div><div class='respDivR'>No Match<br>(i)</div></div></div>","i","TARGET","2","trustrating_stim/white_mw085.bmp,trustrating_stim/white_mw070.bmp","1,0","noMatchFace","i","3000","trustrating_stim/white_mw003.bmp","green","Share","REAL","1"
"html-keyboard-response","174","483766","0.0-7.0-5.27","63356ce6be65e7962bfc424d","bdp_wmem","Tue Mar 14 2023 20:12:11 GMT-0500 (Central Daylight Time)","682173","Match,No Match","","null","","","","","","<div class='trialBorder'><div class='vertical-center'><img src='img/correct.jpg'></div><div class='respDiv'><div class='respDivL'>Match<br>(e)</div><div class='respDivR'><font style='color:orange'>No Match<br>(i)</font></div></div></div>","null","FEEDBACK","","","","","","","","","","",""
"html-keyboard-response","175","484267","0.0-7.0-1.28","63356ce6be65e7962bfc424d","bdp_wmem","Tue Mar 14 2023 20:12:11 GMT-0500 (Central Daylight Time)","682173","Match,No Match","","null","","","","","","<div class='trialBorder'><div class='vertical-center'><img src='img/fixation2_sml.jpg'</img></div></div>","null","FIX","","","","","","","","","","",""
"html-keyboard-response","176","488770","0.0-7.0-2.28","63356ce6be65e7962bfc424d","bdp_wmem","Tue Mar 14 2023 20:12:11 GMT-0500 (Central Daylight Time)","682173","Match,No Match","","null","","","","","","<div class='trialBorder'><div class='vertical-center'><img style='vertical-align:center; align:center' src='img/fixation2_sml.jpg'></div><div class='arrayDiv3'><div class='tl'><img class='introPic' src='trustrating_stim/white_mw013.bmp'><br><font color='green'><strong>Share</strong></font></div><div class='tc'><img class='introPic' src='trustrating_stim/white_mw070.bmp'><br><font color='red'><strong>Keep</strong></font></div><div class='tr'><img class='introPic' src='trustrating_stim/white_mw003.bmp'><br><font color='green'><strong>Share</strong></font></div></div></div>","null","ARRAY","3","trustrating_stim/white_mw013.bmp,trustrating_stim/white_mw070.bmp,trustrating_stim/white_mw003.bmp","1,0,1","Match","e","4500","","","","",""
"html-keyboard-response","177","492771","0.0-7.0-3.28","63356ce6be65e7962bfc424d","bdp_wmem","Tue Mar 14 2023 20:12:11 GMT-0500 (Central Daylight Time)","682173","Match,No Match","","null","","","","","","<div class='trialBorder'><div class='vertical-center'><img src='img/fixation2_sml.jpg'</img></div></div>","null","DELAY","","","","","","","","","","",""
"html-keyboard-response","178","494378","0.0-7.0-4.28","63356ce6be65e7962bfc424d","bdp_wmem","Tue Mar 14 2023 20:12:11 GMT-0500 (Central Daylight Time)","682173","Match,No Match","","1606","","","","","","<div class='trialBorder'><div class='targDiv'><div class='tc'><img class='introPic' src='trustrating_stim/white_mw013.bmp'><br><font color='green'><strong>Share</strong></font></div></div><div class='respDiv'><div class='respDivL'>Match<br>(e)</div><div class='respDivR'>No Match<br>(i)</div></div></div>","e","TARGET","3","trustrating_stim/white_mw013.bmp,trustrating_stim/white_mw070.bmp,trustrating_stim/white_mw003.bmp","1,0,1","Match","e","4500","trustrating_stim/white_mw013.bmp","green","Share","REAL","1"
"html-keyboard-response","179","494880","0.0-7.0-5.28","63356ce6be65e7962bfc424d","bdp_wmem","Tue Mar 14 2023 20:12:11 GMT-0500 (Central Daylight Time)","682173","Match,No Match","","null","","","","","","<div class='trialBorder'><div class='vertical-center'><img src='img/correct.jpg'></div><div class='respDiv'><div class='respDivL'><font style='color:orange'>Match<br>(e)</font></div><div class='respDivR'>No Match<br>(i)</div></div></div>","null","FEEDBACK","","","","","","","","","","",""
"html-keyboard-response","180","495381","0.0-7.0-1.29","63356ce6be65e7962bfc424d","bdp_wmem","Tue Mar 14 2023 20:12:11 GMT-0500 (Central Daylight Time)","682173","Match,No Match","","null","","","","","","<div class='trialBorder'><div class='vertical-center'><img src='img/fixation2_sml.jpg'</img></div></div>","null","FIX","","","","","","","","","","",""
"html-keyboard-response","181","499883","0.0-7.0-2.29","63356ce6be65e7962bfc424d","bdp_wmem","Tue Mar 14 2023 20:12:11 GMT-0500 (Central Daylight Time)","682173","Match,No Match","","null","","","","","","<div class='trialBorder'><div class='vertical-center'><img style='vertical-align:center; align:center' src='img/fixation2_sml.jpg'></div><div class='arrayDiv3'><div class='tl'><img class='introPic' src='trustrating_stim/white_mw070.bmp'><br><font color='green'><strong>Share</strong></font></div><div class='tc'><img class='introPic' src='trustrating_stim/white_mw042.bmp'><br><font color='red'><strong>Keep</strong></font></div><div class='tr'><img class='introPic' src='trustrating_stim/white_mw003.bmp'><br><font color='red'><strong>Keep</strong></font></div></div></div>","null","ARRAY","3","trustrating_stim/white_mw070.bmp,trustrating_stim/white_mw042.bmp,trustrating_stim/white_mw003.bmp","1,0,0","noMatchOutcome","i","4500","","","","",""
"html-keyboard-response","182","503884","0.0-7.0-3.29","63356ce6be65e7962bfc424d","bdp_wmem","Tue Mar 14 2023 20:12:11 GMT-0500 (Central Daylight Time)","682173","Match,No Match","","null","","","","","","<div class='trialBorder'><div class='vertical-center'><img src='img/fixation2_sml.jpg'</img></div></div>","null","DELAY","","","","","","","","","","",""
"html-keyboard-response","183","505881","0.0-7.0-4.29","63356ce6be65e7962bfc424d","bdp_wmem","Tue Mar 14 2023 20:12:11 GMT-0500 (Central Daylight Time)","682173","Match,No Match","","1996","","","","","","<div class='trialBorder'><div class='targDiv'><div class='tc'><img class='introPic' src='trustrating_stim/white_mw070.bmp'><br><font color='red'><strong>Keep</strong></font></div></div><div class='respDiv'><div class='respDivL'>Match<br>(e)</div><div class='respDivR'>No Match<br>(i)</div></div></div>","i","TARGET","3","trustrating_stim/white_mw070.bmp,trustrating_stim/white_mw042.bmp,trustrating_stim/white_mw003.bmp","1,0,0","noMatchOutcome","i","4500","trustrating_stim/white_mw070.bmp","red","Keep","REAL","1"
"html-keyboard-response","184","506383","0.0-7.0-5.29","63356ce6be65e7962bfc424d","bdp_wmem","Tue Mar 14 2023 20:12:11 GMT-0500 (Central Daylight Time)","682173","Match,No Match","","null","","","","","","<div class='trialBorder'><div class='vertical-center'><img src='img/correct.jpg'></div><div class='respDiv'><div class='respDivL'>Match<br>(e)</div><div class='respDivR'><font style='color:orange'>No Match<br>(i)</font></div></div></div>","null","FEEDBACK","","","","","","","","","","",""
"html-keyboard-response","185","506886","0.0-7.0-1.30","63356ce6be65e7962bfc424d","bdp_wmem","Tue Mar 14 2023 20:12:11 GMT-0500 (Central Daylight Time)","682173","Match,No Match","","null","","","","","","<div class='trialBorder'><div class='vertical-center'><img src='img/fixation2_sml.jpg'</img></div></div>","null","FIX","","","","","","","","","","",""
"html-keyboard-response","186","508388","0.0-7.0-2.30","63356ce6be65e7962bfc424d","bdp_wmem","Tue Mar 14 2023 20:12:11 GMT-0500 (Central Daylight Time)","682173","Match,No Match","","null","","","","","","<div class='trialBorder'><div class='vertical-center'><img style='vertical-align:center; align:center' src='img/fixation2_sml.jpg'></div><div class='arrayDiv1'><div class='tc'><img class='introPic' src='trustrating_stim/white_mw078.bmp'><br><font color='green'><strong>Share</strong></font></div></div></div>","null","ARRAY","1","trustrating_stim/white_mw078.bmp","1","Match","e","1500","","","","",""
"html-keyboard-response","187","512389","0.0-7.0-3.30","63356ce6be65e7962bfc424d","bdp_wmem","Tue Mar 14 2023 20:12:11 GMT-0500 (Central Daylight Time)","682173","Match,No Match","","null","","","","","","<div class='trialBorder'><div class='vertical-center'><img src='img/fixation2_sml.jpg'</img></div></div>","null","DELAY","","","","","","","","","","",""
