"trial_type","trial_index","time_elapsed","internal_node_id","subject_id","task","startTime","totalTime","labels","view_history","rt","event","trial","time","trialtype","success","stimulus","key_press","stimType","arraySize","arrayFaces","arrayOutcomes","matchType","corrResp","arrayDur","targFace","targCol","targOutcome","trialType","corr"
"pavlovia","0","5","0.0-0.0","5ee8f9a309471c0d46a6d247","bdp_wmem","Tue Mar 14 2023 11:00:44 GMT-0700 (Pacific Daylight Time)","657155","Match,No Match","","","","","","","","","","","","","","","","","","","","",""
"instructions","1","37277","0.0-1.0","5ee8f9a309471c0d46a6d247","bdp_wmem","Tue Mar 14 2023 11:00:44 GMT-0700 (Pacific Daylight Time)","657155","Match,No Match","[{""page_index"":0,""viewing_time"":37270}]","37271","","","","","","","","","","","","","","","","","","",""
"","","","","5ee8f9a309471c0d46a6d247","bdp_wmem","Tue Mar 14 2023 11:00:44 GMT-0700 (Pacific Daylight Time)","657155","Match,No Match","","","fullscreenenter","2","40013","fullscreenenter","","","","","","","","","","","","","","",""
"fullscreen","2","40984","0.0-2.0","5ee8f9a309471c0d46a6d247","bdp_wmem","Tue Mar 14 2023 11:00:44 GMT-0700 (Pacific Daylight Time)","657155","Match,No Match","","","","","","","true","","","","","","","","","","","","","",""
"instructions","3","125300","0.0-4.0","5ee8f9a309471c0d46a6d247","bdp_wmem","Tue Mar 14 2023 11:00:44 GMT-0700 (Pacific Daylight Time)","657155","Match,No Match","[{""page_index"":0,""viewing_time"":26555},{""page_index"":1,""viewing_time"":22632},{""page_index"":2,""viewing_time"":15344},{""page_index"":3,""viewing_time"":10435},{""page_index"":4,""viewing_time"":9348}]","84314","","","","","","","","","","","","","","","","","","",""
"html-keyboard-response","4","125805","0.0-5.0-1.0","5ee8f9a309471c0d46a6d247","bdp_wmem","Tue Mar 14 2023 11:00:44 GMT-0700 (Pacific Daylight Time)","657155","Match,No Match","","null","","","","","","<div class='trialBorder'><div class='vertical-center'><img src='img/fixation2_sml.jpg'</img></div></div>","null","FIX","","","","","","","","","","",""
"html-keyboard-response","5","127307","0.0-5.0-2.0","5ee8f9a309471c0d46a6d247","bdp_wmem","Tue Mar 14 2023 11:00:44 GMT-0700 (Pacific Daylight Time)","657155","Match,No Match","","null","","","","","","<div class='trialBorder'><div class='vertical-center'><img style='vertical-align:center; align:center' src='img/fixation2_sml.jpg'></div><div class='arrayDiv1'><div class='tc'><img class='introPic' src='trustrating_stim/white_mw012.bmp'><br><font color='green'><strong>Share</strong></font></div></div></div>","null","ARRAY","1","trustrating_stim/white_mw012.bmp","1","noMatchFace","i","1500","","","","",""
"html-keyboard-response","6","131309","0.0-5.0-3.0","5ee8f9a309471c0d46a6d247","bdp_wmem","Tue Mar 14 2023 11:00:44 GMT-0700 (Pacific Daylight Time)","657155","Match,No Match","","null","","","","","","<div class='trialBorder'><div class='vertical-center'><img src='img/fixation2_sml.jpg'</img></div></div>","null","DELAY","","","","","","","","","","",""
"html-keyboard-response","7","133819","0.0-5.0-4.0","5ee8f9a309471c0d46a6d247","bdp_wmem","Tue Mar 14 2023 11:00:44 GMT-0700 (Pacific Daylight Time)","657155","Match,No Match","","2509","","","","","","<div class='trialBorder'><div class='targDiv'><div class='tc'><img class='introPic' src='trustrating_stim/white_mw013.bmp'><br><font color='green'><strong>Share</strong></font></div></div><div class='respDiv'><div class='respDivL'>Match<br>(e)</div><div class='respDivR'>No Match<br>(i)</div></div></div>","i","TARGET","1","trustrating_stim/white_mw012.bmp","1","noMatchFace","i","1500","trustrating_stim/white_mw013.bmp","green","Share","PRACTICE","1"
"html-keyboard-response","8","134322","0.0-5.0-5.0","5ee8f9a309471c0d46a6d247","bdp_wmem","Tue Mar 14 2023 11:00:44 GMT-0700 (Pacific Daylight Time)","657155","Match,No Match","","null","","","","","","<div class='trialBorder'><div class='vertical-center'><img src='img/correct.jpg'></div><div class='respDiv'><div class='respDivL'>Match<br>(e)</div><div class='respDivR'><font style='color:orange'>No Match<br>(i)</font></div></div></div>","null","FEEDBACK","","","","","","","","","","",""
"html-keyboard-response","9","134824","0.0-5.0-1.1","5ee8f9a309471c0d46a6d247","bdp_wmem","Tue Mar 14 2023 11:00:44 GMT-0700 (Pacific Daylight Time)","657155","Match,No Match","","null","","","","","","<div class='trialBorder'><div class='vertical-center'><img src='img/fixation2_sml.jpg'</img></div></div>","null","FIX","","","","","","","","","","",""
"html-keyboard-response","10","139326","0.0-5.0-2.1","5ee8f9a309471c0d46a6d247","bdp_wmem","Tue Mar 14 2023 11:00:44 GMT-0700 (Pacific Daylight Time)","657155","Match,No Match","","null","","","","","","<div class='trialBorder'><div class='vertical-center'><img style='vertical-align:center; align:center' src='img/fixation2_sml.jpg'></div><div class='arrayDiv3'><div class='tl'><img class='introPic' src='trustrating_stim/white_mw012.bmp'><br><font color='green'><strong>Share</strong></font></div><div class='tc'><img class='introPic' src='trustrating_stim/white_mw091.bmp'><br><font color='red'><strong>Keep</strong></font></div><div class='tr'><img class='introPic' src='trustrating_stim/white_mw042.bmp'><br><font color='red'><strong>Keep</strong></font></div></div></div>","null","ARRAY","3","trustrating_stim/white_mw012.bmp,trustrating_stim/white_mw091.bmp,trustrating_stim/white_mw042.bmp","1,0,0","Match","e","4500","","","","",""
"html-keyboard-response","11","143328","0.0-5.0-3.1","5ee8f9a309471c0d46a6d247","bdp_wmem","Tue Mar 14 2023 11:00:44 GMT-0700 (Pacific Daylight Time)","657155","Match,No Match","","null","","","","","","<div class='trialBorder'><div class='vertical-center'><img src='img/fixation2_sml.jpg'</img></div></div>","null","DELAY","","","","","","","","","","",""
"html-keyboard-response","12","145915","0.0-5.0-4.1","5ee8f9a309471c0d46a6d247","bdp_wmem","Tue Mar 14 2023 11:00:44 GMT-0700 (Pacific Daylight Time)","657155","Match,No Match","","2586","","","","","","<div class='trialBorder'><div class='targDiv'><div class='tc'><img class='introPic' src='trustrating_stim/white_mw012.bmp'><br><font color='green'><strong>Share</strong></font></div></div><div class='respDiv'><div class='respDivL'>Match<br>(e)</div><div class='respDivR'>No Match<br>(i)</div></div></div>","e","TARGET","3","trustrating_stim/white_mw012.bmp,trustrating_stim/white_mw091.bmp,trustrating_stim/white_mw042.bmp","1,0,0","Match","e","4500","trustrating_stim/white_mw012.bmp","green","Share","PRACTICE","1"
"html-keyboard-response","13","146417","0.0-5.0-5.1","5ee8f9a309471c0d46a6d247","bdp_wmem","Tue Mar 14 2023 11:00:44 GMT-0700 (Pacific Daylight Time)","657155","Match,No Match","","null","","","","","","<div class='trialBorder'><div class='vertical-center'><img src='img/correct.jpg'></div><div class='respDiv'><div class='respDivL'><font style='color:orange'>Match<br>(e)</font></div><div class='respDivR'>No Match<br>(i)</div></div></div>","null","FEEDBACK","","","","","","","","","","",""
"html-keyboard-response","14","146919","0.0-5.0-1.2","5ee8f9a309471c0d46a6d247","bdp_wmem","Tue Mar 14 2023 11:00:44 GMT-0700 (Pacific Daylight Time)","657155","Match,No Match","","null","","","","","","<div class='trialBorder'><div class='vertical-center'><img src='img/fixation2_sml.jpg'</img></div></div>","null","FIX","","","","","","","","","","",""
"html-keyboard-response","15","149921","0.0-5.0-2.2","5ee8f9a309471c0d46a6d247","bdp_wmem","Tue Mar 14 2023 11:00:44 GMT-0700 (Pacific Daylight Time)","657155","Match,No Match","","null","","","","","","<div class='trialBorder'><div class='vertical-center'><img style='vertical-align:center; align:center' src='img/fixation2_sml.jpg'></div><div class='arrayDiv2'><div class='tl'><img class='introPic' src='trustrating_stim/white_mw010.bmp'><br><font color='red'><strong>Keep</strong></font></div><div class='tr'><img class='introPic' src='trustrating_stim/white_mw092.bmp'><br><font color='green'><strong>Share</strong></font></div></div></div>","null","ARRAY","2","trustrating_stim/white_mw010.bmp,trustrating_stim/white_mw092.bmp","0,1","noMatchFace","i","3000","","","","",""
"html-keyboard-response","16","153922","0.0-5.0-3.2","5ee8f9a309471c0d46a6d247","bdp_wmem","Tue Mar 14 2023 11:00:44 GMT-0700 (Pacific Daylight Time)","657155","Match,No Match","","null","","","","","","<div class='trialBorder'><div class='vertical-center'><img src='img/fixation2_sml.jpg'</img></div></div>","null","DELAY","","","","","","","","","","",""
"html-keyboard-response","17","155634","0.0-5.0-4.2","5ee8f9a309471c0d46a6d247","bdp_wmem","Tue Mar 14 2023 11:00:44 GMT-0700 (Pacific Daylight Time)","657155","Match,No Match","","1709","","","","","","<div class='trialBorder'><div class='targDiv'><div class='tc'><img class='introPic' src='trustrating_stim/white_mw038.bmp'><br><font color='red'><strong>Keep</strong></font></div></div><div class='respDiv'><div class='respDivL'>Match<br>(e)</div><div class='respDivR'>No Match<br>(i)</div></div></div>","i","TARGET","2","trustrating_stim/white_mw010.bmp,trustrating_stim/white_mw092.bmp","0,1","noMatchFace","i","3000","trustrating_stim/white_mw038.bmp","red","Keep","PRACTICE","1"
"html-keyboard-response","18","156136","0.0-5.0-5.2","5ee8f9a309471c0d46a6d247","bdp_wmem","Tue Mar 14 2023 11:00:44 GMT-0700 (Pacific Daylight Time)","657155","Match,No Match","","null","","","","","","<div class='trialBorder'><div class='vertical-center'><img src='img/correct.jpg'></div><div class='respDiv'><div class='respDivL'>Match<br>(e)</div><div class='respDivR'><font style='color:orange'>No Match<br>(i)</font></div></div></div>","null","FEEDBACK","","","","","","","","","","",""
"html-keyboard-response","19","156637","0.0-5.0-1.3","5ee8f9a309471c0d46a6d247","bdp_wmem","Tue Mar 14 2023 11:00:44 GMT-0700 (Pacific Daylight Time)","657155","Match,No Match","","null","","","","","","<div class='trialBorder'><div class='vertical-center'><img src='img/fixation2_sml.jpg'</img></div></div>","null","FIX","","","","","","","","","","",""
"html-keyboard-response","20","159639","0.0-5.0-2.3","5ee8f9a309471c0d46a6d247","bdp_wmem","Tue Mar 14 2023 11:00:44 GMT-0700 (Pacific Daylight Time)","657155","Match,No Match","","null","","","","","","<div class='trialBorder'><div class='vertical-center'><img style='vertical-align:center; align:center' src='img/fixation2_sml.jpg'></div><div class='arrayDiv2'><div class='tl'><img class='introPic' src='trustrating_stim/white_mw012.bmp'><br><font color='red'><strong>Keep</strong></font></div><div class='tr'><img class='introPic' src='trustrating_stim/white_mw092.bmp'><br><font color='green'><strong>Share</strong></font></div></div></div>","null","ARRAY","2","trustrating_stim/white_mw012.bmp,trustrating_stim/white_mw092.bmp","0,1","Match","e","3000","","","","",""
"html-keyboard-response","21","163642","0.0-5.0-3.3","5ee8f9a309471c0d46a6d247","bdp_wmem","Tue Mar 14 2023 11:00:44 GMT-0700 (Pacific Daylight Time)","657155","Match,No Match","","null","","","","","","<div class='trialBorder'><div class='vertical-center'><img src='img/fixation2_sml.jpg'</img></div></div>","null","DELAY","","","","","","","","","","",""
"html-keyboard-response","22","166657","0.0-5.0-4.3","5ee8f9a309471c0d46a6d247","bdp_wmem","Tue Mar 14 2023 11:00:44 GMT-0700 (Pacific Daylight Time)","657155","Match,No Match","","3014","","","","","","<div class='trialBorder'><div class='targDiv'><div class='tc'><img class='introPic' src='trustrating_stim/white_mw092.bmp'><br><font color='green'><strong>Share</strong></font></div></div><div class='respDiv'><div class='respDivL'>Match<br>(e)</div><div class='respDivR'>No Match<br>(i)</div></div></div>","e","TARGET","2","trustrating_stim/white_mw012.bmp,trustrating_stim/white_mw092.bmp","0,1","Match","e","3000","trustrating_stim/white_mw092.bmp","green","Share","PRACTICE","1"
"html-keyboard-response","23","167158","0.0-5.0-5.3","5ee8f9a309471c0d46a6d247","bdp_wmem","Tue Mar 14 2023 11:00:44 GMT-0700 (Pacific Daylight Time)","657155","Match,No Match","","null","","","","","","<div class='trialBorder'><div class='vertical-center'><img src='img/correct.jpg'></div><div class='respDiv'><div class='respDivL'><font style='color:orange'>Match<br>(e)</font></div><div class='respDivR'>No Match<br>(i)</div></div></div>","null","FEEDBACK","","","","","","","","","","",""
"html-keyboard-response","24","167661","0.0-5.0-1.4","5ee8f9a309471c0d46a6d247","bdp_wmem","Tue Mar 14 2023 11:00:44 GMT-0700 (Pacific Daylight Time)","657155","Match,No Match","","null","","","","","","<div class='trialBorder'><div class='vertical-center'><img src='img/fixation2_sml.jpg'</img></div></div>","null","FIX","","","","","","","","","","",""
"html-keyboard-response","25","169163","0.0-5.0-2.4","5ee8f9a309471c0d46a6d247","bdp_wmem","Tue Mar 14 2023 11:00:44 GMT-0700 (Pacific Daylight Time)","657155","Match,No Match","","null","","","","","","<div class='trialBorder'><div class='vertical-center'><img style='vertical-align:center; align:center' src='img/fixation2_sml.jpg'></div><div class='arrayDiv1'><div class='tc'><img class='introPic' src='trustrating_stim/white_mw010.bmp'><br><font color='green'><strong>Share</strong></font></div></div></div>","null","ARRAY","1","trustrating_stim/white_mw010.bmp","1","Match","e","1500","","","","",""
"html-keyboard-response","26","173165","0.0-5.0-3.4","5ee8f9a309471c0d46a6d247","bdp_wmem","Tue Mar 14 2023 11:00:44 GMT-0700 (Pacific Daylight Time)","657155","Match,No Match","","null","","","","","","<div class='trialBorder'><div class='vertical-center'><img src='img/fixation2_sml.jpg'</img></div></div>","null","DELAY","","","","","","","","","","",""
"html-keyboard-response","27","174572","0.0-5.0-4.4","5ee8f9a309471c0d46a6d247","bdp_wmem","Tue Mar 14 2023 11:00:44 GMT-0700 (Pacific Daylight Time)","657155","Match,No Match","","1405","","","","","","<div class='trialBorder'><div class='targDiv'><div class='tc'><img class='introPic' src='trustrating_stim/white_mw010.bmp'><br><font color='green'><strong>Share</strong></font></div></div><div class='respDiv'><div class='respDivL'>Match<br>(e)</div><div class='respDivR'>No Match<br>(i)</div></div></div>","e","TARGET","1","trustrating_stim/white_mw010.bmp","1","Match","e","1500","trustrating_stim/white_mw010.bmp","green","Share","PRACTICE","1"
"html-keyboard-response","28","175073","0.0-5.0-5.4","5ee8f9a309471c0d46a6d247","bdp_wmem","Tue Mar 14 2023 11:00:44 GMT-0700 (Pacific Daylight Time)","657155","Match,No Match","","null","","","","","","<div class='trialBorder'><div class='vertical-center'><img src='img/correct.jpg'></div><div class='respDiv'><div class='respDivL'><font style='color:orange'>Match<br>(e)</font></div><div class='respDivR'>No Match<br>(i)</div></div></div>","null","FEEDBACK","","","","","","","","","","",""
"html-keyboard-response","29","175575","0.0-5.0-1.5","5ee8f9a309471c0d46a6d247","bdp_wmem","Tue Mar 14 2023 11:00:44 GMT-0700 (Pacific Daylight Time)","657155","Match,No Match","","null","","","","","","<div class='trialBorder'><div class='vertical-center'><img src='img/fixation2_sml.jpg'</img></div></div>","null","FIX","","","","","","","","","","",""
"html-keyboard-response","30","180077","0.0-5.0-2.5","5ee8f9a309471c0d46a6d247","bdp_wmem","Tue Mar 14 2023 11:00:44 GMT-0700 (Pacific Daylight Time)","657155","Match,No Match","","null","","","","","","<div class='trialBorder'><div class='vertical-center'><img style='vertical-align:center; align:center' src='img/fixation2_sml.jpg'></div><div class='arrayDiv3'><div class='tl'><img class='introPic' src='trustrating_stim/white_mw078.bmp'><br><font color='green'><strong>Share</strong></font></div><div class='tc'><img class='introPic' src='trustrating_stim/white_mw085.bmp'><br><font color='green'><strong>Share</strong></font></div><div class='tr'><img class='introPic' src='trustrating_stim/white_mw091.bmp'><br><font color='red'><strong>Keep</strong></font></div></div></div>","null","ARRAY","3","trustrating_stim/white_mw078.bmp,trustrating_stim/white_mw085.bmp,trustrating_stim/white_mw091.bmp","1,1,0","noMatchOutcome","i","4500","","","","",""
"html-keyboard-response","31","184079","0.0-5.0-3.5","5ee8f9a309471c0d46a6d247","bdp_wmem","Tue Mar 14 2023 11:00:44 GMT-0700 (Pacific Daylight Time)","657155","Match,No Match","","null","","","","","","<div class='trialBorder'><div class='vertical-center'><img src='img/fixation2_sml.jpg'</img></div></div>","null","DELAY","","","","","","","","","","",""
"html-keyboard-response","32","187128","0.0-5.0-4.5","5ee8f9a309471c0d46a6d247","bdp_wmem","Tue Mar 14 2023 11:00:44 GMT-0700 (Pacific Daylight Time)","657155","Match,No Match","","3047","","","","","","<div class='trialBorder'><div class='targDiv'><div class='tc'><img class='introPic' src='trustrating_stim/white_mw091.bmp'><br><font color='green'><strong>Share</strong></font></div></div><div class='respDiv'><div class='respDivL'>Match<br>(e)</div><div class='respDivR'>No Match<br>(i)</div></div></div>","e","TARGET","3","trustrating_stim/white_mw078.bmp,trustrating_stim/white_mw085.bmp,trustrating_stim/white_mw091.bmp","1,1,0","noMatchOutcome","i","4500","trustrating_stim/white_mw091.bmp","green","Share","PRACTICE","0"
"html-keyboard-response","33","187629","0.0-5.0-5.5","5ee8f9a309471c0d46a6d247","bdp_wmem","Tue Mar 14 2023 11:00:44 GMT-0700 (Pacific Daylight Time)","657155","Match,No Match","","null","","","","","","<div class='trialBorder'><div class='vertical-center'><img src='img/error.jpg'></div><div class='respDiv'><div class='respDivL'><font style='color:orange'>Match<br>(e)</font></div><div class='respDivR'>No Match<br>(i)</div></div></div>","null","FEEDBACK","","","","","","","","","","",""
"instructions","34","189762","0.0-6.0","5ee8f9a309471c0d46a6d247","bdp_wmem","Tue Mar 14 2023 11:00:44 GMT-0700 (Pacific Daylight Time)","657155","Match,No Match","[{""page_index"":0,""viewing_time"":2132}]","2132","","","","","","","","","","","","","","","","","","",""
"html-keyboard-response","35","190264","0.0-7.0-1.0","5ee8f9a309471c0d46a6d247","bdp_wmem","Tue Mar 14 2023 11:00:44 GMT-0700 (Pacific Daylight Time)","657155","Match,No Match","","null","","","","","","<div class='trialBorder'><div class='vertical-center'><img src='img/fixation2_sml.jpg'</img></div></div>","null","FIX","","","","","","","","","","",""
"html-keyboard-response","36","193267","0.0-7.0-2.0","5ee8f9a309471c0d46a6d247","bdp_wmem","Tue Mar 14 2023 11:00:44 GMT-0700 (Pacific Daylight Time)","657155","Match,No Match","","null","","","","","","<div class='trialBorder'><div class='vertical-center'><img style='vertical-align:center; align:center' src='img/fixation2_sml.jpg'></div><div class='arrayDiv2'><div class='tl'><img class='introPic' src='trustrating_stim/white_mw012.bmp'><br><font color='red'><strong>Keep</strong></font></div><div class='tr'><img class='introPic' src='trustrating_stim/white_mw003.bmp'><br><font color='green'><strong>Share</strong></font></div></div></div>","null","ARRAY","2","trustrating_stim/white_mw012.bmp,trustrating_stim/white_mw003.bmp","0,1","noMatchOutcome","i","3000","","","","",""
"html-keyboard-response","37","197269","0.0-7.0-3.0","5ee8f9a309471c0d46a6d247","bdp_wmem","Tue Mar 14 2023 11:00:44 GMT-0700 (Pacific Daylight Time)","657155","Match,No Match","","null","","","","","","<div class='trialBorder'><div class='vertical-center'><img src='img/fixation2_sml.jpg'</img></div></div>","null","DELAY","","","","","","","","","","",""
"html-keyboard-response","38","198585","0.0-7.0-4.0","5ee8f9a309471c0d46a6d247","bdp_wmem","Tue Mar 14 2023 11:00:44 GMT-0700 (Pacific Daylight Time)","657155","Match,No Match","","1315","","","","","","<div class='trialBorder'><div class='targDiv'><div class='tc'><img class='introPic' src='trustrating_stim/white_mw003.bmp'><br><font color='red'><strong>Keep</strong></font></div></div><div class='respDiv'><div class='respDivL'>Match<br>(e)</div><div class='respDivR'>No Match<br>(i)</div></div></div>","i","TARGET","2","trustrating_stim/white_mw012.bmp,trustrating_stim/white_mw003.bmp","0,1","noMatchOutcome","i","3000","trustrating_stim/white_mw003.bmp","red","Keep","REAL","1"
"html-keyboard-response","39","199087","0.0-7.0-5.0","5ee8f9a309471c0d46a6d247","bdp_wmem","Tue Mar 14 2023 11:00:44 GMT-0700 (Pacific Daylight Time)","657155","Match,No Match","","null","","","","","","<div class='trialBorder'><div class='vertical-center'><img src='img/correct.jpg'></div><div class='respDiv'><div class='respDivL'>Match<br>(e)</div><div class='respDivR'><font style='color:orange'>No Match<br>(i)</font></div></div></div>","null","FEEDBACK","","","","","","","","","","",""
"html-keyboard-response","40","199588","0.0-7.0-1.1","5ee8f9a309471c0d46a6d247","bdp_wmem","Tue Mar 14 2023 11:00:44 GMT-0700 (Pacific Daylight Time)","657155","Match,No Match","","null","","","","","","<div class='trialBorder'><div class='vertical-center'><img src='img/fixation2_sml.jpg'</img></div></div>","null","FIX","","","","","","","","","","",""
"html-keyboard-response","41","204092","0.0-7.0-2.1","5ee8f9a309471c0d46a6d247","bdp_wmem","Tue Mar 14 2023 11:00:44 GMT-0700 (Pacific Daylight Time)","657155","Match,No Match","","null","","","","","","<div class='trialBorder'><div class='vertical-center'><img style='vertical-align:center; align:center' src='img/fixation2_sml.jpg'></div><div class='arrayDiv3'><div class='tl'><img class='introPic' src='trustrating_stim/white_mw091.bmp'><br><font color='green'><strong>Share</strong></font></div><div class='tc'><img class='introPic' src='trustrating_stim/white_mw012.bmp'><br><font color='red'><strong>Keep</strong></font></div><div class='tr'><img class='introPic' src='trustrating_stim/white_mw038.bmp'><br><font color='red'><strong>Keep</strong></font></div></div></div>","null","ARRAY","3","trustrating_stim/white_mw091.bmp,trustrating_stim/white_mw012.bmp,trustrating_stim/white_mw038.bmp","1,0,0","Match","e","4500","","","","",""
"html-keyboard-response","42","208093","0.0-7.0-3.1","5ee8f9a309471c0d46a6d247","bdp_wmem","Tue Mar 14 2023 11:00:44 GMT-0700 (Pacific Daylight Time)","657155","Match,No Match","","null","","","","","","<div class='trialBorder'><div class='vertical-center'><img src='img/fixation2_sml.jpg'</img></div></div>","null","DELAY","","","","","","","","","","",""
"html-keyboard-response","43","211012","0.0-7.0-4.1","5ee8f9a309471c0d46a6d247","bdp_wmem","Tue Mar 14 2023 11:00:44 GMT-0700 (Pacific Daylight Time)","657155","Match,No Match","","2917","","","","","","<div class='trialBorder'><div class='targDiv'><div class='tc'><img class='introPic' src='trustrating_stim/white_mw012.bmp'><br><font color='red'><strong>Keep</strong></font></div></div><div class='respDiv'><div class='respDivL'>Match<br>(e)</div><div class='respDivR'>No Match<br>(i)</div></div></div>","e","TARGET","3","trustrating_stim/white_mw091.bmp,trustrating_stim/white_mw012.bmp,trustrating_stim/white_mw038.bmp","1,0,0","Match","e","4500","trustrating_stim/white_mw012.bmp","red","Keep","REAL","1"
"html-keyboard-response","44","211513","0.0-7.0-5.1","5ee8f9a309471c0d46a6d247","bdp_wmem","Tue Mar 14 2023 11:00:44 GMT-0700 (Pacific Daylight Time)","657155","Match,No Match","","null","","","","","","<div class='trialBorder'><div class='vertical-center'><img src='img/correct.jpg'></div><div class='respDiv'><div class='respDivL'><font style='color:orange'>Match<br>(e)</font></div><div class='respDivR'>No Match<br>(i)</div></div></div>","null","FEEDBACK","","","","","","","","","","",""
"html-keyboard-response","45","212015","0.0-7.0-1.2","5ee8f9a309471c0d46a6d247","bdp_wmem","Tue Mar 14 2023 11:00:44 GMT-0700 (Pacific Daylight Time)","657155","Match,No Match","","null","","","","","","<div class='trialBorder'><div class='vertical-center'><img src='img/fixation2_sml.jpg'</img></div></div>","null","FIX","","","","","","","","","","",""
"html-keyboard-response","46","213517","0.0-7.0-2.2","5ee8f9a309471c0d46a6d247","bdp_wmem","Tue Mar 14 2023 11:00:44 GMT-0700 (Pacific Daylight Time)","657155","Match,No Match","","null","","","","","","<div class='trialBorder'><div class='vertical-center'><img style='vertical-align:center; align:center' src='img/fixation2_sml.jpg'></div><div class='arrayDiv1'><div class='tc'><img class='introPic' src='trustrating_stim/white_mw013.bmp'><br><font color='green'><strong>Share</strong></font></div></div></div>","null","ARRAY","1","trustrating_stim/white_mw013.bmp","1","Match","e","1500","","","","",""
"html-keyboard-response","47","217520","0.0-7.0-3.2","5ee8f9a309471c0d46a6d247","bdp_wmem","Tue Mar 14 2023 11:00:44 GMT-0700 (Pacific Daylight Time)","657155","Match,No Match","","null","","","","","","<div class='trialBorder'><div class='vertical-center'><img src='img/fixation2_sml.jpg'</img></div></div>","null","DELAY","","","","","","","","","","",""
"html-keyboard-response","48","218810","0.0-7.0-4.2","5ee8f9a309471c0d46a6d247","bdp_wmem","Tue Mar 14 2023 11:00:44 GMT-0700 (Pacific Daylight Time)","657155","Match,No Match","","1289","","","","","","<div class='trialBorder'><div class='targDiv'><div class='tc'><img class='introPic' src='trustrating_stim/white_mw013.bmp'><br><font color='green'><strong>Share</strong></font></div></div><div class='respDiv'><div class='respDivL'>Match<br>(e)</div><div class='respDivR'>No Match<br>(i)</div></div></div>","e","TARGET","1","trustrating_stim/white_mw013.bmp","1","Match","e","1500","trustrating_stim/white_mw013.bmp","green","Share","REAL","1"
"html-keyboard-response","49","219313","0.0-7.0-5.2","5ee8f9a309471c0d46a6d247","bdp_wmem","Tue Mar 14 2023 11:00:44 GMT-0700 (Pacific Daylight Time)","657155","Match,No Match","","null","","","","","","<div class='trialBorder'><div class='vertical-center'><img src='img/correct.jpg'></div><div class='respDiv'><div class='respDivL'><font style='color:orange'>Match<br>(e)</font></div><div class='respDivR'>No Match<br>(i)</div></div></div>","null","FEEDBACK","","","","","","","","","","",""
"html-keyboard-response","50","219814","0.0-7.0-1.3","5ee8f9a309471c0d46a6d247","bdp_wmem","Tue Mar 14 2023 11:00:44 GMT-0700 (Pacific Daylight Time)","657155","Match,No Match","","null","","","","","","<div class='trialBorder'><div class='vertical-center'><img src='img/fixation2_sml.jpg'</img></div></div>","null","FIX","","","","","","","","","","",""
"html-keyboard-response","51","222816","0.0-7.0-2.3","5ee8f9a309471c0d46a6d247","bdp_wmem","Tue Mar 14 2023 11:00:44 GMT-0700 (Pacific Daylight Time)","657155","Match,No Match","","null","","","","","","<div class='trialBorder'><div class='vertical-center'><img style='vertical-align:center; align:center' src='img/fixation2_sml.jpg'></div><div class='arrayDiv2'><div class='tl'><img class='introPic' src='trustrating_stim/white_mw092.bmp'><br><font color='red'><strong>Keep</strong></font></div><div class='tr'><img class='introPic' src='trustrating_stim/white_mw010.bmp'><br><font color='green'><strong>Share</strong></font></div></div></div>","null","ARRAY","2","trustrating_stim/white_mw092.bmp,trustrating_stim/white_mw010.bmp","0,1","Match","e","3000","","","","",""
"html-keyboard-response","52","226818","0.0-7.0-3.3","5ee8f9a309471c0d46a6d247","bdp_wmem","Tue Mar 14 2023 11:00:44 GMT-0700 (Pacific Daylight Time)","657155","Match,No Match","","null","","","","","","<div class='trialBorder'><div class='vertical-center'><img src='img/fixation2_sml.jpg'</img></div></div>","null","DELAY","","","","","","","","","","",""
"html-keyboard-response","53","228303","0.0-7.0-4.3","5ee8f9a309471c0d46a6d247","bdp_wmem","Tue Mar 14 2023 11:00:44 GMT-0700 (Pacific Daylight Time)","657155","Match,No Match","","1483","","","","","","<div class='trialBorder'><div class='targDiv'><div class='tc'><img class='introPic' src='trustrating_stim/white_mw092.bmp'><br><font color='red'><strong>Keep</strong></font></div></div><div class='respDiv'><div class='respDivL'>Match<br>(e)</div><div class='respDivR'>No Match<br>(i)</div></div></div>","i","TARGET","2","trustrating_stim/white_mw092.bmp,trustrating_stim/white_mw010.bmp","0,1","Match","e","3000","trustrating_stim/white_mw092.bmp","red","Keep","REAL","0"
"html-keyboard-response","54","228804","0.0-7.0-5.3","5ee8f9a309471c0d46a6d247","bdp_wmem","Tue Mar 14 2023 11:00:44 GMT-0700 (Pacific Daylight Time)","657155","Match,No Match","","null","","","","","","<div class='trialBorder'><div class='vertical-center'><img src='img/error.jpg'></div><div class='respDiv'><div class='respDivL'>Match<br>(e)</div><div class='respDivR'><font style='color:orange'>No Match<br>(i)</font></div></div></div>","null","FEEDBACK","","","","","","","","","","",""
"html-keyboard-response","55","229306","0.0-7.0-1.4","5ee8f9a309471c0d46a6d247","bdp_wmem","Tue Mar 14 2023 11:00:44 GMT-0700 (Pacific Daylight Time)","657155","Match,No Match","","null","","","","","","<div class='trialBorder'><div class='vertical-center'><img src='img/fixation2_sml.jpg'</img></div></div>","null","FIX","","","","","","","","","","",""
"html-keyboard-response","56","230808","0.0-7.0-2.4","5ee8f9a309471c0d46a6d247","bdp_wmem","Tue Mar 14 2023 11:00:44 GMT-0700 (Pacific Daylight Time)","657155","Match,No Match","","null","","","","","","<div class='trialBorder'><div class='vertical-center'><img style='vertical-align:center; align:center' src='img/fixation2_sml.jpg'></div><div class='arrayDiv1'><div class='tc'><img class='introPic' src='trustrating_stim/white_mw012.bmp'><br><font color='green'><strong>Share</strong></font></div></div></div>","null","ARRAY","1","trustrating_stim/white_mw012.bmp","1","noMatchOutcome","i","1500","","","","",""
"html-keyboard-response","57","234810","0.0-7.0-3.4","5ee8f9a309471c0d46a6d247","bdp_wmem","Tue Mar 14 2023 11:00:44 GMT-0700 (Pacific Daylight Time)","657155","Match,No Match","","null","","","","","","<div class='trialBorder'><div class='vertical-center'><img src='img/fixation2_sml.jpg'</img></div></div>","null","DELAY","","","","","","","","","","",""
"html-keyboard-response","58","236516","0.0-7.0-4.4","5ee8f9a309471c0d46a6d247","bdp_wmem","Tue Mar 14 2023 11:00:44 GMT-0700 (Pacific Daylight Time)","657155","Match,No Match","","1704","","","","","","<div class='trialBorder'><div class='targDiv'><div class='tc'><img class='introPic' src='trustrating_stim/white_mw012.bmp'><br><font color='red'><strong>Keep</strong></font></div></div><div class='respDiv'><div class='respDivL'>Match<br>(e)</div><div class='respDivR'>No Match<br>(i)</div></div></div>","i","TARGET","1","trustrating_stim/white_mw012.bmp","1","noMatchOutcome","i","1500","trustrating_stim/white_mw012.bmp","red","Keep","REAL","1"
"html-keyboard-response","59","237018","0.0-7.0-5.4","5ee8f9a309471c0d46a6d247","bdp_wmem","Tue Mar 14 2023 11:00:44 GMT-0700 (Pacific Daylight Time)","657155","Match,No Match","","null","","","","","","<div class='trialBorder'><div class='vertical-center'><img src='img/correct.jpg'></div><div class='respDiv'><div class='respDivL'>Match<br>(e)</div><div class='respDivR'><font style='color:orange'>No Match<br>(i)</font></div></div></div>","null","FEEDBACK","","","","","","","","","","",""
"html-keyboard-response","60","237520","0.0-7.0-1.5","5ee8f9a309471c0d46a6d247","bdp_wmem","Tue Mar 14 2023 11:00:44 GMT-0700 (Pacific Daylight Time)","657155","Match,No Match","","null","","","","","","<div class='trialBorder'><div class='vertical-center'><img src='img/fixation2_sml.jpg'</img></div></div>","null","FIX","","","","","","","","","","",""
"html-keyboard-response","61","240523","0.0-7.0-2.5","5ee8f9a309471c0d46a6d247","bdp_wmem","Tue Mar 14 2023 11:00:44 GMT-0700 (Pacific Daylight Time)","657155","Match,No Match","","null","","","","","","<div class='trialBorder'><div class='vertical-center'><img style='vertical-align:center; align:center' src='img/fixation2_sml.jpg'></div><div class='arrayDiv2'><div class='tl'><img class='introPic' src='trustrating_stim/white_mw013.bmp'><br><font color='green'><strong>Share</strong></font></div><div class='tr'><img class='introPic' src='trustrating_stim/white_mw092.bmp'><br><font color='red'><strong>Keep</strong></font></div></div></div>","null","ARRAY","2","trustrating_stim/white_mw013.bmp,trustrating_stim/white_mw092.bmp","1,0","noMatchFace","i","3000","","","","",""
"html-keyboard-response","62","244525","0.0-7.0-3.5","5ee8f9a309471c0d46a6d247","bdp_wmem","Tue Mar 14 2023 11:00:44 GMT-0700 (Pacific Daylight Time)","657155","Match,No Match","","null","","","","","","<div class='trialBorder'><div class='vertical-center'><img src='img/fixation2_sml.jpg'</img></div></div>","null","DELAY","","","","","","","","","","",""
"html-keyboard-response","63","246449","0.0-7.0-4.5","5ee8f9a309471c0d46a6d247","bdp_wmem","Tue Mar 14 2023 11:00:44 GMT-0700 (Pacific Daylight Time)","657155","Match,No Match","","1923","","","","","","<div class='trialBorder'><div class='targDiv'><div class='tc'><img class='introPic' src='trustrating_stim/white_mw042.bmp'><br><font color='red'><strong>Keep</strong></font></div></div><div class='respDiv'><div class='respDivL'>Match<br>(e)</div><div class='respDivR'>No Match<br>(i)</div></div></div>","e","TARGET","2","trustrating_stim/white_mw013.bmp,trustrating_stim/white_mw092.bmp","1,0","noMatchFace","i","3000","trustrating_stim/white_mw042.bmp","red","Keep","REAL","0"
"html-keyboard-response","64","246951","0.0-7.0-5.5","5ee8f9a309471c0d46a6d247","bdp_wmem","Tue Mar 14 2023 11:00:44 GMT-0700 (Pacific Daylight Time)","657155","Match,No Match","","null","","","","","","<div class='trialBorder'><div class='vertical-center'><img src='img/error.jpg'></div><div class='respDiv'><div class='respDivL'><font style='color:orange'>Match<br>(e)</font></div><div class='respDivR'>No Match<br>(i)</div></div></div>","null","FEEDBACK","","","","","","","","","","",""
"html-keyboard-response","65","247454","0.0-7.0-1.6","5ee8f9a309471c0d46a6d247","bdp_wmem","Tue Mar 14 2023 11:00:44 GMT-0700 (Pacific Daylight Time)","657155","Match,No Match","","null","","","","","","<div class='trialBorder'><div class='vertical-center'><img src='img/fixation2_sml.jpg'</img></div></div>","null","FIX","","","","","","","","","","",""
"html-keyboard-response","66","248955","0.0-7.0-2.6","5ee8f9a309471c0d46a6d247","bdp_wmem","Tue Mar 14 2023 11:00:44 GMT-0700 (Pacific Daylight Time)","657155","Match,No Match","","null","","","","","","<div class='trialBorder'><div class='vertical-center'><img style='vertical-align:center; align:center' src='img/fixation2_sml.jpg'></div><div class='arrayDiv1'><div class='tc'><img class='introPic' src='trustrating_stim/white_mw038.bmp'><br><font color='red'><strong>Keep</strong></font></div></div></div>","null","ARRAY","1","trustrating_stim/white_mw038.bmp","0","Match","e","1500","","","","",""
"html-keyboard-response","67","252958","0.0-7.0-3.6","5ee8f9a309471c0d46a6d247","bdp_wmem","Tue Mar 14 2023 11:00:44 GMT-0700 (Pacific Daylight Time)","657155","Match,No Match","","null","","","","","","<div class='trialBorder'><div class='vertical-center'><img src='img/fixation2_sml.jpg'</img></div></div>","null","DELAY","","","","","","","","","","",""
"html-keyboard-response","68","254617","0.0-7.0-4.6","5ee8f9a309471c0d46a6d247","bdp_wmem","Tue Mar 14 2023 11:00:44 GMT-0700 (Pacific Daylight Time)","657155","Match,No Match","","1658","","","","","","<div class='trialBorder'><div class='targDiv'><div class='tc'><img class='introPic' src='trustrating_stim/white_mw038.bmp'><br><font color='red'><strong>Keep</strong></font></div></div><div class='respDiv'><div class='respDivL'>Match<br>(e)</div><div class='respDivR'>No Match<br>(i)</div></div></div>","e","TARGET","1","trustrating_stim/white_mw038.bmp","0","Match","e","1500","trustrating_stim/white_mw038.bmp","red","Keep","REAL","1"
"html-keyboard-response","69","255118","0.0-7.0-5.6","5ee8f9a309471c0d46a6d247","bdp_wmem","Tue Mar 14 2023 11:00:44 GMT-0700 (Pacific Daylight Time)","657155","Match,No Match","","null","","","","","","<div class='trialBorder'><div class='vertical-center'><img src='img/correct.jpg'></div><div class='respDiv'><div class='respDivL'><font style='color:orange'>Match<br>(e)</font></div><div class='respDivR'>No Match<br>(i)</div></div></div>","null","FEEDBACK","","","","","","","","","","",""
"html-keyboard-response","70","255619","0.0-7.0-1.7","5ee8f9a309471c0d46a6d247","bdp_wmem","Tue Mar 14 2023 11:00:44 GMT-0700 (Pacific Daylight Time)","657155","Match,No Match","","null","","","","","","<div class='trialBorder'><div class='vertical-center'><img src='img/fixation2_sml.jpg'</img></div></div>","null","FIX","","","","","","","","","","",""
"html-keyboard-response","71","260123","0.0-7.0-2.7","5ee8f9a309471c0d46a6d247","bdp_wmem","Tue Mar 14 2023 11:00:44 GMT-0700 (Pacific Daylight Time)","657155","Match,No Match","","null","","","","","","<div class='trialBorder'><div class='vertical-center'><img style='vertical-align:center; align:center' src='img/fixation2_sml.jpg'></div><div class='arrayDiv3'><div class='tl'><img class='introPic' src='trustrating_stim/white_mw040.bmp'><br><font color='green'><strong>Share</strong></font></div><div class='tc'><img class='introPic' src='trustrating_stim/white_mw085.bmp'><br><font color='red'><strong>Keep</strong></font></div><div class='tr'><img class='introPic' src='trustrating_stim/white_mw012.bmp'><br><font color='green'><strong>Share</strong></font></div></div></div>","null","ARRAY","3","trustrating_stim/white_mw040.bmp,trustrating_stim/white_mw085.bmp,trustrating_stim/white_mw012.bmp","1,0,1","Match","e","4500","","","","",""
"html-keyboard-response","72","264125","0.0-7.0-3.7","5ee8f9a309471c0d46a6d247","bdp_wmem","Tue Mar 14 2023 11:00:44 GMT-0700 (Pacific Daylight Time)","657155","Match,No Match","","null","","","","","","<div class='trialBorder'><div class='vertical-center'><img src='img/fixation2_sml.jpg'</img></div></div>","null","DELAY","","","","","","","","","","",""
"html-keyboard-response","73","265484","0.0-7.0-4.7","5ee8f9a309471c0d46a6d247","bdp_wmem","Tue Mar 14 2023 11:00:44 GMT-0700 (Pacific Daylight Time)","657155","Match,No Match","","1358","","","","","","<div class='trialBorder'><div class='targDiv'><div class='tc'><img class='introPic' src='trustrating_stim/white_mw040.bmp'><br><font color='green'><strong>Share</strong></font></div></div><div class='respDiv'><div class='respDivL'>Match<br>(e)</div><div class='respDivR'>No Match<br>(i)</div></div></div>","i","TARGET","3","trustrating_stim/white_mw040.bmp,trustrating_stim/white_mw085.bmp,trustrating_stim/white_mw012.bmp","1,0,1","Match","e","4500","trustrating_stim/white_mw040.bmp","green","Share","REAL","0"
"html-keyboard-response","74","265985","0.0-7.0-5.7","5ee8f9a309471c0d46a6d247","bdp_wmem","Tue Mar 14 2023 11:00:44 GMT-0700 (Pacific Daylight Time)","657155","Match,No Match","","null","","","","","","<div class='trialBorder'><div class='vertical-center'><img src='img/error.jpg'></div><div class='respDiv'><div class='respDivL'>Match<br>(e)</div><div class='respDivR'><font style='color:orange'>No Match<br>(i)</font></div></div></div>","null","FEEDBACK","","","","","","","","","","",""
"html-keyboard-response","75","266486","0.0-7.0-1.8","5ee8f9a309471c0d46a6d247","bdp_wmem","Tue Mar 14 2023 11:00:44 GMT-0700 (Pacific Daylight Time)","657155","Match,No Match","","null","","","","","","<div class='trialBorder'><div class='vertical-center'><img src='img/fixation2_sml.jpg'</img></div></div>","null","FIX","","","","","","","","","","",""
"html-keyboard-response","76","269488","0.0-7.0-2.8","5ee8f9a309471c0d46a6d247","bdp_wmem","Tue Mar 14 2023 11:00:44 GMT-0700 (Pacific Daylight Time)","657155","Match,No Match","","null","","","","","","<div class='trialBorder'><div class='vertical-center'><img style='vertical-align:center; align:center' src='img/fixation2_sml.jpg'></div><div class='arrayDiv2'><div class='tl'><img class='introPic' src='trustrating_stim/white_mw013.bmp'><br><font color='red'><strong>Keep</strong></font></div><div class='tr'><img class='introPic' src='trustrating_stim/white_mw012.bmp'><br><font color='green'><strong>Share</strong></font></div></div></div>","null","ARRAY","2","trustrating_stim/white_mw013.bmp,trustrating_stim/white_mw012.bmp","0,1","Match","e","3000","","","","",""
"html-keyboard-response","77","273490","0.0-7.0-3.8","5ee8f9a309471c0d46a6d247","bdp_wmem","Tue Mar 14 2023 11:00:44 GMT-0700 (Pacific Daylight Time)","657155","Match,No Match","","null","","","","","","<div class='trialBorder'><div class='vertical-center'><img src='img/fixation2_sml.jpg'</img></div></div>","null","DELAY","","","","","","","","","","",""
"html-keyboard-response","78","274836","0.0-7.0-4.8","5ee8f9a309471c0d46a6d247","bdp_wmem","Tue Mar 14 2023 11:00:44 GMT-0700 (Pacific Daylight Time)","657155","Match,No Match","","1345","","","","","","<div class='trialBorder'><div class='targDiv'><div class='tc'><img class='introPic' src='trustrating_stim/white_mw013.bmp'><br><font color='red'><strong>Keep</strong></font></div></div><div class='respDiv'><div class='respDivL'>Match<br>(e)</div><div class='respDivR'>No Match<br>(i)</div></div></div>","e","TARGET","2","trustrating_stim/white_mw013.bmp,trustrating_stim/white_mw012.bmp","0,1","Match","e","3000","trustrating_stim/white_mw013.bmp","red","Keep","REAL","1"
"html-keyboard-response","79","275337","0.0-7.0-5.8","5ee8f9a309471c0d46a6d247","bdp_wmem","Tue Mar 14 2023 11:00:44 GMT-0700 (Pacific Daylight Time)","657155","Match,No Match","","null","","","","","","<div class='trialBorder'><div class='vertical-center'><img src='img/correct.jpg'></div><div class='respDiv'><div class='respDivL'><font style='color:orange'>Match<br>(e)</font></div><div class='respDivR'>No Match<br>(i)</div></div></div>","null","FEEDBACK","","","","","","","","","","",""
"html-keyboard-response","80","275839","0.0-7.0-1.9","5ee8f9a309471c0d46a6d247","bdp_wmem","Tue Mar 14 2023 11:00:44 GMT-0700 (Pacific Daylight Time)","657155","Match,No Match","","null","","","","","","<div class='trialBorder'><div class='vertical-center'><img src='img/fixation2_sml.jpg'</img></div></div>","null","FIX","","","","","","","","","","",""
"html-keyboard-response","81","277342","0.0-7.0-2.9","5ee8f9a309471c0d46a6d247","bdp_wmem","Tue Mar 14 2023 11:00:44 GMT-0700 (Pacific Daylight Time)","657155","Match,No Match","","null","","","","","","<div class='trialBorder'><div class='vertical-center'><img style='vertical-align:center; align:center' src='img/fixation2_sml.jpg'></div><div class='arrayDiv1'><div class='tc'><img class='introPic' src='trustrating_stim/white_mw092.bmp'><br><font color='red'><strong>Keep</strong></font></div></div></div>","null","ARRAY","1","trustrating_stim/white_mw092.bmp","0","Match","e","1500","","","","",""
"html-keyboard-response","82","281343","0.0-7.0-3.9","5ee8f9a309471c0d46a6d247","bdp_wmem","Tue Mar 14 2023 11:00:44 GMT-0700 (Pacific Daylight Time)","657155","Match,No Match","","null","","","","","","<div class='trialBorder'><div class='vertical-center'><img src='img/fixation2_sml.jpg'</img></div></div>","null","DELAY","","","","","","","","","","",""
"html-keyboard-response","83","282549","0.0-7.0-4.9","5ee8f9a309471c0d46a6d247","bdp_wmem","Tue Mar 14 2023 11:00:44 GMT-0700 (Pacific Daylight Time)","657155","Match,No Match","","1204","","","","","","<div class='trialBorder'><div class='targDiv'><div class='tc'><img class='introPic' src='trustrating_stim/white_mw092.bmp'><br><font color='red'><strong>Keep</strong></font></div></div><div class='respDiv'><div class='respDivL'>Match<br>(e)</div><div class='respDivR'>No Match<br>(i)</div></div></div>","e","TARGET","1","trustrating_stim/white_mw092.bmp","0","Match","e","1500","trustrating_stim/white_mw092.bmp","red","Keep","REAL","1"
"html-keyboard-response","84","283051","0.0-7.0-5.9","5ee8f9a309471c0d46a6d247","bdp_wmem","Tue Mar 14 2023 11:00:44 GMT-0700 (Pacific Daylight Time)","657155","Match,No Match","","null","","","","","","<div class='trialBorder'><div class='vertical-center'><img src='img/correct.jpg'></div><div class='respDiv'><div class='respDivL'><font style='color:orange'>Match<br>(e)</font></div><div class='respDivR'>No Match<br>(i)</div></div></div>","null","FEEDBACK","","","","","","","","","","",""
"html-keyboard-response","85","283552","0.0-7.0-1.10","5ee8f9a309471c0d46a6d247","bdp_wmem","Tue Mar 14 2023 11:00:44 GMT-0700 (Pacific Daylight Time)","657155","Match,No Match","","null","","","","","","<div class='trialBorder'><div class='vertical-center'><img src='img/fixation2_sml.jpg'</img></div></div>","null","FIX","","","","","","","","","","",""
"html-keyboard-response","86","285055","0.0-7.0-2.10","5ee8f9a309471c0d46a6d247","bdp_wmem","Tue Mar 14 2023 11:00:44 GMT-0700 (Pacific Daylight Time)","657155","Match,No Match","","null","","","","","","<div class='trialBorder'><div class='vertical-center'><img style='vertical-align:center; align:center' src='img/fixation2_sml.jpg'></div><div class='arrayDiv1'><div class='tc'><img class='introPic' src='trustrating_stim/white_mw091.bmp'><br><font color='green'><strong>Share</strong></font></div></div></div>","null","ARRAY","1","trustrating_stim/white_mw091.bmp","1","Match","e","1500","","","","",""
"html-keyboard-response","87","289057","0.0-7.0-3.10","5ee8f9a309471c0d46a6d247","bdp_wmem","Tue Mar 14 2023 11:00:44 GMT-0700 (Pacific Daylight Time)","657155","Match,No Match","","null","","","","","","<div class='trialBorder'><div class='vertical-center'><img src='img/fixation2_sml.jpg'</img></div></div>","null","DELAY","","","","","","","","","","",""
"html-keyboard-response","88","290317","0.0-7.0-4.10","5ee8f9a309471c0d46a6d247","bdp_wmem","Tue Mar 14 2023 11:00:44 GMT-0700 (Pacific Daylight Time)","657155","Match,No Match","","1259","","","","","","<div class='trialBorder'><div class='targDiv'><div class='tc'><img class='introPic' src='trustrating_stim/white_mw091.bmp'><br><font color='green'><strong>Share</strong></font></div></div><div class='respDiv'><div class='respDivL'>Match<br>(e)</div><div class='respDivR'>No Match<br>(i)</div></div></div>","e","TARGET","1","trustrating_stim/white_mw091.bmp","1","Match","e","1500","trustrating_stim/white_mw091.bmp","green","Share","REAL","1"
"html-keyboard-response","89","290818","0.0-7.0-5.10","5ee8f9a309471c0d46a6d247","bdp_wmem","Tue Mar 14 2023 11:00:44 GMT-0700 (Pacific Daylight Time)","657155","Match,No Match","","null","","","","","","<div class='trialBorder'><div class='vertical-center'><img src='img/correct.jpg'></div><div class='respDiv'><div class='respDivL'><font style='color:orange'>Match<br>(e)</font></div><div class='respDivR'>No Match<br>(i)</div></div></div>","null","FEEDBACK","","","","","","","","","","",""
"html-keyboard-response","90","291320","0.0-7.0-1.11","5ee8f9a309471c0d46a6d247","bdp_wmem","Tue Mar 14 2023 11:00:44 GMT-0700 (Pacific Daylight Time)","657155","Match,No Match","","null","","","","","","<div class='trialBorder'><div class='vertical-center'><img src='img/fixation2_sml.jpg'</img></div></div>","null","FIX","","","","","","","","","","",""
"html-keyboard-response","91","294322","0.0-7.0-2.11","5ee8f9a309471c0d46a6d247","bdp_wmem","Tue Mar 14 2023 11:00:44 GMT-0700 (Pacific Daylight Time)","657155","Match,No Match","","null","","","","","","<div class='trialBorder'><div class='vertical-center'><img style='vertical-align:center; align:center' src='img/fixation2_sml.jpg'></div><div class='arrayDiv2'><div class='tl'><img class='introPic' src='trustrating_stim/white_mw012.bmp'><br><font color='red'><strong>Keep</strong></font></div><div class='tr'><img class='introPic' src='trustrating_stim/white_mw042.bmp'><br><font color='green'><strong>Share</strong></font></div></div></div>","null","ARRAY","2","trustrating_stim/white_mw012.bmp,trustrating_stim/white_mw042.bmp","0,1","noMatchOutcome","i","3000","","","","",""
"html-keyboard-response","92","298324","0.0-7.0-3.11","5ee8f9a309471c0d46a6d247","bdp_wmem","Tue Mar 14 2023 11:00:44 GMT-0700 (Pacific Daylight Time)","657155","Match,No Match","","null","","","","","","<div class='trialBorder'><div class='vertical-center'><img src='img/fixation2_sml.jpg'</img></div></div>","null","DELAY","","","","","","","","","","",""
"html-keyboard-response","93","301019","0.0-7.0-4.11","5ee8f9a309471c0d46a6d247","bdp_wmem","Tue Mar 14 2023 11:00:44 GMT-0700 (Pacific Daylight Time)","657155","Match,No Match","","2692","","","","","","<div class='trialBorder'><div class='targDiv'><div class='tc'><img class='introPic' src='trustrating_stim/white_mw012.bmp'><br><font color='green'><strong>Share</strong></font></div></div><div class='respDiv'><div class='respDivL'>Match<br>(e)</div><div class='respDivR'>No Match<br>(i)</div></div></div>","e","TARGET","2","trustrating_stim/white_mw012.bmp,trustrating_stim/white_mw042.bmp","0,1","noMatchOutcome","i","3000","trustrating_stim/white_mw012.bmp","green","Share","REAL","0"
"html-keyboard-response","94","301520","0.0-7.0-5.11","5ee8f9a309471c0d46a6d247","bdp_wmem","Tue Mar 14 2023 11:00:44 GMT-0700 (Pacific Daylight Time)","657155","Match,No Match","","null","","","","","","<div class='trialBorder'><div class='vertical-center'><img src='img/error.jpg'></div><div class='respDiv'><div class='respDivL'><font style='color:orange'>Match<br>(e)</font></div><div class='respDivR'>No Match<br>(i)</div></div></div>","null","FEEDBACK","","","","","","","","","","",""
"html-keyboard-response","95","302022","0.0-7.0-1.12","5ee8f9a309471c0d46a6d247","bdp_wmem","Tue Mar 14 2023 11:00:44 GMT-0700 (Pacific Daylight Time)","657155","Match,No Match","","null","","","","","","<div class='trialBorder'><div class='vertical-center'><img src='img/fixation2_sml.jpg'</img></div></div>","null","FIX","","","","","","","","","","",""
"html-keyboard-response","96","305024","0.0-7.0-2.12","5ee8f9a309471c0d46a6d247","bdp_wmem","Tue Mar 14 2023 11:00:44 GMT-0700 (Pacific Daylight Time)","657155","Match,No Match","","null","","","","","","<div class='trialBorder'><div class='vertical-center'><img style='vertical-align:center; align:center' src='img/fixation2_sml.jpg'></div><div class='arrayDiv2'><div class='tl'><img class='introPic' src='trustrating_stim/white_mw078.bmp'><br><font color='red'><strong>Keep</strong></font></div><div class='tr'><img class='introPic' src='trustrating_stim/white_mw003.bmp'><br><font color='green'><strong>Share</strong></font></div></div></div>","null","ARRAY","2","trustrating_stim/white_mw078.bmp,trustrating_stim/white_mw003.bmp","0,1","noMatchOutcome","i","3000","","","","",""
"html-keyboard-response","97","309026","0.0-7.0-3.12","5ee8f9a309471c0d46a6d247","bdp_wmem","Tue Mar 14 2023 11:00:44 GMT-0700 (Pacific Daylight Time)","657155","Match,No Match","","null","","","","","","<div class='trialBorder'><div class='vertical-center'><img src='img/fixation2_sml.jpg'</img></div></div>","null","DELAY","","","","","","","","","","",""
"html-keyboard-response","98","312247","0.0-7.0-4.12","5ee8f9a309471c0d46a6d247","bdp_wmem","Tue Mar 14 2023 11:00:44 GMT-0700 (Pacific Daylight Time)","657155","Match,No Match","","3220","","","","","","<div class='trialBorder'><div class='targDiv'><div class='tc'><img class='introPic' src='trustrating_stim/white_mw003.bmp'><br><font color='red'><strong>Keep</strong></font></div></div><div class='respDiv'><div class='respDivL'>Match<br>(e)</div><div class='respDivR'>No Match<br>(i)</div></div></div>","i","TARGET","2","trustrating_stim/white_mw078.bmp,trustrating_stim/white_mw003.bmp","0,1","noMatchOutcome","i","3000","trustrating_stim/white_mw003.bmp","red","Keep","REAL","1"
"html-keyboard-response","99","312750","0.0-7.0-5.12","5ee8f9a309471c0d46a6d247","bdp_wmem","Tue Mar 14 2023 11:00:44 GMT-0700 (Pacific Daylight Time)","657155","Match,No Match","","null","","","","","","<div class='trialBorder'><div class='vertical-center'><img src='img/correct.jpg'></div><div class='respDiv'><div class='respDivL'>Match<br>(e)</div><div class='respDivR'><font style='color:orange'>No Match<br>(i)</font></div></div></div>","null","FEEDBACK","","","","","","","","","","",""
"html-keyboard-response","100","313251","0.0-7.0-1.13","5ee8f9a309471c0d46a6d247","bdp_wmem","Tue Mar 14 2023 11:00:44 GMT-0700 (Pacific Daylight Time)","657155","Match,No Match","","null","","","","","","<div class='trialBorder'><div class='vertical-center'><img src='img/fixation2_sml.jpg'</img></div></div>","null","FIX","","","","","","","","","","",""
"html-keyboard-response","101","314753","0.0-7.0-2.13","5ee8f9a309471c0d46a6d247","bdp_wmem","Tue Mar 14 2023 11:00:44 GMT-0700 (Pacific Daylight Time)","657155","Match,No Match","","null","","","","","","<div class='trialBorder'><div class='vertical-center'><img style='vertical-align:center; align:center' src='img/fixation2_sml.jpg'></div><div class='arrayDiv1'><div class='tc'><img class='introPic' src='trustrating_stim/white_mw092.bmp'><br><font color='green'><strong>Share</strong></font></div></div></div>","null","ARRAY","1","trustrating_stim/white_mw092.bmp","1","noMatchFace","i","1500","","","","",""
"html-keyboard-response","102","318755","0.0-7.0-3.13","5ee8f9a309471c0d46a6d247","bdp_wmem","Tue Mar 14 2023 11:00:44 GMT-0700 (Pacific Daylight Time)","657155","Match,No Match","","null","","","","","","<div class='trialBorder'><div class='vertical-center'><img src='img/fixation2_sml.jpg'</img></div></div>","null","DELAY","","","","","","","","","","",""
"html-keyboard-response","103","320301","0.0-7.0-4.13","5ee8f9a309471c0d46a6d247","bdp_wmem","Tue Mar 14 2023 11:00:44 GMT-0700 (Pacific Daylight Time)","657155","Match,No Match","","1545","","","","","","<div class='trialBorder'><div class='targDiv'><div class='tc'><img class='introPic' src='trustrating_stim/white_mw091.bmp'><br><font color='green'><strong>Share</strong></font></div></div><div class='respDiv'><div class='respDivL'>Match<br>(e)</div><div class='respDivR'>No Match<br>(i)</div></div></div>","i","TARGET","1","trustrating_stim/white_mw092.bmp","1","noMatchFace","i","1500","trustrating_stim/white_mw091.bmp","green","Share","REAL","1"
"html-keyboard-response","104","320803","0.0-7.0-5.13","5ee8f9a309471c0d46a6d247","bdp_wmem","Tue Mar 14 2023 11:00:44 GMT-0700 (Pacific Daylight Time)","657155","Match,No Match","","null","","","","","","<div class='trialBorder'><div class='vertical-center'><img src='img/correct.jpg'></div><div class='respDiv'><div class='respDivL'>Match<br>(e)</div><div class='respDivR'><font style='color:orange'>No Match<br>(i)</font></div></div></div>","null","FEEDBACK","","","","","","","","","","",""
"html-keyboard-response","105","321305","0.0-7.0-1.14","5ee8f9a309471c0d46a6d247","bdp_wmem","Tue Mar 14 2023 11:00:44 GMT-0700 (Pacific Daylight Time)","657155","Match,No Match","","null","","","","","","<div class='trialBorder'><div class='vertical-center'><img src='img/fixation2_sml.jpg'</img></div></div>","null","FIX","","","","","","","","","","",""
"html-keyboard-response","106","324307","0.0-7.0-2.14","5ee8f9a309471c0d46a6d247","bdp_wmem","Tue Mar 14 2023 11:00:44 GMT-0700 (Pacific Daylight Time)","657155","Match,No Match","","null","","","","","","<div class='trialBorder'><div class='vertical-center'><img style='vertical-align:center; align:center' src='img/fixation2_sml.jpg'></div><div class='arrayDiv2'><div class='tl'><img class='introPic' src='trustrating_stim/white_mw042.bmp'><br><font color='green'><strong>Share</strong></font></div><div class='tr'><img class='introPic' src='trustrating_stim/white_mw040.bmp'><br><font color='red'><strong>Keep</strong></font></div></div></div>","null","ARRAY","2","trustrating_stim/white_mw042.bmp,trustrating_stim/white_mw040.bmp","1,0","Match","e","3000","","","","",""
"html-keyboard-response","107","328309","0.0-7.0-3.14","5ee8f9a309471c0d46a6d247","bdp_wmem","Tue Mar 14 2023 11:00:44 GMT-0700 (Pacific Daylight Time)","657155","Match,No Match","","null","","","","","","<div class='trialBorder'><div class='vertical-center'><img src='img/fixation2_sml.jpg'</img></div></div>","null","DELAY","","","","","","","","","","",""
"html-keyboard-response","108","330622","0.0-7.0-4.14","5ee8f9a309471c0d46a6d247","bdp_wmem","Tue Mar 14 2023 11:00:44 GMT-0700 (Pacific Daylight Time)","657155","Match,No Match","","2312","","","","","","<div class='trialBorder'><div class='targDiv'><div class='tc'><img class='introPic' src='trustrating_stim/white_mw040.bmp'><br><font color='red'><strong>Keep</strong></font></div></div><div class='respDiv'><div class='respDivL'>Match<br>(e)</div><div class='respDivR'>No Match<br>(i)</div></div></div>","e","TARGET","2","trustrating_stim/white_mw042.bmp,trustrating_stim/white_mw040.bmp","1,0","Match","e","3000","trustrating_stim/white_mw040.bmp","red","Keep","REAL","1"
"html-keyboard-response","109","331123","0.0-7.0-5.14","5ee8f9a309471c0d46a6d247","bdp_wmem","Tue Mar 14 2023 11:00:44 GMT-0700 (Pacific Daylight Time)","657155","Match,No Match","","null","","","","","","<div class='trialBorder'><div class='vertical-center'><img src='img/correct.jpg'></div><div class='respDiv'><div class='respDivL'><font style='color:orange'>Match<br>(e)</font></div><div class='respDivR'>No Match<br>(i)</div></div></div>","null","FEEDBACK","","","","","","","","","","",""
"html-keyboard-response","110","331625","0.0-7.0-1.15","5ee8f9a309471c0d46a6d247","bdp_wmem","Tue Mar 14 2023 11:00:44 GMT-0700 (Pacific Daylight Time)","657155","Match,No Match","","null","","","","","","<div class='trialBorder'><div class='vertical-center'><img src='img/fixation2_sml.jpg'</img></div></div>","null","FIX","","","","","","","","","","",""
"html-keyboard-response","111","334627","0.0-7.0-2.15","5ee8f9a309471c0d46a6d247","bdp_wmem","Tue Mar 14 2023 11:00:44 GMT-0700 (Pacific Daylight Time)","657155","Match,No Match","","null","","","","","","<div class='trialBorder'><div class='vertical-center'><img style='vertical-align:center; align:center' src='img/fixation2_sml.jpg'></div><div class='arrayDiv2'><div class='tl'><img class='introPic' src='trustrating_stim/white_mw085.bmp'><br><font color='green'><strong>Share</strong></font></div><div class='tr'><img class='introPic' src='trustrating_stim/white_mw078.bmp'><br><font color='red'><strong>Keep</strong></font></div></div></div>","null","ARRAY","2","trustrating_stim/white_mw085.bmp,trustrating_stim/white_mw078.bmp","1,0","Match","e","3000","","","","",""
"html-keyboard-response","112","338629","0.0-7.0-3.15","5ee8f9a309471c0d46a6d247","bdp_wmem","Tue Mar 14 2023 11:00:44 GMT-0700 (Pacific Daylight Time)","657155","Match,No Match","","null","","","","","","<div class='trialBorder'><div class='vertical-center'><img src='img/fixation2_sml.jpg'</img></div></div>","null","DELAY","","","","","","","","","","",""
"html-keyboard-response","113","339993","0.0-7.0-4.15","5ee8f9a309471c0d46a6d247","bdp_wmem","Tue Mar 14 2023 11:00:44 GMT-0700 (Pacific Daylight Time)","657155","Match,No Match","","1362","","","","","","<div class='trialBorder'><div class='targDiv'><div class='tc'><img class='introPic' src='trustrating_stim/white_mw078.bmp'><br><font color='red'><strong>Keep</strong></font></div></div><div class='respDiv'><div class='respDivL'>Match<br>(e)</div><div class='respDivR'>No Match<br>(i)</div></div></div>","e","TARGET","2","trustrating_stim/white_mw085.bmp,trustrating_stim/white_mw078.bmp","1,0","Match","e","3000","trustrating_stim/white_mw078.bmp","red","Keep","REAL","1"
"html-keyboard-response","114","340494","0.0-7.0-5.15","5ee8f9a309471c0d46a6d247","bdp_wmem","Tue Mar 14 2023 11:00:44 GMT-0700 (Pacific Daylight Time)","657155","Match,No Match","","null","","","","","","<div class='trialBorder'><div class='vertical-center'><img src='img/correct.jpg'></div><div class='respDiv'><div class='respDivL'><font style='color:orange'>Match<br>(e)</font></div><div class='respDivR'>No Match<br>(i)</div></div></div>","null","FEEDBACK","","","","","","","","","","",""
"html-keyboard-response","115","340996","0.0-7.0-1.16","5ee8f9a309471c0d46a6d247","bdp_wmem","Tue Mar 14 2023 11:00:44 GMT-0700 (Pacific Daylight Time)","657155","Match,No Match","","null","","","","","","<div class='trialBorder'><div class='vertical-center'><img src='img/fixation2_sml.jpg'</img></div></div>","null","FIX","","","","","","","","","","",""
"html-keyboard-response","116","342498","0.0-7.0-2.16","5ee8f9a309471c0d46a6d247","bdp_wmem","Tue Mar 14 2023 11:00:44 GMT-0700 (Pacific Daylight Time)","657155","Match,No Match","","null","","","","","","<div class='trialBorder'><div class='vertical-center'><img style='vertical-align:center; align:center' src='img/fixation2_sml.jpg'></div><div class='arrayDiv1'><div class='tc'><img class='introPic' src='trustrating_stim/white_mw040.bmp'><br><font color='red'><strong>Keep</strong></font></div></div></div>","null","ARRAY","1","trustrating_stim/white_mw040.bmp","0","Match","e","1500","","","","",""
"html-keyboard-response","117","346500","0.0-7.0-3.16","5ee8f9a309471c0d46a6d247","bdp_wmem","Tue Mar 14 2023 11:00:44 GMT-0700 (Pacific Daylight Time)","657155","Match,No Match","","null","","","","","","<div class='trialBorder'><div class='vertical-center'><img src='img/fixation2_sml.jpg'</img></div></div>","null","DELAY","","","","","","","","","","",""
"html-keyboard-response","118","347866","0.0-7.0-4.16","5ee8f9a309471c0d46a6d247","bdp_wmem","Tue Mar 14 2023 11:00:44 GMT-0700 (Pacific Daylight Time)","657155","Match,No Match","","1365","","","","","","<div class='trialBorder'><div class='targDiv'><div class='tc'><img class='introPic' src='trustrating_stim/white_mw040.bmp'><br><font color='red'><strong>Keep</strong></font></div></div><div class='respDiv'><div class='respDivL'>Match<br>(e)</div><div class='respDivR'>No Match<br>(i)</div></div></div>","e","TARGET","1","trustrating_stim/white_mw040.bmp","0","Match","e","1500","trustrating_stim/white_mw040.bmp","red","Keep","REAL","1"
"html-keyboard-response","119","348369","0.0-7.0-5.16","5ee8f9a309471c0d46a6d247","bdp_wmem","Tue Mar 14 2023 11:00:44 GMT-0700 (Pacific Daylight Time)","657155","Match,No Match","","null","","","","","","<div class='trialBorder'><div class='vertical-center'><img src='img/correct.jpg'></div><div class='respDiv'><div class='respDivL'><font style='color:orange'>Match<br>(e)</font></div><div class='respDivR'>No Match<br>(i)</div></div></div>","null","FEEDBACK","","","","","","","","","","",""
"html-keyboard-response","120","348870","0.0-7.0-1.17","5ee8f9a309471c0d46a6d247","bdp_wmem","Tue Mar 14 2023 11:00:44 GMT-0700 (Pacific Daylight Time)","657155","Match,No Match","","null","","","","","","<div class='trialBorder'><div class='vertical-center'><img src='img/fixation2_sml.jpg'</img></div></div>","null","FIX","","","","","","","","","","",""
"html-keyboard-response","121","351873","0.0-7.0-2.17","5ee8f9a309471c0d46a6d247","bdp_wmem","Tue Mar 14 2023 11:00:44 GMT-0700 (Pacific Daylight Time)","657155","Match,No Match","","null","","","","","","<div class='trialBorder'><div class='vertical-center'><img style='vertical-align:center; align:center' src='img/fixation2_sml.jpg'></div><div class='arrayDiv2'><div class='tl'><img class='introPic' src='trustrating_stim/white_mw042.bmp'><br><font color='red'><strong>Keep</strong></font></div><div class='tr'><img class='introPic' src='trustrating_stim/white_mw012.bmp'><br><font color='green'><strong>Share</strong></font></div></div></div>","null","ARRAY","2","trustrating_stim/white_mw042.bmp,trustrating_stim/white_mw012.bmp","0,1","Match","e","3000","","","","",""
"html-keyboard-response","122","355874","0.0-7.0-3.17","5ee8f9a309471c0d46a6d247","bdp_wmem","Tue Mar 14 2023 11:00:44 GMT-0700 (Pacific Daylight Time)","657155","Match,No Match","","null","","","","","","<div class='trialBorder'><div class='vertical-center'><img src='img/fixation2_sml.jpg'</img></div></div>","null","DELAY","","","","","","","","","","",""
"html-keyboard-response","123","357773","0.0-7.0-4.17","5ee8f9a309471c0d46a6d247","bdp_wmem","Tue Mar 14 2023 11:00:44 GMT-0700 (Pacific Daylight Time)","657155","Match,No Match","","1897","","","","","","<div class='trialBorder'><div class='targDiv'><div class='tc'><img class='introPic' src='trustrating_stim/white_mw012.bmp'><br><font color='green'><strong>Share</strong></font></div></div><div class='respDiv'><div class='respDivL'>Match<br>(e)</div><div class='respDivR'>No Match<br>(i)</div></div></div>","i","TARGET","2","trustrating_stim/white_mw042.bmp,trustrating_stim/white_mw012.bmp","0,1","Match","e","3000","trustrating_stim/white_mw012.bmp","green","Share","REAL","0"
"html-keyboard-response","124","358275","0.0-7.0-5.17","5ee8f9a309471c0d46a6d247","bdp_wmem","Tue Mar 14 2023 11:00:44 GMT-0700 (Pacific Daylight Time)","657155","Match,No Match","","null","","","","","","<div class='trialBorder'><div class='vertical-center'><img src='img/error.jpg'></div><div class='respDiv'><div class='respDivL'>Match<br>(e)</div><div class='respDivR'><font style='color:orange'>No Match<br>(i)</font></div></div></div>","null","FEEDBACK","","","","","","","","","","",""
"html-keyboard-response","125","358777","0.0-7.0-1.18","5ee8f9a309471c0d46a6d247","bdp_wmem","Tue Mar 14 2023 11:00:44 GMT-0700 (Pacific Daylight Time)","657155","Match,No Match","","null","","","","","","<div class='trialBorder'><div class='vertical-center'><img src='img/fixation2_sml.jpg'</img></div></div>","null","FIX","","","","","","","","","","",""
"html-keyboard-response","126","361780","0.0-7.0-2.18","5ee8f9a309471c0d46a6d247","bdp_wmem","Tue Mar 14 2023 11:00:44 GMT-0700 (Pacific Daylight Time)","657155","Match,No Match","","null","","","","","","<div class='trialBorder'><div class='vertical-center'><img style='vertical-align:center; align:center' src='img/fixation2_sml.jpg'></div><div class='arrayDiv2'><div class='tl'><img class='introPic' src='trustrating_stim/white_mw003.bmp'><br><font color='green'><strong>Share</strong></font></div><div class='tr'><img class='introPic' src='trustrating_stim/white_mw085.bmp'><br><font color='red'><strong>Keep</strong></font></div></div></div>","null","ARRAY","2","trustrating_stim/white_mw003.bmp,trustrating_stim/white_mw085.bmp","1,0","noMatchFace","i","3000","","","","",""
"html-keyboard-response","127","365783","0.0-7.0-3.18","5ee8f9a309471c0d46a6d247","bdp_wmem","Tue Mar 14 2023 11:00:44 GMT-0700 (Pacific Daylight Time)","657155","Match,No Match","","null","","","","","","<div class='trialBorder'><div class='vertical-center'><img src='img/fixation2_sml.jpg'</img></div></div>","null","DELAY","","","","","","","","","","",""
"html-keyboard-response","128","368399","0.0-7.0-4.18","5ee8f9a309471c0d46a6d247","bdp_wmem","Tue Mar 14 2023 11:00:44 GMT-0700 (Pacific Daylight Time)","657155","Match,No Match","","2615","","","","","","<div class='trialBorder'><div class='targDiv'><div class='tc'><img class='introPic' src='trustrating_stim/white_mw078.bmp'><br><font color='green'><strong>Share</strong></font></div></div><div class='respDiv'><div class='respDivL'>Match<br>(e)</div><div class='respDivR'>No Match<br>(i)</div></div></div>","e","TARGET","2","trustrating_stim/white_mw003.bmp,trustrating_stim/white_mw085.bmp","1,0","noMatchFace","i","3000","trustrating_stim/white_mw078.bmp","green","Share","REAL","0"
"html-keyboard-response","129","368902","0.0-7.0-5.18","5ee8f9a309471c0d46a6d247","bdp_wmem","Tue Mar 14 2023 11:00:44 GMT-0700 (Pacific Daylight Time)","657155","Match,No Match","","null","","","","","","<div class='trialBorder'><div class='vertical-center'><img src='img/error.jpg'></div><div class='respDiv'><div class='respDivL'><font style='color:orange'>Match<br>(e)</font></div><div class='respDivR'>No Match<br>(i)</div></div></div>","null","FEEDBACK","","","","","","","","","","",""
"html-keyboard-response","130","369403","0.0-7.0-1.19","5ee8f9a309471c0d46a6d247","bdp_wmem","Tue Mar 14 2023 11:00:44 GMT-0700 (Pacific Daylight Time)","657155","Match,No Match","","null","","","","","","<div class='trialBorder'><div class='vertical-center'><img src='img/fixation2_sml.jpg'</img></div></div>","null","FIX","","","","","","","","","","",""
"html-keyboard-response","131","370905","0.0-7.0-2.19","5ee8f9a309471c0d46a6d247","bdp_wmem","Tue Mar 14 2023 11:00:44 GMT-0700 (Pacific Daylight Time)","657155","Match,No Match","","null","","","","","","<div class='trialBorder'><div class='vertical-center'><img style='vertical-align:center; align:center' src='img/fixation2_sml.jpg'></div><div class='arrayDiv1'><div class='tc'><img class='introPic' src='trustrating_stim/white_mw003.bmp'><br><font color='red'><strong>Keep</strong></font></div></div></div>","null","ARRAY","1","trustrating_stim/white_mw003.bmp","0","noMatchOutcome","i","1500","","","","",""
"html-keyboard-response","132","374906","0.0-7.0-3.19","5ee8f9a309471c0d46a6d247","bdp_wmem","Tue Mar 14 2023 11:00:44 GMT-0700 (Pacific Daylight Time)","657155","Match,No Match","","null","","","","","","<div class='trialBorder'><div class='vertical-center'><img src='img/fixation2_sml.jpg'</img></div></div>","null","DELAY","","","","","","","","","","",""
"html-keyboard-response","133","376179","0.0-7.0-4.19","5ee8f9a309471c0d46a6d247","bdp_wmem","Tue Mar 14 2023 11:00:44 GMT-0700 (Pacific Daylight Time)","657155","Match,No Match","","1272","","","","","","<div class='trialBorder'><div class='targDiv'><div class='tc'><img class='introPic' src='trustrating_stim/white_mw003.bmp'><br><font color='green'><strong>Share</strong></font></div></div><div class='respDiv'><div class='respDivL'>Match<br>(e)</div><div class='respDivR'>No Match<br>(i)</div></div></div>","i","TARGET","1","trustrating_stim/white_mw003.bmp","0","noMatchOutcome","i","1500","trustrating_stim/white_mw003.bmp","green","Share","REAL","1"
"html-keyboard-response","134","376681","0.0-7.0-5.19","5ee8f9a309471c0d46a6d247","bdp_wmem","Tue Mar 14 2023 11:00:44 GMT-0700 (Pacific Daylight Time)","657155","Match,No Match","","null","","","","","","<div class='trialBorder'><div class='vertical-center'><img src='img/correct.jpg'></div><div class='respDiv'><div class='respDivL'>Match<br>(e)</div><div class='respDivR'><font style='color:orange'>No Match<br>(i)</font></div></div></div>","null","FEEDBACK","","","","","","","","","","",""
"html-keyboard-response","135","377183","0.0-7.0-1.20","5ee8f9a309471c0d46a6d247","bdp_wmem","Tue Mar 14 2023 11:00:44 GMT-0700 (Pacific Daylight Time)","657155","Match,No Match","","null","","","","","","<div class='trialBorder'><div class='vertical-center'><img src='img/fixation2_sml.jpg'</img></div></div>","null","FIX","","","","","","","","","","",""
"html-keyboard-response","136","381685","0.0-7.0-2.20","5ee8f9a309471c0d46a6d247","bdp_wmem","Tue Mar 14 2023 11:00:44 GMT-0700 (Pacific Daylight Time)","657155","Match,No Match","","null","","","","","","<div class='trialBorder'><div class='vertical-center'><img style='vertical-align:center; align:center' src='img/fixation2_sml.jpg'></div><div class='arrayDiv3'><div class='tl'><img class='introPic' src='trustrating_stim/white_mw038.bmp'><br><font color='red'><strong>Keep</strong></font></div><div class='tc'><img class='introPic' src='trustrating_stim/white_mw091.bmp'><br><font color='red'><strong>Keep</strong></font></div><div class='tr'><img class='introPic' src='trustrating_stim/white_mw010.bmp'><br><font color='green'><strong>Share</strong></font></div></div></div>","null","ARRAY","3","trustrating_stim/white_mw038.bmp,trustrating_stim/white_mw091.bmp,trustrating_stim/white_mw010.bmp","0,0,1","Match","e","4500","","","","",""
"html-keyboard-response","137","385686","0.0-7.0-3.20","5ee8f9a309471c0d46a6d247","bdp_wmem","Tue Mar 14 2023 11:00:44 GMT-0700 (Pacific Daylight Time)","657155","Match,No Match","","null","","","","","","<div class='trialBorder'><div class='vertical-center'><img src='img/fixation2_sml.jpg'</img></div></div>","null","DELAY","","","","","","","","","","",""
"html-keyboard-response","138","387507","0.0-7.0-4.20","5ee8f9a309471c0d46a6d247","bdp_wmem","Tue Mar 14 2023 11:00:44 GMT-0700 (Pacific Daylight Time)","657155","Match,No Match","","1819","","","","","","<div class='trialBorder'><div class='targDiv'><div class='tc'><img class='introPic' src='trustrating_stim/white_mw010.bmp'><br><font color='green'><strong>Share</strong></font></div></div><div class='respDiv'><div class='respDivL'>Match<br>(e)</div><div class='respDivR'>No Match<br>(i)</div></div></div>","e","TARGET","3","trustrating_stim/white_mw038.bmp,trustrating_stim/white_mw091.bmp,trustrating_stim/white_mw010.bmp","0,0,1","Match","e","4500","trustrating_stim/white_mw010.bmp","green","Share","REAL","1"
"html-keyboard-response","139","388009","0.0-7.0-5.20","5ee8f9a309471c0d46a6d247","bdp_wmem","Tue Mar 14 2023 11:00:44 GMT-0700 (Pacific Daylight Time)","657155","Match,No Match","","null","","","","","","<div class='trialBorder'><div class='vertical-center'><img src='img/correct.jpg'></div><div class='respDiv'><div class='respDivL'><font style='color:orange'>Match<br>(e)</font></div><div class='respDivR'>No Match<br>(i)</div></div></div>","null","FEEDBACK","","","","","","","","","","",""
"html-keyboard-response","140","388510","0.0-7.0-1.21","5ee8f9a309471c0d46a6d247","bdp_wmem","Tue Mar 14 2023 11:00:44 GMT-0700 (Pacific Daylight Time)","657155","Match,No Match","","null","","","","","","<div class='trialBorder'><div class='vertical-center'><img src='img/fixation2_sml.jpg'</img></div></div>","null","FIX","","","","","","","","","","",""
"html-keyboard-response","141","390012","0.0-7.0-2.21","5ee8f9a309471c0d46a6d247","bdp_wmem","Tue Mar 14 2023 11:00:44 GMT-0700 (Pacific Daylight Time)","657155","Match,No Match","","null","","","","","","<div class='trialBorder'><div class='vertical-center'><img style='vertical-align:center; align:center' src='img/fixation2_sml.jpg'></div><div class='arrayDiv1'><div class='tc'><img class='introPic' src='trustrating_stim/white_mw091.bmp'><br><font color='green'><strong>Share</strong></font></div></div></div>","null","ARRAY","1","trustrating_stim/white_mw091.bmp","1","noMatchFace","i","1500","","","","",""
"html-keyboard-response","142","394014","0.0-7.0-3.21","5ee8f9a309471c0d46a6d247","bdp_wmem","Tue Mar 14 2023 11:00:44 GMT-0700 (Pacific Daylight Time)","657155","Match,No Match","","null","","","","","","<div class='trialBorder'><div class='vertical-center'><img src='img/fixation2_sml.jpg'</img></div></div>","null","DELAY","","","","","","","","","","",""
"html-keyboard-response","143","395098","0.0-7.0-4.21","5ee8f9a309471c0d46a6d247","bdp_wmem","Tue Mar 14 2023 11:00:44 GMT-0700 (Pacific Daylight Time)","657155","Match,No Match","","1081","","","","","","<div class='trialBorder'><div class='targDiv'><div class='tc'><img class='introPic' src='trustrating_stim/white_mw070.bmp'><br><font color='green'><strong>Share</strong></font></div></div><div class='respDiv'><div class='respDivL'>Match<br>(e)</div><div class='respDivR'>No Match<br>(i)</div></div></div>","i","TARGET","1","trustrating_stim/white_mw091.bmp","1","noMatchFace","i","1500","trustrating_stim/white_mw070.bmp","green","Share","REAL","1"
"html-keyboard-response","144","395598","0.0-7.0-5.21","5ee8f9a309471c0d46a6d247","bdp_wmem","Tue Mar 14 2023 11:00:44 GMT-0700 (Pacific Daylight Time)","657155","Match,No Match","","null","","","","","","<div class='trialBorder'><div class='vertical-center'><img src='img/correct.jpg'></div><div class='respDiv'><div class='respDivL'>Match<br>(e)</div><div class='respDivR'><font style='color:orange'>No Match<br>(i)</font></div></div></div>","null","FEEDBACK","","","","","","","","","","",""
"html-keyboard-response","145","396100","0.0-7.0-1.22","5ee8f9a309471c0d46a6d247","bdp_wmem","Tue Mar 14 2023 11:00:44 GMT-0700 (Pacific Daylight Time)","657155","Match,No Match","","null","","","","","","<div class='trialBorder'><div class='vertical-center'><img src='img/fixation2_sml.jpg'</img></div></div>","null","FIX","","","","","","","","","","",""
"html-keyboard-response","146","400602","0.0-7.0-2.22","5ee8f9a309471c0d46a6d247","bdp_wmem","Tue Mar 14 2023 11:00:44 GMT-0700 (Pacific Daylight Time)","657155","Match,No Match","","null","","","","","","<div class='trialBorder'><div class='vertical-center'><img style='vertical-align:center; align:center' src='img/fixation2_sml.jpg'></div><div class='arrayDiv3'><div class='tl'><img class='introPic' src='trustrating_stim/white_mw070.bmp'><br><font color='red'><strong>Keep</strong></font></div><div class='tc'><img class='introPic' src='trustrating_stim/white_mw078.bmp'><br><font color='green'><strong>Share</strong></font></div><div class='tr'><img class='introPic' src='trustrating_stim/white_mw012.bmp'><br><font color='red'><strong>Keep</strong></font></div></div></div>","null","ARRAY","3","trustrating_stim/white_mw070.bmp,trustrating_stim/white_mw078.bmp,trustrating_stim/white_mw012.bmp","0,1,0","noMatchOutcome","i","4500","","","","",""
"html-keyboard-response","147","404604","0.0-7.0-3.22","5ee8f9a309471c0d46a6d247","bdp_wmem","Tue Mar 14 2023 11:00:44 GMT-0700 (Pacific Daylight Time)","657155","Match,No Match","","null","","","","","","<div class='trialBorder'><div class='vertical-center'><img src='img/fixation2_sml.jpg'</img></div></div>","null","DELAY","","","","","","","","","","",""
"html-keyboard-response","148","406587","0.0-7.0-4.22","5ee8f9a309471c0d46a6d247","bdp_wmem","Tue Mar 14 2023 11:00:44 GMT-0700 (Pacific Daylight Time)","657155","Match,No Match","","1982","","","","","","<div class='trialBorder'><div class='targDiv'><div class='tc'><img class='introPic' src='trustrating_stim/white_mw012.bmp'><br><font color='green'><strong>Share</strong></font></div></div><div class='respDiv'><div class='respDivL'>Match<br>(e)</div><div class='respDivR'>No Match<br>(i)</div></div></div>","e","TARGET","3","trustrating_stim/white_mw070.bmp,trustrating_stim/white_mw078.bmp,trustrating_stim/white_mw012.bmp","0,1,0","noMatchOutcome","i","4500","trustrating_stim/white_mw012.bmp","green","Share","REAL","0"
"html-keyboard-response","149","407088","0.0-7.0-5.22","5ee8f9a309471c0d46a6d247","bdp_wmem","Tue Mar 14 2023 11:00:44 GMT-0700 (Pacific Daylight Time)","657155","Match,No Match","","null","","","","","","<div class='trialBorder'><div class='vertical-center'><img src='img/error.jpg'></div><div class='respDiv'><div class='respDivL'><font style='color:orange'>Match<br>(e)</font></div><div class='respDivR'>No Match<br>(i)</div></div></div>","null","FEEDBACK","","","","","","","","","","",""
"html-keyboard-response","150","407591","0.0-7.0-1.23","5ee8f9a309471c0d46a6d247","bdp_wmem","Tue Mar 14 2023 11:00:44 GMT-0700 (Pacific Daylight Time)","657155","Match,No Match","","null","","","","","","<div class='trialBorder'><div class='vertical-center'><img src='img/fixation2_sml.jpg'</img></div></div>","null","FIX","","","","","","","","","","",""
"html-keyboard-response","151","409093","0.0-7.0-2.23","5ee8f9a309471c0d46a6d247","bdp_wmem","Tue Mar 14 2023 11:00:44 GMT-0700 (Pacific Daylight Time)","657155","Match,No Match","","null","","","","","","<div class='trialBorder'><div class='vertical-center'><img style='vertical-align:center; align:center' src='img/fixation2_sml.jpg'></div><div class='arrayDiv1'><div class='tc'><img class='introPic' src='trustrating_stim/white_mw092.bmp'><br><font color='green'><strong>Share</strong></font></div></div></div>","null","ARRAY","1","trustrating_stim/white_mw092.bmp","1","Match","e","1500","","","","",""
"html-keyboard-response","152","413096","0.0-7.0-3.23","5ee8f9a309471c0d46a6d247","bdp_wmem","Tue Mar 14 2023 11:00:44 GMT-0700 (Pacific Daylight Time)","657155","Match,No Match","","null","","","","","","<div class='trialBorder'><div class='vertical-center'><img src='img/fixation2_sml.jpg'</img></div></div>","null","DELAY","","","","","","","","","","",""
"html-keyboard-response","153","414151","0.0-7.0-4.23","5ee8f9a309471c0d46a6d247","bdp_wmem","Tue Mar 14 2023 11:00:44 GMT-0700 (Pacific Daylight Time)","657155","Match,No Match","","1053","","","","","","<div class='trialBorder'><div class='targDiv'><div class='tc'><img class='introPic' src='trustrating_stim/white_mw092.bmp'><br><font color='green'><strong>Share</strong></font></div></div><div class='respDiv'><div class='respDivL'>Match<br>(e)</div><div class='respDivR'>No Match<br>(i)</div></div></div>","e","TARGET","1","trustrating_stim/white_mw092.bmp","1","Match","e","1500","trustrating_stim/white_mw092.bmp","green","Share","REAL","1"
"html-keyboard-response","154","414652","0.0-7.0-5.23","5ee8f9a309471c0d46a6d247","bdp_wmem","Tue Mar 14 2023 11:00:44 GMT-0700 (Pacific Daylight Time)","657155","Match,No Match","","null","","","","","","<div class='trialBorder'><div class='vertical-center'><img src='img/correct.jpg'></div><div class='respDiv'><div class='respDivL'><font style='color:orange'>Match<br>(e)</font></div><div class='respDivR'>No Match<br>(i)</div></div></div>","null","FEEDBACK","","","","","","","","","","",""
"html-keyboard-response","155","415154","0.0-7.0-1.24","5ee8f9a309471c0d46a6d247","bdp_wmem","Tue Mar 14 2023 11:00:44 GMT-0700 (Pacific Daylight Time)","657155","Match,No Match","","null","","","","","","<div class='trialBorder'><div class='vertical-center'><img src='img/fixation2_sml.jpg'</img></div></div>","null","FIX","","","","","","","","","","",""
"html-keyboard-response","156","418157","0.0-7.0-2.24","5ee8f9a309471c0d46a6d247","bdp_wmem","Tue Mar 14 2023 11:00:44 GMT-0700 (Pacific Daylight Time)","657155","Match,No Match","","null","","","","","","<div class='trialBorder'><div class='vertical-center'><img style='vertical-align:center; align:center' src='img/fixation2_sml.jpg'></div><div class='arrayDiv2'><div class='tl'><img class='introPic' src='trustrating_stim/white_mw040.bmp'><br><font color='green'><strong>Share</strong></font></div><div class='tr'><img class='introPic' src='trustrating_stim/white_mw038.bmp'><br><font color='red'><strong>Keep</strong></font></div></div></div>","null","ARRAY","2","trustrating_stim/white_mw040.bmp,trustrating_stim/white_mw038.bmp","1,0","Match","e","3000","","","","",""
"html-keyboard-response","157","422158","0.0-7.0-3.24","5ee8f9a309471c0d46a6d247","bdp_wmem","Tue Mar 14 2023 11:00:44 GMT-0700 (Pacific Daylight Time)","657155","Match,No Match","","null","","","","","","<div class='trialBorder'><div class='vertical-center'><img src='img/fixation2_sml.jpg'</img></div></div>","null","DELAY","","","","","","","","","","",""
"html-keyboard-response","158","423808","0.0-7.0-4.24","5ee8f9a309471c0d46a6d247","bdp_wmem","Tue Mar 14 2023 11:00:44 GMT-0700 (Pacific Daylight Time)","657155","Match,No Match","","1648","","","","","","<div class='trialBorder'><div class='targDiv'><div class='tc'><img class='introPic' src='trustrating_stim/white_mw038.bmp'><br><font color='red'><strong>Keep</strong></font></div></div><div class='respDiv'><div class='respDivL'>Match<br>(e)</div><div class='respDivR'>No Match<br>(i)</div></div></div>","e","TARGET","2","trustrating_stim/white_mw040.bmp,trustrating_stim/white_mw038.bmp","1,0","Match","e","3000","trustrating_stim/white_mw038.bmp","red","Keep","REAL","1"
"html-keyboard-response","159","424309","0.0-7.0-5.24","5ee8f9a309471c0d46a6d247","bdp_wmem","Tue Mar 14 2023 11:00:44 GMT-0700 (Pacific Daylight Time)","657155","Match,No Match","","null","","","","","","<div class='trialBorder'><div class='vertical-center'><img src='img/correct.jpg'></div><div class='respDiv'><div class='respDivL'><font style='color:orange'>Match<br>(e)</font></div><div class='respDivR'>No Match<br>(i)</div></div></div>","null","FEEDBACK","","","","","","","","","","",""
"html-keyboard-response","160","424813","0.0-7.0-1.25","5ee8f9a309471c0d46a6d247","bdp_wmem","Tue Mar 14 2023 11:00:44 GMT-0700 (Pacific Daylight Time)","657155","Match,No Match","","null","","","","","","<div class='trialBorder'><div class='vertical-center'><img src='img/fixation2_sml.jpg'</img></div></div>","null","FIX","","","","","","","","","","",""
"html-keyboard-response","161","426314","0.0-7.0-2.25","5ee8f9a309471c0d46a6d247","bdp_wmem","Tue Mar 14 2023 11:00:44 GMT-0700 (Pacific Daylight Time)","657155","Match,No Match","","null","","","","","","<div class='trialBorder'><div class='vertical-center'><img style='vertical-align:center; align:center' src='img/fixation2_sml.jpg'></div><div class='arrayDiv1'><div class='tc'><img class='introPic' src='trustrating_stim/white_mw010.bmp'><br><font color='red'><strong>Keep</strong></font></div></div></div>","null","ARRAY","1","trustrating_stim/white_mw010.bmp","0","noMatchFace","i","1500","","","","",""
"html-keyboard-response","162","430316","0.0-7.0-3.25","5ee8f9a309471c0d46a6d247","bdp_wmem","Tue Mar 14 2023 11:00:44 GMT-0700 (Pacific Daylight Time)","657155","Match,No Match","","null","","","","","","<div class='trialBorder'><div class='vertical-center'><img src='img/fixation2_sml.jpg'</img></div></div>","null","DELAY","","","","","","","","","","",""
"html-keyboard-response","163","431688","0.0-7.0-4.25","5ee8f9a309471c0d46a6d247","bdp_wmem","Tue Mar 14 2023 11:00:44 GMT-0700 (Pacific Daylight Time)","657155","Match,No Match","","1370","","","","","","<div class='trialBorder'><div class='targDiv'><div class='tc'><img class='introPic' src='trustrating_stim/white_mw092.bmp'><br><font color='red'><strong>Keep</strong></font></div></div><div class='respDiv'><div class='respDivL'>Match<br>(e)</div><div class='respDivR'>No Match<br>(i)</div></div></div>","i","TARGET","1","trustrating_stim/white_mw010.bmp","0","noMatchFace","i","1500","trustrating_stim/white_mw092.bmp","red","Keep","REAL","1"
"html-keyboard-response","164","432189","0.0-7.0-5.25","5ee8f9a309471c0d46a6d247","bdp_wmem","Tue Mar 14 2023 11:00:44 GMT-0700 (Pacific Daylight Time)","657155","Match,No Match","","null","","","","","","<div class='trialBorder'><div class='vertical-center'><img src='img/correct.jpg'></div><div class='respDiv'><div class='respDivL'>Match<br>(e)</div><div class='respDivR'><font style='color:orange'>No Match<br>(i)</font></div></div></div>","null","FEEDBACK","","","","","","","","","","",""
"html-keyboard-response","165","432691","0.0-7.0-1.26","5ee8f9a309471c0d46a6d247","bdp_wmem","Tue Mar 14 2023 11:00:44 GMT-0700 (Pacific Daylight Time)","657155","Match,No Match","","null","","","","","","<div class='trialBorder'><div class='vertical-center'><img src='img/fixation2_sml.jpg'</img></div></div>","null","FIX","","","","","","","","","","",""
"html-keyboard-response","166","435694","0.0-7.0-2.26","5ee8f9a309471c0d46a6d247","bdp_wmem","Tue Mar 14 2023 11:00:44 GMT-0700 (Pacific Daylight Time)","657155","Match,No Match","","null","","","","","","<div class='trialBorder'><div class='vertical-center'><img style='vertical-align:center; align:center' src='img/fixation2_sml.jpg'></div><div class='arrayDiv2'><div class='tl'><img class='introPic' src='trustrating_stim/white_mw042.bmp'><br><font color='red'><strong>Keep</strong></font></div><div class='tr'><img class='introPic' src='trustrating_stim/white_mw078.bmp'><br><font color='green'><strong>Share</strong></font></div></div></div>","null","ARRAY","2","trustrating_stim/white_mw042.bmp,trustrating_stim/white_mw078.bmp","0,1","noMatchFace","i","3000","","","","",""
"html-keyboard-response","167","439696","0.0-7.0-3.26","5ee8f9a309471c0d46a6d247","bdp_wmem","Tue Mar 14 2023 11:00:44 GMT-0700 (Pacific Daylight Time)","657155","Match,No Match","","null","","","","","","<div class='trialBorder'><div class='vertical-center'><img src='img/fixation2_sml.jpg'</img></div></div>","null","DELAY","","","","","","","","","","",""
"html-keyboard-response","168","441031","0.0-7.0-4.26","5ee8f9a309471c0d46a6d247","bdp_wmem","Tue Mar 14 2023 11:00:44 GMT-0700 (Pacific Daylight Time)","657155","Match,No Match","","1333","","","","","","<div class='trialBorder'><div class='targDiv'><div class='tc'><img class='introPic' src='trustrating_stim/white_mw040.bmp'><br><font color='red'><strong>Keep</strong></font></div></div><div class='respDiv'><div class='respDivL'>Match<br>(e)</div><div class='respDivR'>No Match<br>(i)</div></div></div>","i","TARGET","2","trustrating_stim/white_mw042.bmp,trustrating_stim/white_mw078.bmp","0,1","noMatchFace","i","3000","trustrating_stim/white_mw040.bmp","red","Keep","REAL","1"
"html-keyboard-response","169","441533","0.0-7.0-5.26","5ee8f9a309471c0d46a6d247","bdp_wmem","Tue Mar 14 2023 11:00:44 GMT-0700 (Pacific Daylight Time)","657155","Match,No Match","","null","","","","","","<div class='trialBorder'><div class='vertical-center'><img src='img/correct.jpg'></div><div class='respDiv'><div class='respDivL'>Match<br>(e)</div><div class='respDivR'><font style='color:orange'>No Match<br>(i)</font></div></div></div>","null","FEEDBACK","","","","","","","","","","",""
"html-keyboard-response","170","442034","0.0-7.0-1.27","5ee8f9a309471c0d46a6d247","bdp_wmem","Tue Mar 14 2023 11:00:44 GMT-0700 (Pacific Daylight Time)","657155","Match,No Match","","null","","","","","","<div class='trialBorder'><div class='vertical-center'><img src='img/fixation2_sml.jpg'</img></div></div>","null","FIX","","","","","","","","","","",""
"html-keyboard-response","171","446537","0.0-7.0-2.27","5ee8f9a309471c0d46a6d247","bdp_wmem","Tue Mar 14 2023 11:00:44 GMT-0700 (Pacific Daylight Time)","657155","Match,No Match","","null","","","","","","<div class='trialBorder'><div class='vertical-center'><img style='vertical-align:center; align:center' src='img/fixation2_sml.jpg'></div><div class='arrayDiv3'><div class='tl'><img class='introPic' src='trustrating_stim/white_mw091.bmp'><br><font color='red'><strong>Keep</strong></font></div><div class='tc'><img class='introPic' src='trustrating_stim/white_mw078.bmp'><br><font color='green'><strong>Share</strong></font></div><div class='tr'><img class='introPic' src='trustrating_stim/white_mw038.bmp'><br><font color='red'><strong>Keep</strong></font></div></div></div>","null","ARRAY","3","trustrating_stim/white_mw091.bmp,trustrating_stim/white_mw078.bmp,trustrating_stim/white_mw038.bmp","0,1,0","noMatchFace","i","4500","","","","",""
"html-keyboard-response","172","450539","0.0-7.0-3.27","5ee8f9a309471c0d46a6d247","bdp_wmem","Tue Mar 14 2023 11:00:44 GMT-0700 (Pacific Daylight Time)","657155","Match,No Match","","null","","","","","","<div class='trialBorder'><div class='vertical-center'><img src='img/fixation2_sml.jpg'</img></div></div>","null","DELAY","","","","","","","","","","",""
"html-keyboard-response","173","452614","0.0-7.0-4.27","5ee8f9a309471c0d46a6d247","bdp_wmem","Tue Mar 14 2023 11:00:44 GMT-0700 (Pacific Daylight Time)","657155","Match,No Match","","2074","","","","","","<div class='trialBorder'><div class='targDiv'><div class='tc'><img class='introPic' src='trustrating_stim/white_mw070.bmp'><br><font color='red'><strong>Keep</strong></font></div></div><div class='respDiv'><div class='respDivL'>Match<br>(e)</div><div class='respDivR'>No Match<br>(i)</div></div></div>","i","TARGET","3","trustrating_stim/white_mw091.bmp,trustrating_stim/white_mw078.bmp,trustrating_stim/white_mw038.bmp","0,1,0","noMatchFace","i","4500","trustrating_stim/white_mw070.bmp","red","Keep","REAL","1"
"html-keyboard-response","174","453115","0.0-7.0-5.27","5ee8f9a309471c0d46a6d247","bdp_wmem","Tue Mar 14 2023 11:00:44 GMT-0700 (Pacific Daylight Time)","657155","Match,No Match","","null","","","","","","<div class='trialBorder'><div class='vertical-center'><img src='img/correct.jpg'></div><div class='respDiv'><div class='respDivL'>Match<br>(e)</div><div class='respDivR'><font style='color:orange'>No Match<br>(i)</font></div></div></div>","null","FEEDBACK","","","","","","","","","","",""
"html-keyboard-response","175","453617","0.0-7.0-1.28","5ee8f9a309471c0d46a6d247","bdp_wmem","Tue Mar 14 2023 11:00:44 GMT-0700 (Pacific Daylight Time)","657155","Match,No Match","","null","","","","","","<div class='trialBorder'><div class='vertical-center'><img src='img/fixation2_sml.jpg'</img></div></div>","null","FIX","","","","","","","","","","",""
"html-keyboard-response","176","455119","0.0-7.0-2.28","5ee8f9a309471c0d46a6d247","bdp_wmem","Tue Mar 14 2023 11:00:44 GMT-0700 (Pacific Daylight Time)","657155","Match,No Match","","null","","","","","","<div class='trialBorder'><div class='vertical-center'><img style='vertical-align:center; align:center' src='img/fixation2_sml.jpg'></div><div class='arrayDiv1'><div class='tc'><img class='introPic' src='trustrating_stim/white_mw042.bmp'><br><font color='green'><strong>Share</strong></font></div></div></div>","null","ARRAY","1","trustrating_stim/white_mw042.bmp","1","Match","e","1500","","","","",""
"html-keyboard-response","177","459122","0.0-7.0-3.28","5ee8f9a309471c0d46a6d247","bdp_wmem","Tue Mar 14 2023 11:00:44 GMT-0700 (Pacific Daylight Time)","657155","Match,No Match","","null","","","","","","<div class='trialBorder'><div class='vertical-center'><img src='img/fixation2_sml.jpg'</img></div></div>","null","DELAY","","","","","","","","","","",""
"html-keyboard-response","178","460283","0.0-7.0-4.28","5ee8f9a309471c0d46a6d247","bdp_wmem","Tue Mar 14 2023 11:00:44 GMT-0700 (Pacific Daylight Time)","657155","Match,No Match","","1160","","","","","","<div class='trialBorder'><div class='targDiv'><div class='tc'><img class='introPic' src='trustrating_stim/white_mw042.bmp'><br><font color='green'><strong>Share</strong></font></div></div><div class='respDiv'><div class='respDivL'>Match<br>(e)</div><div class='respDivR'>No Match<br>(i)</div></div></div>","e","TARGET","1","trustrating_stim/white_mw042.bmp","1","Match","e","1500","trustrating_stim/white_mw042.bmp","green","Share","REAL","1"
"html-keyboard-response","179","460786","0.0-7.0-5.28","5ee8f9a309471c0d46a6d247","bdp_wmem","Tue Mar 14 2023 11:00:44 GMT-0700 (Pacific Daylight Time)","657155","Match,No Match","","null","","","","","","<div class='trialBorder'><div class='vertical-center'><img src='img/correct.jpg'></div><div class='respDiv'><div class='respDivL'><font style='color:orange'>Match<br>(e)</font></div><div class='respDivR'>No Match<br>(i)</div></div></div>","null","FEEDBACK","","","","","","","","","","",""
"html-keyboard-response","180","461288","0.0-7.0-1.29","5ee8f9a309471c0d46a6d247","bdp_wmem","Tue Mar 14 2023 11:00:44 GMT-0700 (Pacific Daylight Time)","657155","Match,No Match","","null","","","","","","<div class='trialBorder'><div class='vertical-center'><img src='img/fixation2_sml.jpg'</img></div></div>","null","FIX","","","","","","","","","","",""
"html-keyboard-response","181","465790","0.0-7.0-2.29","5ee8f9a309471c0d46a6d247","bdp_wmem","Tue Mar 14 2023 11:00:44 GMT-0700 (Pacific Daylight Time)","657155","Match,No Match","","null","","","","","","<div class='trialBorder'><div class='vertical-center'><img style='vertical-align:center; align:center' src='img/fixation2_sml.jpg'></div><div class='arrayDiv3'><div class='tl'><img class='introPic' src='trustrating_stim/white_mw013.bmp'><br><font color='green'><strong>Share</strong></font></div><div class='tc'><img class='introPic' src='trustrating_stim/white_mw040.bmp'><br><font color='red'><strong>Keep</strong></font></div><div class='tr'><img class='introPic' src='trustrating_stim/white_mw042.bmp'><br><font color='green'><strong>Share</strong></font></div></div></div>","null","ARRAY","3","trustrating_stim/white_mw013.bmp,trustrating_stim/white_mw040.bmp,trustrating_stim/white_mw042.bmp","1,0,1","noMatchOutcome","i","4500","","","","",""
"html-keyboard-response","182","469791","0.0-7.0-3.29","5ee8f9a309471c0d46a6d247","bdp_wmem","Tue Mar 14 2023 11:00:44 GMT-0700 (Pacific Daylight Time)","657155","Match,No Match","","null","","","","","","<div class='trialBorder'><div class='vertical-center'><img src='img/fixation2_sml.jpg'</img></div></div>","null","DELAY","","","","","","","","","","",""
"html-keyboard-response","183","472279","0.0-7.0-4.29","5ee8f9a309471c0d46a6d247","bdp_wmem","Tue Mar 14 2023 11:00:44 GMT-0700 (Pacific Daylight Time)","657155","Match,No Match","","2486","","","","","","<div class='trialBorder'><div class='targDiv'><div class='tc'><img class='introPic' src='trustrating_stim/white_mw013.bmp'><br><font color='red'><strong>Keep</strong></font></div></div><div class='respDiv'><div class='respDivL'>Match<br>(e)</div><div class='respDivR'>No Match<br>(i)</div></div></div>","e","TARGET","3","trustrating_stim/white_mw013.bmp,trustrating_stim/white_mw040.bmp,trustrating_stim/white_mw042.bmp","1,0,1","noMatchOutcome","i","4500","trustrating_stim/white_mw013.bmp","red","Keep","REAL","0"
"html-keyboard-response","184","472781","0.0-7.0-5.29","5ee8f9a309471c0d46a6d247","bdp_wmem","Tue Mar 14 2023 11:00:44 GMT-0700 (Pacific Daylight Time)","657155","Match,No Match","","null","","","","","","<div class='trialBorder'><div class='vertical-center'><img src='img/error.jpg'></div><div class='respDiv'><div class='respDivL'><font style='color:orange'>Match<br>(e)</font></div><div class='respDivR'>No Match<br>(i)</div></div></div>","null","FEEDBACK","","","","","","","","","","",""
"html-keyboard-response","185","473282","0.0-7.0-1.30","5ee8f9a309471c0d46a6d247","bdp_wmem","Tue Mar 14 2023 11:00:44 GMT-0700 (Pacific Daylight Time)","657155","Match,No Match","","null","","","","","","<div class='trialBorder'><div class='vertical-center'><img src='img/fixation2_sml.jpg'</img></div></div>","null","FIX","","","","","","","","","","",""
"html-keyboard-response","186","477784","0.0-7.0-2.30","5ee8f9a309471c0d46a6d247","bdp_wmem","Tue Mar 14 2023 11:00:44 GMT-0700 (Pacific Daylight Time)","657155","Match,No Match","","null","","","","","","<div class='trialBorder'><div class='vertical-center'><img style='vertical-align:center; align:center' src='img/fixation2_sml.jpg'></div><div class='arrayDiv3'><div class='tl'><img class='introPic' src='trustrating_stim/white_mw085.bmp'><br><font color='green'><strong>Share</strong></font></div><div class='tc'><img class='introPic' src='trustrating_stim/white_mw078.bmp'><br><font color='green'><strong>Share</strong></font></div><div class='tr'><img class='introPic' src='trustrating_stim/white_mw042.bmp'><br><font color='red'><strong>Keep</strong></font></div></div></div>","null","ARRAY","3","trustrating_stim/white_mw085.bmp,trustrating_stim/white_mw078.bmp,trustrating_stim/white_mw042.bmp","1,1,0","Match","e","4500","","","","",""
"html-keyboard-response","187","481787","0.0-7.0-3.30","5ee8f9a309471c0d46a6d247","bdp_wmem","Tue Mar 14 2023 11:00:44 GMT-0700 (Pacific Daylight Time)","657155","Match,No Match","","null","","","","","","<div class='trialBorder'><div class='vertical-center'><img src='img/fixation2_sml.jpg'</img></div></div>","null","DELAY","","","","","","","","","","",""
"html-keyboard-response","188","483620","0.0-7.0-4.30","5ee8f9a309471c0d46a6d247","bdp_wmem","Tue Mar 14 2023 11:00:44 GMT-0700 (Pacific Daylight Time)","657155","Match,No Match","","1832","","","","","","<div class='trialBorder'><div class='targDiv'><div class='tc'><img class='introPic' src='trustrating_stim/white_mw085.bmp'><br><font color='green'><strong>Share</strong></font></div></div><div class='respDiv'><div class='respDivL'>Match<br>(e)</div><div class='respDivR'>No Match<br>(i)</div></div></div>","e","TARGET","3","trustrating_stim/white_mw085.bmp,trustrating_stim/white_mw078.bmp,trustrating_stim/white_mw042.bmp","1,1,0","Match","e","4500","trustrating_stim/white_mw085.bmp","green","Share","REAL","1"
"html-keyboard-response","189","484122","0.0-7.0-5.30","5ee8f9a309471c0d46a6d247","bdp_wmem","Tue Mar 14 2023 11:00:44 GMT-0700 (Pacific Daylight Time)","657155","Match,No Match","","null","","","","","","<div class='trialBorder'><div class='vertical-center'><img src='img/correct.jpg'></div><div class='respDiv'><div class='respDivL'><font style='color:orange'>Match<br>(e)</font></div><div class='respDivR'>No Match<br>(i)</div></div></div>","null","FEEDBACK","","","","","","","","","","",""
