"trial_type","trial_index","time_elapsed","internal_node_id","subject_id","task","startTime","totalTime","labels","view_history","rt","event","trial","time","trialtype","success","stimulus","key_press","stimType","arraySize","arrayFaces","arrayOutcomes","matchType","corrResp","arrayDur","targFace","targCol","targOutcome","trialType","corr"
"pavlovia","0","6","0.0-0.0","60aeef267e494909058ef34e","bdp_wmem","Mon Mar 13 2023 11:21:48 GMT-0700 (Pacific Daylight Time)","592093","Match,No Match","","","","","","","","","","","","","","","","","","","","",""
"instructions","1","4088","0.0-1.0","60aeef267e494909058ef34e","bdp_wmem","Mon Mar 13 2023 11:21:48 GMT-0700 (Pacific Daylight Time)","592093","Match,No Match","[{""page_index"":0,""viewing_time"":4081}]","4081","","","","","","","","","","","","","","","","","","",""
"","","","","60aeef267e494909058ef34e","bdp_wmem","Mon Mar 13 2023 11:21:48 GMT-0700 (Pacific Daylight Time)","592093","Match,No Match","","","fullscreenenter","2","6767","fullscreenenter","","","","","","","","","","","","","","",""
"fullscreen","2","7767","0.0-2.0","60aeef267e494909058ef34e","bdp_wmem","Mon Mar 13 2023 11:21:48 GMT-0700 (Pacific Daylight Time)","592093","Match,No Match","","","","","","","true","","","","","","","","","","","","","",""
"instructions","3","71257","0.0-4.0","60aeef267e494909058ef34e","bdp_wmem","Mon Mar 13 2023 11:21:48 GMT-0700 (Pacific Daylight Time)","592093","Match,No Match","[{""page_index"":0,""viewing_time"":14412},{""page_index"":1,""viewing_time"":22941},{""page_index"":2,""viewing_time"":15134},{""page_index"":3,""viewing_time"":3497},{""page_index"":4,""viewing_time"":7504}]","63488","","","","","","","","","","","","","","","","","","",""
"html-keyboard-response","4","71766","0.0-5.0-1.0","60aeef267e494909058ef34e","bdp_wmem","Mon Mar 13 2023 11:21:48 GMT-0700 (Pacific Daylight Time)","592093","Match,No Match","","null","","","","","","<div class='trialBorder'><div class='vertical-center'><img src='img/fixation2_sml.jpg'</img></div></div>","null","FIX","","","","","","","","","","",""
"html-keyboard-response","5","73269","0.0-5.0-2.0","60aeef267e494909058ef34e","bdp_wmem","Mon Mar 13 2023 11:21:48 GMT-0700 (Pacific Daylight Time)","592093","Match,No Match","","null","","","","","","<div class='trialBorder'><div class='vertical-center'><img style='vertical-align:center; align:center' src='img/fixation2_sml.jpg'></div><div class='arrayDiv1'><div class='tc'><img class='introPic' src='trustrating_stim/white_mw003.bmp'><br><font color='green'><strong>Share</strong></font></div></div></div>","null","ARRAY","1","trustrating_stim/white_mw003.bmp","1","noMatchFace","i","1500","","","","",""
"html-keyboard-response","6","77278","0.0-5.0-3.0","60aeef267e494909058ef34e","bdp_wmem","Mon Mar 13 2023 11:21:48 GMT-0700 (Pacific Daylight Time)","592093","Match,No Match","","null","","","","","","<div class='trialBorder'><div class='vertical-center'><img src='img/fixation2_sml.jpg'</img></div></div>","null","DELAY","","","","","","","","","","",""
"html-keyboard-response","7","78718","0.0-5.0-4.0","60aeef267e494909058ef34e","bdp_wmem","Mon Mar 13 2023 11:21:48 GMT-0700 (Pacific Daylight Time)","592093","Match,No Match","","1438","","","","","","<div class='trialBorder'><div class='targDiv'><div class='tc'><img class='introPic' src='trustrating_stim/white_mw078.bmp'><br><font color='green'><strong>Share</strong></font></div></div><div class='respDiv'><div class='respDivL'>Match<br>(e)</div><div class='respDivR'>No Match<br>(i)</div></div></div>","i","TARGET","1","trustrating_stim/white_mw003.bmp","1","noMatchFace","i","1500","trustrating_stim/white_mw078.bmp","green","Share","PRACTICE","1"
"html-keyboard-response","8","79223","0.0-5.0-5.0","60aeef267e494909058ef34e","bdp_wmem","Mon Mar 13 2023 11:21:48 GMT-0700 (Pacific Daylight Time)","592093","Match,No Match","","null","","","","","","<div class='trialBorder'><div class='vertical-center'><img src='img/correct.jpg'></div><div class='respDiv'><div class='respDivL'>Match<br>(e)</div><div class='respDivR'><font style='color:orange'>No Match<br>(i)</font></div></div></div>","null","FEEDBACK","","","","","","","","","","",""
"html-keyboard-response","9","79734","0.0-5.0-1.1","60aeef267e494909058ef34e","bdp_wmem","Mon Mar 13 2023 11:21:48 GMT-0700 (Pacific Daylight Time)","592093","Match,No Match","","null","","","","","","<div class='trialBorder'><div class='vertical-center'><img src='img/fixation2_sml.jpg'</img></div></div>","null","FIX","","","","","","","","","","",""
"html-keyboard-response","10","81238","0.0-5.0-2.1","60aeef267e494909058ef34e","bdp_wmem","Mon Mar 13 2023 11:21:48 GMT-0700 (Pacific Daylight Time)","592093","Match,No Match","","null","","","","","","<div class='trialBorder'><div class='vertical-center'><img style='vertical-align:center; align:center' src='img/fixation2_sml.jpg'></div><div class='arrayDiv1'><div class='tc'><img class='introPic' src='trustrating_stim/white_mw003.bmp'><br><font color='green'><strong>Share</strong></font></div></div></div>","null","ARRAY","1","trustrating_stim/white_mw003.bmp","1","Match","e","1500","","","","",""
"html-keyboard-response","11","85245","0.0-5.0-3.1","60aeef267e494909058ef34e","bdp_wmem","Mon Mar 13 2023 11:21:48 GMT-0700 (Pacific Daylight Time)","592093","Match,No Match","","null","","","","","","<div class='trialBorder'><div class='vertical-center'><img src='img/fixation2_sml.jpg'</img></div></div>","null","DELAY","","","","","","","","","","",""
"html-keyboard-response","12","85852","0.0-5.0-4.1","60aeef267e494909058ef34e","bdp_wmem","Mon Mar 13 2023 11:21:48 GMT-0700 (Pacific Daylight Time)","592093","Match,No Match","","606","","","","","","<div class='trialBorder'><div class='targDiv'><div class='tc'><img class='introPic' src='trustrating_stim/white_mw003.bmp'><br><font color='green'><strong>Share</strong></font></div></div><div class='respDiv'><div class='respDivL'>Match<br>(e)</div><div class='respDivR'>No Match<br>(i)</div></div></div>","e","TARGET","1","trustrating_stim/white_mw003.bmp","1","Match","e","1500","trustrating_stim/white_mw003.bmp","green","Share","PRACTICE","1"
"html-keyboard-response","13","86357","0.0-5.0-5.1","60aeef267e494909058ef34e","bdp_wmem","Mon Mar 13 2023 11:21:48 GMT-0700 (Pacific Daylight Time)","592093","Match,No Match","","null","","","","","","<div class='trialBorder'><div class='vertical-center'><img src='img/correct.jpg'></div><div class='respDiv'><div class='respDivL'><font style='color:orange'>Match<br>(e)</font></div><div class='respDivR'>No Match<br>(i)</div></div></div>","null","FEEDBACK","","","","","","","","","","",""
"html-keyboard-response","14","86863","0.0-5.0-1.2","60aeef267e494909058ef34e","bdp_wmem","Mon Mar 13 2023 11:21:48 GMT-0700 (Pacific Daylight Time)","592093","Match,No Match","","null","","","","","","<div class='trialBorder'><div class='vertical-center'><img src='img/fixation2_sml.jpg'</img></div></div>","null","FIX","","","","","","","","","","",""
"html-keyboard-response","15","89870","0.0-5.0-2.2","60aeef267e494909058ef34e","bdp_wmem","Mon Mar 13 2023 11:21:48 GMT-0700 (Pacific Daylight Time)","592093","Match,No Match","","null","","","","","","<div class='trialBorder'><div class='vertical-center'><img style='vertical-align:center; align:center' src='img/fixation2_sml.jpg'></div><div class='arrayDiv2'><div class='tl'><img class='introPic' src='trustrating_stim/white_mw012.bmp'><br><font color='red'><strong>Keep</strong></font></div><div class='tr'><img class='introPic' src='trustrating_stim/white_mw091.bmp'><br><font color='green'><strong>Share</strong></font></div></div></div>","null","ARRAY","2","trustrating_stim/white_mw012.bmp,trustrating_stim/white_mw091.bmp","0,1","Match","e","3000","","","","",""
"html-keyboard-response","16","93877","0.0-5.0-3.2","60aeef267e494909058ef34e","bdp_wmem","Mon Mar 13 2023 11:21:48 GMT-0700 (Pacific Daylight Time)","592093","Match,No Match","","null","","","","","","<div class='trialBorder'><div class='vertical-center'><img src='img/fixation2_sml.jpg'</img></div></div>","null","DELAY","","","","","","","","","","",""
"html-keyboard-response","17","95092","0.0-5.0-4.2","60aeef267e494909058ef34e","bdp_wmem","Mon Mar 13 2023 11:21:48 GMT-0700 (Pacific Daylight Time)","592093","Match,No Match","","1214","","","","","","<div class='trialBorder'><div class='targDiv'><div class='tc'><img class='introPic' src='trustrating_stim/white_mw012.bmp'><br><font color='red'><strong>Keep</strong></font></div></div><div class='respDiv'><div class='respDivL'>Match<br>(e)</div><div class='respDivR'>No Match<br>(i)</div></div></div>","e","TARGET","2","trustrating_stim/white_mw012.bmp,trustrating_stim/white_mw091.bmp","0,1","Match","e","3000","trustrating_stim/white_mw012.bmp","red","Keep","PRACTICE","1"
"html-keyboard-response","18","95599","0.0-5.0-5.2","60aeef267e494909058ef34e","bdp_wmem","Mon Mar 13 2023 11:21:48 GMT-0700 (Pacific Daylight Time)","592093","Match,No Match","","null","","","","","","<div class='trialBorder'><div class='vertical-center'><img src='img/correct.jpg'></div><div class='respDiv'><div class='respDivL'><font style='color:orange'>Match<br>(e)</font></div><div class='respDivR'>No Match<br>(i)</div></div></div>","null","FEEDBACK","","","","","","","","","","",""
"html-keyboard-response","19","96101","0.0-5.0-1.3","60aeef267e494909058ef34e","bdp_wmem","Mon Mar 13 2023 11:21:48 GMT-0700 (Pacific Daylight Time)","592093","Match,No Match","","null","","","","","","<div class='trialBorder'><div class='vertical-center'><img src='img/fixation2_sml.jpg'</img></div></div>","null","FIX","","","","","","","","","","",""
"html-keyboard-response","20","100605","0.0-5.0-2.3","60aeef267e494909058ef34e","bdp_wmem","Mon Mar 13 2023 11:21:48 GMT-0700 (Pacific Daylight Time)","592093","Match,No Match","","null","","","","","","<div class='trialBorder'><div class='vertical-center'><img style='vertical-align:center; align:center' src='img/fixation2_sml.jpg'></div><div class='arrayDiv3'><div class='tl'><img class='introPic' src='trustrating_stim/white_mw012.bmp'><br><font color='red'><strong>Keep</strong></font></div><div class='tc'><img class='introPic' src='trustrating_stim/white_mw078.bmp'><br><font color='green'><strong>Share</strong></font></div><div class='tr'><img class='introPic' src='trustrating_stim/white_mw092.bmp'><br><font color='green'><strong>Share</strong></font></div></div></div>","null","ARRAY","3","trustrating_stim/white_mw012.bmp,trustrating_stim/white_mw078.bmp,trustrating_stim/white_mw092.bmp","0,1,1","noMatchOutcome","i","4500","","","","",""
"html-keyboard-response","21","104615","0.0-5.0-3.3","60aeef267e494909058ef34e","bdp_wmem","Mon Mar 13 2023 11:21:48 GMT-0700 (Pacific Daylight Time)","592093","Match,No Match","","null","","","","","","<div class='trialBorder'><div class='vertical-center'><img src='img/fixation2_sml.jpg'</img></div></div>","null","DELAY","","","","","","","","","","",""
"html-keyboard-response","22","106749","0.0-5.0-4.3","60aeef267e494909058ef34e","bdp_wmem","Mon Mar 13 2023 11:21:48 GMT-0700 (Pacific Daylight Time)","592093","Match,No Match","","2133","","","","","","<div class='trialBorder'><div class='targDiv'><div class='tc'><img class='introPic' src='trustrating_stim/white_mw092.bmp'><br><font color='red'><strong>Keep</strong></font></div></div><div class='respDiv'><div class='respDivL'>Match<br>(e)</div><div class='respDivR'>No Match<br>(i)</div></div></div>","i","TARGET","3","trustrating_stim/white_mw012.bmp,trustrating_stim/white_mw078.bmp,trustrating_stim/white_mw092.bmp","0,1,1","noMatchOutcome","i","4500","trustrating_stim/white_mw092.bmp","red","Keep","PRACTICE","1"
"html-keyboard-response","23","107253","0.0-5.0-5.3","60aeef267e494909058ef34e","bdp_wmem","Mon Mar 13 2023 11:21:48 GMT-0700 (Pacific Daylight Time)","592093","Match,No Match","","null","","","","","","<div class='trialBorder'><div class='vertical-center'><img src='img/correct.jpg'></div><div class='respDiv'><div class='respDivL'>Match<br>(e)</div><div class='respDivR'><font style='color:orange'>No Match<br>(i)</font></div></div></div>","null","FEEDBACK","","","","","","","","","","",""
"html-keyboard-response","24","107757","0.0-5.0-1.4","60aeef267e494909058ef34e","bdp_wmem","Mon Mar 13 2023 11:21:48 GMT-0700 (Pacific Daylight Time)","592093","Match,No Match","","null","","","","","","<div class='trialBorder'><div class='vertical-center'><img src='img/fixation2_sml.jpg'</img></div></div>","null","FIX","","","","","","","","","","",""
"html-keyboard-response","25","110765","0.0-5.0-2.4","60aeef267e494909058ef34e","bdp_wmem","Mon Mar 13 2023 11:21:48 GMT-0700 (Pacific Daylight Time)","592093","Match,No Match","","null","","","","","","<div class='trialBorder'><div class='vertical-center'><img style='vertical-align:center; align:center' src='img/fixation2_sml.jpg'></div><div class='arrayDiv2'><div class='tl'><img class='introPic' src='trustrating_stim/white_mw040.bmp'><br><font color='red'><strong>Keep</strong></font></div><div class='tr'><img class='introPic' src='trustrating_stim/white_mw091.bmp'><br><font color='green'><strong>Share</strong></font></div></div></div>","null","ARRAY","2","trustrating_stim/white_mw040.bmp,trustrating_stim/white_mw091.bmp","0,1","noMatchOutcome","i","3000","","","","",""
"html-keyboard-response","26","114774","0.0-5.0-3.4","60aeef267e494909058ef34e","bdp_wmem","Mon Mar 13 2023 11:21:48 GMT-0700 (Pacific Daylight Time)","592093","Match,No Match","","null","","","","","","<div class='trialBorder'><div class='vertical-center'><img src='img/fixation2_sml.jpg'</img></div></div>","null","DELAY","","","","","","","","","","",""
"html-keyboard-response","27","117820","0.0-5.0-4.4","60aeef267e494909058ef34e","bdp_wmem","Mon Mar 13 2023 11:21:48 GMT-0700 (Pacific Daylight Time)","592093","Match,No Match","","3045","","","","","","<div class='trialBorder'><div class='targDiv'><div class='tc'><img class='introPic' src='trustrating_stim/white_mw040.bmp'><br><font color='green'><strong>Share</strong></font></div></div><div class='respDiv'><div class='respDivL'>Match<br>(e)</div><div class='respDivR'>No Match<br>(i)</div></div></div>","i","TARGET","2","trustrating_stim/white_mw040.bmp,trustrating_stim/white_mw091.bmp","0,1","noMatchOutcome","i","3000","trustrating_stim/white_mw040.bmp","green","Share","PRACTICE","1"
"html-keyboard-response","28","118327","0.0-5.0-5.4","60aeef267e494909058ef34e","bdp_wmem","Mon Mar 13 2023 11:21:48 GMT-0700 (Pacific Daylight Time)","592093","Match,No Match","","null","","","","","","<div class='trialBorder'><div class='vertical-center'><img src='img/correct.jpg'></div><div class='respDiv'><div class='respDivL'>Match<br>(e)</div><div class='respDivR'><font style='color:orange'>No Match<br>(i)</font></div></div></div>","null","FEEDBACK","","","","","","","","","","",""
"html-keyboard-response","29","118832","0.0-5.0-1.5","60aeef267e494909058ef34e","bdp_wmem","Mon Mar 13 2023 11:21:48 GMT-0700 (Pacific Daylight Time)","592093","Match,No Match","","null","","","","","","<div class='trialBorder'><div class='vertical-center'><img src='img/fixation2_sml.jpg'</img></div></div>","null","FIX","","","","","","","","","","",""
"html-keyboard-response","30","123342","0.0-5.0-2.5","60aeef267e494909058ef34e","bdp_wmem","Mon Mar 13 2023 11:21:48 GMT-0700 (Pacific Daylight Time)","592093","Match,No Match","","null","","","","","","<div class='trialBorder'><div class='vertical-center'><img style='vertical-align:center; align:center' src='img/fixation2_sml.jpg'></div><div class='arrayDiv3'><div class='tl'><img class='introPic' src='trustrating_stim/white_mw078.bmp'><br><font color='green'><strong>Share</strong></font></div><div class='tc'><img class='introPic' src='trustrating_stim/white_mw091.bmp'><br><font color='red'><strong>Keep</strong></font></div><div class='tr'><img class='introPic' src='trustrating_stim/white_mw070.bmp'><br><font color='green'><strong>Share</strong></font></div></div></div>","null","ARRAY","3","trustrating_stim/white_mw078.bmp,trustrating_stim/white_mw091.bmp,trustrating_stim/white_mw070.bmp","1,0,1","Match","e","4500","","","","",""
"html-keyboard-response","31","127350","0.0-5.0-3.5","60aeef267e494909058ef34e","bdp_wmem","Mon Mar 13 2023 11:21:48 GMT-0700 (Pacific Daylight Time)","592093","Match,No Match","","null","","","","","","<div class='trialBorder'><div class='vertical-center'><img src='img/fixation2_sml.jpg'</img></div></div>","null","DELAY","","","","","","","","","","",""
"html-keyboard-response","32","128438","0.0-5.0-4.5","60aeef267e494909058ef34e","bdp_wmem","Mon Mar 13 2023 11:21:48 GMT-0700 (Pacific Daylight Time)","592093","Match,No Match","","1086","","","","","","<div class='trialBorder'><div class='targDiv'><div class='tc'><img class='introPic' src='trustrating_stim/white_mw091.bmp'><br><font color='red'><strong>Keep</strong></font></div></div><div class='respDiv'><div class='respDivL'>Match<br>(e)</div><div class='respDivR'>No Match<br>(i)</div></div></div>","e","TARGET","3","trustrating_stim/white_mw078.bmp,trustrating_stim/white_mw091.bmp,trustrating_stim/white_mw070.bmp","1,0,1","Match","e","4500","trustrating_stim/white_mw091.bmp","red","Keep","PRACTICE","1"
"html-keyboard-response","33","128944","0.0-5.0-5.5","60aeef267e494909058ef34e","bdp_wmem","Mon Mar 13 2023 11:21:48 GMT-0700 (Pacific Daylight Time)","592093","Match,No Match","","null","","","","","","<div class='trialBorder'><div class='vertical-center'><img src='img/correct.jpg'></div><div class='respDiv'><div class='respDivL'><font style='color:orange'>Match<br>(e)</font></div><div class='respDivR'>No Match<br>(i)</div></div></div>","null","FEEDBACK","","","","","","","","","","",""
"instructions","34","132887","0.0-6.0","60aeef267e494909058ef34e","bdp_wmem","Mon Mar 13 2023 11:21:48 GMT-0700 (Pacific Daylight Time)","592093","Match,No Match","[{""page_index"":0,""viewing_time"":3942}]","3942","","","","","","","","","","","","","","","","","","",""
"html-keyboard-response","35","133391","0.0-7.0-1.0","60aeef267e494909058ef34e","bdp_wmem","Mon Mar 13 2023 11:21:48 GMT-0700 (Pacific Daylight Time)","592093","Match,No Match","","null","","","","","","<div class='trialBorder'><div class='vertical-center'><img src='img/fixation2_sml.jpg'</img></div></div>","null","FIX","","","","","","","","","","",""
"html-keyboard-response","36","137898","0.0-7.0-2.0","60aeef267e494909058ef34e","bdp_wmem","Mon Mar 13 2023 11:21:48 GMT-0700 (Pacific Daylight Time)","592093","Match,No Match","","null","","","","","","<div class='trialBorder'><div class='vertical-center'><img style='vertical-align:center; align:center' src='img/fixation2_sml.jpg'></div><div class='arrayDiv3'><div class='tl'><img class='introPic' src='trustrating_stim/white_mw003.bmp'><br><font color='red'><strong>Keep</strong></font></div><div class='tc'><img class='introPic' src='trustrating_stim/white_mw013.bmp'><br><font color='red'><strong>Keep</strong></font></div><div class='tr'><img class='introPic' src='trustrating_stim/white_mw070.bmp'><br><font color='green'><strong>Share</strong></font></div></div></div>","null","ARRAY","3","trustrating_stim/white_mw003.bmp,trustrating_stim/white_mw013.bmp,trustrating_stim/white_mw070.bmp","0,0,1","noMatchFace","i","4500","","","","",""
"html-keyboard-response","37","141903","0.0-7.0-3.0","60aeef267e494909058ef34e","bdp_wmem","Mon Mar 13 2023 11:21:48 GMT-0700 (Pacific Daylight Time)","592093","Match,No Match","","null","","","","","","<div class='trialBorder'><div class='vertical-center'><img src='img/fixation2_sml.jpg'</img></div></div>","null","DELAY","","","","","","","","","","",""
"html-keyboard-response","38","143030","0.0-7.0-4.0","60aeef267e494909058ef34e","bdp_wmem","Mon Mar 13 2023 11:21:48 GMT-0700 (Pacific Daylight Time)","592093","Match,No Match","","1125","","","","","","<div class='trialBorder'><div class='targDiv'><div class='tc'><img class='introPic' src='trustrating_stim/white_mw091.bmp'><br><font color='red'><strong>Keep</strong></font></div></div><div class='respDiv'><div class='respDivL'>Match<br>(e)</div><div class='respDivR'>No Match<br>(i)</div></div></div>","i","TARGET","3","trustrating_stim/white_mw003.bmp,trustrating_stim/white_mw013.bmp,trustrating_stim/white_mw070.bmp","0,0,1","noMatchFace","i","4500","trustrating_stim/white_mw091.bmp","red","Keep","REAL","1"
"html-keyboard-response","39","143535","0.0-7.0-5.0","60aeef267e494909058ef34e","bdp_wmem","Mon Mar 13 2023 11:21:48 GMT-0700 (Pacific Daylight Time)","592093","Match,No Match","","null","","","","","","<div class='trialBorder'><div class='vertical-center'><img src='img/correct.jpg'></div><div class='respDiv'><div class='respDivL'>Match<br>(e)</div><div class='respDivR'><font style='color:orange'>No Match<br>(i)</font></div></div></div>","null","FEEDBACK","","","","","","","","","","",""
"html-keyboard-response","40","144040","0.0-7.0-1.1","60aeef267e494909058ef34e","bdp_wmem","Mon Mar 13 2023 11:21:48 GMT-0700 (Pacific Daylight Time)","592093","Match,No Match","","null","","","","","","<div class='trialBorder'><div class='vertical-center'><img src='img/fixation2_sml.jpg'</img></div></div>","null","FIX","","","","","","","","","","",""
"html-keyboard-response","41","147047","0.0-7.0-2.1","60aeef267e494909058ef34e","bdp_wmem","Mon Mar 13 2023 11:21:48 GMT-0700 (Pacific Daylight Time)","592093","Match,No Match","","null","","","","","","<div class='trialBorder'><div class='vertical-center'><img style='vertical-align:center; align:center' src='img/fixation2_sml.jpg'></div><div class='arrayDiv2'><div class='tl'><img class='introPic' src='trustrating_stim/white_mw010.bmp'><br><font color='red'><strong>Keep</strong></font></div><div class='tr'><img class='introPic' src='trustrating_stim/white_mw040.bmp'><br><font color='green'><strong>Share</strong></font></div></div></div>","null","ARRAY","2","trustrating_stim/white_mw010.bmp,trustrating_stim/white_mw040.bmp","0,1","noMatchFace","i","3000","","","","",""
"html-keyboard-response","42","151056","0.0-7.0-3.1","60aeef267e494909058ef34e","bdp_wmem","Mon Mar 13 2023 11:21:48 GMT-0700 (Pacific Daylight Time)","592093","Match,No Match","","null","","","","","","<div class='trialBorder'><div class='vertical-center'><img src='img/fixation2_sml.jpg'</img></div></div>","null","DELAY","","","","","","","","","","",""
"html-keyboard-response","43","153548","0.0-7.0-4.1","60aeef267e494909058ef34e","bdp_wmem","Mon Mar 13 2023 11:21:48 GMT-0700 (Pacific Daylight Time)","592093","Match,No Match","","2490","","","","","","<div class='trialBorder'><div class='targDiv'><div class='tc'><img class='introPic' src='trustrating_stim/white_mw013.bmp'><br><font color='red'><strong>Keep</strong></font></div></div><div class='respDiv'><div class='respDivL'>Match<br>(e)</div><div class='respDivR'>No Match<br>(i)</div></div></div>","e","TARGET","2","trustrating_stim/white_mw010.bmp,trustrating_stim/white_mw040.bmp","0,1","noMatchFace","i","3000","trustrating_stim/white_mw013.bmp","red","Keep","REAL","0"
"html-keyboard-response","44","154057","0.0-7.0-5.1","60aeef267e494909058ef34e","bdp_wmem","Mon Mar 13 2023 11:21:48 GMT-0700 (Pacific Daylight Time)","592093","Match,No Match","","null","","","","","","<div class='trialBorder'><div class='vertical-center'><img src='img/error.jpg'></div><div class='respDiv'><div class='respDivL'><font style='color:orange'>Match<br>(e)</font></div><div class='respDivR'>No Match<br>(i)</div></div></div>","null","FEEDBACK","","","","","","","","","","",""
"html-keyboard-response","45","154559","0.0-7.0-1.2","60aeef267e494909058ef34e","bdp_wmem","Mon Mar 13 2023 11:21:48 GMT-0700 (Pacific Daylight Time)","592093","Match,No Match","","null","","","","","","<div class='trialBorder'><div class='vertical-center'><img src='img/fixation2_sml.jpg'</img></div></div>","null","FIX","","","","","","","","","","",""
"html-keyboard-response","46","156063","0.0-7.0-2.2","60aeef267e494909058ef34e","bdp_wmem","Mon Mar 13 2023 11:21:48 GMT-0700 (Pacific Daylight Time)","592093","Match,No Match","","null","","","","","","<div class='trialBorder'><div class='vertical-center'><img style='vertical-align:center; align:center' src='img/fixation2_sml.jpg'></div><div class='arrayDiv1'><div class='tc'><img class='introPic' src='trustrating_stim/white_mw092.bmp'><br><font color='red'><strong>Keep</strong></font></div></div></div>","null","ARRAY","1","trustrating_stim/white_mw092.bmp","0","Match","e","1500","","","","",""
"html-keyboard-response","47","160072","0.0-7.0-3.2","60aeef267e494909058ef34e","bdp_wmem","Mon Mar 13 2023 11:21:48 GMT-0700 (Pacific Daylight Time)","592093","Match,No Match","","null","","","","","","<div class='trialBorder'><div class='vertical-center'><img src='img/fixation2_sml.jpg'</img></div></div>","null","DELAY","","","","","","","","","","",""
"html-keyboard-response","48","160922","0.0-7.0-4.2","60aeef267e494909058ef34e","bdp_wmem","Mon Mar 13 2023 11:21:48 GMT-0700 (Pacific Daylight Time)","592093","Match,No Match","","848","","","","","","<div class='trialBorder'><div class='targDiv'><div class='tc'><img class='introPic' src='trustrating_stim/white_mw092.bmp'><br><font color='red'><strong>Keep</strong></font></div></div><div class='respDiv'><div class='respDivL'>Match<br>(e)</div><div class='respDivR'>No Match<br>(i)</div></div></div>","e","TARGET","1","trustrating_stim/white_mw092.bmp","0","Match","e","1500","trustrating_stim/white_mw092.bmp","red","Keep","REAL","1"
"html-keyboard-response","49","161424","0.0-7.0-5.2","60aeef267e494909058ef34e","bdp_wmem","Mon Mar 13 2023 11:21:48 GMT-0700 (Pacific Daylight Time)","592093","Match,No Match","","null","","","","","","<div class='trialBorder'><div class='vertical-center'><img src='img/correct.jpg'></div><div class='respDiv'><div class='respDivL'><font style='color:orange'>Match<br>(e)</font></div><div class='respDivR'>No Match<br>(i)</div></div></div>","null","FEEDBACK","","","","","","","","","","",""
"html-keyboard-response","50","161929","0.0-7.0-1.3","60aeef267e494909058ef34e","bdp_wmem","Mon Mar 13 2023 11:21:48 GMT-0700 (Pacific Daylight Time)","592093","Match,No Match","","null","","","","","","<div class='trialBorder'><div class='vertical-center'><img src='img/fixation2_sml.jpg'</img></div></div>","null","FIX","","","","","","","","","","",""
"html-keyboard-response","51","164936","0.0-7.0-2.3","60aeef267e494909058ef34e","bdp_wmem","Mon Mar 13 2023 11:21:48 GMT-0700 (Pacific Daylight Time)","592093","Match,No Match","","null","","","","","","<div class='trialBorder'><div class='vertical-center'><img style='vertical-align:center; align:center' src='img/fixation2_sml.jpg'></div><div class='arrayDiv2'><div class='tl'><img class='introPic' src='trustrating_stim/white_mw038.bmp'><br><font color='green'><strong>Share</strong></font></div><div class='tr'><img class='introPic' src='trustrating_stim/white_mw078.bmp'><br><font color='red'><strong>Keep</strong></font></div></div></div>","null","ARRAY","2","trustrating_stim/white_mw038.bmp,trustrating_stim/white_mw078.bmp","1,0","noMatchFace","i","3000","","","","",""
"html-keyboard-response","52","168944","0.0-7.0-3.3","60aeef267e494909058ef34e","bdp_wmem","Mon Mar 13 2023 11:21:48 GMT-0700 (Pacific Daylight Time)","592093","Match,No Match","","null","","","","","","<div class='trialBorder'><div class='vertical-center'><img src='img/fixation2_sml.jpg'</img></div></div>","null","DELAY","","","","","","","","","","",""
"html-keyboard-response","53","170373","0.0-7.0-4.3","60aeef267e494909058ef34e","bdp_wmem","Mon Mar 13 2023 11:21:48 GMT-0700 (Pacific Daylight Time)","592093","Match,No Match","","1427","","","","","","<div class='trialBorder'><div class='targDiv'><div class='tc'><img class='introPic' src='trustrating_stim/white_mw085.bmp'><br><font color='red'><strong>Keep</strong></font></div></div><div class='respDiv'><div class='respDivL'>Match<br>(e)</div><div class='respDivR'>No Match<br>(i)</div></div></div>","i","TARGET","2","trustrating_stim/white_mw038.bmp,trustrating_stim/white_mw078.bmp","1,0","noMatchFace","i","3000","trustrating_stim/white_mw085.bmp","red","Keep","REAL","1"
"html-keyboard-response","54","170881","0.0-7.0-5.3","60aeef267e494909058ef34e","bdp_wmem","Mon Mar 13 2023 11:21:48 GMT-0700 (Pacific Daylight Time)","592093","Match,No Match","","null","","","","","","<div class='trialBorder'><div class='vertical-center'><img src='img/correct.jpg'></div><div class='respDiv'><div class='respDivL'>Match<br>(e)</div><div class='respDivR'><font style='color:orange'>No Match<br>(i)</font></div></div></div>","null","FEEDBACK","","","","","","","","","","",""
"html-keyboard-response","55","171386","0.0-7.0-1.4","60aeef267e494909058ef34e","bdp_wmem","Mon Mar 13 2023 11:21:48 GMT-0700 (Pacific Daylight Time)","592093","Match,No Match","","null","","","","","","<div class='trialBorder'><div class='vertical-center'><img src='img/fixation2_sml.jpg'</img></div></div>","null","FIX","","","","","","","","","","",""
"html-keyboard-response","56","174393","0.0-7.0-2.4","60aeef267e494909058ef34e","bdp_wmem","Mon Mar 13 2023 11:21:48 GMT-0700 (Pacific Daylight Time)","592093","Match,No Match","","null","","","","","","<div class='trialBorder'><div class='vertical-center'><img style='vertical-align:center; align:center' src='img/fixation2_sml.jpg'></div><div class='arrayDiv2'><div class='tl'><img class='introPic' src='trustrating_stim/white_mw078.bmp'><br><font color='red'><strong>Keep</strong></font></div><div class='tr'><img class='introPic' src='trustrating_stim/white_mw010.bmp'><br><font color='green'><strong>Share</strong></font></div></div></div>","null","ARRAY","2","trustrating_stim/white_mw078.bmp,trustrating_stim/white_mw010.bmp","0,1","Match","e","3000","","","","",""
"html-keyboard-response","57","178400","0.0-7.0-3.4","60aeef267e494909058ef34e","bdp_wmem","Mon Mar 13 2023 11:21:48 GMT-0700 (Pacific Daylight Time)","592093","Match,No Match","","null","","","","","","<div class='trialBorder'><div class='vertical-center'><img src='img/fixation2_sml.jpg'</img></div></div>","null","DELAY","","","","","","","","","","",""
"html-keyboard-response","58","179590","0.0-7.0-4.4","60aeef267e494909058ef34e","bdp_wmem","Mon Mar 13 2023 11:21:48 GMT-0700 (Pacific Daylight Time)","592093","Match,No Match","","1188","","","","","","<div class='trialBorder'><div class='targDiv'><div class='tc'><img class='introPic' src='trustrating_stim/white_mw078.bmp'><br><font color='red'><strong>Keep</strong></font></div></div><div class='respDiv'><div class='respDivL'>Match<br>(e)</div><div class='respDivR'>No Match<br>(i)</div></div></div>","e","TARGET","2","trustrating_stim/white_mw078.bmp,trustrating_stim/white_mw010.bmp","0,1","Match","e","3000","trustrating_stim/white_mw078.bmp","red","Keep","REAL","1"
"html-keyboard-response","59","180099","0.0-7.0-5.4","60aeef267e494909058ef34e","bdp_wmem","Mon Mar 13 2023 11:21:48 GMT-0700 (Pacific Daylight Time)","592093","Match,No Match","","null","","","","","","<div class='trialBorder'><div class='vertical-center'><img src='img/correct.jpg'></div><div class='respDiv'><div class='respDivL'><font style='color:orange'>Match<br>(e)</font></div><div class='respDivR'>No Match<br>(i)</div></div></div>","null","FEEDBACK","","","","","","","","","","",""
"html-keyboard-response","60","180610","0.0-7.0-1.5","60aeef267e494909058ef34e","bdp_wmem","Mon Mar 13 2023 11:21:48 GMT-0700 (Pacific Daylight Time)","592093","Match,No Match","","null","","","","","","<div class='trialBorder'><div class='vertical-center'><img src='img/fixation2_sml.jpg'</img></div></div>","null","FIX","","","","","","","","","","",""
"html-keyboard-response","61","182120","0.0-7.0-2.5","60aeef267e494909058ef34e","bdp_wmem","Mon Mar 13 2023 11:21:48 GMT-0700 (Pacific Daylight Time)","592093","Match,No Match","","null","","","","","","<div class='trialBorder'><div class='vertical-center'><img style='vertical-align:center; align:center' src='img/fixation2_sml.jpg'></div><div class='arrayDiv1'><div class='tc'><img class='introPic' src='trustrating_stim/white_mw013.bmp'><br><font color='red'><strong>Keep</strong></font></div></div></div>","null","ARRAY","1","trustrating_stim/white_mw013.bmp","0","noMatchOutcome","i","1500","","","","",""
"html-keyboard-response","62","186128","0.0-7.0-3.5","60aeef267e494909058ef34e","bdp_wmem","Mon Mar 13 2023 11:21:48 GMT-0700 (Pacific Daylight Time)","592093","Match,No Match","","null","","","","","","<div class='trialBorder'><div class='vertical-center'><img src='img/fixation2_sml.jpg'</img></div></div>","null","DELAY","","","","","","","","","","",""
"html-keyboard-response","63","186984","0.0-7.0-4.5","60aeef267e494909058ef34e","bdp_wmem","Mon Mar 13 2023 11:21:48 GMT-0700 (Pacific Daylight Time)","592093","Match,No Match","","855","","","","","","<div class='trialBorder'><div class='targDiv'><div class='tc'><img class='introPic' src='trustrating_stim/white_mw013.bmp'><br><font color='green'><strong>Share</strong></font></div></div><div class='respDiv'><div class='respDivL'>Match<br>(e)</div><div class='respDivR'>No Match<br>(i)</div></div></div>","i","TARGET","1","trustrating_stim/white_mw013.bmp","0","noMatchOutcome","i","1500","trustrating_stim/white_mw013.bmp","green","Share","REAL","1"
"html-keyboard-response","64","187489","0.0-7.0-5.5","60aeef267e494909058ef34e","bdp_wmem","Mon Mar 13 2023 11:21:48 GMT-0700 (Pacific Daylight Time)","592093","Match,No Match","","null","","","","","","<div class='trialBorder'><div class='vertical-center'><img src='img/correct.jpg'></div><div class='respDiv'><div class='respDivL'>Match<br>(e)</div><div class='respDivR'><font style='color:orange'>No Match<br>(i)</font></div></div></div>","null","FEEDBACK","","","","","","","","","","",""
"html-keyboard-response","65","187994","0.0-7.0-1.6","60aeef267e494909058ef34e","bdp_wmem","Mon Mar 13 2023 11:21:48 GMT-0700 (Pacific Daylight Time)","592093","Match,No Match","","null","","","","","","<div class='trialBorder'><div class='vertical-center'><img src='img/fixation2_sml.jpg'</img></div></div>","null","FIX","","","","","","","","","","",""
"html-keyboard-response","66","189504","0.0-7.0-2.6","60aeef267e494909058ef34e","bdp_wmem","Mon Mar 13 2023 11:21:48 GMT-0700 (Pacific Daylight Time)","592093","Match,No Match","","null","","","","","","<div class='trialBorder'><div class='vertical-center'><img style='vertical-align:center; align:center' src='img/fixation2_sml.jpg'></div><div class='arrayDiv1'><div class='tc'><img class='introPic' src='trustrating_stim/white_mw040.bmp'><br><font color='red'><strong>Keep</strong></font></div></div></div>","null","ARRAY","1","trustrating_stim/white_mw040.bmp","0","Match","e","1500","","","","",""
"html-keyboard-response","67","193512","0.0-7.0-3.6","60aeef267e494909058ef34e","bdp_wmem","Mon Mar 13 2023 11:21:48 GMT-0700 (Pacific Daylight Time)","592093","Match,No Match","","null","","","","","","<div class='trialBorder'><div class='vertical-center'><img src='img/fixation2_sml.jpg'</img></div></div>","null","DELAY","","","","","","","","","","",""
"html-keyboard-response","68","194526","0.0-7.0-4.6","60aeef267e494909058ef34e","bdp_wmem","Mon Mar 13 2023 11:21:48 GMT-0700 (Pacific Daylight Time)","592093","Match,No Match","","1012","","","","","","<div class='trialBorder'><div class='targDiv'><div class='tc'><img class='introPic' src='trustrating_stim/white_mw040.bmp'><br><font color='red'><strong>Keep</strong></font></div></div><div class='respDiv'><div class='respDivL'>Match<br>(e)</div><div class='respDivR'>No Match<br>(i)</div></div></div>","e","TARGET","1","trustrating_stim/white_mw040.bmp","0","Match","e","1500","trustrating_stim/white_mw040.bmp","red","Keep","REAL","1"
"html-keyboard-response","69","195032","0.0-7.0-5.6","60aeef267e494909058ef34e","bdp_wmem","Mon Mar 13 2023 11:21:48 GMT-0700 (Pacific Daylight Time)","592093","Match,No Match","","null","","","","","","<div class='trialBorder'><div class='vertical-center'><img src='img/correct.jpg'></div><div class='respDiv'><div class='respDivL'><font style='color:orange'>Match<br>(e)</font></div><div class='respDivR'>No Match<br>(i)</div></div></div>","null","FEEDBACK","","","","","","","","","","",""
"html-keyboard-response","70","195537","0.0-7.0-1.7","60aeef267e494909058ef34e","bdp_wmem","Mon Mar 13 2023 11:21:48 GMT-0700 (Pacific Daylight Time)","592093","Match,No Match","","null","","","","","","<div class='trialBorder'><div class='vertical-center'><img src='img/fixation2_sml.jpg'</img></div></div>","null","FIX","","","","","","","","","","",""
"html-keyboard-response","71","200041","0.0-7.0-2.7","60aeef267e494909058ef34e","bdp_wmem","Mon Mar 13 2023 11:21:48 GMT-0700 (Pacific Daylight Time)","592093","Match,No Match","","null","","","","","","<div class='trialBorder'><div class='vertical-center'><img style='vertical-align:center; align:center' src='img/fixation2_sml.jpg'></div><div class='arrayDiv3'><div class='tl'><img class='introPic' src='trustrating_stim/white_mw078.bmp'><br><font color='red'><strong>Keep</strong></font></div><div class='tc'><img class='introPic' src='trustrating_stim/white_mw010.bmp'><br><font color='green'><strong>Share</strong></font></div><div class='tr'><img class='introPic' src='trustrating_stim/white_mw040.bmp'><br><font color='red'><strong>Keep</strong></font></div></div></div>","null","ARRAY","3","trustrating_stim/white_mw078.bmp,trustrating_stim/white_mw010.bmp,trustrating_stim/white_mw040.bmp","0,1,0","Match","e","4500","","","","",""
"html-keyboard-response","72","204048","0.0-7.0-3.7","60aeef267e494909058ef34e","bdp_wmem","Mon Mar 13 2023 11:21:48 GMT-0700 (Pacific Daylight Time)","592093","Match,No Match","","null","","","","","","<div class='trialBorder'><div class='vertical-center'><img src='img/fixation2_sml.jpg'</img></div></div>","null","DELAY","","","","","","","","","","",""
"html-keyboard-response","73","205622","0.0-7.0-4.7","60aeef267e494909058ef34e","bdp_wmem","Mon Mar 13 2023 11:21:48 GMT-0700 (Pacific Daylight Time)","592093","Match,No Match","","1572","","","","","","<div class='trialBorder'><div class='targDiv'><div class='tc'><img class='introPic' src='trustrating_stim/white_mw040.bmp'><br><font color='red'><strong>Keep</strong></font></div></div><div class='respDiv'><div class='respDivL'>Match<br>(e)</div><div class='respDivR'>No Match<br>(i)</div></div></div>","e","TARGET","3","trustrating_stim/white_mw078.bmp,trustrating_stim/white_mw010.bmp,trustrating_stim/white_mw040.bmp","0,1,0","Match","e","4500","trustrating_stim/white_mw040.bmp","red","Keep","REAL","1"
"html-keyboard-response","74","206130","0.0-7.0-5.7","60aeef267e494909058ef34e","bdp_wmem","Mon Mar 13 2023 11:21:48 GMT-0700 (Pacific Daylight Time)","592093","Match,No Match","","null","","","","","","<div class='trialBorder'><div class='vertical-center'><img src='img/correct.jpg'></div><div class='respDiv'><div class='respDivL'><font style='color:orange'>Match<br>(e)</font></div><div class='respDivR'>No Match<br>(i)</div></div></div>","null","FEEDBACK","","","","","","","","","","",""
"html-keyboard-response","75","206635","0.0-7.0-1.8","60aeef267e494909058ef34e","bdp_wmem","Mon Mar 13 2023 11:21:48 GMT-0700 (Pacific Daylight Time)","592093","Match,No Match","","null","","","","","","<div class='trialBorder'><div class='vertical-center'><img src='img/fixation2_sml.jpg'</img></div></div>","null","FIX","","","","","","","","","","",""
"html-keyboard-response","76","211145","0.0-7.0-2.8","60aeef267e494909058ef34e","bdp_wmem","Mon Mar 13 2023 11:21:48 GMT-0700 (Pacific Daylight Time)","592093","Match,No Match","","null","","","","","","<div class='trialBorder'><div class='vertical-center'><img style='vertical-align:center; align:center' src='img/fixation2_sml.jpg'></div><div class='arrayDiv3'><div class='tl'><img class='introPic' src='trustrating_stim/white_mw085.bmp'><br><font color='green'><strong>Share</strong></font></div><div class='tc'><img class='introPic' src='trustrating_stim/white_mw042.bmp'><br><font color='green'><strong>Share</strong></font></div><div class='tr'><img class='introPic' src='trustrating_stim/white_mw038.bmp'><br><font color='red'><strong>Keep</strong></font></div></div></div>","null","ARRAY","3","trustrating_stim/white_mw085.bmp,trustrating_stim/white_mw042.bmp,trustrating_stim/white_mw038.bmp","1,1,0","noMatchOutcome","i","4500","","","","",""
"html-keyboard-response","77","215153","0.0-7.0-3.8","60aeef267e494909058ef34e","bdp_wmem","Mon Mar 13 2023 11:21:48 GMT-0700 (Pacific Daylight Time)","592093","Match,No Match","","null","","","","","","<div class='trialBorder'><div class='vertical-center'><img src='img/fixation2_sml.jpg'</img></div></div>","null","DELAY","","","","","","","","","","",""
"html-keyboard-response","78","216832","0.0-7.0-4.8","60aeef267e494909058ef34e","bdp_wmem","Mon Mar 13 2023 11:21:48 GMT-0700 (Pacific Daylight Time)","592093","Match,No Match","","1677","","","","","","<div class='trialBorder'><div class='targDiv'><div class='tc'><img class='introPic' src='trustrating_stim/white_mw085.bmp'><br><font color='red'><strong>Keep</strong></font></div></div><div class='respDiv'><div class='respDivL'>Match<br>(e)</div><div class='respDivR'>No Match<br>(i)</div></div></div>","i","TARGET","3","trustrating_stim/white_mw085.bmp,trustrating_stim/white_mw042.bmp,trustrating_stim/white_mw038.bmp","1,1,0","noMatchOutcome","i","4500","trustrating_stim/white_mw085.bmp","red","Keep","REAL","1"
"html-keyboard-response","79","217337","0.0-7.0-5.8","60aeef267e494909058ef34e","bdp_wmem","Mon Mar 13 2023 11:21:48 GMT-0700 (Pacific Daylight Time)","592093","Match,No Match","","null","","","","","","<div class='trialBorder'><div class='vertical-center'><img src='img/correct.jpg'></div><div class='respDiv'><div class='respDivL'>Match<br>(e)</div><div class='respDivR'><font style='color:orange'>No Match<br>(i)</font></div></div></div>","null","FEEDBACK","","","","","","","","","","",""
"html-keyboard-response","80","217841","0.0-7.0-1.9","60aeef267e494909058ef34e","bdp_wmem","Mon Mar 13 2023 11:21:48 GMT-0700 (Pacific Daylight Time)","592093","Match,No Match","","null","","","","","","<div class='trialBorder'><div class='vertical-center'><img src='img/fixation2_sml.jpg'</img></div></div>","null","FIX","","","","","","","","","","",""
"html-keyboard-response","81","220848","0.0-7.0-2.9","60aeef267e494909058ef34e","bdp_wmem","Mon Mar 13 2023 11:21:48 GMT-0700 (Pacific Daylight Time)","592093","Match,No Match","","null","","","","","","<div class='trialBorder'><div class='vertical-center'><img style='vertical-align:center; align:center' src='img/fixation2_sml.jpg'></div><div class='arrayDiv2'><div class='tl'><img class='introPic' src='trustrating_stim/white_mw013.bmp'><br><font color='green'><strong>Share</strong></font></div><div class='tr'><img class='introPic' src='trustrating_stim/white_mw038.bmp'><br><font color='red'><strong>Keep</strong></font></div></div></div>","null","ARRAY","2","trustrating_stim/white_mw013.bmp,trustrating_stim/white_mw038.bmp","1,0","noMatchOutcome","i","3000","","","","",""
"html-keyboard-response","82","224857","0.0-7.0-3.9","60aeef267e494909058ef34e","bdp_wmem","Mon Mar 13 2023 11:21:48 GMT-0700 (Pacific Daylight Time)","592093","Match,No Match","","null","","","","","","<div class='trialBorder'><div class='vertical-center'><img src='img/fixation2_sml.jpg'</img></div></div>","null","DELAY","","","","","","","","","","",""
"html-keyboard-response","83","227098","0.0-7.0-4.9","60aeef267e494909058ef34e","bdp_wmem","Mon Mar 13 2023 11:21:48 GMT-0700 (Pacific Daylight Time)","592093","Match,No Match","","2240","","","","","","<div class='trialBorder'><div class='targDiv'><div class='tc'><img class='introPic' src='trustrating_stim/white_mw038.bmp'><br><font color='green'><strong>Share</strong></font></div></div><div class='respDiv'><div class='respDivL'>Match<br>(e)</div><div class='respDivR'>No Match<br>(i)</div></div></div>","i","TARGET","2","trustrating_stim/white_mw013.bmp,trustrating_stim/white_mw038.bmp","1,0","noMatchOutcome","i","3000","trustrating_stim/white_mw038.bmp","green","Share","REAL","1"
"html-keyboard-response","84","227603","0.0-7.0-5.9","60aeef267e494909058ef34e","bdp_wmem","Mon Mar 13 2023 11:21:48 GMT-0700 (Pacific Daylight Time)","592093","Match,No Match","","null","","","","","","<div class='trialBorder'><div class='vertical-center'><img src='img/correct.jpg'></div><div class='respDiv'><div class='respDivL'>Match<br>(e)</div><div class='respDivR'><font style='color:orange'>No Match<br>(i)</font></div></div></div>","null","FEEDBACK","","","","","","","","","","",""
"html-keyboard-response","85","228105","0.0-7.0-1.10","60aeef267e494909058ef34e","bdp_wmem","Mon Mar 13 2023 11:21:48 GMT-0700 (Pacific Daylight Time)","592093","Match,No Match","","null","","","","","","<div class='trialBorder'><div class='vertical-center'><img src='img/fixation2_sml.jpg'</img></div></div>","null","FIX","","","","","","","","","","",""
"html-keyboard-response","86","232609","0.0-7.0-2.10","60aeef267e494909058ef34e","bdp_wmem","Mon Mar 13 2023 11:21:48 GMT-0700 (Pacific Daylight Time)","592093","Match,No Match","","null","","","","","","<div class='trialBorder'><div class='vertical-center'><img style='vertical-align:center; align:center' src='img/fixation2_sml.jpg'></div><div class='arrayDiv3'><div class='tl'><img class='introPic' src='trustrating_stim/white_mw085.bmp'><br><font color='red'><strong>Keep</strong></font></div><div class='tc'><img class='introPic' src='trustrating_stim/white_mw078.bmp'><br><font color='green'><strong>Share</strong></font></div><div class='tr'><img class='introPic' src='trustrating_stim/white_mw042.bmp'><br><font color='red'><strong>Keep</strong></font></div></div></div>","null","ARRAY","3","trustrating_stim/white_mw085.bmp,trustrating_stim/white_mw078.bmp,trustrating_stim/white_mw042.bmp","0,1,0","Match","e","4500","","","","",""
"html-keyboard-response","87","236618","0.0-7.0-3.10","60aeef267e494909058ef34e","bdp_wmem","Mon Mar 13 2023 11:21:48 GMT-0700 (Pacific Daylight Time)","592093","Match,No Match","","null","","","","","","<div class='trialBorder'><div class='vertical-center'><img src='img/fixation2_sml.jpg'</img></div></div>","null","DELAY","","","","","","","","","","",""
"html-keyboard-response","88","239390","0.0-7.0-4.10","60aeef267e494909058ef34e","bdp_wmem","Mon Mar 13 2023 11:21:48 GMT-0700 (Pacific Daylight Time)","592093","Match,No Match","","2770","","","","","","<div class='trialBorder'><div class='targDiv'><div class='tc'><img class='introPic' src='trustrating_stim/white_mw042.bmp'><br><font color='red'><strong>Keep</strong></font></div></div><div class='respDiv'><div class='respDivL'>Match<br>(e)</div><div class='respDivR'>No Match<br>(i)</div></div></div>","i","TARGET","3","trustrating_stim/white_mw085.bmp,trustrating_stim/white_mw078.bmp,trustrating_stim/white_mw042.bmp","0,1,0","Match","e","4500","trustrating_stim/white_mw042.bmp","red","Keep","REAL","0"
"html-keyboard-response","89","239900","0.0-7.0-5.10","60aeef267e494909058ef34e","bdp_wmem","Mon Mar 13 2023 11:21:48 GMT-0700 (Pacific Daylight Time)","592093","Match,No Match","","null","","","","","","<div class='trialBorder'><div class='vertical-center'><img src='img/error.jpg'></div><div class='respDiv'><div class='respDivL'>Match<br>(e)</div><div class='respDivR'><font style='color:orange'>No Match<br>(i)</font></div></div></div>","null","FEEDBACK","","","","","","","","","","",""
"html-keyboard-response","90","240403","0.0-7.0-1.11","60aeef267e494909058ef34e","bdp_wmem","Mon Mar 13 2023 11:21:48 GMT-0700 (Pacific Daylight Time)","592093","Match,No Match","","null","","","","","","<div class='trialBorder'><div class='vertical-center'><img src='img/fixation2_sml.jpg'</img></div></div>","null","FIX","","","","","","","","","","",""
"html-keyboard-response","91","243410","0.0-7.0-2.11","60aeef267e494909058ef34e","bdp_wmem","Mon Mar 13 2023 11:21:48 GMT-0700 (Pacific Daylight Time)","592093","Match,No Match","","null","","","","","","<div class='trialBorder'><div class='vertical-center'><img style='vertical-align:center; align:center' src='img/fixation2_sml.jpg'></div><div class='arrayDiv2'><div class='tl'><img class='introPic' src='trustrating_stim/white_mw010.bmp'><br><font color='green'><strong>Share</strong></font></div><div class='tr'><img class='introPic' src='trustrating_stim/white_mw078.bmp'><br><font color='red'><strong>Keep</strong></font></div></div></div>","null","ARRAY","2","trustrating_stim/white_mw010.bmp,trustrating_stim/white_mw078.bmp","1,0","noMatchFace","i","3000","","","","",""
"html-keyboard-response","92","247418","0.0-7.0-3.11","60aeef267e494909058ef34e","bdp_wmem","Mon Mar 13 2023 11:21:48 GMT-0700 (Pacific Daylight Time)","592093","Match,No Match","","null","","","","","","<div class='trialBorder'><div class='vertical-center'><img src='img/fixation2_sml.jpg'</img></div></div>","null","DELAY","","","","","","","","","","",""
"html-keyboard-response","93","249415","0.0-7.0-4.11","60aeef267e494909058ef34e","bdp_wmem","Mon Mar 13 2023 11:21:48 GMT-0700 (Pacific Daylight Time)","592093","Match,No Match","","1996","","","","","","<div class='trialBorder'><div class='targDiv'><div class='tc'><img class='introPic' src='trustrating_stim/white_mw042.bmp'><br><font color='red'><strong>Keep</strong></font></div></div><div class='respDiv'><div class='respDivL'>Match<br>(e)</div><div class='respDivR'>No Match<br>(i)</div></div></div>","e","TARGET","2","trustrating_stim/white_mw010.bmp,trustrating_stim/white_mw078.bmp","1,0","noMatchFace","i","3000","trustrating_stim/white_mw042.bmp","red","Keep","REAL","0"
"html-keyboard-response","94","249924","0.0-7.0-5.11","60aeef267e494909058ef34e","bdp_wmem","Mon Mar 13 2023 11:21:48 GMT-0700 (Pacific Daylight Time)","592093","Match,No Match","","null","","","","","","<div class='trialBorder'><div class='vertical-center'><img src='img/error.jpg'></div><div class='respDiv'><div class='respDivL'><font style='color:orange'>Match<br>(e)</font></div><div class='respDivR'>No Match<br>(i)</div></div></div>","null","FEEDBACK","","","","","","","","","","",""
"html-keyboard-response","95","250426","0.0-7.0-1.12","60aeef267e494909058ef34e","bdp_wmem","Mon Mar 13 2023 11:21:48 GMT-0700 (Pacific Daylight Time)","592093","Match,No Match","","null","","","","","","<div class='trialBorder'><div class='vertical-center'><img src='img/fixation2_sml.jpg'</img></div></div>","null","FIX","","","","","","","","","","",""
"html-keyboard-response","96","251933","0.0-7.0-2.12","60aeef267e494909058ef34e","bdp_wmem","Mon Mar 13 2023 11:21:48 GMT-0700 (Pacific Daylight Time)","592093","Match,No Match","","null","","","","","","<div class='trialBorder'><div class='vertical-center'><img style='vertical-align:center; align:center' src='img/fixation2_sml.jpg'></div><div class='arrayDiv1'><div class='tc'><img class='introPic' src='trustrating_stim/white_mw038.bmp'><br><font color='red'><strong>Keep</strong></font></div></div></div>","null","ARRAY","1","trustrating_stim/white_mw038.bmp","0","Match","e","1500","","","","",""
"html-keyboard-response","97","255938","0.0-7.0-3.12","60aeef267e494909058ef34e","bdp_wmem","Mon Mar 13 2023 11:21:48 GMT-0700 (Pacific Daylight Time)","592093","Match,No Match","","null","","","","","","<div class='trialBorder'><div class='vertical-center'><img src='img/fixation2_sml.jpg'</img></div></div>","null","DELAY","","","","","","","","","","",""
"html-keyboard-response","98","256980","0.0-7.0-4.12","60aeef267e494909058ef34e","bdp_wmem","Mon Mar 13 2023 11:21:48 GMT-0700 (Pacific Daylight Time)","592093","Match,No Match","","1041","","","","","","<div class='trialBorder'><div class='targDiv'><div class='tc'><img class='introPic' src='trustrating_stim/white_mw038.bmp'><br><font color='red'><strong>Keep</strong></font></div></div><div class='respDiv'><div class='respDivL'>Match<br>(e)</div><div class='respDivR'>No Match<br>(i)</div></div></div>","e","TARGET","1","trustrating_stim/white_mw038.bmp","0","Match","e","1500","trustrating_stim/white_mw038.bmp","red","Keep","REAL","1"
"html-keyboard-response","99","257482","0.0-7.0-5.12","60aeef267e494909058ef34e","bdp_wmem","Mon Mar 13 2023 11:21:48 GMT-0700 (Pacific Daylight Time)","592093","Match,No Match","","null","","","","","","<div class='trialBorder'><div class='vertical-center'><img src='img/correct.jpg'></div><div class='respDiv'><div class='respDivL'><font style='color:orange'>Match<br>(e)</font></div><div class='respDivR'>No Match<br>(i)</div></div></div>","null","FEEDBACK","","","","","","","","","","",""
"html-keyboard-response","100","257987","0.0-7.0-1.13","60aeef267e494909058ef34e","bdp_wmem","Mon Mar 13 2023 11:21:48 GMT-0700 (Pacific Daylight Time)","592093","Match,No Match","","null","","","","","","<div class='trialBorder'><div class='vertical-center'><img src='img/fixation2_sml.jpg'</img></div></div>","null","FIX","","","","","","","","","","",""
"html-keyboard-response","101","260994","0.0-7.0-2.13","60aeef267e494909058ef34e","bdp_wmem","Mon Mar 13 2023 11:21:48 GMT-0700 (Pacific Daylight Time)","592093","Match,No Match","","null","","","","","","<div class='trialBorder'><div class='vertical-center'><img style='vertical-align:center; align:center' src='img/fixation2_sml.jpg'></div><div class='arrayDiv2'><div class='tl'><img class='introPic' src='trustrating_stim/white_mw010.bmp'><br><font color='green'><strong>Share</strong></font></div><div class='tr'><img class='introPic' src='trustrating_stim/white_mw013.bmp'><br><font color='red'><strong>Keep</strong></font></div></div></div>","null","ARRAY","2","trustrating_stim/white_mw010.bmp,trustrating_stim/white_mw013.bmp","1,0","Match","e","3000","","","","",""
"html-keyboard-response","102","265002","0.0-7.0-3.13","60aeef267e494909058ef34e","bdp_wmem","Mon Mar 13 2023 11:21:48 GMT-0700 (Pacific Daylight Time)","592093","Match,No Match","","null","","","","","","<div class='trialBorder'><div class='vertical-center'><img src='img/fixation2_sml.jpg'</img></div></div>","null","DELAY","","","","","","","","","","",""
"html-keyboard-response","103","266321","0.0-7.0-4.13","60aeef267e494909058ef34e","bdp_wmem","Mon Mar 13 2023 11:21:48 GMT-0700 (Pacific Daylight Time)","592093","Match,No Match","","1317","","","","","","<div class='trialBorder'><div class='targDiv'><div class='tc'><img class='introPic' src='trustrating_stim/white_mw013.bmp'><br><font color='red'><strong>Keep</strong></font></div></div><div class='respDiv'><div class='respDivL'>Match<br>(e)</div><div class='respDivR'>No Match<br>(i)</div></div></div>","e","TARGET","2","trustrating_stim/white_mw010.bmp,trustrating_stim/white_mw013.bmp","1,0","Match","e","3000","trustrating_stim/white_mw013.bmp","red","Keep","REAL","1"
"html-keyboard-response","104","266828","0.0-7.0-5.13","60aeef267e494909058ef34e","bdp_wmem","Mon Mar 13 2023 11:21:48 GMT-0700 (Pacific Daylight Time)","592093","Match,No Match","","null","","","","","","<div class='trialBorder'><div class='vertical-center'><img src='img/correct.jpg'></div><div class='respDiv'><div class='respDivL'><font style='color:orange'>Match<br>(e)</font></div><div class='respDivR'>No Match<br>(i)</div></div></div>","null","FEEDBACK","","","","","","","","","","",""
"html-keyboard-response","105","267333","0.0-7.0-1.14","60aeef267e494909058ef34e","bdp_wmem","Mon Mar 13 2023 11:21:48 GMT-0700 (Pacific Daylight Time)","592093","Match,No Match","","null","","","","","","<div class='trialBorder'><div class='vertical-center'><img src='img/fixation2_sml.jpg'</img></div></div>","null","FIX","","","","","","","","","","",""
"html-keyboard-response","106","271844","0.0-7.0-2.14","60aeef267e494909058ef34e","bdp_wmem","Mon Mar 13 2023 11:21:48 GMT-0700 (Pacific Daylight Time)","592093","Match,No Match","","null","","","","","","<div class='trialBorder'><div class='vertical-center'><img style='vertical-align:center; align:center' src='img/fixation2_sml.jpg'></div><div class='arrayDiv3'><div class='tl'><img class='introPic' src='trustrating_stim/white_mw085.bmp'><br><font color='red'><strong>Keep</strong></font></div><div class='tc'><img class='introPic' src='trustrating_stim/white_mw040.bmp'><br><font color='red'><strong>Keep</strong></font></div><div class='tr'><img class='introPic' src='trustrating_stim/white_mw070.bmp'><br><font color='green'><strong>Share</strong></font></div></div></div>","null","ARRAY","3","trustrating_stim/white_mw085.bmp,trustrating_stim/white_mw040.bmp,trustrating_stim/white_mw070.bmp","0,0,1","noMatchOutcome","i","4500","","","","",""
"html-keyboard-response","107","275852","0.0-7.0-3.14","60aeef267e494909058ef34e","bdp_wmem","Mon Mar 13 2023 11:21:48 GMT-0700 (Pacific Daylight Time)","592093","Match,No Match","","null","","","","","","<div class='trialBorder'><div class='vertical-center'><img src='img/fixation2_sml.jpg'</img></div></div>","null","DELAY","","","","","","","","","","",""
"html-keyboard-response","108","277199","0.0-7.0-4.14","60aeef267e494909058ef34e","bdp_wmem","Mon Mar 13 2023 11:21:48 GMT-0700 (Pacific Daylight Time)","592093","Match,No Match","","1346","","","","","","<div class='trialBorder'><div class='targDiv'><div class='tc'><img class='introPic' src='trustrating_stim/white_mw085.bmp'><br><font color='green'><strong>Share</strong></font></div></div><div class='respDiv'><div class='respDivL'>Match<br>(e)</div><div class='respDivR'>No Match<br>(i)</div></div></div>","i","TARGET","3","trustrating_stim/white_mw085.bmp,trustrating_stim/white_mw040.bmp,trustrating_stim/white_mw070.bmp","0,0,1","noMatchOutcome","i","4500","trustrating_stim/white_mw085.bmp","green","Share","REAL","1"
"html-keyboard-response","109","277707","0.0-7.0-5.14","60aeef267e494909058ef34e","bdp_wmem","Mon Mar 13 2023 11:21:48 GMT-0700 (Pacific Daylight Time)","592093","Match,No Match","","null","","","","","","<div class='trialBorder'><div class='vertical-center'><img src='img/correct.jpg'></div><div class='respDiv'><div class='respDivL'>Match<br>(e)</div><div class='respDivR'><font style='color:orange'>No Match<br>(i)</font></div></div></div>","null","FEEDBACK","","","","","","","","","","",""
"html-keyboard-response","110","278213","0.0-7.0-1.15","60aeef267e494909058ef34e","bdp_wmem","Mon Mar 13 2023 11:21:48 GMT-0700 (Pacific Daylight Time)","592093","Match,No Match","","null","","","","","","<div class='trialBorder'><div class='vertical-center'><img src='img/fixation2_sml.jpg'</img></div></div>","null","FIX","","","","","","","","","","",""
"html-keyboard-response","111","282723","0.0-7.0-2.15","60aeef267e494909058ef34e","bdp_wmem","Mon Mar 13 2023 11:21:48 GMT-0700 (Pacific Daylight Time)","592093","Match,No Match","","null","","","","","","<div class='trialBorder'><div class='vertical-center'><img style='vertical-align:center; align:center' src='img/fixation2_sml.jpg'></div><div class='arrayDiv3'><div class='tl'><img class='introPic' src='trustrating_stim/white_mw040.bmp'><br><font color='red'><strong>Keep</strong></font></div><div class='tc'><img class='introPic' src='trustrating_stim/white_mw013.bmp'><br><font color='green'><strong>Share</strong></font></div><div class='tr'><img class='introPic' src='trustrating_stim/white_mw010.bmp'><br><font color='green'><strong>Share</strong></font></div></div></div>","null","ARRAY","3","trustrating_stim/white_mw040.bmp,trustrating_stim/white_mw013.bmp,trustrating_stim/white_mw010.bmp","0,1,1","Match","e","4500","","","","",""
"html-keyboard-response","112","286730","0.0-7.0-3.15","60aeef267e494909058ef34e","bdp_wmem","Mon Mar 13 2023 11:21:48 GMT-0700 (Pacific Daylight Time)","592093","Match,No Match","","null","","","","","","<div class='trialBorder'><div class='vertical-center'><img src='img/fixation2_sml.jpg'</img></div></div>","null","DELAY","","","","","","","","","","",""
"html-keyboard-response","113","288302","0.0-7.0-4.15","60aeef267e494909058ef34e","bdp_wmem","Mon Mar 13 2023 11:21:48 GMT-0700 (Pacific Daylight Time)","592093","Match,No Match","","1570","","","","","","<div class='trialBorder'><div class='targDiv'><div class='tc'><img class='introPic' src='trustrating_stim/white_mw010.bmp'><br><font color='green'><strong>Share</strong></font></div></div><div class='respDiv'><div class='respDivL'>Match<br>(e)</div><div class='respDivR'>No Match<br>(i)</div></div></div>","e","TARGET","3","trustrating_stim/white_mw040.bmp,trustrating_stim/white_mw013.bmp,trustrating_stim/white_mw010.bmp","0,1,1","Match","e","4500","trustrating_stim/white_mw010.bmp","green","Share","REAL","1"
"html-keyboard-response","114","288812","0.0-7.0-5.15","60aeef267e494909058ef34e","bdp_wmem","Mon Mar 13 2023 11:21:48 GMT-0700 (Pacific Daylight Time)","592093","Match,No Match","","null","","","","","","<div class='trialBorder'><div class='vertical-center'><img src='img/correct.jpg'></div><div class='respDiv'><div class='respDivL'><font style='color:orange'>Match<br>(e)</font></div><div class='respDivR'>No Match<br>(i)</div></div></div>","null","FEEDBACK","","","","","","","","","","",""
"html-keyboard-response","115","289315","0.0-7.0-1.16","60aeef267e494909058ef34e","bdp_wmem","Mon Mar 13 2023 11:21:48 GMT-0700 (Pacific Daylight Time)","592093","Match,No Match","","null","","","","","","<div class='trialBorder'><div class='vertical-center'><img src='img/fixation2_sml.jpg'</img></div></div>","null","FIX","","","","","","","","","","",""
"html-keyboard-response","116","290821","0.0-7.0-2.16","60aeef267e494909058ef34e","bdp_wmem","Mon Mar 13 2023 11:21:48 GMT-0700 (Pacific Daylight Time)","592093","Match,No Match","","null","","","","","","<div class='trialBorder'><div class='vertical-center'><img style='vertical-align:center; align:center' src='img/fixation2_sml.jpg'></div><div class='arrayDiv1'><div class='tc'><img class='introPic' src='trustrating_stim/white_mw003.bmp'><br><font color='green'><strong>Share</strong></font></div></div></div>","null","ARRAY","1","trustrating_stim/white_mw003.bmp","1","noMatchOutcome","i","1500","","","","",""
"html-keyboard-response","117","294827","0.0-7.0-3.16","60aeef267e494909058ef34e","bdp_wmem","Mon Mar 13 2023 11:21:48 GMT-0700 (Pacific Daylight Time)","592093","Match,No Match","","null","","","","","","<div class='trialBorder'><div class='vertical-center'><img src='img/fixation2_sml.jpg'</img></div></div>","null","DELAY","","","","","","","","","","",""
"html-keyboard-response","118","295819","0.0-7.0-4.16","60aeef267e494909058ef34e","bdp_wmem","Mon Mar 13 2023 11:21:48 GMT-0700 (Pacific Daylight Time)","592093","Match,No Match","","990","","","","","","<div class='trialBorder'><div class='targDiv'><div class='tc'><img class='introPic' src='trustrating_stim/white_mw003.bmp'><br><font color='red'><strong>Keep</strong></font></div></div><div class='respDiv'><div class='respDivL'>Match<br>(e)</div><div class='respDivR'>No Match<br>(i)</div></div></div>","i","TARGET","1","trustrating_stim/white_mw003.bmp","1","noMatchOutcome","i","1500","trustrating_stim/white_mw003.bmp","red","Keep","REAL","1"
"html-keyboard-response","119","296325","0.0-7.0-5.16","60aeef267e494909058ef34e","bdp_wmem","Mon Mar 13 2023 11:21:48 GMT-0700 (Pacific Daylight Time)","592093","Match,No Match","","null","","","","","","<div class='trialBorder'><div class='vertical-center'><img src='img/correct.jpg'></div><div class='respDiv'><div class='respDivL'>Match<br>(e)</div><div class='respDivR'><font style='color:orange'>No Match<br>(i)</font></div></div></div>","null","FEEDBACK","","","","","","","","","","",""
"html-keyboard-response","120","296830","0.0-7.0-1.17","60aeef267e494909058ef34e","bdp_wmem","Mon Mar 13 2023 11:21:48 GMT-0700 (Pacific Daylight Time)","592093","Match,No Match","","null","","","","","","<div class='trialBorder'><div class='vertical-center'><img src='img/fixation2_sml.jpg'</img></div></div>","null","FIX","","","","","","","","","","",""
"html-keyboard-response","121","298339","0.0-7.0-2.17","60aeef267e494909058ef34e","bdp_wmem","Mon Mar 13 2023 11:21:48 GMT-0700 (Pacific Daylight Time)","592093","Match,No Match","","null","","","","","","<div class='trialBorder'><div class='vertical-center'><img style='vertical-align:center; align:center' src='img/fixation2_sml.jpg'></div><div class='arrayDiv1'><div class='tc'><img class='introPic' src='trustrating_stim/white_mw040.bmp'><br><font color='green'><strong>Share</strong></font></div></div></div>","null","ARRAY","1","trustrating_stim/white_mw040.bmp","1","noMatchFace","i","1500","","","","",""
"html-keyboard-response","122","302347","0.0-7.0-3.17","60aeef267e494909058ef34e","bdp_wmem","Mon Mar 13 2023 11:21:48 GMT-0700 (Pacific Daylight Time)","592093","Match,No Match","","null","","","","","","<div class='trialBorder'><div class='vertical-center'><img src='img/fixation2_sml.jpg'</img></div></div>","null","DELAY","","","","","","","","","","",""
"html-keyboard-response","123","303324","0.0-7.0-4.17","60aeef267e494909058ef34e","bdp_wmem","Mon Mar 13 2023 11:21:48 GMT-0700 (Pacific Daylight Time)","592093","Match,No Match","","975","","","","","","<div class='trialBorder'><div class='targDiv'><div class='tc'><img class='introPic' src='trustrating_stim/white_mw092.bmp'><br><font color='green'><strong>Share</strong></font></div></div><div class='respDiv'><div class='respDivL'>Match<br>(e)</div><div class='respDivR'>No Match<br>(i)</div></div></div>","i","TARGET","1","trustrating_stim/white_mw040.bmp","1","noMatchFace","i","1500","trustrating_stim/white_mw092.bmp","green","Share","REAL","1"
"html-keyboard-response","124","303828","0.0-7.0-5.17","60aeef267e494909058ef34e","bdp_wmem","Mon Mar 13 2023 11:21:48 GMT-0700 (Pacific Daylight Time)","592093","Match,No Match","","null","","","","","","<div class='trialBorder'><div class='vertical-center'><img src='img/correct.jpg'></div><div class='respDiv'><div class='respDivL'>Match<br>(e)</div><div class='respDivR'><font style='color:orange'>No Match<br>(i)</font></div></div></div>","null","FEEDBACK","","","","","","","","","","",""
"html-keyboard-response","125","304332","0.0-7.0-1.18","60aeef267e494909058ef34e","bdp_wmem","Mon Mar 13 2023 11:21:48 GMT-0700 (Pacific Daylight Time)","592093","Match,No Match","","null","","","","","","<div class='trialBorder'><div class='vertical-center'><img src='img/fixation2_sml.jpg'</img></div></div>","null","FIX","","","","","","","","","","",""
"html-keyboard-response","126","307340","0.0-7.0-2.18","60aeef267e494909058ef34e","bdp_wmem","Mon Mar 13 2023 11:21:48 GMT-0700 (Pacific Daylight Time)","592093","Match,No Match","","null","","","","","","<div class='trialBorder'><div class='vertical-center'><img style='vertical-align:center; align:center' src='img/fixation2_sml.jpg'></div><div class='arrayDiv2'><div class='tl'><img class='introPic' src='trustrating_stim/white_mw078.bmp'><br><font color='green'><strong>Share</strong></font></div><div class='tr'><img class='introPic' src='trustrating_stim/white_mw085.bmp'><br><font color='red'><strong>Keep</strong></font></div></div></div>","null","ARRAY","2","trustrating_stim/white_mw078.bmp,trustrating_stim/white_mw085.bmp","1,0","Match","e","3000","","","","",""
"html-keyboard-response","127","311348","0.0-7.0-3.18","60aeef267e494909058ef34e","bdp_wmem","Mon Mar 13 2023 11:21:48 GMT-0700 (Pacific Daylight Time)","592093","Match,No Match","","null","","","","","","<div class='trialBorder'><div class='vertical-center'><img src='img/fixation2_sml.jpg'</img></div></div>","null","DELAY","","","","","","","","","","",""
"html-keyboard-response","128","313883","0.0-7.0-4.18","60aeef267e494909058ef34e","bdp_wmem","Mon Mar 13 2023 11:21:48 GMT-0700 (Pacific Daylight Time)","592093","Match,No Match","","2533","","","","","","<div class='trialBorder'><div class='targDiv'><div class='tc'><img class='introPic' src='trustrating_stim/white_mw085.bmp'><br><font color='red'><strong>Keep</strong></font></div></div><div class='respDiv'><div class='respDivL'>Match<br>(e)</div><div class='respDivR'>No Match<br>(i)</div></div></div>","e","TARGET","2","trustrating_stim/white_mw078.bmp,trustrating_stim/white_mw085.bmp","1,0","Match","e","3000","trustrating_stim/white_mw085.bmp","red","Keep","REAL","1"
"html-keyboard-response","129","314390","0.0-7.0-5.18","60aeef267e494909058ef34e","bdp_wmem","Mon Mar 13 2023 11:21:48 GMT-0700 (Pacific Daylight Time)","592093","Match,No Match","","null","","","","","","<div class='trialBorder'><div class='vertical-center'><img src='img/correct.jpg'></div><div class='respDiv'><div class='respDivL'><font style='color:orange'>Match<br>(e)</font></div><div class='respDivR'>No Match<br>(i)</div></div></div>","null","FEEDBACK","","","","","","","","","","",""
"html-keyboard-response","130","314891","0.0-7.0-1.19","60aeef267e494909058ef34e","bdp_wmem","Mon Mar 13 2023 11:21:48 GMT-0700 (Pacific Daylight Time)","592093","Match,No Match","","null","","","","","","<div class='trialBorder'><div class='vertical-center'><img src='img/fixation2_sml.jpg'</img></div></div>","null","FIX","","","","","","","","","","",""
"html-keyboard-response","131","316395","0.0-7.0-2.19","60aeef267e494909058ef34e","bdp_wmem","Mon Mar 13 2023 11:21:48 GMT-0700 (Pacific Daylight Time)","592093","Match,No Match","","null","","","","","","<div class='trialBorder'><div class='vertical-center'><img style='vertical-align:center; align:center' src='img/fixation2_sml.jpg'></div><div class='arrayDiv1'><div class='tc'><img class='introPic' src='trustrating_stim/white_mw010.bmp'><br><font color='green'><strong>Share</strong></font></div></div></div>","null","ARRAY","1","trustrating_stim/white_mw010.bmp","1","noMatchFace","i","1500","","","","",""
"html-keyboard-response","132","320404","0.0-7.0-3.19","60aeef267e494909058ef34e","bdp_wmem","Mon Mar 13 2023 11:21:48 GMT-0700 (Pacific Daylight Time)","592093","Match,No Match","","null","","","","","","<div class='trialBorder'><div class='vertical-center'><img src='img/fixation2_sml.jpg'</img></div></div>","null","DELAY","","","","","","","","","","",""
"html-keyboard-response","133","321045","0.0-7.0-4.19","60aeef267e494909058ef34e","bdp_wmem","Mon Mar 13 2023 11:21:48 GMT-0700 (Pacific Daylight Time)","592093","Match,No Match","","639","","","","","","<div class='trialBorder'><div class='targDiv'><div class='tc'><img class='introPic' src='trustrating_stim/white_mw003.bmp'><br><font color='green'><strong>Share</strong></font></div></div><div class='respDiv'><div class='respDivL'>Match<br>(e)</div><div class='respDivR'>No Match<br>(i)</div></div></div>","i","TARGET","1","trustrating_stim/white_mw010.bmp","1","noMatchFace","i","1500","trustrating_stim/white_mw003.bmp","green","Share","REAL","1"
"html-keyboard-response","134","321548","0.0-7.0-5.19","60aeef267e494909058ef34e","bdp_wmem","Mon Mar 13 2023 11:21:48 GMT-0700 (Pacific Daylight Time)","592093","Match,No Match","","null","","","","","","<div class='trialBorder'><div class='vertical-center'><img src='img/correct.jpg'></div><div class='respDiv'><div class='respDivL'>Match<br>(e)</div><div class='respDivR'><font style='color:orange'>No Match<br>(i)</font></div></div></div>","null","FEEDBACK","","","","","","","","","","",""
"html-keyboard-response","135","322053","0.0-7.0-1.20","60aeef267e494909058ef34e","bdp_wmem","Mon Mar 13 2023 11:21:48 GMT-0700 (Pacific Daylight Time)","592093","Match,No Match","","null","","","","","","<div class='trialBorder'><div class='vertical-center'><img src='img/fixation2_sml.jpg'</img></div></div>","null","FIX","","","","","","","","","","",""
"html-keyboard-response","136","323557","0.0-7.0-2.20","60aeef267e494909058ef34e","bdp_wmem","Mon Mar 13 2023 11:21:48 GMT-0700 (Pacific Daylight Time)","592093","Match,No Match","","null","","","","","","<div class='trialBorder'><div class='vertical-center'><img style='vertical-align:center; align:center' src='img/fixation2_sml.jpg'></div><div class='arrayDiv1'><div class='tc'><img class='introPic' src='trustrating_stim/white_mw078.bmp'><br><font color='red'><strong>Keep</strong></font></div></div></div>","null","ARRAY","1","trustrating_stim/white_mw078.bmp","0","noMatchOutcome","i","1500","","","","",""
"html-keyboard-response","137","327564","0.0-7.0-3.20","60aeef267e494909058ef34e","bdp_wmem","Mon Mar 13 2023 11:21:48 GMT-0700 (Pacific Daylight Time)","592093","Match,No Match","","null","","","","","","<div class='trialBorder'><div class='vertical-center'><img src='img/fixation2_sml.jpg'</img></div></div>","null","DELAY","","","","","","","","","","",""
"html-keyboard-response","138","328456","0.0-7.0-4.20","60aeef267e494909058ef34e","bdp_wmem","Mon Mar 13 2023 11:21:48 GMT-0700 (Pacific Daylight Time)","592093","Match,No Match","","890","","","","","","<div class='trialBorder'><div class='targDiv'><div class='tc'><img class='introPic' src='trustrating_stim/white_mw078.bmp'><br><font color='green'><strong>Share</strong></font></div></div><div class='respDiv'><div class='respDivL'>Match<br>(e)</div><div class='respDivR'>No Match<br>(i)</div></div></div>","i","TARGET","1","trustrating_stim/white_mw078.bmp","0","noMatchOutcome","i","1500","trustrating_stim/white_mw078.bmp","green","Share","REAL","1"
"html-keyboard-response","139","328957","0.0-7.0-5.20","60aeef267e494909058ef34e","bdp_wmem","Mon Mar 13 2023 11:21:48 GMT-0700 (Pacific Daylight Time)","592093","Match,No Match","","null","","","","","","<div class='trialBorder'><div class='vertical-center'><img src='img/correct.jpg'></div><div class='respDiv'><div class='respDivL'>Match<br>(e)</div><div class='respDivR'><font style='color:orange'>No Match<br>(i)</font></div></div></div>","null","FEEDBACK","","","","","","","","","","",""
"html-keyboard-response","140","329460","0.0-7.0-1.21","60aeef267e494909058ef34e","bdp_wmem","Mon Mar 13 2023 11:21:48 GMT-0700 (Pacific Daylight Time)","592093","Match,No Match","","null","","","","","","<div class='trialBorder'><div class='vertical-center'><img src='img/fixation2_sml.jpg'</img></div></div>","null","FIX","","","","","","","","","","",""
"html-keyboard-response","141","332469","0.0-7.0-2.21","60aeef267e494909058ef34e","bdp_wmem","Mon Mar 13 2023 11:21:48 GMT-0700 (Pacific Daylight Time)","592093","Match,No Match","","null","","","","","","<div class='trialBorder'><div class='vertical-center'><img style='vertical-align:center; align:center' src='img/fixation2_sml.jpg'></div><div class='arrayDiv2'><div class='tl'><img class='introPic' src='trustrating_stim/white_mw092.bmp'><br><font color='green'><strong>Share</strong></font></div><div class='tr'><img class='introPic' src='trustrating_stim/white_mw091.bmp'><br><font color='red'><strong>Keep</strong></font></div></div></div>","null","ARRAY","2","trustrating_stim/white_mw092.bmp,trustrating_stim/white_mw091.bmp","1,0","noMatchFace","i","3000","","","","",""
"html-keyboard-response","142","336479","0.0-7.0-3.21","60aeef267e494909058ef34e","bdp_wmem","Mon Mar 13 2023 11:21:48 GMT-0700 (Pacific Daylight Time)","592093","Match,No Match","","null","","","","","","<div class='trialBorder'><div class='vertical-center'><img src='img/fixation2_sml.jpg'</img></div></div>","null","DELAY","","","","","","","","","","",""
"html-keyboard-response","143","338069","0.0-7.0-4.21","60aeef267e494909058ef34e","bdp_wmem","Mon Mar 13 2023 11:21:48 GMT-0700 (Pacific Daylight Time)","592093","Match,No Match","","1589","","","","","","<div class='trialBorder'><div class='targDiv'><div class='tc'><img class='introPic' src='trustrating_stim/white_mw038.bmp'><br><font color='red'><strong>Keep</strong></font></div></div><div class='respDiv'><div class='respDivL'>Match<br>(e)</div><div class='respDivR'>No Match<br>(i)</div></div></div>","i","TARGET","2","trustrating_stim/white_mw092.bmp,trustrating_stim/white_mw091.bmp","1,0","noMatchFace","i","3000","trustrating_stim/white_mw038.bmp","red","Keep","REAL","1"
"html-keyboard-response","144","338575","0.0-7.0-5.21","60aeef267e494909058ef34e","bdp_wmem","Mon Mar 13 2023 11:21:48 GMT-0700 (Pacific Daylight Time)","592093","Match,No Match","","null","","","","","","<div class='trialBorder'><div class='vertical-center'><img src='img/correct.jpg'></div><div class='respDiv'><div class='respDivL'>Match<br>(e)</div><div class='respDivR'><font style='color:orange'>No Match<br>(i)</font></div></div></div>","null","FEEDBACK","","","","","","","","","","",""
"html-keyboard-response","145","339076","0.0-7.0-1.22","60aeef267e494909058ef34e","bdp_wmem","Mon Mar 13 2023 11:21:48 GMT-0700 (Pacific Daylight Time)","592093","Match,No Match","","null","","","","","","<div class='trialBorder'><div class='vertical-center'><img src='img/fixation2_sml.jpg'</img></div></div>","null","FIX","","","","","","","","","","",""
"html-keyboard-response","146","340583","0.0-7.0-2.22","60aeef267e494909058ef34e","bdp_wmem","Mon Mar 13 2023 11:21:48 GMT-0700 (Pacific Daylight Time)","592093","Match,No Match","","null","","","","","","<div class='trialBorder'><div class='vertical-center'><img style='vertical-align:center; align:center' src='img/fixation2_sml.jpg'></div><div class='arrayDiv1'><div class='tc'><img class='introPic' src='trustrating_stim/white_mw013.bmp'><br><font color='red'><strong>Keep</strong></font></div></div></div>","null","ARRAY","1","trustrating_stim/white_mw013.bmp","0","Match","e","1500","","","","",""
"html-keyboard-response","147","344589","0.0-7.0-3.22","60aeef267e494909058ef34e","bdp_wmem","Mon Mar 13 2023 11:21:48 GMT-0700 (Pacific Daylight Time)","592093","Match,No Match","","null","","","","","","<div class='trialBorder'><div class='vertical-center'><img src='img/fixation2_sml.jpg'</img></div></div>","null","DELAY","","","","","","","","","","",""
"html-keyboard-response","148","345353","0.0-7.0-4.22","60aeef267e494909058ef34e","bdp_wmem","Mon Mar 13 2023 11:21:48 GMT-0700 (Pacific Daylight Time)","592093","Match,No Match","","763","","","","","","<div class='trialBorder'><div class='targDiv'><div class='tc'><img class='introPic' src='trustrating_stim/white_mw013.bmp'><br><font color='red'><strong>Keep</strong></font></div></div><div class='respDiv'><div class='respDivL'>Match<br>(e)</div><div class='respDivR'>No Match<br>(i)</div></div></div>","e","TARGET","1","trustrating_stim/white_mw013.bmp","0","Match","e","1500","trustrating_stim/white_mw013.bmp","red","Keep","REAL","1"
"html-keyboard-response","149","345862","0.0-7.0-5.22","60aeef267e494909058ef34e","bdp_wmem","Mon Mar 13 2023 11:21:48 GMT-0700 (Pacific Daylight Time)","592093","Match,No Match","","null","","","","","","<div class='trialBorder'><div class='vertical-center'><img src='img/correct.jpg'></div><div class='respDiv'><div class='respDivL'><font style='color:orange'>Match<br>(e)</font></div><div class='respDivR'>No Match<br>(i)</div></div></div>","null","FEEDBACK","","","","","","","","","","",""
"html-keyboard-response","150","346365","0.0-7.0-1.23","60aeef267e494909058ef34e","bdp_wmem","Mon Mar 13 2023 11:21:48 GMT-0700 (Pacific Daylight Time)","592093","Match,No Match","","null","","","","","","<div class='trialBorder'><div class='vertical-center'><img src='img/fixation2_sml.jpg'</img></div></div>","null","FIX","","","","","","","","","","",""
"html-keyboard-response","151","350870","0.0-7.0-2.23","60aeef267e494909058ef34e","bdp_wmem","Mon Mar 13 2023 11:21:48 GMT-0700 (Pacific Daylight Time)","592093","Match,No Match","","null","","","","","","<div class='trialBorder'><div class='vertical-center'><img style='vertical-align:center; align:center' src='img/fixation2_sml.jpg'></div><div class='arrayDiv3'><div class='tl'><img class='introPic' src='trustrating_stim/white_mw038.bmp'><br><font color='green'><strong>Share</strong></font></div><div class='tc'><img class='introPic' src='trustrating_stim/white_mw010.bmp'><br><font color='red'><strong>Keep</strong></font></div><div class='tr'><img class='introPic' src='trustrating_stim/white_mw085.bmp'><br><font color='green'><strong>Share</strong></font></div></div></div>","null","ARRAY","3","trustrating_stim/white_mw038.bmp,trustrating_stim/white_mw010.bmp,trustrating_stim/white_mw085.bmp","1,0,1","noMatchFace","i","4500","","","","",""
"html-keyboard-response","152","354877","0.0-7.0-3.23","60aeef267e494909058ef34e","bdp_wmem","Mon Mar 13 2023 11:21:48 GMT-0700 (Pacific Daylight Time)","592093","Match,No Match","","null","","","","","","<div class='trialBorder'><div class='vertical-center'><img src='img/fixation2_sml.jpg'</img></div></div>","null","DELAY","","","","","","","","","","",""
"html-keyboard-response","153","357133","0.0-7.0-4.23","60aeef267e494909058ef34e","bdp_wmem","Mon Mar 13 2023 11:21:48 GMT-0700 (Pacific Daylight Time)","592093","Match,No Match","","2254","","","","","","<div class='trialBorder'><div class='targDiv'><div class='tc'><img class='introPic' src='trustrating_stim/white_mw092.bmp'><br><font color='green'><strong>Share</strong></font></div></div><div class='respDiv'><div class='respDivL'>Match<br>(e)</div><div class='respDivR'>No Match<br>(i)</div></div></div>","i","TARGET","3","trustrating_stim/white_mw038.bmp,trustrating_stim/white_mw010.bmp,trustrating_stim/white_mw085.bmp","1,0,1","noMatchFace","i","4500","trustrating_stim/white_mw092.bmp","green","Share","REAL","1"
"html-keyboard-response","154","357639","0.0-7.0-5.23","60aeef267e494909058ef34e","bdp_wmem","Mon Mar 13 2023 11:21:48 GMT-0700 (Pacific Daylight Time)","592093","Match,No Match","","null","","","","","","<div class='trialBorder'><div class='vertical-center'><img src='img/correct.jpg'></div><div class='respDiv'><div class='respDivL'>Match<br>(e)</div><div class='respDivR'><font style='color:orange'>No Match<br>(i)</font></div></div></div>","null","FEEDBACK","","","","","","","","","","",""
"html-keyboard-response","155","358141","0.0-7.0-1.24","60aeef267e494909058ef34e","bdp_wmem","Mon Mar 13 2023 11:21:48 GMT-0700 (Pacific Daylight Time)","592093","Match,No Match","","null","","","","","","<div class='trialBorder'><div class='vertical-center'><img src='img/fixation2_sml.jpg'</img></div></div>","null","FIX","","","","","","","","","","",""
"html-keyboard-response","156","362645","0.0-7.0-2.24","60aeef267e494909058ef34e","bdp_wmem","Mon Mar 13 2023 11:21:48 GMT-0700 (Pacific Daylight Time)","592093","Match,No Match","","null","","","","","","<div class='trialBorder'><div class='vertical-center'><img style='vertical-align:center; align:center' src='img/fixation2_sml.jpg'></div><div class='arrayDiv3'><div class='tl'><img class='introPic' src='trustrating_stim/white_mw010.bmp'><br><font color='green'><strong>Share</strong></font></div><div class='tc'><img class='introPic' src='trustrating_stim/white_mw085.bmp'><br><font color='green'><strong>Share</strong></font></div><div class='tr'><img class='introPic' src='trustrating_stim/white_mw003.bmp'><br><font color='red'><strong>Keep</strong></font></div></div></div>","null","ARRAY","3","trustrating_stim/white_mw010.bmp,trustrating_stim/white_mw085.bmp,trustrating_stim/white_mw003.bmp","1,1,0","Match","e","4500","","","","",""
"html-keyboard-response","157","366654","0.0-7.0-3.24","60aeef267e494909058ef34e","bdp_wmem","Mon Mar 13 2023 11:21:48 GMT-0700 (Pacific Daylight Time)","592093","Match,No Match","","null","","","","","","<div class='trialBorder'><div class='vertical-center'><img src='img/fixation2_sml.jpg'</img></div></div>","null","DELAY","","","","","","","","","","",""
"html-keyboard-response","158","368145","0.0-7.0-4.24","60aeef267e494909058ef34e","bdp_wmem","Mon Mar 13 2023 11:21:48 GMT-0700 (Pacific Daylight Time)","592093","Match,No Match","","1489","","","","","","<div class='trialBorder'><div class='targDiv'><div class='tc'><img class='introPic' src='trustrating_stim/white_mw085.bmp'><br><font color='green'><strong>Share</strong></font></div></div><div class='respDiv'><div class='respDivL'>Match<br>(e)</div><div class='respDivR'>No Match<br>(i)</div></div></div>","e","TARGET","3","trustrating_stim/white_mw010.bmp,trustrating_stim/white_mw085.bmp,trustrating_stim/white_mw003.bmp","1,1,0","Match","e","4500","trustrating_stim/white_mw085.bmp","green","Share","REAL","1"
"html-keyboard-response","159","368653","0.0-7.0-5.24","60aeef267e494909058ef34e","bdp_wmem","Mon Mar 13 2023 11:21:48 GMT-0700 (Pacific Daylight Time)","592093","Match,No Match","","null","","","","","","<div class='trialBorder'><div class='vertical-center'><img src='img/correct.jpg'></div><div class='respDiv'><div class='respDivL'><font style='color:orange'>Match<br>(e)</font></div><div class='respDivR'>No Match<br>(i)</div></div></div>","null","FEEDBACK","","","","","","","","","","",""
"html-keyboard-response","160","369158","0.0-7.0-1.25","60aeef267e494909058ef34e","bdp_wmem","Mon Mar 13 2023 11:21:48 GMT-0700 (Pacific Daylight Time)","592093","Match,No Match","","null","","","","","","<div class='trialBorder'><div class='vertical-center'><img src='img/fixation2_sml.jpg'</img></div></div>","null","FIX","","","","","","","","","","",""
"html-keyboard-response","161","370661","0.0-7.0-2.25","60aeef267e494909058ef34e","bdp_wmem","Mon Mar 13 2023 11:21:48 GMT-0700 (Pacific Daylight Time)","592093","Match,No Match","","null","","","","","","<div class='trialBorder'><div class='vertical-center'><img style='vertical-align:center; align:center' src='img/fixation2_sml.jpg'></div><div class='arrayDiv1'><div class='tc'><img class='introPic' src='trustrating_stim/white_mw070.bmp'><br><font color='red'><strong>Keep</strong></font></div></div></div>","null","ARRAY","1","trustrating_stim/white_mw070.bmp","0","noMatchFace","i","1500","","","","",""
"html-keyboard-response","162","374671","0.0-7.0-3.25","60aeef267e494909058ef34e","bdp_wmem","Mon Mar 13 2023 11:21:48 GMT-0700 (Pacific Daylight Time)","592093","Match,No Match","","null","","","","","","<div class='trialBorder'><div class='vertical-center'><img src='img/fixation2_sml.jpg'</img></div></div>","null","DELAY","","","","","","","","","","",""
"html-keyboard-response","163","375759","0.0-7.0-4.25","60aeef267e494909058ef34e","bdp_wmem","Mon Mar 13 2023 11:21:48 GMT-0700 (Pacific Daylight Time)","592093","Match,No Match","","1087","","","","","","<div class='trialBorder'><div class='targDiv'><div class='tc'><img class='introPic' src='trustrating_stim/white_mw040.bmp'><br><font color='red'><strong>Keep</strong></font></div></div><div class='respDiv'><div class='respDivL'>Match<br>(e)</div><div class='respDivR'>No Match<br>(i)</div></div></div>","i","TARGET","1","trustrating_stim/white_mw070.bmp","0","noMatchFace","i","1500","trustrating_stim/white_mw040.bmp","red","Keep","REAL","1"
"html-keyboard-response","164","376262","0.0-7.0-5.25","60aeef267e494909058ef34e","bdp_wmem","Mon Mar 13 2023 11:21:48 GMT-0700 (Pacific Daylight Time)","592093","Match,No Match","","null","","","","","","<div class='trialBorder'><div class='vertical-center'><img src='img/correct.jpg'></div><div class='respDiv'><div class='respDivL'>Match<br>(e)</div><div class='respDivR'><font style='color:orange'>No Match<br>(i)</font></div></div></div>","null","FEEDBACK","","","","","","","","","","",""
"html-keyboard-response","165","376767","0.0-7.0-1.26","60aeef267e494909058ef34e","bdp_wmem","Mon Mar 13 2023 11:21:48 GMT-0700 (Pacific Daylight Time)","592093","Match,No Match","","null","","","","","","<div class='trialBorder'><div class='vertical-center'><img src='img/fixation2_sml.jpg'</img></div></div>","null","FIX","","","","","","","","","","",""
"html-keyboard-response","166","381271","0.0-7.0-2.26","60aeef267e494909058ef34e","bdp_wmem","Mon Mar 13 2023 11:21:48 GMT-0700 (Pacific Daylight Time)","592093","Match,No Match","","null","","","","","","<div class='trialBorder'><div class='vertical-center'><img style='vertical-align:center; align:center' src='img/fixation2_sml.jpg'></div><div class='arrayDiv3'><div class='tl'><img class='introPic' src='trustrating_stim/white_mw042.bmp'><br><font color='green'><strong>Share</strong></font></div><div class='tc'><img class='introPic' src='trustrating_stim/white_mw085.bmp'><br><font color='red'><strong>Keep</strong></font></div><div class='tr'><img class='introPic' src='trustrating_stim/white_mw013.bmp'><br><font color='green'><strong>Share</strong></font></div></div></div>","null","ARRAY","3","trustrating_stim/white_mw042.bmp,trustrating_stim/white_mw085.bmp,trustrating_stim/white_mw013.bmp","1,0,1","noMatchOutcome","i","4500","","","","",""
"html-keyboard-response","167","385279","0.0-7.0-3.26","60aeef267e494909058ef34e","bdp_wmem","Mon Mar 13 2023 11:21:48 GMT-0700 (Pacific Daylight Time)","592093","Match,No Match","","null","","","","","","<div class='trialBorder'><div class='vertical-center'><img src='img/fixation2_sml.jpg'</img></div></div>","null","DELAY","","","","","","","","","","",""
"html-keyboard-response","168","386758","0.0-7.0-4.26","60aeef267e494909058ef34e","bdp_wmem","Mon Mar 13 2023 11:21:48 GMT-0700 (Pacific Daylight Time)","592093","Match,No Match","","1477","","","","","","<div class='trialBorder'><div class='targDiv'><div class='tc'><img class='introPic' src='trustrating_stim/white_mw085.bmp'><br><font color='green'><strong>Share</strong></font></div></div><div class='respDiv'><div class='respDivL'>Match<br>(e)</div><div class='respDivR'>No Match<br>(i)</div></div></div>","i","TARGET","3","trustrating_stim/white_mw042.bmp,trustrating_stim/white_mw085.bmp,trustrating_stim/white_mw013.bmp","1,0,1","noMatchOutcome","i","4500","trustrating_stim/white_mw085.bmp","green","Share","REAL","1"
"html-keyboard-response","169","387262","0.0-7.0-5.26","60aeef267e494909058ef34e","bdp_wmem","Mon Mar 13 2023 11:21:48 GMT-0700 (Pacific Daylight Time)","592093","Match,No Match","","null","","","","","","<div class='trialBorder'><div class='vertical-center'><img src='img/correct.jpg'></div><div class='respDiv'><div class='respDivL'>Match<br>(e)</div><div class='respDivR'><font style='color:orange'>No Match<br>(i)</font></div></div></div>","null","FEEDBACK","","","","","","","","","","",""
"html-keyboard-response","170","387767","0.0-7.0-1.27","60aeef267e494909058ef34e","bdp_wmem","Mon Mar 13 2023 11:21:48 GMT-0700 (Pacific Daylight Time)","592093","Match,No Match","","null","","","","","","<div class='trialBorder'><div class='vertical-center'><img src='img/fixation2_sml.jpg'</img></div></div>","null","FIX","","","","","","","","","","",""
"html-keyboard-response","171","390775","0.0-7.0-2.27","60aeef267e494909058ef34e","bdp_wmem","Mon Mar 13 2023 11:21:48 GMT-0700 (Pacific Daylight Time)","592093","Match,No Match","","null","","","","","","<div class='trialBorder'><div class='vertical-center'><img style='vertical-align:center; align:center' src='img/fixation2_sml.jpg'></div><div class='arrayDiv2'><div class='tl'><img class='introPic' src='trustrating_stim/white_mw092.bmp'><br><font color='green'><strong>Share</strong></font></div><div class='tr'><img class='introPic' src='trustrating_stim/white_mw010.bmp'><br><font color='red'><strong>Keep</strong></font></div></div></div>","null","ARRAY","2","trustrating_stim/white_mw092.bmp,trustrating_stim/white_mw010.bmp","1,0","Match","e","3000","","","","",""
"html-keyboard-response","172","394782","0.0-7.0-3.27","60aeef267e494909058ef34e","bdp_wmem","Mon Mar 13 2023 11:21:48 GMT-0700 (Pacific Daylight Time)","592093","Match,No Match","","null","","","","","","<div class='trialBorder'><div class='vertical-center'><img src='img/fixation2_sml.jpg'</img></div></div>","null","DELAY","","","","","","","","","","",""
"html-keyboard-response","173","396208","0.0-7.0-4.27","60aeef267e494909058ef34e","bdp_wmem","Mon Mar 13 2023 11:21:48 GMT-0700 (Pacific Daylight Time)","592093","Match,No Match","","1424","","","","","","<div class='trialBorder'><div class='targDiv'><div class='tc'><img class='introPic' src='trustrating_stim/white_mw092.bmp'><br><font color='green'><strong>Share</strong></font></div></div><div class='respDiv'><div class='respDivL'>Match<br>(e)</div><div class='respDivR'>No Match<br>(i)</div></div></div>","e","TARGET","2","trustrating_stim/white_mw092.bmp,trustrating_stim/white_mw010.bmp","1,0","Match","e","3000","trustrating_stim/white_mw092.bmp","green","Share","REAL","1"
"html-keyboard-response","174","396710","0.0-7.0-5.27","60aeef267e494909058ef34e","bdp_wmem","Mon Mar 13 2023 11:21:48 GMT-0700 (Pacific Daylight Time)","592093","Match,No Match","","null","","","","","","<div class='trialBorder'><div class='vertical-center'><img src='img/correct.jpg'></div><div class='respDiv'><div class='respDivL'><font style='color:orange'>Match<br>(e)</font></div><div class='respDivR'>No Match<br>(i)</div></div></div>","null","FEEDBACK","","","","","","","","","","",""
"html-keyboard-response","175","397214","0.0-7.0-1.28","60aeef267e494909058ef34e","bdp_wmem","Mon Mar 13 2023 11:21:48 GMT-0700 (Pacific Daylight Time)","592093","Match,No Match","","null","","","","","","<div class='trialBorder'><div class='vertical-center'><img src='img/fixation2_sml.jpg'</img></div></div>","null","FIX","","","","","","","","","","",""
"html-keyboard-response","176","398718","0.0-7.0-2.28","60aeef267e494909058ef34e","bdp_wmem","Mon Mar 13 2023 11:21:48 GMT-0700 (Pacific Daylight Time)","592093","Match,No Match","","null","","","","","","<div class='trialBorder'><div class='vertical-center'><img style='vertical-align:center; align:center' src='img/fixation2_sml.jpg'></div><div class='arrayDiv1'><div class='tc'><img class='introPic' src='trustrating_stim/white_mw070.bmp'><br><font color='green'><strong>Share</strong></font></div></div></div>","null","ARRAY","1","trustrating_stim/white_mw070.bmp","1","noMatchOutcome","i","1500","","","","",""
"html-keyboard-response","177","402727","0.0-7.0-3.28","60aeef267e494909058ef34e","bdp_wmem","Mon Mar 13 2023 11:21:48 GMT-0700 (Pacific Daylight Time)","592093","Match,No Match","","null","","","","","","<div class='trialBorder'><div class='vertical-center'><img src='img/fixation2_sml.jpg'</img></div></div>","null","DELAY","","","","","","","","","","",""
"html-keyboard-response","178","403729","0.0-7.0-4.28","60aeef267e494909058ef34e","bdp_wmem","Mon Mar 13 2023 11:21:48 GMT-0700 (Pacific Daylight Time)","592093","Match,No Match","","1000","","","","","","<div class='trialBorder'><div class='targDiv'><div class='tc'><img class='introPic' src='trustrating_stim/white_mw070.bmp'><br><font color='red'><strong>Keep</strong></font></div></div><div class='respDiv'><div class='respDivL'>Match<br>(e)</div><div class='respDivR'>No Match<br>(i)</div></div></div>","i","TARGET","1","trustrating_stim/white_mw070.bmp","1","noMatchOutcome","i","1500","trustrating_stim/white_mw070.bmp","red","Keep","REAL","1"
"html-keyboard-response","179","404231","0.0-7.0-5.28","60aeef267e494909058ef34e","bdp_wmem","Mon Mar 13 2023 11:21:48 GMT-0700 (Pacific Daylight Time)","592093","Match,No Match","","null","","","","","","<div class='trialBorder'><div class='vertical-center'><img src='img/correct.jpg'></div><div class='respDiv'><div class='respDivL'>Match<br>(e)</div><div class='respDivR'><font style='color:orange'>No Match<br>(i)</font></div></div></div>","null","FEEDBACK","","","","","","","","","","",""
"html-keyboard-response","180","404736","0.0-7.0-1.29","60aeef267e494909058ef34e","bdp_wmem","Mon Mar 13 2023 11:21:48 GMT-0700 (Pacific Daylight Time)","592093","Match,No Match","","null","","","","","","<div class='trialBorder'><div class='vertical-center'><img src='img/fixation2_sml.jpg'</img></div></div>","null","FIX","","","","","","","","","","",""
"html-keyboard-response","181","409241","0.0-7.0-2.29","60aeef267e494909058ef34e","bdp_wmem","Mon Mar 13 2023 11:21:48 GMT-0700 (Pacific Daylight Time)","592093","Match,No Match","","null","","","","","","<div class='trialBorder'><div class='vertical-center'><img style='vertical-align:center; align:center' src='img/fixation2_sml.jpg'></div><div class='arrayDiv3'><div class='tl'><img class='introPic' src='trustrating_stim/white_mw012.bmp'><br><font color='red'><strong>Keep</strong></font></div><div class='tc'><img class='introPic' src='trustrating_stim/white_mw040.bmp'><br><font color='red'><strong>Keep</strong></font></div><div class='tr'><img class='introPic' src='trustrating_stim/white_mw013.bmp'><br><font color='green'><strong>Share</strong></font></div></div></div>","null","ARRAY","3","trustrating_stim/white_mw012.bmp,trustrating_stim/white_mw040.bmp,trustrating_stim/white_mw013.bmp","0,0,1","Match","e","4500","","","","",""
"html-keyboard-response","182","413246","0.0-7.0-3.29","60aeef267e494909058ef34e","bdp_wmem","Mon Mar 13 2023 11:21:48 GMT-0700 (Pacific Daylight Time)","592093","Match,No Match","","null","","","","","","<div class='trialBorder'><div class='vertical-center'><img src='img/fixation2_sml.jpg'</img></div></div>","null","DELAY","","","","","","","","","","",""
"html-keyboard-response","183","414782","0.0-7.0-4.29","60aeef267e494909058ef34e","bdp_wmem","Mon Mar 13 2023 11:21:48 GMT-0700 (Pacific Daylight Time)","592093","Match,No Match","","1533","","","","","","<div class='trialBorder'><div class='targDiv'><div class='tc'><img class='introPic' src='trustrating_stim/white_mw040.bmp'><br><font color='red'><strong>Keep</strong></font></div></div><div class='respDiv'><div class='respDivL'>Match<br>(e)</div><div class='respDivR'>No Match<br>(i)</div></div></div>","i","TARGET","3","trustrating_stim/white_mw012.bmp,trustrating_stim/white_mw040.bmp,trustrating_stim/white_mw013.bmp","0,0,1","Match","e","4500","trustrating_stim/white_mw040.bmp","red","Keep","REAL","0"
"html-keyboard-response","184","415287","0.0-7.0-5.29","60aeef267e494909058ef34e","bdp_wmem","Mon Mar 13 2023 11:21:48 GMT-0700 (Pacific Daylight Time)","592093","Match,No Match","","null","","","","","","<div class='trialBorder'><div class='vertical-center'><img src='img/error.jpg'></div><div class='respDiv'><div class='respDivL'>Match<br>(e)</div><div class='respDivR'><font style='color:orange'>No Match<br>(i)</font></div></div></div>","null","FEEDBACK","","","","","","","","","","",""
"html-keyboard-response","185","415791","0.0-7.0-1.30","60aeef267e494909058ef34e","bdp_wmem","Mon Mar 13 2023 11:21:48 GMT-0700 (Pacific Daylight Time)","592093","Match,No Match","","null","","","","","","<div class='trialBorder'><div class='vertical-center'><img src='img/fixation2_sml.jpg'</img></div></div>","null","FIX","","","","","","","","","","",""
"html-keyboard-response","186","420296","0.0-7.0-2.30","60aeef267e494909058ef34e","bdp_wmem","Mon Mar 13 2023 11:21:48 GMT-0700 (Pacific Daylight Time)","592093","Match,No Match","","null","","","","","","<div class='trialBorder'><div class='vertical-center'><img style='vertical-align:center; align:center' src='img/fixation2_sml.jpg'></div><div class='arrayDiv3'><div class='tl'><img class='introPic' src='trustrating_stim/white_mw091.bmp'><br><font color='green'><strong>Share</strong></font></div><div class='tc'><img class='introPic' src='trustrating_stim/white_mw010.bmp'><br><font color='red'><strong>Keep</strong></font></div><div class='tr'><img class='introPic' src='trustrating_stim/white_mw040.bmp'><br><font color='green'><strong>Share</strong></font></div></div></div>","null","ARRAY","3","trustrating_stim/white_mw091.bmp,trustrating_stim/white_mw010.bmp,trustrating_stim/white_mw040.bmp","1,0,1","noMatchFace","i","4500","","","","",""
"html-keyboard-response","187","424305","0.0-7.0-3.30","60aeef267e494909058ef34e","bdp_wmem","Mon Mar 13 2023 11:21:48 GMT-0700 (Pacific Daylight Time)","592093","Match,No Match","","null","","","","","","<div class='trialBorder'><div class='vertical-center'><img src='img/fixation2_sml.jpg'</img></div></div>","null","DELAY","","","","","","","","","","",""
