"trial_type","trial_index","time_elapsed","internal_node_id","subject_id","task","startTime","totalTime","labels","view_history","rt","event","trial","time","trialtype","success","stimulus","key_press","stimType","arraySize","arrayFaces","arrayOutcomes","matchType","corrResp","arrayDur","targFace","targCol","targOutcome","trialType","corr"
"pavlovia","0","5","0.0-0.0","63f477547d2302b4346299f4","bdp_wmem","Sat Apr 08 2023 11:23:31 GMT-0500 (Central Daylight Time)","777139","Match,No Match","","","","","","","","","","","","","","","","","","","","",""
"instructions","1","5333","0.0-1.0","63f477547d2302b4346299f4","bdp_wmem","Sat Apr 08 2023 11:23:31 GMT-0500 (Central Daylight Time)","777139","Match,No Match","[{""page_index"":0,""viewing_time"":5327}]","5327","","","","","","","","","","","","","","","","","","",""
"","","","","63f477547d2302b4346299f4","bdp_wmem","Sat Apr 08 2023 11:23:31 GMT-0500 (Central Daylight Time)","777139","Match,No Match","","","fullscreenenter","2","8524","fullscreenenter","","","","","","","","","","","","","","",""
"fullscreen","2","9509","0.0-2.0","63f477547d2302b4346299f4","bdp_wmem","Sat Apr 08 2023 11:23:31 GMT-0500 (Central Daylight Time)","777139","Match,No Match","","","","","","","true","","","","","","","","","","","","","",""
"instructions","3","210671","0.0-4.0","63f477547d2302b4346299f4","bdp_wmem","Sat Apr 08 2023 11:23:31 GMT-0500 (Central Daylight Time)","777139","Match,No Match","[{""page_index"":0,""viewing_time"":75608},{""page_index"":1,""viewing_time"":45265},{""page_index"":2,""viewing_time"":22377},{""page_index"":3,""viewing_time"":25985},{""page_index"":4,""viewing_time"":31925}]","201160","","","","","","","","","","","","","","","","","","",""
"html-keyboard-response","4","211174","0.0-5.0-1.0","63f477547d2302b4346299f4","bdp_wmem","Sat Apr 08 2023 11:23:31 GMT-0500 (Central Daylight Time)","777139","Match,No Match","","null","","","","","","<div class='trialBorder'><div class='vertical-center'><img src='img/fixation2_sml.jpg'</img></div></div>","null","FIX","","","","","","","","","","",""
"html-keyboard-response","5","212677","0.0-5.0-2.0","63f477547d2302b4346299f4","bdp_wmem","Sat Apr 08 2023 11:23:31 GMT-0500 (Central Daylight Time)","777139","Match,No Match","","null","","","","","","<div class='trialBorder'><div class='vertical-center'><img style='vertical-align:center; align:center' src='img/fixation2_sml.jpg'></div><div class='arrayDiv1'><div class='tc'><img class='introPic' src='trustrating_stim/white_mw078.bmp'><br><font color='red'><strong>Keep</strong></font></div></div></div>","null","ARRAY","1","trustrating_stim/white_mw078.bmp","0","noMatchFace","i","1500","","","","",""
"html-keyboard-response","6","216679","0.0-5.0-3.0","63f477547d2302b4346299f4","bdp_wmem","Sat Apr 08 2023 11:23:31 GMT-0500 (Central Daylight Time)","777139","Match,No Match","","null","","","","","","<div class='trialBorder'><div class='vertical-center'><img src='img/fixation2_sml.jpg'</img></div></div>","null","DELAY","","","","","","","","","","",""
"html-keyboard-response","7","221353","0.0-5.0-4.0","63f477547d2302b4346299f4","bdp_wmem","Sat Apr 08 2023 11:23:31 GMT-0500 (Central Daylight Time)","777139","Match,No Match","","4672","","","","","","<div class='trialBorder'><div class='targDiv'><div class='tc'><img class='introPic' src='trustrating_stim/white_mw010.bmp'><br><font color='red'><strong>Keep</strong></font></div></div><div class='respDiv'><div class='respDivL'>Match<br>(e)</div><div class='respDivR'>No Match<br>(i)</div></div></div>","i","TARGET","1","trustrating_stim/white_mw078.bmp","0","noMatchFace","i","1500","trustrating_stim/white_mw010.bmp","red","Keep","PRACTICE","1"
"html-keyboard-response","8","221855","0.0-5.0-5.0","63f477547d2302b4346299f4","bdp_wmem","Sat Apr 08 2023 11:23:31 GMT-0500 (Central Daylight Time)","777139","Match,No Match","","null","","","","","","<div class='trialBorder'><div class='vertical-center'><img src='img/correct.jpg'></div><div class='respDiv'><div class='respDivL'>Match<br>(e)</div><div class='respDivR'><font style='color:orange'>No Match<br>(i)</font></div></div></div>","null","FEEDBACK","","","","","","","","","","",""
"html-keyboard-response","9","222358","0.0-5.0-1.1","63f477547d2302b4346299f4","bdp_wmem","Sat Apr 08 2023 11:23:31 GMT-0500 (Central Daylight Time)","777139","Match,No Match","","null","","","","","","<div class='trialBorder'><div class='vertical-center'><img src='img/fixation2_sml.jpg'</img></div></div>","null","FIX","","","","","","","","","","",""
"html-keyboard-response","10","225359","0.0-5.0-2.1","63f477547d2302b4346299f4","bdp_wmem","Sat Apr 08 2023 11:23:31 GMT-0500 (Central Daylight Time)","777139","Match,No Match","","null","","","","","","<div class='trialBorder'><div class='vertical-center'><img style='vertical-align:center; align:center' src='img/fixation2_sml.jpg'></div><div class='arrayDiv2'><div class='tl'><img class='introPic' src='trustrating_stim/white_mw003.bmp'><br><font color='red'><strong>Keep</strong></font></div><div class='tr'><img class='introPic' src='trustrating_stim/white_mw042.bmp'><br><font color='green'><strong>Share</strong></font></div></div></div>","null","ARRAY","2","trustrating_stim/white_mw003.bmp,trustrating_stim/white_mw042.bmp","0,1","noMatchFace","i","3000","","","","",""
"html-keyboard-response","11","229362","0.0-5.0-3.1","63f477547d2302b4346299f4","bdp_wmem","Sat Apr 08 2023 11:23:31 GMT-0500 (Central Daylight Time)","777139","Match,No Match","","null","","","","","","<div class='trialBorder'><div class='vertical-center'><img src='img/fixation2_sml.jpg'</img></div></div>","null","DELAY","","","","","","","","","","",""
"html-keyboard-response","12","234502","0.0-5.0-4.1","63f477547d2302b4346299f4","bdp_wmem","Sat Apr 08 2023 11:23:31 GMT-0500 (Central Daylight Time)","777139","Match,No Match","","5138","","","","","","<div class='trialBorder'><div class='targDiv'><div class='tc'><img class='introPic' src='trustrating_stim/white_mw091.bmp'><br><font color='red'><strong>Keep</strong></font></div></div><div class='respDiv'><div class='respDivL'>Match<br>(e)</div><div class='respDivR'>No Match<br>(i)</div></div></div>","i","TARGET","2","trustrating_stim/white_mw003.bmp,trustrating_stim/white_mw042.bmp","0,1","noMatchFace","i","3000","trustrating_stim/white_mw091.bmp","red","Keep","PRACTICE","1"
"html-keyboard-response","13","235003","0.0-5.0-5.1","63f477547d2302b4346299f4","bdp_wmem","Sat Apr 08 2023 11:23:31 GMT-0500 (Central Daylight Time)","777139","Match,No Match","","null","","","","","","<div class='trialBorder'><div class='vertical-center'><img src='img/correct.jpg'></div><div class='respDiv'><div class='respDivL'>Match<br>(e)</div><div class='respDivR'><font style='color:orange'>No Match<br>(i)</font></div></div></div>","null","FEEDBACK","","","","","","","","","","",""
"html-keyboard-response","14","235505","0.0-5.0-1.2","63f477547d2302b4346299f4","bdp_wmem","Sat Apr 08 2023 11:23:31 GMT-0500 (Central Daylight Time)","777139","Match,No Match","","null","","","","","","<div class='trialBorder'><div class='vertical-center'><img src='img/fixation2_sml.jpg'</img></div></div>","null","FIX","","","","","","","","","","",""
"html-keyboard-response","15","237008","0.0-5.0-2.2","63f477547d2302b4346299f4","bdp_wmem","Sat Apr 08 2023 11:23:31 GMT-0500 (Central Daylight Time)","777139","Match,No Match","","null","","","","","","<div class='trialBorder'><div class='vertical-center'><img style='vertical-align:center; align:center' src='img/fixation2_sml.jpg'></div><div class='arrayDiv1'><div class='tc'><img class='introPic' src='trustrating_stim/white_mw092.bmp'><br><font color='green'><strong>Share</strong></font></div></div></div>","null","ARRAY","1","trustrating_stim/white_mw092.bmp","1","Match","e","1500","","","","",""
"html-keyboard-response","16","241011","0.0-5.0-3.2","63f477547d2302b4346299f4","bdp_wmem","Sat Apr 08 2023 11:23:31 GMT-0500 (Central Daylight Time)","777139","Match,No Match","","null","","","","","","<div class='trialBorder'><div class='vertical-center'><img src='img/fixation2_sml.jpg'</img></div></div>","null","DELAY","","","","","","","","","","",""
"html-keyboard-response","17","242819","0.0-5.0-4.2","63f477547d2302b4346299f4","bdp_wmem","Sat Apr 08 2023 11:23:31 GMT-0500 (Central Daylight Time)","777139","Match,No Match","","1806","","","","","","<div class='trialBorder'><div class='targDiv'><div class='tc'><img class='introPic' src='trustrating_stim/white_mw092.bmp'><br><font color='green'><strong>Share</strong></font></div></div><div class='respDiv'><div class='respDivL'>Match<br>(e)</div><div class='respDivR'>No Match<br>(i)</div></div></div>","e","TARGET","1","trustrating_stim/white_mw092.bmp","1","Match","e","1500","trustrating_stim/white_mw092.bmp","green","Share","PRACTICE","1"
"html-keyboard-response","18","243321","0.0-5.0-5.2","63f477547d2302b4346299f4","bdp_wmem","Sat Apr 08 2023 11:23:31 GMT-0500 (Central Daylight Time)","777139","Match,No Match","","null","","","","","","<div class='trialBorder'><div class='vertical-center'><img src='img/correct.jpg'></div><div class='respDiv'><div class='respDivL'><font style='color:orange'>Match<br>(e)</font></div><div class='respDivR'>No Match<br>(i)</div></div></div>","null","FEEDBACK","","","","","","","","","","",""
"html-keyboard-response","19","243823","0.0-5.0-1.3","63f477547d2302b4346299f4","bdp_wmem","Sat Apr 08 2023 11:23:31 GMT-0500 (Central Daylight Time)","777139","Match,No Match","","null","","","","","","<div class='trialBorder'><div class='vertical-center'><img src='img/fixation2_sml.jpg'</img></div></div>","null","FIX","","","","","","","","","","",""
"html-keyboard-response","20","248326","0.0-5.0-2.3","63f477547d2302b4346299f4","bdp_wmem","Sat Apr 08 2023 11:23:31 GMT-0500 (Central Daylight Time)","777139","Match,No Match","","null","","","","","","<div class='trialBorder'><div class='vertical-center'><img style='vertical-align:center; align:center' src='img/fixation2_sml.jpg'></div><div class='arrayDiv3'><div class='tl'><img class='introPic' src='trustrating_stim/white_mw085.bmp'><br><font color='red'><strong>Keep</strong></font></div><div class='tc'><img class='introPic' src='trustrating_stim/white_mw092.bmp'><br><font color='green'><strong>Share</strong></font></div><div class='tr'><img class='introPic' src='trustrating_stim/white_mw038.bmp'><br><font color='red'><strong>Keep</strong></font></div></div></div>","null","ARRAY","3","trustrating_stim/white_mw085.bmp,trustrating_stim/white_mw092.bmp,trustrating_stim/white_mw038.bmp","0,1,0","Match","e","4500","","","","",""
"html-keyboard-response","21","252329","0.0-5.0-3.3","63f477547d2302b4346299f4","bdp_wmem","Sat Apr 08 2023 11:23:31 GMT-0500 (Central Daylight Time)","777139","Match,No Match","","null","","","","","","<div class='trialBorder'><div class='vertical-center'><img src='img/fixation2_sml.jpg'</img></div></div>","null","DELAY","","","","","","","","","","",""
"html-keyboard-response","22","256359","0.0-5.0-4.3","63f477547d2302b4346299f4","bdp_wmem","Sat Apr 08 2023 11:23:31 GMT-0500 (Central Daylight Time)","777139","Match,No Match","","4029","","","","","","<div class='trialBorder'><div class='targDiv'><div class='tc'><img class='introPic' src='trustrating_stim/white_mw038.bmp'><br><font color='red'><strong>Keep</strong></font></div></div><div class='respDiv'><div class='respDivL'>Match<br>(e)</div><div class='respDivR'>No Match<br>(i)</div></div></div>","e","TARGET","3","trustrating_stim/white_mw085.bmp,trustrating_stim/white_mw092.bmp,trustrating_stim/white_mw038.bmp","0,1,0","Match","e","4500","trustrating_stim/white_mw038.bmp","red","Keep","PRACTICE","1"
"html-keyboard-response","23","256861","0.0-5.0-5.3","63f477547d2302b4346299f4","bdp_wmem","Sat Apr 08 2023 11:23:31 GMT-0500 (Central Daylight Time)","777139","Match,No Match","","null","","","","","","<div class='trialBorder'><div class='vertical-center'><img src='img/correct.jpg'></div><div class='respDiv'><div class='respDivL'><font style='color:orange'>Match<br>(e)</font></div><div class='respDivR'>No Match<br>(i)</div></div></div>","null","FEEDBACK","","","","","","","","","","",""
"html-keyboard-response","24","257363","0.0-5.0-1.4","63f477547d2302b4346299f4","bdp_wmem","Sat Apr 08 2023 11:23:31 GMT-0500 (Central Daylight Time)","777139","Match,No Match","","null","","","","","","<div class='trialBorder'><div class='vertical-center'><img src='img/fixation2_sml.jpg'</img></div></div>","null","FIX","","","","","","","","","","",""
"html-keyboard-response","25","260367","0.0-5.0-2.4","63f477547d2302b4346299f4","bdp_wmem","Sat Apr 08 2023 11:23:31 GMT-0500 (Central Daylight Time)","777139","Match,No Match","","null","","","","","","<div class='trialBorder'><div class='vertical-center'><img style='vertical-align:center; align:center' src='img/fixation2_sml.jpg'></div><div class='arrayDiv2'><div class='tl'><img class='introPic' src='trustrating_stim/white_mw013.bmp'><br><font color='green'><strong>Share</strong></font></div><div class='tr'><img class='introPic' src='trustrating_stim/white_mw092.bmp'><br><font color='red'><strong>Keep</strong></font></div></div></div>","null","ARRAY","2","trustrating_stim/white_mw013.bmp,trustrating_stim/white_mw092.bmp","1,0","Match","e","3000","","","","",""
"html-keyboard-response","26","264370","0.0-5.0-3.4","63f477547d2302b4346299f4","bdp_wmem","Sat Apr 08 2023 11:23:31 GMT-0500 (Central Daylight Time)","777139","Match,No Match","","null","","","","","","<div class='trialBorder'><div class='vertical-center'><img src='img/fixation2_sml.jpg'</img></div></div>","null","DELAY","","","","","","","","","","",""
"html-keyboard-response","27","268038","0.0-5.0-4.4","63f477547d2302b4346299f4","bdp_wmem","Sat Apr 08 2023 11:23:31 GMT-0500 (Central Daylight Time)","777139","Match,No Match","","3667","","","","","","<div class='trialBorder'><div class='targDiv'><div class='tc'><img class='introPic' src='trustrating_stim/white_mw092.bmp'><br><font color='red'><strong>Keep</strong></font></div></div><div class='respDiv'><div class='respDivL'>Match<br>(e)</div><div class='respDivR'>No Match<br>(i)</div></div></div>","e","TARGET","2","trustrating_stim/white_mw013.bmp,trustrating_stim/white_mw092.bmp","1,0","Match","e","3000","trustrating_stim/white_mw092.bmp","red","Keep","PRACTICE","1"
"html-keyboard-response","28","268540","0.0-5.0-5.4","63f477547d2302b4346299f4","bdp_wmem","Sat Apr 08 2023 11:23:31 GMT-0500 (Central Daylight Time)","777139","Match,No Match","","null","","","","","","<div class='trialBorder'><div class='vertical-center'><img src='img/correct.jpg'></div><div class='respDiv'><div class='respDivL'><font style='color:orange'>Match<br>(e)</font></div><div class='respDivR'>No Match<br>(i)</div></div></div>","null","FEEDBACK","","","","","","","","","","",""
"html-keyboard-response","29","269041","0.0-5.0-1.5","63f477547d2302b4346299f4","bdp_wmem","Sat Apr 08 2023 11:23:31 GMT-0500 (Central Daylight Time)","777139","Match,No Match","","null","","","","","","<div class='trialBorder'><div class='vertical-center'><img src='img/fixation2_sml.jpg'</img></div></div>","null","FIX","","","","","","","","","","",""
"html-keyboard-response","30","273544","0.0-5.0-2.5","63f477547d2302b4346299f4","bdp_wmem","Sat Apr 08 2023 11:23:31 GMT-0500 (Central Daylight Time)","777139","Match,No Match","","null","","","","","","<div class='trialBorder'><div class='vertical-center'><img style='vertical-align:center; align:center' src='img/fixation2_sml.jpg'></div><div class='arrayDiv3'><div class='tl'><img class='introPic' src='trustrating_stim/white_mw010.bmp'><br><font color='red'><strong>Keep</strong></font></div><div class='tc'><img class='introPic' src='trustrating_stim/white_mw040.bmp'><br><font color='green'><strong>Share</strong></font></div><div class='tr'><img class='introPic' src='trustrating_stim/white_mw085.bmp'><br><font color='green'><strong>Share</strong></font></div></div></div>","null","ARRAY","3","trustrating_stim/white_mw010.bmp,trustrating_stim/white_mw040.bmp,trustrating_stim/white_mw085.bmp","0,1,1","noMatchOutcome","i","4500","","","","",""
"html-keyboard-response","31","277545","0.0-5.0-3.5","63f477547d2302b4346299f4","bdp_wmem","Sat Apr 08 2023 11:23:31 GMT-0500 (Central Daylight Time)","777139","Match,No Match","","null","","","","","","<div class='trialBorder'><div class='vertical-center'><img src='img/fixation2_sml.jpg'</img></div></div>","null","DELAY","","","","","","","","","","",""
"html-keyboard-response","32","280486","0.0-5.0-4.5","63f477547d2302b4346299f4","bdp_wmem","Sat Apr 08 2023 11:23:31 GMT-0500 (Central Daylight Time)","777139","Match,No Match","","2938","","","","","","<div class='trialBorder'><div class='targDiv'><div class='tc'><img class='introPic' src='trustrating_stim/white_mw040.bmp'><br><font color='red'><strong>Keep</strong></font></div></div><div class='respDiv'><div class='respDivL'>Match<br>(e)</div><div class='respDivR'>No Match<br>(i)</div></div></div>","i","TARGET","3","trustrating_stim/white_mw010.bmp,trustrating_stim/white_mw040.bmp,trustrating_stim/white_mw085.bmp","0,1,1","noMatchOutcome","i","4500","trustrating_stim/white_mw040.bmp","red","Keep","PRACTICE","1"
"html-keyboard-response","33","280987","0.0-5.0-5.5","63f477547d2302b4346299f4","bdp_wmem","Sat Apr 08 2023 11:23:31 GMT-0500 (Central Daylight Time)","777139","Match,No Match","","null","","","","","","<div class='trialBorder'><div class='vertical-center'><img src='img/correct.jpg'></div><div class='respDiv'><div class='respDivL'>Match<br>(e)</div><div class='respDivR'><font style='color:orange'>No Match<br>(i)</font></div></div></div>","null","FEEDBACK","","","","","","","","","","",""
"instructions","34","308789","0.0-6.0","63f477547d2302b4346299f4","bdp_wmem","Sat Apr 08 2023 11:23:31 GMT-0500 (Central Daylight Time)","777139","Match,No Match","[{""page_index"":0,""viewing_time"":27801}]","27801","","","","","","","","","","","","","","","","","","",""
"html-keyboard-response","35","309292","0.0-7.0-1.0","63f477547d2302b4346299f4","bdp_wmem","Sat Apr 08 2023 11:23:31 GMT-0500 (Central Daylight Time)","777139","Match,No Match","","null","","","","","","<div class='trialBorder'><div class='vertical-center'><img src='img/fixation2_sml.jpg'</img></div></div>","null","FIX","","","","","","","","","","",""
"html-keyboard-response","36","312294","0.0-7.0-2.0","63f477547d2302b4346299f4","bdp_wmem","Sat Apr 08 2023 11:23:31 GMT-0500 (Central Daylight Time)","777139","Match,No Match","","null","","","","","","<div class='trialBorder'><div class='vertical-center'><img style='vertical-align:center; align:center' src='img/fixation2_sml.jpg'></div><div class='arrayDiv2'><div class='tl'><img class='introPic' src='trustrating_stim/white_mw012.bmp'><br><font color='red'><strong>Keep</strong></font></div><div class='tr'><img class='introPic' src='trustrating_stim/white_mw013.bmp'><br><font color='green'><strong>Share</strong></font></div></div></div>","null","ARRAY","2","trustrating_stim/white_mw012.bmp,trustrating_stim/white_mw013.bmp","0,1","noMatchOutcome","i","3000","","","","",""
"html-keyboard-response","37","316297","0.0-7.0-3.0","63f477547d2302b4346299f4","bdp_wmem","Sat Apr 08 2023 11:23:31 GMT-0500 (Central Daylight Time)","777139","Match,No Match","","null","","","","","","<div class='trialBorder'><div class='vertical-center'><img src='img/fixation2_sml.jpg'</img></div></div>","null","DELAY","","","","","","","","","","",""
"html-keyboard-response","38","318470","0.0-7.0-4.0","63f477547d2302b4346299f4","bdp_wmem","Sat Apr 08 2023 11:23:31 GMT-0500 (Central Daylight Time)","777139","Match,No Match","","2172","","","","","","<div class='trialBorder'><div class='targDiv'><div class='tc'><img class='introPic' src='trustrating_stim/white_mw012.bmp'><br><font color='green'><strong>Share</strong></font></div></div><div class='respDiv'><div class='respDivL'>Match<br>(e)</div><div class='respDivR'>No Match<br>(i)</div></div></div>","i","TARGET","2","trustrating_stim/white_mw012.bmp,trustrating_stim/white_mw013.bmp","0,1","noMatchOutcome","i","3000","trustrating_stim/white_mw012.bmp","green","Share","REAL","1"
"html-keyboard-response","39","318973","0.0-7.0-5.0","63f477547d2302b4346299f4","bdp_wmem","Sat Apr 08 2023 11:23:31 GMT-0500 (Central Daylight Time)","777139","Match,No Match","","null","","","","","","<div class='trialBorder'><div class='vertical-center'><img src='img/correct.jpg'></div><div class='respDiv'><div class='respDivL'>Match<br>(e)</div><div class='respDivR'><font style='color:orange'>No Match<br>(i)</font></div></div></div>","null","FEEDBACK","","","","","","","","","","",""
"html-keyboard-response","40","319475","0.0-7.0-1.1","63f477547d2302b4346299f4","bdp_wmem","Sat Apr 08 2023 11:23:31 GMT-0500 (Central Daylight Time)","777139","Match,No Match","","null","","","","","","<div class='trialBorder'><div class='vertical-center'><img src='img/fixation2_sml.jpg'</img></div></div>","null","FIX","","","","","","","","","","",""
"html-keyboard-response","41","322478","0.0-7.0-2.1","63f477547d2302b4346299f4","bdp_wmem","Sat Apr 08 2023 11:23:31 GMT-0500 (Central Daylight Time)","777139","Match,No Match","","null","","","","","","<div class='trialBorder'><div class='vertical-center'><img style='vertical-align:center; align:center' src='img/fixation2_sml.jpg'></div><div class='arrayDiv2'><div class='tl'><img class='introPic' src='trustrating_stim/white_mw013.bmp'><br><font color='green'><strong>Share</strong></font></div><div class='tr'><img class='introPic' src='trustrating_stim/white_mw078.bmp'><br><font color='red'><strong>Keep</strong></font></div></div></div>","null","ARRAY","2","trustrating_stim/white_mw013.bmp,trustrating_stim/white_mw078.bmp","1,0","Match","e","3000","","","","",""
"html-keyboard-response","42","326480","0.0-7.0-3.1","63f477547d2302b4346299f4","bdp_wmem","Sat Apr 08 2023 11:23:31 GMT-0500 (Central Daylight Time)","777139","Match,No Match","","null","","","","","","<div class='trialBorder'><div class='vertical-center'><img src='img/fixation2_sml.jpg'</img></div></div>","null","DELAY","","","","","","","","","","",""
"html-keyboard-response","43","329337","0.0-7.0-4.1","63f477547d2302b4346299f4","bdp_wmem","Sat Apr 08 2023 11:23:31 GMT-0500 (Central Daylight Time)","777139","Match,No Match","","2855","","","","","","<div class='trialBorder'><div class='targDiv'><div class='tc'><img class='introPic' src='trustrating_stim/white_mw078.bmp'><br><font color='red'><strong>Keep</strong></font></div></div><div class='respDiv'><div class='respDivL'>Match<br>(e)</div><div class='respDivR'>No Match<br>(i)</div></div></div>","e","TARGET","2","trustrating_stim/white_mw013.bmp,trustrating_stim/white_mw078.bmp","1,0","Match","e","3000","trustrating_stim/white_mw078.bmp","red","Keep","REAL","1"
"html-keyboard-response","44","329839","0.0-7.0-5.1","63f477547d2302b4346299f4","bdp_wmem","Sat Apr 08 2023 11:23:31 GMT-0500 (Central Daylight Time)","777139","Match,No Match","","null","","","","","","<div class='trialBorder'><div class='vertical-center'><img src='img/correct.jpg'></div><div class='respDiv'><div class='respDivL'><font style='color:orange'>Match<br>(e)</font></div><div class='respDivR'>No Match<br>(i)</div></div></div>","null","FEEDBACK","","","","","","","","","","",""
"html-keyboard-response","45","330341","0.0-7.0-1.2","63f477547d2302b4346299f4","bdp_wmem","Sat Apr 08 2023 11:23:31 GMT-0500 (Central Daylight Time)","777139","Match,No Match","","null","","","","","","<div class='trialBorder'><div class='vertical-center'><img src='img/fixation2_sml.jpg'</img></div></div>","null","FIX","","","","","","","","","","",""
"html-keyboard-response","46","333343","0.0-7.0-2.2","63f477547d2302b4346299f4","bdp_wmem","Sat Apr 08 2023 11:23:31 GMT-0500 (Central Daylight Time)","777139","Match,No Match","","null","","","","","","<div class='trialBorder'><div class='vertical-center'><img style='vertical-align:center; align:center' src='img/fixation2_sml.jpg'></div><div class='arrayDiv2'><div class='tl'><img class='introPic' src='trustrating_stim/white_mw012.bmp'><br><font color='red'><strong>Keep</strong></font></div><div class='tr'><img class='introPic' src='trustrating_stim/white_mw070.bmp'><br><font color='green'><strong>Share</strong></font></div></div></div>","null","ARRAY","2","trustrating_stim/white_mw012.bmp,trustrating_stim/white_mw070.bmp","0,1","noMatchOutcome","i","3000","","","","",""
"html-keyboard-response","47","337345","0.0-7.0-3.2","63f477547d2302b4346299f4","bdp_wmem","Sat Apr 08 2023 11:23:31 GMT-0500 (Central Daylight Time)","777139","Match,No Match","","null","","","","","","<div class='trialBorder'><div class='vertical-center'><img src='img/fixation2_sml.jpg'</img></div></div>","null","DELAY","","","","","","","","","","",""
"html-keyboard-response","48","339518","0.0-7.0-4.2","63f477547d2302b4346299f4","bdp_wmem","Sat Apr 08 2023 11:23:31 GMT-0500 (Central Daylight Time)","777139","Match,No Match","","2172","","","","","","<div class='trialBorder'><div class='targDiv'><div class='tc'><img class='introPic' src='trustrating_stim/white_mw070.bmp'><br><font color='red'><strong>Keep</strong></font></div></div><div class='respDiv'><div class='respDivL'>Match<br>(e)</div><div class='respDivR'>No Match<br>(i)</div></div></div>","i","TARGET","2","trustrating_stim/white_mw012.bmp,trustrating_stim/white_mw070.bmp","0,1","noMatchOutcome","i","3000","trustrating_stim/white_mw070.bmp","red","Keep","REAL","1"
"html-keyboard-response","49","340021","0.0-7.0-5.2","63f477547d2302b4346299f4","bdp_wmem","Sat Apr 08 2023 11:23:31 GMT-0500 (Central Daylight Time)","777139","Match,No Match","","null","","","","","","<div class='trialBorder'><div class='vertical-center'><img src='img/correct.jpg'></div><div class='respDiv'><div class='respDivL'>Match<br>(e)</div><div class='respDivR'><font style='color:orange'>No Match<br>(i)</font></div></div></div>","null","FEEDBACK","","","","","","","","","","",""
"html-keyboard-response","50","340523","0.0-7.0-1.3","63f477547d2302b4346299f4","bdp_wmem","Sat Apr 08 2023 11:23:31 GMT-0500 (Central Daylight Time)","777139","Match,No Match","","null","","","","","","<div class='trialBorder'><div class='vertical-center'><img src='img/fixation2_sml.jpg'</img></div></div>","null","FIX","","","","","","","","","","",""
"html-keyboard-response","51","343526","0.0-7.0-2.3","63f477547d2302b4346299f4","bdp_wmem","Sat Apr 08 2023 11:23:31 GMT-0500 (Central Daylight Time)","777139","Match,No Match","","null","","","","","","<div class='trialBorder'><div class='vertical-center'><img style='vertical-align:center; align:center' src='img/fixation2_sml.jpg'></div><div class='arrayDiv2'><div class='tl'><img class='introPic' src='trustrating_stim/white_mw013.bmp'><br><font color='green'><strong>Share</strong></font></div><div class='tr'><img class='introPic' src='trustrating_stim/white_mw092.bmp'><br><font color='red'><strong>Keep</strong></font></div></div></div>","null","ARRAY","2","trustrating_stim/white_mw013.bmp,trustrating_stim/white_mw092.bmp","1,0","noMatchFace","i","3000","","","","",""
"html-keyboard-response","52","347528","0.0-7.0-3.3","63f477547d2302b4346299f4","bdp_wmem","Sat Apr 08 2023 11:23:31 GMT-0500 (Central Daylight Time)","777139","Match,No Match","","null","","","","","","<div class='trialBorder'><div class='vertical-center'><img src='img/fixation2_sml.jpg'</img></div></div>","null","DELAY","","","","","","","","","","",""
"html-keyboard-response","53","349194","0.0-7.0-4.3","63f477547d2302b4346299f4","bdp_wmem","Sat Apr 08 2023 11:23:31 GMT-0500 (Central Daylight Time)","777139","Match,No Match","","1664","","","","","","<div class='trialBorder'><div class='targDiv'><div class='tc'><img class='introPic' src='trustrating_stim/white_mw038.bmp'><br><font color='green'><strong>Share</strong></font></div></div><div class='respDiv'><div class='respDivL'>Match<br>(e)</div><div class='respDivR'>No Match<br>(i)</div></div></div>","i","TARGET","2","trustrating_stim/white_mw013.bmp,trustrating_stim/white_mw092.bmp","1,0","noMatchFace","i","3000","trustrating_stim/white_mw038.bmp","green","Share","REAL","1"
"html-keyboard-response","54","349695","0.0-7.0-5.3","63f477547d2302b4346299f4","bdp_wmem","Sat Apr 08 2023 11:23:31 GMT-0500 (Central Daylight Time)","777139","Match,No Match","","null","","","","","","<div class='trialBorder'><div class='vertical-center'><img src='img/correct.jpg'></div><div class='respDiv'><div class='respDivL'>Match<br>(e)</div><div class='respDivR'><font style='color:orange'>No Match<br>(i)</font></div></div></div>","null","FEEDBACK","","","","","","","","","","",""
"html-keyboard-response","55","350197","0.0-7.0-1.4","63f477547d2302b4346299f4","bdp_wmem","Sat Apr 08 2023 11:23:31 GMT-0500 (Central Daylight Time)","777139","Match,No Match","","null","","","","","","<div class='trialBorder'><div class='vertical-center'><img src='img/fixation2_sml.jpg'</img></div></div>","null","FIX","","","","","","","","","","",""
"html-keyboard-response","56","353199","0.0-7.0-2.4","63f477547d2302b4346299f4","bdp_wmem","Sat Apr 08 2023 11:23:31 GMT-0500 (Central Daylight Time)","777139","Match,No Match","","null","","","","","","<div class='trialBorder'><div class='vertical-center'><img style='vertical-align:center; align:center' src='img/fixation2_sml.jpg'></div><div class='arrayDiv2'><div class='tl'><img class='introPic' src='trustrating_stim/white_mw085.bmp'><br><font color='green'><strong>Share</strong></font></div><div class='tr'><img class='introPic' src='trustrating_stim/white_mw013.bmp'><br><font color='red'><strong>Keep</strong></font></div></div></div>","null","ARRAY","2","trustrating_stim/white_mw085.bmp,trustrating_stim/white_mw013.bmp","1,0","Match","e","3000","","","","",""
"html-keyboard-response","57","357201","0.0-7.0-3.4","63f477547d2302b4346299f4","bdp_wmem","Sat Apr 08 2023 11:23:31 GMT-0500 (Central Daylight Time)","777139","Match,No Match","","null","","","","","","<div class='trialBorder'><div class='vertical-center'><img src='img/fixation2_sml.jpg'</img></div></div>","null","DELAY","","","","","","","","","","",""
"html-keyboard-response","58","359942","0.0-7.0-4.4","63f477547d2302b4346299f4","bdp_wmem","Sat Apr 08 2023 11:23:31 GMT-0500 (Central Daylight Time)","777139","Match,No Match","","2739","","","","","","<div class='trialBorder'><div class='targDiv'><div class='tc'><img class='introPic' src='trustrating_stim/white_mw013.bmp'><br><font color='red'><strong>Keep</strong></font></div></div><div class='respDiv'><div class='respDivL'>Match<br>(e)</div><div class='respDivR'>No Match<br>(i)</div></div></div>","e","TARGET","2","trustrating_stim/white_mw085.bmp,trustrating_stim/white_mw013.bmp","1,0","Match","e","3000","trustrating_stim/white_mw013.bmp","red","Keep","REAL","1"
"html-keyboard-response","59","360444","0.0-7.0-5.4","63f477547d2302b4346299f4","bdp_wmem","Sat Apr 08 2023 11:23:31 GMT-0500 (Central Daylight Time)","777139","Match,No Match","","null","","","","","","<div class='trialBorder'><div class='vertical-center'><img src='img/correct.jpg'></div><div class='respDiv'><div class='respDivL'><font style='color:orange'>Match<br>(e)</font></div><div class='respDivR'>No Match<br>(i)</div></div></div>","null","FEEDBACK","","","","","","","","","","",""
"html-keyboard-response","60","360946","0.0-7.0-1.5","63f477547d2302b4346299f4","bdp_wmem","Sat Apr 08 2023 11:23:31 GMT-0500 (Central Daylight Time)","777139","Match,No Match","","null","","","","","","<div class='trialBorder'><div class='vertical-center'><img src='img/fixation2_sml.jpg'</img></div></div>","null","FIX","","","","","","","","","","",""
"html-keyboard-response","61","365449","0.0-7.0-2.5","63f477547d2302b4346299f4","bdp_wmem","Sat Apr 08 2023 11:23:31 GMT-0500 (Central Daylight Time)","777139","Match,No Match","","null","","","","","","<div class='trialBorder'><div class='vertical-center'><img style='vertical-align:center; align:center' src='img/fixation2_sml.jpg'></div><div class='arrayDiv3'><div class='tl'><img class='introPic' src='trustrating_stim/white_mw038.bmp'><br><font color='green'><strong>Share</strong></font></div><div class='tc'><img class='introPic' src='trustrating_stim/white_mw040.bmp'><br><font color='red'><strong>Keep</strong></font></div><div class='tr'><img class='introPic' src='trustrating_stim/white_mw092.bmp'><br><font color='red'><strong>Keep</strong></font></div></div></div>","null","ARRAY","3","trustrating_stim/white_mw038.bmp,trustrating_stim/white_mw040.bmp,trustrating_stim/white_mw092.bmp","1,0,0","noMatchOutcome","i","4500","","","","",""
"html-keyboard-response","62","369451","0.0-7.0-3.5","63f477547d2302b4346299f4","bdp_wmem","Sat Apr 08 2023 11:23:31 GMT-0500 (Central Daylight Time)","777139","Match,No Match","","null","","","","","","<div class='trialBorder'><div class='vertical-center'><img src='img/fixation2_sml.jpg'</img></div></div>","null","DELAY","","","","","","","","","","",""
"html-keyboard-response","63","370730","0.0-7.0-4.5","63f477547d2302b4346299f4","bdp_wmem","Sat Apr 08 2023 11:23:31 GMT-0500 (Central Daylight Time)","777139","Match,No Match","","1276","","","","","","<div class='trialBorder'><div class='targDiv'><div class='tc'><img class='introPic' src='trustrating_stim/white_mw040.bmp'><br><font color='green'><strong>Share</strong></font></div></div><div class='respDiv'><div class='respDivL'>Match<br>(e)</div><div class='respDivR'>No Match<br>(i)</div></div></div>","i","TARGET","3","trustrating_stim/white_mw038.bmp,trustrating_stim/white_mw040.bmp,trustrating_stim/white_mw092.bmp","1,0,0","noMatchOutcome","i","4500","trustrating_stim/white_mw040.bmp","green","Share","REAL","1"
"html-keyboard-response","64","371231","0.0-7.0-5.5","63f477547d2302b4346299f4","bdp_wmem","Sat Apr 08 2023 11:23:31 GMT-0500 (Central Daylight Time)","777139","Match,No Match","","null","","","","","","<div class='trialBorder'><div class='vertical-center'><img src='img/correct.jpg'></div><div class='respDiv'><div class='respDivL'>Match<br>(e)</div><div class='respDivR'><font style='color:orange'>No Match<br>(i)</font></div></div></div>","null","FEEDBACK","","","","","","","","","","",""
"html-keyboard-response","65","371733","0.0-7.0-1.6","63f477547d2302b4346299f4","bdp_wmem","Sat Apr 08 2023 11:23:31 GMT-0500 (Central Daylight Time)","777139","Match,No Match","","null","","","","","","<div class='trialBorder'><div class='vertical-center'><img src='img/fixation2_sml.jpg'</img></div></div>","null","FIX","","","","","","","","","","",""
"html-keyboard-response","66","373235","0.0-7.0-2.6","63f477547d2302b4346299f4","bdp_wmem","Sat Apr 08 2023 11:23:31 GMT-0500 (Central Daylight Time)","777139","Match,No Match","","null","","","","","","<div class='trialBorder'><div class='vertical-center'><img style='vertical-align:center; align:center' src='img/fixation2_sml.jpg'></div><div class='arrayDiv1'><div class='tc'><img class='introPic' src='trustrating_stim/white_mw038.bmp'><br><font color='red'><strong>Keep</strong></font></div></div></div>","null","ARRAY","1","trustrating_stim/white_mw038.bmp","0","Match","e","1500","","","","",""
"html-keyboard-response","67","377237","0.0-7.0-3.6","63f477547d2302b4346299f4","bdp_wmem","Sat Apr 08 2023 11:23:31 GMT-0500 (Central Daylight Time)","777139","Match,No Match","","null","","","","","","<div class='trialBorder'><div class='vertical-center'><img src='img/fixation2_sml.jpg'</img></div></div>","null","DELAY","","","","","","","","","","",""
"html-keyboard-response","68","378521","0.0-7.0-4.6","63f477547d2302b4346299f4","bdp_wmem","Sat Apr 08 2023 11:23:31 GMT-0500 (Central Daylight Time)","777139","Match,No Match","","1282","","","","","","<div class='trialBorder'><div class='targDiv'><div class='tc'><img class='introPic' src='trustrating_stim/white_mw038.bmp'><br><font color='red'><strong>Keep</strong></font></div></div><div class='respDiv'><div class='respDivL'>Match<br>(e)</div><div class='respDivR'>No Match<br>(i)</div></div></div>","e","TARGET","1","trustrating_stim/white_mw038.bmp","0","Match","e","1500","trustrating_stim/white_mw038.bmp","red","Keep","REAL","1"
"html-keyboard-response","69","379023","0.0-7.0-5.6","63f477547d2302b4346299f4","bdp_wmem","Sat Apr 08 2023 11:23:31 GMT-0500 (Central Daylight Time)","777139","Match,No Match","","null","","","","","","<div class='trialBorder'><div class='vertical-center'><img src='img/correct.jpg'></div><div class='respDiv'><div class='respDivL'><font style='color:orange'>Match<br>(e)</font></div><div class='respDivR'>No Match<br>(i)</div></div></div>","null","FEEDBACK","","","","","","","","","","",""
"html-keyboard-response","70","379525","0.0-7.0-1.7","63f477547d2302b4346299f4","bdp_wmem","Sat Apr 08 2023 11:23:31 GMT-0500 (Central Daylight Time)","777139","Match,No Match","","null","","","","","","<div class='trialBorder'><div class='vertical-center'><img src='img/fixation2_sml.jpg'</img></div></div>","null","FIX","","","","","","","","","","",""
"html-keyboard-response","71","381029","0.0-7.0-2.7","63f477547d2302b4346299f4","bdp_wmem","Sat Apr 08 2023 11:23:31 GMT-0500 (Central Daylight Time)","777139","Match,No Match","","null","","","","","","<div class='trialBorder'><div class='vertical-center'><img style='vertical-align:center; align:center' src='img/fixation2_sml.jpg'></div><div class='arrayDiv1'><div class='tc'><img class='introPic' src='trustrating_stim/white_mw040.bmp'><br><font color='green'><strong>Share</strong></font></div></div></div>","null","ARRAY","1","trustrating_stim/white_mw040.bmp","1","Match","e","1500","","","","",""
"html-keyboard-response","72","385032","0.0-7.0-3.7","63f477547d2302b4346299f4","bdp_wmem","Sat Apr 08 2023 11:23:31 GMT-0500 (Central Daylight Time)","777139","Match,No Match","","null","","","","","","<div class='trialBorder'><div class='vertical-center'><img src='img/fixation2_sml.jpg'</img></div></div>","null","DELAY","","","","","","","","","","",""
"html-keyboard-response","73","386093","0.0-7.0-4.7","63f477547d2302b4346299f4","bdp_wmem","Sat Apr 08 2023 11:23:31 GMT-0500 (Central Daylight Time)","777139","Match,No Match","","1060","","","","","","<div class='trialBorder'><div class='targDiv'><div class='tc'><img class='introPic' src='trustrating_stim/white_mw040.bmp'><br><font color='green'><strong>Share</strong></font></div></div><div class='respDiv'><div class='respDivL'>Match<br>(e)</div><div class='respDivR'>No Match<br>(i)</div></div></div>","e","TARGET","1","trustrating_stim/white_mw040.bmp","1","Match","e","1500","trustrating_stim/white_mw040.bmp","green","Share","REAL","1"
"html-keyboard-response","74","386594","0.0-7.0-5.7","63f477547d2302b4346299f4","bdp_wmem","Sat Apr 08 2023 11:23:31 GMT-0500 (Central Daylight Time)","777139","Match,No Match","","null","","","","","","<div class='trialBorder'><div class='vertical-center'><img src='img/correct.jpg'></div><div class='respDiv'><div class='respDivL'><font style='color:orange'>Match<br>(e)</font></div><div class='respDivR'>No Match<br>(i)</div></div></div>","null","FEEDBACK","","","","","","","","","","",""
"html-keyboard-response","75","387096","0.0-7.0-1.8","63f477547d2302b4346299f4","bdp_wmem","Sat Apr 08 2023 11:23:31 GMT-0500 (Central Daylight Time)","777139","Match,No Match","","null","","","","","","<div class='trialBorder'><div class='vertical-center'><img src='img/fixation2_sml.jpg'</img></div></div>","null","FIX","","","","","","","","","","",""
"html-keyboard-response","76","388598","0.0-7.0-2.8","63f477547d2302b4346299f4","bdp_wmem","Sat Apr 08 2023 11:23:31 GMT-0500 (Central Daylight Time)","777139","Match,No Match","","null","","","","","","<div class='trialBorder'><div class='vertical-center'><img style='vertical-align:center; align:center' src='img/fixation2_sml.jpg'></div><div class='arrayDiv1'><div class='tc'><img class='introPic' src='trustrating_stim/white_mw085.bmp'><br><font color='red'><strong>Keep</strong></font></div></div></div>","null","ARRAY","1","trustrating_stim/white_mw085.bmp","0","noMatchFace","i","1500","","","","",""
"html-keyboard-response","77","392599","0.0-7.0-3.8","63f477547d2302b4346299f4","bdp_wmem","Sat Apr 08 2023 11:23:31 GMT-0500 (Central Daylight Time)","777139","Match,No Match","","null","","","","","","<div class='trialBorder'><div class='vertical-center'><img src='img/fixation2_sml.jpg'</img></div></div>","null","DELAY","","","","","","","","","","",""
"html-keyboard-response","78","395249","0.0-7.0-4.8","63f477547d2302b4346299f4","bdp_wmem","Sat Apr 08 2023 11:23:31 GMT-0500 (Central Daylight Time)","777139","Match,No Match","","2648","","","","","","<div class='trialBorder'><div class='targDiv'><div class='tc'><img class='introPic' src='trustrating_stim/white_mw078.bmp'><br><font color='red'><strong>Keep</strong></font></div></div><div class='respDiv'><div class='respDivL'>Match<br>(e)</div><div class='respDivR'>No Match<br>(i)</div></div></div>","i","TARGET","1","trustrating_stim/white_mw085.bmp","0","noMatchFace","i","1500","trustrating_stim/white_mw078.bmp","red","Keep","REAL","1"
"html-keyboard-response","79","395751","0.0-7.0-5.8","63f477547d2302b4346299f4","bdp_wmem","Sat Apr 08 2023 11:23:31 GMT-0500 (Central Daylight Time)","777139","Match,No Match","","null","","","","","","<div class='trialBorder'><div class='vertical-center'><img src='img/correct.jpg'></div><div class='respDiv'><div class='respDivL'>Match<br>(e)</div><div class='respDivR'><font style='color:orange'>No Match<br>(i)</font></div></div></div>","null","FEEDBACK","","","","","","","","","","",""
"html-keyboard-response","80","396253","0.0-7.0-1.9","63f477547d2302b4346299f4","bdp_wmem","Sat Apr 08 2023 11:23:31 GMT-0500 (Central Daylight Time)","777139","Match,No Match","","null","","","","","","<div class='trialBorder'><div class='vertical-center'><img src='img/fixation2_sml.jpg'</img></div></div>","null","FIX","","","","","","","","","","",""
"html-keyboard-response","81","400756","0.0-7.0-2.9","63f477547d2302b4346299f4","bdp_wmem","Sat Apr 08 2023 11:23:31 GMT-0500 (Central Daylight Time)","777139","Match,No Match","","null","","","","","","<div class='trialBorder'><div class='vertical-center'><img style='vertical-align:center; align:center' src='img/fixation2_sml.jpg'></div><div class='arrayDiv3'><div class='tl'><img class='introPic' src='trustrating_stim/white_mw040.bmp'><br><font color='red'><strong>Keep</strong></font></div><div class='tc'><img class='introPic' src='trustrating_stim/white_mw042.bmp'><br><font color='red'><strong>Keep</strong></font></div><div class='tr'><img class='introPic' src='trustrating_stim/white_mw013.bmp'><br><font color='green'><strong>Share</strong></font></div></div></div>","null","ARRAY","3","trustrating_stim/white_mw040.bmp,trustrating_stim/white_mw042.bmp,trustrating_stim/white_mw013.bmp","0,0,1","Match","e","4500","","","","",""
"html-keyboard-response","82","404757","0.0-7.0-3.9","63f477547d2302b4346299f4","bdp_wmem","Sat Apr 08 2023 11:23:31 GMT-0500 (Central Daylight Time)","777139","Match,No Match","","null","","","","","","<div class='trialBorder'><div class='vertical-center'><img src='img/fixation2_sml.jpg'</img></div></div>","null","DELAY","","","","","","","","","","",""
"html-keyboard-response","83","407658","0.0-7.0-4.9","63f477547d2302b4346299f4","bdp_wmem","Sat Apr 08 2023 11:23:31 GMT-0500 (Central Daylight Time)","777139","Match,No Match","","2898","","","","","","<div class='trialBorder'><div class='targDiv'><div class='tc'><img class='introPic' src='trustrating_stim/white_mw040.bmp'><br><font color='red'><strong>Keep</strong></font></div></div><div class='respDiv'><div class='respDivL'>Match<br>(e)</div><div class='respDivR'>No Match<br>(i)</div></div></div>","e","TARGET","3","trustrating_stim/white_mw040.bmp,trustrating_stim/white_mw042.bmp,trustrating_stim/white_mw013.bmp","0,0,1","Match","e","4500","trustrating_stim/white_mw040.bmp","red","Keep","REAL","1"
"html-keyboard-response","84","408159","0.0-7.0-5.9","63f477547d2302b4346299f4","bdp_wmem","Sat Apr 08 2023 11:23:31 GMT-0500 (Central Daylight Time)","777139","Match,No Match","","null","","","","","","<div class='trialBorder'><div class='vertical-center'><img src='img/correct.jpg'></div><div class='respDiv'><div class='respDivL'><font style='color:orange'>Match<br>(e)</font></div><div class='respDivR'>No Match<br>(i)</div></div></div>","null","FEEDBACK","","","","","","","","","","",""
"html-keyboard-response","85","408661","0.0-7.0-1.10","63f477547d2302b4346299f4","bdp_wmem","Sat Apr 08 2023 11:23:31 GMT-0500 (Central Daylight Time)","777139","Match,No Match","","null","","","","","","<div class='trialBorder'><div class='vertical-center'><img src='img/fixation2_sml.jpg'</img></div></div>","null","FIX","","","","","","","","","","",""
"html-keyboard-response","86","413164","0.0-7.0-2.10","63f477547d2302b4346299f4","bdp_wmem","Sat Apr 08 2023 11:23:31 GMT-0500 (Central Daylight Time)","777139","Match,No Match","","null","","","","","","<div class='trialBorder'><div class='vertical-center'><img style='vertical-align:center; align:center' src='img/fixation2_sml.jpg'></div><div class='arrayDiv3'><div class='tl'><img class='introPic' src='trustrating_stim/white_mw012.bmp'><br><font color='red'><strong>Keep</strong></font></div><div class='tc'><img class='introPic' src='trustrating_stim/white_mw040.bmp'><br><font color='red'><strong>Keep</strong></font></div><div class='tr'><img class='introPic' src='trustrating_stim/white_mw085.bmp'><br><font color='green'><strong>Share</strong></font></div></div></div>","null","ARRAY","3","trustrating_stim/white_mw012.bmp,trustrating_stim/white_mw040.bmp,trustrating_stim/white_mw085.bmp","0,0,1","noMatchOutcome","i","4500","","","","",""
"html-keyboard-response","87","417167","0.0-7.0-3.10","63f477547d2302b4346299f4","bdp_wmem","Sat Apr 08 2023 11:23:31 GMT-0500 (Central Daylight Time)","777139","Match,No Match","","null","","","","","","<div class='trialBorder'><div class='vertical-center'><img src='img/fixation2_sml.jpg'</img></div></div>","null","DELAY","","","","","","","","","","",""
"html-keyboard-response","88","420359","0.0-7.0-4.10","63f477547d2302b4346299f4","bdp_wmem","Sat Apr 08 2023 11:23:31 GMT-0500 (Central Daylight Time)","777139","Match,No Match","","3191","","","","","","<div class='trialBorder'><div class='targDiv'><div class='tc'><img class='introPic' src='trustrating_stim/white_mw040.bmp'><br><font color='green'><strong>Share</strong></font></div></div><div class='respDiv'><div class='respDivL'>Match<br>(e)</div><div class='respDivR'>No Match<br>(i)</div></div></div>","i","TARGET","3","trustrating_stim/white_mw012.bmp,trustrating_stim/white_mw040.bmp,trustrating_stim/white_mw085.bmp","0,0,1","noMatchOutcome","i","4500","trustrating_stim/white_mw040.bmp","green","Share","REAL","1"
"html-keyboard-response","89","420861","0.0-7.0-5.10","63f477547d2302b4346299f4","bdp_wmem","Sat Apr 08 2023 11:23:31 GMT-0500 (Central Daylight Time)","777139","Match,No Match","","null","","","","","","<div class='trialBorder'><div class='vertical-center'><img src='img/correct.jpg'></div><div class='respDiv'><div class='respDivL'>Match<br>(e)</div><div class='respDivR'><font style='color:orange'>No Match<br>(i)</font></div></div></div>","null","FEEDBACK","","","","","","","","","","",""
"html-keyboard-response","90","421363","0.0-7.0-1.11","63f477547d2302b4346299f4","bdp_wmem","Sat Apr 08 2023 11:23:31 GMT-0500 (Central Daylight Time)","777139","Match,No Match","","null","","","","","","<div class='trialBorder'><div class='vertical-center'><img src='img/fixation2_sml.jpg'</img></div></div>","null","FIX","","","","","","","","","","",""
"html-keyboard-response","91","422867","0.0-7.0-2.11","63f477547d2302b4346299f4","bdp_wmem","Sat Apr 08 2023 11:23:31 GMT-0500 (Central Daylight Time)","777139","Match,No Match","","null","","","","","","<div class='trialBorder'><div class='vertical-center'><img style='vertical-align:center; align:center' src='img/fixation2_sml.jpg'></div><div class='arrayDiv1'><div class='tc'><img class='introPic' src='trustrating_stim/white_mw038.bmp'><br><font color='red'><strong>Keep</strong></font></div></div></div>","null","ARRAY","1","trustrating_stim/white_mw038.bmp","0","noMatchFace","i","1500","","","","",""
"html-keyboard-response","92","426869","0.0-7.0-3.11","63f477547d2302b4346299f4","bdp_wmem","Sat Apr 08 2023 11:23:31 GMT-0500 (Central Daylight Time)","777139","Match,No Match","","null","","","","","","<div class='trialBorder'><div class='vertical-center'><img src='img/fixation2_sml.jpg'</img></div></div>","null","DELAY","","","","","","","","","","",""
"html-keyboard-response","93","428173","0.0-7.0-4.11","63f477547d2302b4346299f4","bdp_wmem","Sat Apr 08 2023 11:23:31 GMT-0500 (Central Daylight Time)","777139","Match,No Match","","1303","","","","","","<div class='trialBorder'><div class='targDiv'><div class='tc'><img class='introPic' src='trustrating_stim/white_mw013.bmp'><br><font color='red'><strong>Keep</strong></font></div></div><div class='respDiv'><div class='respDivL'>Match<br>(e)</div><div class='respDivR'>No Match<br>(i)</div></div></div>","i","TARGET","1","trustrating_stim/white_mw038.bmp","0","noMatchFace","i","1500","trustrating_stim/white_mw013.bmp","red","Keep","REAL","1"
"html-keyboard-response","94","428675","0.0-7.0-5.11","63f477547d2302b4346299f4","bdp_wmem","Sat Apr 08 2023 11:23:31 GMT-0500 (Central Daylight Time)","777139","Match,No Match","","null","","","","","","<div class='trialBorder'><div class='vertical-center'><img src='img/correct.jpg'></div><div class='respDiv'><div class='respDivL'>Match<br>(e)</div><div class='respDivR'><font style='color:orange'>No Match<br>(i)</font></div></div></div>","null","FEEDBACK","","","","","","","","","","",""
"html-keyboard-response","95","429177","0.0-7.0-1.12","63f477547d2302b4346299f4","bdp_wmem","Sat Apr 08 2023 11:23:31 GMT-0500 (Central Daylight Time)","777139","Match,No Match","","null","","","","","","<div class='trialBorder'><div class='vertical-center'><img src='img/fixation2_sml.jpg'</img></div></div>","null","FIX","","","","","","","","","","",""
"html-keyboard-response","96","433679","0.0-7.0-2.12","63f477547d2302b4346299f4","bdp_wmem","Sat Apr 08 2023 11:23:31 GMT-0500 (Central Daylight Time)","777139","Match,No Match","","null","","","","","","<div class='trialBorder'><div class='vertical-center'><img style='vertical-align:center; align:center' src='img/fixation2_sml.jpg'></div><div class='arrayDiv3'><div class='tl'><img class='introPic' src='trustrating_stim/white_mw003.bmp'><br><font color='red'><strong>Keep</strong></font></div><div class='tc'><img class='introPic' src='trustrating_stim/white_mw085.bmp'><br><font color='green'><strong>Share</strong></font></div><div class='tr'><img class='introPic' src='trustrating_stim/white_mw010.bmp'><br><font color='red'><strong>Keep</strong></font></div></div></div>","null","ARRAY","3","trustrating_stim/white_mw003.bmp,trustrating_stim/white_mw085.bmp,trustrating_stim/white_mw010.bmp","0,1,0","Match","e","4500","","","","",""
"html-keyboard-response","97","437680","0.0-7.0-3.12","63f477547d2302b4346299f4","bdp_wmem","Sat Apr 08 2023 11:23:31 GMT-0500 (Central Daylight Time)","777139","Match,No Match","","null","","","","","","<div class='trialBorder'><div class='vertical-center'><img src='img/fixation2_sml.jpg'</img></div></div>","null","DELAY","","","","","","","","","","",""
"html-keyboard-response","98","439789","0.0-7.0-4.12","63f477547d2302b4346299f4","bdp_wmem","Sat Apr 08 2023 11:23:31 GMT-0500 (Central Daylight Time)","777139","Match,No Match","","2107","","","","","","<div class='trialBorder'><div class='targDiv'><div class='tc'><img class='introPic' src='trustrating_stim/white_mw003.bmp'><br><font color='red'><strong>Keep</strong></font></div></div><div class='respDiv'><div class='respDivL'>Match<br>(e)</div><div class='respDivR'>No Match<br>(i)</div></div></div>","e","TARGET","3","trustrating_stim/white_mw003.bmp,trustrating_stim/white_mw085.bmp,trustrating_stim/white_mw010.bmp","0,1,0","Match","e","4500","trustrating_stim/white_mw003.bmp","red","Keep","REAL","1"
"html-keyboard-response","99","440292","0.0-7.0-5.12","63f477547d2302b4346299f4","bdp_wmem","Sat Apr 08 2023 11:23:31 GMT-0500 (Central Daylight Time)","777139","Match,No Match","","null","","","","","","<div class='trialBorder'><div class='vertical-center'><img src='img/correct.jpg'></div><div class='respDiv'><div class='respDivL'><font style='color:orange'>Match<br>(e)</font></div><div class='respDivR'>No Match<br>(i)</div></div></div>","null","FEEDBACK","","","","","","","","","","",""
"html-keyboard-response","100","440794","0.0-7.0-1.13","63f477547d2302b4346299f4","bdp_wmem","Sat Apr 08 2023 11:23:31 GMT-0500 (Central Daylight Time)","777139","Match,No Match","","null","","","","","","<div class='trialBorder'><div class='vertical-center'><img src='img/fixation2_sml.jpg'</img></div></div>","null","FIX","","","","","","","","","","",""
"html-keyboard-response","101","442296","0.0-7.0-2.13","63f477547d2302b4346299f4","bdp_wmem","Sat Apr 08 2023 11:23:31 GMT-0500 (Central Daylight Time)","777139","Match,No Match","","null","","","","","","<div class='trialBorder'><div class='vertical-center'><img style='vertical-align:center; align:center' src='img/fixation2_sml.jpg'></div><div class='arrayDiv1'><div class='tc'><img class='introPic' src='trustrating_stim/white_mw092.bmp'><br><font color='green'><strong>Share</strong></font></div></div></div>","null","ARRAY","1","trustrating_stim/white_mw092.bmp","1","noMatchOutcome","i","1500","","","","",""
"html-keyboard-response","102","446297","0.0-7.0-3.13","63f477547d2302b4346299f4","bdp_wmem","Sat Apr 08 2023 11:23:31 GMT-0500 (Central Daylight Time)","777139","Match,No Match","","null","","","","","","<div class='trialBorder'><div class='vertical-center'><img src='img/fixation2_sml.jpg'</img></div></div>","null","DELAY","","","","","","","","","","",""
"html-keyboard-response","103","447904","0.0-7.0-4.13","63f477547d2302b4346299f4","bdp_wmem","Sat Apr 08 2023 11:23:31 GMT-0500 (Central Daylight Time)","777139","Match,No Match","","1605","","","","","","<div class='trialBorder'><div class='targDiv'><div class='tc'><img class='introPic' src='trustrating_stim/white_mw092.bmp'><br><font color='red'><strong>Keep</strong></font></div></div><div class='respDiv'><div class='respDivL'>Match<br>(e)</div><div class='respDivR'>No Match<br>(i)</div></div></div>","e","TARGET","1","trustrating_stim/white_mw092.bmp","1","noMatchOutcome","i","1500","trustrating_stim/white_mw092.bmp","red","Keep","REAL","0"
"html-keyboard-response","104","448405","0.0-7.0-5.13","63f477547d2302b4346299f4","bdp_wmem","Sat Apr 08 2023 11:23:31 GMT-0500 (Central Daylight Time)","777139","Match,No Match","","null","","","","","","<div class='trialBorder'><div class='vertical-center'><img src='img/error.jpg'></div><div class='respDiv'><div class='respDivL'><font style='color:orange'>Match<br>(e)</font></div><div class='respDivR'>No Match<br>(i)</div></div></div>","null","FEEDBACK","","","","","","","","","","",""
"html-keyboard-response","105","448907","0.0-7.0-1.14","63f477547d2302b4346299f4","bdp_wmem","Sat Apr 08 2023 11:23:31 GMT-0500 (Central Daylight Time)","777139","Match,No Match","","null","","","","","","<div class='trialBorder'><div class='vertical-center'><img src='img/fixation2_sml.jpg'</img></div></div>","null","FIX","","","","","","","","","","",""
"html-keyboard-response","106","451909","0.0-7.0-2.14","63f477547d2302b4346299f4","bdp_wmem","Sat Apr 08 2023 11:23:31 GMT-0500 (Central Daylight Time)","777139","Match,No Match","","null","","","","","","<div class='trialBorder'><div class='vertical-center'><img style='vertical-align:center; align:center' src='img/fixation2_sml.jpg'></div><div class='arrayDiv2'><div class='tl'><img class='introPic' src='trustrating_stim/white_mw091.bmp'><br><font color='red'><strong>Keep</strong></font></div><div class='tr'><img class='introPic' src='trustrating_stim/white_mw070.bmp'><br><font color='green'><strong>Share</strong></font></div></div></div>","null","ARRAY","2","trustrating_stim/white_mw091.bmp,trustrating_stim/white_mw070.bmp","0,1","noMatchFace","i","3000","","","","",""
"html-keyboard-response","107","455911","0.0-7.0-3.14","63f477547d2302b4346299f4","bdp_wmem","Sat Apr 08 2023 11:23:31 GMT-0500 (Central Daylight Time)","777139","Match,No Match","","null","","","","","","<div class='trialBorder'><div class='vertical-center'><img src='img/fixation2_sml.jpg'</img></div></div>","null","DELAY","","","","","","","","","","",""
"html-keyboard-response","108","457750","0.0-7.0-4.14","63f477547d2302b4346299f4","bdp_wmem","Sat Apr 08 2023 11:23:31 GMT-0500 (Central Daylight Time)","777139","Match,No Match","","1836","","","","","","<div class='trialBorder'><div class='targDiv'><div class='tc'><img class='introPic' src='trustrating_stim/white_mw040.bmp'><br><font color='red'><strong>Keep</strong></font></div></div><div class='respDiv'><div class='respDivL'>Match<br>(e)</div><div class='respDivR'>No Match<br>(i)</div></div></div>","e","TARGET","2","trustrating_stim/white_mw091.bmp,trustrating_stim/white_mw070.bmp","0,1","noMatchFace","i","3000","trustrating_stim/white_mw040.bmp","red","Keep","REAL","0"
"html-keyboard-response","109","458251","0.0-7.0-5.14","63f477547d2302b4346299f4","bdp_wmem","Sat Apr 08 2023 11:23:31 GMT-0500 (Central Daylight Time)","777139","Match,No Match","","null","","","","","","<div class='trialBorder'><div class='vertical-center'><img src='img/error.jpg'></div><div class='respDiv'><div class='respDivL'><font style='color:orange'>Match<br>(e)</font></div><div class='respDivR'>No Match<br>(i)</div></div></div>","null","FEEDBACK","","","","","","","","","","",""
"html-keyboard-response","110","458753","0.0-7.0-1.15","63f477547d2302b4346299f4","bdp_wmem","Sat Apr 08 2023 11:23:31 GMT-0500 (Central Daylight Time)","777139","Match,No Match","","null","","","","","","<div class='trialBorder'><div class='vertical-center'><img src='img/fixation2_sml.jpg'</img></div></div>","null","FIX","","","","","","","","","","",""
"html-keyboard-response","111","460255","0.0-7.0-2.15","63f477547d2302b4346299f4","bdp_wmem","Sat Apr 08 2023 11:23:31 GMT-0500 (Central Daylight Time)","777139","Match,No Match","","null","","","","","","<div class='trialBorder'><div class='vertical-center'><img style='vertical-align:center; align:center' src='img/fixation2_sml.jpg'></div><div class='arrayDiv1'><div class='tc'><img class='introPic' src='trustrating_stim/white_mw091.bmp'><br><font color='red'><strong>Keep</strong></font></div></div></div>","null","ARRAY","1","trustrating_stim/white_mw091.bmp","0","Match","e","1500","","","","",""
"html-keyboard-response","112","464256","0.0-7.0-3.15","63f477547d2302b4346299f4","bdp_wmem","Sat Apr 08 2023 11:23:31 GMT-0500 (Central Daylight Time)","777139","Match,No Match","","null","","","","","","<div class='trialBorder'><div class='vertical-center'><img src='img/fixation2_sml.jpg'</img></div></div>","null","DELAY","","","","","","","","","","",""
"html-keyboard-response","113","466962","0.0-7.0-4.15","63f477547d2302b4346299f4","bdp_wmem","Sat Apr 08 2023 11:23:31 GMT-0500 (Central Daylight Time)","777139","Match,No Match","","2703","","","","","","<div class='trialBorder'><div class='targDiv'><div class='tc'><img class='introPic' src='trustrating_stim/white_mw091.bmp'><br><font color='red'><strong>Keep</strong></font></div></div><div class='respDiv'><div class='respDivL'>Match<br>(e)</div><div class='respDivR'>No Match<br>(i)</div></div></div>","e","TARGET","1","trustrating_stim/white_mw091.bmp","0","Match","e","1500","trustrating_stim/white_mw091.bmp","red","Keep","REAL","1"
"html-keyboard-response","114","467463","0.0-7.0-5.15","63f477547d2302b4346299f4","bdp_wmem","Sat Apr 08 2023 11:23:31 GMT-0500 (Central Daylight Time)","777139","Match,No Match","","null","","","","","","<div class='trialBorder'><div class='vertical-center'><img src='img/correct.jpg'></div><div class='respDiv'><div class='respDivL'><font style='color:orange'>Match<br>(e)</font></div><div class='respDivR'>No Match<br>(i)</div></div></div>","null","FEEDBACK","","","","","","","","","","",""
"html-keyboard-response","115","467965","0.0-7.0-1.16","63f477547d2302b4346299f4","bdp_wmem","Sat Apr 08 2023 11:23:31 GMT-0500 (Central Daylight Time)","777139","Match,No Match","","null","","","","","","<div class='trialBorder'><div class='vertical-center'><img src='img/fixation2_sml.jpg'</img></div></div>","null","FIX","","","","","","","","","","",""
"html-keyboard-response","116","469467","0.0-7.0-2.16","63f477547d2302b4346299f4","bdp_wmem","Sat Apr 08 2023 11:23:31 GMT-0500 (Central Daylight Time)","777139","Match,No Match","","null","","","","","","<div class='trialBorder'><div class='vertical-center'><img style='vertical-align:center; align:center' src='img/fixation2_sml.jpg'></div><div class='arrayDiv1'><div class='tc'><img class='introPic' src='trustrating_stim/white_mw040.bmp'><br><font color='green'><strong>Share</strong></font></div></div></div>","null","ARRAY","1","trustrating_stim/white_mw040.bmp","1","noMatchOutcome","i","1500","","","","",""
"html-keyboard-response","117","473469","0.0-7.0-3.16","63f477547d2302b4346299f4","bdp_wmem","Sat Apr 08 2023 11:23:31 GMT-0500 (Central Daylight Time)","777139","Match,No Match","","null","","","","","","<div class='trialBorder'><div class='vertical-center'><img src='img/fixation2_sml.jpg'</img></div></div>","null","DELAY","","","","","","","","","","",""
"html-keyboard-response","118","474802","0.0-7.0-4.16","63f477547d2302b4346299f4","bdp_wmem","Sat Apr 08 2023 11:23:31 GMT-0500 (Central Daylight Time)","777139","Match,No Match","","1331","","","","","","<div class='trialBorder'><div class='targDiv'><div class='tc'><img class='introPic' src='trustrating_stim/white_mw040.bmp'><br><font color='red'><strong>Keep</strong></font></div></div><div class='respDiv'><div class='respDivL'>Match<br>(e)</div><div class='respDivR'>No Match<br>(i)</div></div></div>","e","TARGET","1","trustrating_stim/white_mw040.bmp","1","noMatchOutcome","i","1500","trustrating_stim/white_mw040.bmp","red","Keep","REAL","0"
"html-keyboard-response","119","475303","0.0-7.0-5.16","63f477547d2302b4346299f4","bdp_wmem","Sat Apr 08 2023 11:23:31 GMT-0500 (Central Daylight Time)","777139","Match,No Match","","null","","","","","","<div class='trialBorder'><div class='vertical-center'><img src='img/error.jpg'></div><div class='respDiv'><div class='respDivL'><font style='color:orange'>Match<br>(e)</font></div><div class='respDivR'>No Match<br>(i)</div></div></div>","null","FEEDBACK","","","","","","","","","","",""
"html-keyboard-response","120","475805","0.0-7.0-1.17","63f477547d2302b4346299f4","bdp_wmem","Sat Apr 08 2023 11:23:31 GMT-0500 (Central Daylight Time)","777139","Match,No Match","","null","","","","","","<div class='trialBorder'><div class='vertical-center'><img src='img/fixation2_sml.jpg'</img></div></div>","null","FIX","","","","","","","","","","",""
"html-keyboard-response","121","478807","0.0-7.0-2.17","63f477547d2302b4346299f4","bdp_wmem","Sat Apr 08 2023 11:23:31 GMT-0500 (Central Daylight Time)","777139","Match,No Match","","null","","","","","","<div class='trialBorder'><div class='vertical-center'><img style='vertical-align:center; align:center' src='img/fixation2_sml.jpg'></div><div class='arrayDiv2'><div class='tl'><img class='introPic' src='trustrating_stim/white_mw038.bmp'><br><font color='green'><strong>Share</strong></font></div><div class='tr'><img class='introPic' src='trustrating_stim/white_mw091.bmp'><br><font color='red'><strong>Keep</strong></font></div></div></div>","null","ARRAY","2","trustrating_stim/white_mw038.bmp,trustrating_stim/white_mw091.bmp","1,0","Match","e","3000","","","","",""
"html-keyboard-response","122","482810","0.0-7.0-3.17","63f477547d2302b4346299f4","bdp_wmem","Sat Apr 08 2023 11:23:31 GMT-0500 (Central Daylight Time)","777139","Match,No Match","","null","","","","","","<div class='trialBorder'><div class='vertical-center'><img src='img/fixation2_sml.jpg'</img></div></div>","null","DELAY","","","","","","","","","","",""
"html-keyboard-response","123","484141","0.0-7.0-4.17","63f477547d2302b4346299f4","bdp_wmem","Sat Apr 08 2023 11:23:31 GMT-0500 (Central Daylight Time)","777139","Match,No Match","","1329","","","","","","<div class='trialBorder'><div class='targDiv'><div class='tc'><img class='introPic' src='trustrating_stim/white_mw038.bmp'><br><font color='green'><strong>Share</strong></font></div></div><div class='respDiv'><div class='respDivL'>Match<br>(e)</div><div class='respDivR'>No Match<br>(i)</div></div></div>","e","TARGET","2","trustrating_stim/white_mw038.bmp,trustrating_stim/white_mw091.bmp","1,0","Match","e","3000","trustrating_stim/white_mw038.bmp","green","Share","REAL","1"
"html-keyboard-response","124","484642","0.0-7.0-5.17","63f477547d2302b4346299f4","bdp_wmem","Sat Apr 08 2023 11:23:31 GMT-0500 (Central Daylight Time)","777139","Match,No Match","","null","","","","","","<div class='trialBorder'><div class='vertical-center'><img src='img/correct.jpg'></div><div class='respDiv'><div class='respDivL'><font style='color:orange'>Match<br>(e)</font></div><div class='respDivR'>No Match<br>(i)</div></div></div>","null","FEEDBACK","","","","","","","","","","",""
"html-keyboard-response","125","485143","0.0-7.0-1.18","63f477547d2302b4346299f4","bdp_wmem","Sat Apr 08 2023 11:23:31 GMT-0500 (Central Daylight Time)","777139","Match,No Match","","null","","","","","","<div class='trialBorder'><div class='vertical-center'><img src='img/fixation2_sml.jpg'</img></div></div>","null","FIX","","","","","","","","","","",""
"html-keyboard-response","126","488145","0.0-7.0-2.18","63f477547d2302b4346299f4","bdp_wmem","Sat Apr 08 2023 11:23:31 GMT-0500 (Central Daylight Time)","777139","Match,No Match","","null","","","","","","<div class='trialBorder'><div class='vertical-center'><img style='vertical-align:center; align:center' src='img/fixation2_sml.jpg'></div><div class='arrayDiv2'><div class='tl'><img class='introPic' src='trustrating_stim/white_mw012.bmp'><br><font color='green'><strong>Share</strong></font></div><div class='tr'><img class='introPic' src='trustrating_stim/white_mw078.bmp'><br><font color='red'><strong>Keep</strong></font></div></div></div>","null","ARRAY","2","trustrating_stim/white_mw012.bmp,trustrating_stim/white_mw078.bmp","1,0","Match","e","3000","","","","",""
"html-keyboard-response","127","492147","0.0-7.0-3.18","63f477547d2302b4346299f4","bdp_wmem","Sat Apr 08 2023 11:23:31 GMT-0500 (Central Daylight Time)","777139","Match,No Match","","null","","","","","","<div class='trialBorder'><div class='vertical-center'><img src='img/fixation2_sml.jpg'</img></div></div>","null","DELAY","","","","","","","","","","",""
"html-keyboard-response","128","494037","0.0-7.0-4.18","63f477547d2302b4346299f4","bdp_wmem","Sat Apr 08 2023 11:23:31 GMT-0500 (Central Daylight Time)","777139","Match,No Match","","1887","","","","","","<div class='trialBorder'><div class='targDiv'><div class='tc'><img class='introPic' src='trustrating_stim/white_mw078.bmp'><br><font color='red'><strong>Keep</strong></font></div></div><div class='respDiv'><div class='respDivL'>Match<br>(e)</div><div class='respDivR'>No Match<br>(i)</div></div></div>","e","TARGET","2","trustrating_stim/white_mw012.bmp,trustrating_stim/white_mw078.bmp","1,0","Match","e","3000","trustrating_stim/white_mw078.bmp","red","Keep","REAL","1"
"html-keyboard-response","129","494538","0.0-7.0-5.18","63f477547d2302b4346299f4","bdp_wmem","Sat Apr 08 2023 11:23:31 GMT-0500 (Central Daylight Time)","777139","Match,No Match","","null","","","","","","<div class='trialBorder'><div class='vertical-center'><img src='img/correct.jpg'></div><div class='respDiv'><div class='respDivL'><font style='color:orange'>Match<br>(e)</font></div><div class='respDivR'>No Match<br>(i)</div></div></div>","null","FEEDBACK","","","","","","","","","","",""
"html-keyboard-response","130","495040","0.0-7.0-1.19","63f477547d2302b4346299f4","bdp_wmem","Sat Apr 08 2023 11:23:31 GMT-0500 (Central Daylight Time)","777139","Match,No Match","","null","","","","","","<div class='trialBorder'><div class='vertical-center'><img src='img/fixation2_sml.jpg'</img></div></div>","null","FIX","","","","","","","","","","",""
"html-keyboard-response","131","498042","0.0-7.0-2.19","63f477547d2302b4346299f4","bdp_wmem","Sat Apr 08 2023 11:23:31 GMT-0500 (Central Daylight Time)","777139","Match,No Match","","null","","","","","","<div class='trialBorder'><div class='vertical-center'><img style='vertical-align:center; align:center' src='img/fixation2_sml.jpg'></div><div class='arrayDiv2'><div class='tl'><img class='introPic' src='trustrating_stim/white_mw042.bmp'><br><font color='green'><strong>Share</strong></font></div><div class='tr'><img class='introPic' src='trustrating_stim/white_mw091.bmp'><br><font color='red'><strong>Keep</strong></font></div></div></div>","null","ARRAY","2","trustrating_stim/white_mw042.bmp,trustrating_stim/white_mw091.bmp","1,0","noMatchOutcome","i","3000","","","","",""
"html-keyboard-response","132","502043","0.0-7.0-3.19","63f477547d2302b4346299f4","bdp_wmem","Sat Apr 08 2023 11:23:31 GMT-0500 (Central Daylight Time)","777139","Match,No Match","","null","","","","","","<div class='trialBorder'><div class='vertical-center'><img src='img/fixation2_sml.jpg'</img></div></div>","null","DELAY","","","","","","","","","","",""
"html-keyboard-response","133","503406","0.0-7.0-4.19","63f477547d2302b4346299f4","bdp_wmem","Sat Apr 08 2023 11:23:31 GMT-0500 (Central Daylight Time)","777139","Match,No Match","","1361","","","","","","<div class='trialBorder'><div class='targDiv'><div class='tc'><img class='introPic' src='trustrating_stim/white_mw091.bmp'><br><font color='green'><strong>Share</strong></font></div></div><div class='respDiv'><div class='respDivL'>Match<br>(e)</div><div class='respDivR'>No Match<br>(i)</div></div></div>","i","TARGET","2","trustrating_stim/white_mw042.bmp,trustrating_stim/white_mw091.bmp","1,0","noMatchOutcome","i","3000","trustrating_stim/white_mw091.bmp","green","Share","REAL","1"
"html-keyboard-response","134","503907","0.0-7.0-5.19","63f477547d2302b4346299f4","bdp_wmem","Sat Apr 08 2023 11:23:31 GMT-0500 (Central Daylight Time)","777139","Match,No Match","","null","","","","","","<div class='trialBorder'><div class='vertical-center'><img src='img/correct.jpg'></div><div class='respDiv'><div class='respDivL'>Match<br>(e)</div><div class='respDivR'><font style='color:orange'>No Match<br>(i)</font></div></div></div>","null","FEEDBACK","","","","","","","","","","",""
"html-keyboard-response","135","504409","0.0-7.0-1.20","63f477547d2302b4346299f4","bdp_wmem","Sat Apr 08 2023 11:23:31 GMT-0500 (Central Daylight Time)","777139","Match,No Match","","null","","","","","","<div class='trialBorder'><div class='vertical-center'><img src='img/fixation2_sml.jpg'</img></div></div>","null","FIX","","","","","","","","","","",""
"html-keyboard-response","136","508911","0.0-7.0-2.20","63f477547d2302b4346299f4","bdp_wmem","Sat Apr 08 2023 11:23:31 GMT-0500 (Central Daylight Time)","777139","Match,No Match","","null","","","","","","<div class='trialBorder'><div class='vertical-center'><img style='vertical-align:center; align:center' src='img/fixation2_sml.jpg'></div><div class='arrayDiv3'><div class='tl'><img class='introPic' src='trustrating_stim/white_mw042.bmp'><br><font color='red'><strong>Keep</strong></font></div><div class='tc'><img class='introPic' src='trustrating_stim/white_mw070.bmp'><br><font color='green'><strong>Share</strong></font></div><div class='tr'><img class='introPic' src='trustrating_stim/white_mw003.bmp'><br><font color='green'><strong>Share</strong></font></div></div></div>","null","ARRAY","3","trustrating_stim/white_mw042.bmp,trustrating_stim/white_mw070.bmp,trustrating_stim/white_mw003.bmp","0,1,1","noMatchOutcome","i","4500","","","","",""
"html-keyboard-response","137","512913","0.0-7.0-3.20","63f477547d2302b4346299f4","bdp_wmem","Sat Apr 08 2023 11:23:31 GMT-0500 (Central Daylight Time)","777139","Match,No Match","","null","","","","","","<div class='trialBorder'><div class='vertical-center'><img src='img/fixation2_sml.jpg'</img></div></div>","null","DELAY","","","","","","","","","","",""
"html-keyboard-response","138","514275","0.0-7.0-4.20","63f477547d2302b4346299f4","bdp_wmem","Sat Apr 08 2023 11:23:31 GMT-0500 (Central Daylight Time)","777139","Match,No Match","","1361","","","","","","<div class='trialBorder'><div class='targDiv'><div class='tc'><img class='introPic' src='trustrating_stim/white_mw070.bmp'><br><font color='red'><strong>Keep</strong></font></div></div><div class='respDiv'><div class='respDivL'>Match<br>(e)</div><div class='respDivR'>No Match<br>(i)</div></div></div>","i","TARGET","3","trustrating_stim/white_mw042.bmp,trustrating_stim/white_mw070.bmp,trustrating_stim/white_mw003.bmp","0,1,1","noMatchOutcome","i","4500","trustrating_stim/white_mw070.bmp","red","Keep","REAL","1"
"html-keyboard-response","139","514776","0.0-7.0-5.20","63f477547d2302b4346299f4","bdp_wmem","Sat Apr 08 2023 11:23:31 GMT-0500 (Central Daylight Time)","777139","Match,No Match","","null","","","","","","<div class='trialBorder'><div class='vertical-center'><img src='img/correct.jpg'></div><div class='respDiv'><div class='respDivL'>Match<br>(e)</div><div class='respDivR'><font style='color:orange'>No Match<br>(i)</font></div></div></div>","null","FEEDBACK","","","","","","","","","","",""
"html-keyboard-response","140","515278","0.0-7.0-1.21","63f477547d2302b4346299f4","bdp_wmem","Sat Apr 08 2023 11:23:31 GMT-0500 (Central Daylight Time)","777139","Match,No Match","","null","","","","","","<div class='trialBorder'><div class='vertical-center'><img src='img/fixation2_sml.jpg'</img></div></div>","null","FIX","","","","","","","","","","",""
"html-keyboard-response","141","518281","0.0-7.0-2.21","63f477547d2302b4346299f4","bdp_wmem","Sat Apr 08 2023 11:23:31 GMT-0500 (Central Daylight Time)","777139","Match,No Match","","null","","","","","","<div class='trialBorder'><div class='vertical-center'><img style='vertical-align:center; align:center' src='img/fixation2_sml.jpg'></div><div class='arrayDiv2'><div class='tl'><img class='introPic' src='trustrating_stim/white_mw012.bmp'><br><font color='red'><strong>Keep</strong></font></div><div class='tr'><img class='introPic' src='trustrating_stim/white_mw010.bmp'><br><font color='green'><strong>Share</strong></font></div></div></div>","null","ARRAY","2","trustrating_stim/white_mw012.bmp,trustrating_stim/white_mw010.bmp","0,1","noMatchFace","i","3000","","","","",""
"html-keyboard-response","142","522283","0.0-7.0-3.21","63f477547d2302b4346299f4","bdp_wmem","Sat Apr 08 2023 11:23:31 GMT-0500 (Central Daylight Time)","777139","Match,No Match","","null","","","","","","<div class='trialBorder'><div class='vertical-center'><img src='img/fixation2_sml.jpg'</img></div></div>","null","DELAY","","","","","","","","","","",""
"html-keyboard-response","143","524956","0.0-7.0-4.21","63f477547d2302b4346299f4","bdp_wmem","Sat Apr 08 2023 11:23:31 GMT-0500 (Central Daylight Time)","777139","Match,No Match","","2670","","","","","","<div class='trialBorder'><div class='targDiv'><div class='tc'><img class='introPic' src='trustrating_stim/white_mw038.bmp'><br><font color='green'><strong>Share</strong></font></div></div><div class='respDiv'><div class='respDivL'>Match<br>(e)</div><div class='respDivR'>No Match<br>(i)</div></div></div>","i","TARGET","2","trustrating_stim/white_mw012.bmp,trustrating_stim/white_mw010.bmp","0,1","noMatchFace","i","3000","trustrating_stim/white_mw038.bmp","green","Share","REAL","1"
"html-keyboard-response","144","525458","0.0-7.0-5.21","63f477547d2302b4346299f4","bdp_wmem","Sat Apr 08 2023 11:23:31 GMT-0500 (Central Daylight Time)","777139","Match,No Match","","null","","","","","","<div class='trialBorder'><div class='vertical-center'><img src='img/correct.jpg'></div><div class='respDiv'><div class='respDivL'>Match<br>(e)</div><div class='respDivR'><font style='color:orange'>No Match<br>(i)</font></div></div></div>","null","FEEDBACK","","","","","","","","","","",""
"html-keyboard-response","145","525959","0.0-7.0-1.22","63f477547d2302b4346299f4","bdp_wmem","Sat Apr 08 2023 11:23:31 GMT-0500 (Central Daylight Time)","777139","Match,No Match","","null","","","","","","<div class='trialBorder'><div class='vertical-center'><img src='img/fixation2_sml.jpg'</img></div></div>","null","FIX","","","","","","","","","","",""
"html-keyboard-response","146","530462","0.0-7.0-2.22","63f477547d2302b4346299f4","bdp_wmem","Sat Apr 08 2023 11:23:31 GMT-0500 (Central Daylight Time)","777139","Match,No Match","","null","","","","","","<div class='trialBorder'><div class='vertical-center'><img style='vertical-align:center; align:center' src='img/fixation2_sml.jpg'></div><div class='arrayDiv3'><div class='tl'><img class='introPic' src='trustrating_stim/white_mw085.bmp'><br><font color='green'><strong>Share</strong></font></div><div class='tc'><img class='introPic' src='trustrating_stim/white_mw038.bmp'><br><font color='red'><strong>Keep</strong></font></div><div class='tr'><img class='introPic' src='trustrating_stim/white_mw003.bmp'><br><font color='green'><strong>Share</strong></font></div></div></div>","null","ARRAY","3","trustrating_stim/white_mw085.bmp,trustrating_stim/white_mw038.bmp,trustrating_stim/white_mw003.bmp","1,0,1","noMatchOutcome","i","4500","","","","",""
"html-keyboard-response","147","534464","0.0-7.0-3.22","63f477547d2302b4346299f4","bdp_wmem","Sat Apr 08 2023 11:23:31 GMT-0500 (Central Daylight Time)","777139","Match,No Match","","null","","","","","","<div class='trialBorder'><div class='vertical-center'><img src='img/fixation2_sml.jpg'</img></div></div>","null","DELAY","","","","","","","","","","",""
"html-keyboard-response","148","535931","0.0-7.0-4.22","63f477547d2302b4346299f4","bdp_wmem","Sat Apr 08 2023 11:23:31 GMT-0500 (Central Daylight Time)","777139","Match,No Match","","1466","","","","","","<div class='trialBorder'><div class='targDiv'><div class='tc'><img class='introPic' src='trustrating_stim/white_mw038.bmp'><br><font color='green'><strong>Share</strong></font></div></div><div class='respDiv'><div class='respDivL'>Match<br>(e)</div><div class='respDivR'>No Match<br>(i)</div></div></div>","i","TARGET","3","trustrating_stim/white_mw085.bmp,trustrating_stim/white_mw038.bmp,trustrating_stim/white_mw003.bmp","1,0,1","noMatchOutcome","i","4500","trustrating_stim/white_mw038.bmp","green","Share","REAL","1"
"html-keyboard-response","149","536434","0.0-7.0-5.22","63f477547d2302b4346299f4","bdp_wmem","Sat Apr 08 2023 11:23:31 GMT-0500 (Central Daylight Time)","777139","Match,No Match","","null","","","","","","<div class='trialBorder'><div class='vertical-center'><img src='img/correct.jpg'></div><div class='respDiv'><div class='respDivL'>Match<br>(e)</div><div class='respDivR'><font style='color:orange'>No Match<br>(i)</font></div></div></div>","null","FEEDBACK","","","","","","","","","","",""
"html-keyboard-response","150","536935","0.0-7.0-1.23","63f477547d2302b4346299f4","bdp_wmem","Sat Apr 08 2023 11:23:31 GMT-0500 (Central Daylight Time)","777139","Match,No Match","","null","","","","","","<div class='trialBorder'><div class='vertical-center'><img src='img/fixation2_sml.jpg'</img></div></div>","null","FIX","","","","","","","","","","",""
"html-keyboard-response","151","541438","0.0-7.0-2.23","63f477547d2302b4346299f4","bdp_wmem","Sat Apr 08 2023 11:23:31 GMT-0500 (Central Daylight Time)","777139","Match,No Match","","null","","","","","","<div class='trialBorder'><div class='vertical-center'><img style='vertical-align:center; align:center' src='img/fixation2_sml.jpg'></div><div class='arrayDiv3'><div class='tl'><img class='introPic' src='trustrating_stim/white_mw085.bmp'><br><font color='red'><strong>Keep</strong></font></div><div class='tc'><img class='introPic' src='trustrating_stim/white_mw078.bmp'><br><font color='green'><strong>Share</strong></font></div><div class='tr'><img class='introPic' src='trustrating_stim/white_mw003.bmp'><br><font color='green'><strong>Share</strong></font></div></div></div>","null","ARRAY","3","trustrating_stim/white_mw085.bmp,trustrating_stim/white_mw078.bmp,trustrating_stim/white_mw003.bmp","0,1,1","noMatchFace","i","4500","","","","",""
"html-keyboard-response","152","545439","0.0-7.0-3.23","63f477547d2302b4346299f4","bdp_wmem","Sat Apr 08 2023 11:23:31 GMT-0500 (Central Daylight Time)","777139","Match,No Match","","null","","","","","","<div class='trialBorder'><div class='vertical-center'><img src='img/fixation2_sml.jpg'</img></div></div>","null","DELAY","","","","","","","","","","",""
"html-keyboard-response","153","547462","0.0-7.0-4.23","63f477547d2302b4346299f4","bdp_wmem","Sat Apr 08 2023 11:23:31 GMT-0500 (Central Daylight Time)","777139","Match,No Match","","2020","","","","","","<div class='trialBorder'><div class='targDiv'><div class='tc'><img class='introPic' src='trustrating_stim/white_mw091.bmp'><br><font color='red'><strong>Keep</strong></font></div></div><div class='respDiv'><div class='respDivL'>Match<br>(e)</div><div class='respDivR'>No Match<br>(i)</div></div></div>","e","TARGET","3","trustrating_stim/white_mw085.bmp,trustrating_stim/white_mw078.bmp,trustrating_stim/white_mw003.bmp","0,1,1","noMatchFace","i","4500","trustrating_stim/white_mw091.bmp","red","Keep","REAL","0"
"html-keyboard-response","154","547963","0.0-7.0-5.23","63f477547d2302b4346299f4","bdp_wmem","Sat Apr 08 2023 11:23:31 GMT-0500 (Central Daylight Time)","777139","Match,No Match","","null","","","","","","<div class='trialBorder'><div class='vertical-center'><img src='img/error.jpg'></div><div class='respDiv'><div class='respDivL'><font style='color:orange'>Match<br>(e)</font></div><div class='respDivR'>No Match<br>(i)</div></div></div>","null","FEEDBACK","","","","","","","","","","",""
"html-keyboard-response","155","548465","0.0-7.0-1.24","63f477547d2302b4346299f4","bdp_wmem","Sat Apr 08 2023 11:23:31 GMT-0500 (Central Daylight Time)","777139","Match,No Match","","null","","","","","","<div class='trialBorder'><div class='vertical-center'><img src='img/fixation2_sml.jpg'</img></div></div>","null","FIX","","","","","","","","","","",""
"html-keyboard-response","156","551467","0.0-7.0-2.24","63f477547d2302b4346299f4","bdp_wmem","Sat Apr 08 2023 11:23:31 GMT-0500 (Central Daylight Time)","777139","Match,No Match","","null","","","","","","<div class='trialBorder'><div class='vertical-center'><img style='vertical-align:center; align:center' src='img/fixation2_sml.jpg'></div><div class='arrayDiv2'><div class='tl'><img class='introPic' src='trustrating_stim/white_mw042.bmp'><br><font color='green'><strong>Share</strong></font></div><div class='tr'><img class='introPic' src='trustrating_stim/white_mw092.bmp'><br><font color='red'><strong>Keep</strong></font></div></div></div>","null","ARRAY","2","trustrating_stim/white_mw042.bmp,trustrating_stim/white_mw092.bmp","1,0","Match","e","3000","","","","",""
"html-keyboard-response","157","555469","0.0-7.0-3.24","63f477547d2302b4346299f4","bdp_wmem","Sat Apr 08 2023 11:23:31 GMT-0500 (Central Daylight Time)","777139","Match,No Match","","null","","","","","","<div class='trialBorder'><div class='vertical-center'><img src='img/fixation2_sml.jpg'</img></div></div>","null","DELAY","","","","","","","","","","",""
"html-keyboard-response","158","557195","0.0-7.0-4.24","63f477547d2302b4346299f4","bdp_wmem","Sat Apr 08 2023 11:23:31 GMT-0500 (Central Daylight Time)","777139","Match,No Match","","1724","","","","","","<div class='trialBorder'><div class='targDiv'><div class='tc'><img class='introPic' src='trustrating_stim/white_mw042.bmp'><br><font color='green'><strong>Share</strong></font></div></div><div class='respDiv'><div class='respDivL'>Match<br>(e)</div><div class='respDivR'>No Match<br>(i)</div></div></div>","e","TARGET","2","trustrating_stim/white_mw042.bmp,trustrating_stim/white_mw092.bmp","1,0","Match","e","3000","trustrating_stim/white_mw042.bmp","green","Share","REAL","1"
"html-keyboard-response","159","557697","0.0-7.0-5.24","63f477547d2302b4346299f4","bdp_wmem","Sat Apr 08 2023 11:23:31 GMT-0500 (Central Daylight Time)","777139","Match,No Match","","null","","","","","","<div class='trialBorder'><div class='vertical-center'><img src='img/correct.jpg'></div><div class='respDiv'><div class='respDivL'><font style='color:orange'>Match<br>(e)</font></div><div class='respDivR'>No Match<br>(i)</div></div></div>","null","FEEDBACK","","","","","","","","","","",""
"html-keyboard-response","160","558199","0.0-7.0-1.25","63f477547d2302b4346299f4","bdp_wmem","Sat Apr 08 2023 11:23:31 GMT-0500 (Central Daylight Time)","777139","Match,No Match","","null","","","","","","<div class='trialBorder'><div class='vertical-center'><img src='img/fixation2_sml.jpg'</img></div></div>","null","FIX","","","","","","","","","","",""
"html-keyboard-response","161","559701","0.0-7.0-2.25","63f477547d2302b4346299f4","bdp_wmem","Sat Apr 08 2023 11:23:31 GMT-0500 (Central Daylight Time)","777139","Match,No Match","","null","","","","","","<div class='trialBorder'><div class='vertical-center'><img style='vertical-align:center; align:center' src='img/fixation2_sml.jpg'></div><div class='arrayDiv1'><div class='tc'><img class='introPic' src='trustrating_stim/white_mw070.bmp'><br><font color='red'><strong>Keep</strong></font></div></div></div>","null","ARRAY","1","trustrating_stim/white_mw070.bmp","0","noMatchOutcome","i","1500","","","","",""
"html-keyboard-response","162","563703","0.0-7.0-3.25","63f477547d2302b4346299f4","bdp_wmem","Sat Apr 08 2023 11:23:31 GMT-0500 (Central Daylight Time)","777139","Match,No Match","","null","","","","","","<div class='trialBorder'><div class='vertical-center'><img src='img/fixation2_sml.jpg'</img></div></div>","null","DELAY","","","","","","","","","","",""
"html-keyboard-response","163","565173","0.0-7.0-4.25","63f477547d2302b4346299f4","bdp_wmem","Sat Apr 08 2023 11:23:31 GMT-0500 (Central Daylight Time)","777139","Match,No Match","","1469","","","","","","<div class='trialBorder'><div class='targDiv'><div class='tc'><img class='introPic' src='trustrating_stim/white_mw070.bmp'><br><font color='green'><strong>Share</strong></font></div></div><div class='respDiv'><div class='respDivL'>Match<br>(e)</div><div class='respDivR'>No Match<br>(i)</div></div></div>","e","TARGET","1","trustrating_stim/white_mw070.bmp","0","noMatchOutcome","i","1500","trustrating_stim/white_mw070.bmp","green","Share","REAL","0"
"html-keyboard-response","164","565675","0.0-7.0-5.25","63f477547d2302b4346299f4","bdp_wmem","Sat Apr 08 2023 11:23:31 GMT-0500 (Central Daylight Time)","777139","Match,No Match","","null","","","","","","<div class='trialBorder'><div class='vertical-center'><img src='img/error.jpg'></div><div class='respDiv'><div class='respDivL'><font style='color:orange'>Match<br>(e)</font></div><div class='respDivR'>No Match<br>(i)</div></div></div>","null","FEEDBACK","","","","","","","","","","",""
"html-keyboard-response","165","566177","0.0-7.0-1.26","63f477547d2302b4346299f4","bdp_wmem","Sat Apr 08 2023 11:23:31 GMT-0500 (Central Daylight Time)","777139","Match,No Match","","null","","","","","","<div class='trialBorder'><div class='vertical-center'><img src='img/fixation2_sml.jpg'</img></div></div>","null","FIX","","","","","","","","","","",""
"html-keyboard-response","166","569179","0.0-7.0-2.26","63f477547d2302b4346299f4","bdp_wmem","Sat Apr 08 2023 11:23:31 GMT-0500 (Central Daylight Time)","777139","Match,No Match","","null","","","","","","<div class='trialBorder'><div class='vertical-center'><img style='vertical-align:center; align:center' src='img/fixation2_sml.jpg'></div><div class='arrayDiv2'><div class='tl'><img class='introPic' src='trustrating_stim/white_mw078.bmp'><br><font color='green'><strong>Share</strong></font></div><div class='tr'><img class='introPic' src='trustrating_stim/white_mw070.bmp'><br><font color='red'><strong>Keep</strong></font></div></div></div>","null","ARRAY","2","trustrating_stim/white_mw078.bmp,trustrating_stim/white_mw070.bmp","1,0","Match","e","3000","","","","",""
"html-keyboard-response","167","573181","0.0-7.0-3.26","63f477547d2302b4346299f4","bdp_wmem","Sat Apr 08 2023 11:23:31 GMT-0500 (Central Daylight Time)","777139","Match,No Match","","null","","","","","","<div class='trialBorder'><div class='vertical-center'><img src='img/fixation2_sml.jpg'</img></div></div>","null","DELAY","","","","","","","","","","",""
"html-keyboard-response","168","575126","0.0-7.0-4.26","63f477547d2302b4346299f4","bdp_wmem","Sat Apr 08 2023 11:23:31 GMT-0500 (Central Daylight Time)","777139","Match,No Match","","1943","","","","","","<div class='trialBorder'><div class='targDiv'><div class='tc'><img class='introPic' src='trustrating_stim/white_mw070.bmp'><br><font color='red'><strong>Keep</strong></font></div></div><div class='respDiv'><div class='respDivL'>Match<br>(e)</div><div class='respDivR'>No Match<br>(i)</div></div></div>","e","TARGET","2","trustrating_stim/white_mw078.bmp,trustrating_stim/white_mw070.bmp","1,0","Match","e","3000","trustrating_stim/white_mw070.bmp","red","Keep","REAL","1"
"html-keyboard-response","169","575629","0.0-7.0-5.26","63f477547d2302b4346299f4","bdp_wmem","Sat Apr 08 2023 11:23:31 GMT-0500 (Central Daylight Time)","777139","Match,No Match","","null","","","","","","<div class='trialBorder'><div class='vertical-center'><img src='img/correct.jpg'></div><div class='respDiv'><div class='respDivL'><font style='color:orange'>Match<br>(e)</font></div><div class='respDivR'>No Match<br>(i)</div></div></div>","null","FEEDBACK","","","","","","","","","","",""
"html-keyboard-response","170","576131","0.0-7.0-1.27","63f477547d2302b4346299f4","bdp_wmem","Sat Apr 08 2023 11:23:31 GMT-0500 (Central Daylight Time)","777139","Match,No Match","","null","","","","","","<div class='trialBorder'><div class='vertical-center'><img src='img/fixation2_sml.jpg'</img></div></div>","null","FIX","","","","","","","","","","",""
"html-keyboard-response","171","579134","0.0-7.0-2.27","63f477547d2302b4346299f4","bdp_wmem","Sat Apr 08 2023 11:23:31 GMT-0500 (Central Daylight Time)","777139","Match,No Match","","null","","","","","","<div class='trialBorder'><div class='vertical-center'><img style='vertical-align:center; align:center' src='img/fixation2_sml.jpg'></div><div class='arrayDiv2'><div class='tl'><img class='introPic' src='trustrating_stim/white_mw040.bmp'><br><font color='green'><strong>Share</strong></font></div><div class='tr'><img class='introPic' src='trustrating_stim/white_mw091.bmp'><br><font color='red'><strong>Keep</strong></font></div></div></div>","null","ARRAY","2","trustrating_stim/white_mw040.bmp,trustrating_stim/white_mw091.bmp","1,0","Match","e","3000","","","","",""
"html-keyboard-response","172","583136","0.0-7.0-3.27","63f477547d2302b4346299f4","bdp_wmem","Sat Apr 08 2023 11:23:31 GMT-0500 (Central Daylight Time)","777139","Match,No Match","","null","","","","","","<div class='trialBorder'><div class='vertical-center'><img src='img/fixation2_sml.jpg'</img></div></div>","null","DELAY","","","","","","","","","","",""
"html-keyboard-response","173","585354","0.0-7.0-4.27","63f477547d2302b4346299f4","bdp_wmem","Sat Apr 08 2023 11:23:31 GMT-0500 (Central Daylight Time)","777139","Match,No Match","","2216","","","","","","<div class='trialBorder'><div class='targDiv'><div class='tc'><img class='introPic' src='trustrating_stim/white_mw040.bmp'><br><font color='green'><strong>Share</strong></font></div></div><div class='respDiv'><div class='respDivL'>Match<br>(e)</div><div class='respDivR'>No Match<br>(i)</div></div></div>","i","TARGET","2","trustrating_stim/white_mw040.bmp,trustrating_stim/white_mw091.bmp","1,0","Match","e","3000","trustrating_stim/white_mw040.bmp","green","Share","REAL","0"
"html-keyboard-response","174","585855","0.0-7.0-5.27","63f477547d2302b4346299f4","bdp_wmem","Sat Apr 08 2023 11:23:31 GMT-0500 (Central Daylight Time)","777139","Match,No Match","","null","","","","","","<div class='trialBorder'><div class='vertical-center'><img src='img/error.jpg'></div><div class='respDiv'><div class='respDivL'>Match<br>(e)</div><div class='respDivR'><font style='color:orange'>No Match<br>(i)</font></div></div></div>","null","FEEDBACK","","","","","","","","","","",""
"html-keyboard-response","175","586356","0.0-7.0-1.28","63f477547d2302b4346299f4","bdp_wmem","Sat Apr 08 2023 11:23:31 GMT-0500 (Central Daylight Time)","777139","Match,No Match","","null","","","","","","<div class='trialBorder'><div class='vertical-center'><img src='img/fixation2_sml.jpg'</img></div></div>","null","FIX","","","","","","","","","","",""
"html-keyboard-response","176","587858","0.0-7.0-2.28","63f477547d2302b4346299f4","bdp_wmem","Sat Apr 08 2023 11:23:31 GMT-0500 (Central Daylight Time)","777139","Match,No Match","","null","","","","","","<div class='trialBorder'><div class='vertical-center'><img style='vertical-align:center; align:center' src='img/fixation2_sml.jpg'></div><div class='arrayDiv1'><div class='tc'><img class='introPic' src='trustrating_stim/white_mw038.bmp'><br><font color='green'><strong>Share</strong></font></div></div></div>","null","ARRAY","1","trustrating_stim/white_mw038.bmp","1","Match","e","1500","","","","",""
"html-keyboard-response","177","591860","0.0-7.0-3.28","63f477547d2302b4346299f4","bdp_wmem","Sat Apr 08 2023 11:23:31 GMT-0500 (Central Daylight Time)","777139","Match,No Match","","null","","","","","","<div class='trialBorder'><div class='vertical-center'><img src='img/fixation2_sml.jpg'</img></div></div>","null","DELAY","","","","","","","","","","",""
"html-keyboard-response","178","593232","0.0-7.0-4.28","63f477547d2302b4346299f4","bdp_wmem","Sat Apr 08 2023 11:23:31 GMT-0500 (Central Daylight Time)","777139","Match,No Match","","1371","","","","","","<div class='trialBorder'><div class='targDiv'><div class='tc'><img class='introPic' src='trustrating_stim/white_mw038.bmp'><br><font color='green'><strong>Share</strong></font></div></div><div class='respDiv'><div class='respDivL'>Match<br>(e)</div><div class='respDivR'>No Match<br>(i)</div></div></div>","e","TARGET","1","trustrating_stim/white_mw038.bmp","1","Match","e","1500","trustrating_stim/white_mw038.bmp","green","Share","REAL","1"
"html-keyboard-response","179","593734","0.0-7.0-5.28","63f477547d2302b4346299f4","bdp_wmem","Sat Apr 08 2023 11:23:31 GMT-0500 (Central Daylight Time)","777139","Match,No Match","","null","","","","","","<div class='trialBorder'><div class='vertical-center'><img src='img/correct.jpg'></div><div class='respDiv'><div class='respDivL'><font style='color:orange'>Match<br>(e)</font></div><div class='respDivR'>No Match<br>(i)</div></div></div>","null","FEEDBACK","","","","","","","","","","",""
"html-keyboard-response","180","594237","0.0-7.0-1.29","63f477547d2302b4346299f4","bdp_wmem","Sat Apr 08 2023 11:23:31 GMT-0500 (Central Daylight Time)","777139","Match,No Match","","null","","","","","","<div class='trialBorder'><div class='vertical-center'><img src='img/fixation2_sml.jpg'</img></div></div>","null","FIX","","","","","","","","","","",""
"html-keyboard-response","181","598739","0.0-7.0-2.29","63f477547d2302b4346299f4","bdp_wmem","Sat Apr 08 2023 11:23:31 GMT-0500 (Central Daylight Time)","777139","Match,No Match","","null","","","","","","<div class='trialBorder'><div class='vertical-center'><img style='vertical-align:center; align:center' src='img/fixation2_sml.jpg'></div><div class='arrayDiv3'><div class='tl'><img class='introPic' src='trustrating_stim/white_mw070.bmp'><br><font color='green'><strong>Share</strong></font></div><div class='tc'><img class='introPic' src='trustrating_stim/white_mw038.bmp'><br><font color='red'><strong>Keep</strong></font></div><div class='tr'><img class='introPic' src='trustrating_stim/white_mw042.bmp'><br><font color='green'><strong>Share</strong></font></div></div></div>","null","ARRAY","3","trustrating_stim/white_mw070.bmp,trustrating_stim/white_mw038.bmp,trustrating_stim/white_mw042.bmp","1,0,1","noMatchFace","i","4500","","","","",""
"html-keyboard-response","182","602741","0.0-7.0-3.29","63f477547d2302b4346299f4","bdp_wmem","Sat Apr 08 2023 11:23:31 GMT-0500 (Central Daylight Time)","777139","Match,No Match","","null","","","","","","<div class='trialBorder'><div class='vertical-center'><img src='img/fixation2_sml.jpg'</img></div></div>","null","DELAY","","","","","","","","","","",""
"html-keyboard-response","183","605273","0.0-7.0-4.29","63f477547d2302b4346299f4","bdp_wmem","Sat Apr 08 2023 11:23:31 GMT-0500 (Central Daylight Time)","777139","Match,No Match","","2530","","","","","","<div class='trialBorder'><div class='targDiv'><div class='tc'><img class='introPic' src='trustrating_stim/white_mw085.bmp'><br><font color='green'><strong>Share</strong></font></div></div><div class='respDiv'><div class='respDivL'>Match<br>(e)</div><div class='respDivR'>No Match<br>(i)</div></div></div>","e","TARGET","3","trustrating_stim/white_mw070.bmp,trustrating_stim/white_mw038.bmp,trustrating_stim/white_mw042.bmp","1,0,1","noMatchFace","i","4500","trustrating_stim/white_mw085.bmp","green","Share","REAL","0"
"html-keyboard-response","184","605775","0.0-7.0-5.29","63f477547d2302b4346299f4","bdp_wmem","Sat Apr 08 2023 11:23:31 GMT-0500 (Central Daylight Time)","777139","Match,No Match","","null","","","","","","<div class='trialBorder'><div class='vertical-center'><img src='img/error.jpg'></div><div class='respDiv'><div class='respDivL'><font style='color:orange'>Match<br>(e)</font></div><div class='respDivR'>No Match<br>(i)</div></div></div>","null","FEEDBACK","","","","","","","","","","",""
"html-keyboard-response","185","606277","0.0-7.0-1.30","63f477547d2302b4346299f4","bdp_wmem","Sat Apr 08 2023 11:23:31 GMT-0500 (Central Daylight Time)","777139","Match,No Match","","null","","","","","","<div class='trialBorder'><div class='vertical-center'><img src='img/fixation2_sml.jpg'</img></div></div>","null","FIX","","","","","","","","","","",""
"html-keyboard-response","186","609279","0.0-7.0-2.30","63f477547d2302b4346299f4","bdp_wmem","Sat Apr 08 2023 11:23:31 GMT-0500 (Central Daylight Time)","777139","Match,No Match","","null","","","","","","<div class='trialBorder'><div class='vertical-center'><img style='vertical-align:center; align:center' src='img/fixation2_sml.jpg'></div><div class='arrayDiv2'><div class='tl'><img class='introPic' src='trustrating_stim/white_mw092.bmp'><br><font color='red'><strong>Keep</strong></font></div><div class='tr'><img class='introPic' src='trustrating_stim/white_mw012.bmp'><br><font color='green'><strong>Share</strong></font></div></div></div>","null","ARRAY","2","trustrating_stim/white_mw092.bmp,trustrating_stim/white_mw012.bmp","0,1","noMatchFace","i","3000","","","","",""
"html-keyboard-response","187","613281","0.0-7.0-3.30","63f477547d2302b4346299f4","bdp_wmem","Sat Apr 08 2023 11:23:31 GMT-0500 (Central Daylight Time)","777139","Match,No Match","","null","","","","","","<div class='trialBorder'><div class='vertical-center'><img src='img/fixation2_sml.jpg'</img></div></div>","null","DELAY","","","","","","","","","","",""
