"trial_type","trial_index","time_elapsed","internal_node_id","subject_id","task","startTime","totalTime","labels","view_history","rt","event","trial","time","trialtype","success","stimulus","key_press","stimType","arraySize","arrayFaces","arrayOutcomes","matchType","corrResp","arrayDur","targFace","targCol","targOutcome","trialType","corr"
"pavlovia","0","3","0.0-0.0","63e576170eb086a90644efb4","bdp_wmem","Mon Mar 13 2023 00:13:48 GMT-0400 (Eastern Daylight Time)","591680","Match,No Match","","","","","","","","","","","","","","","","","","","","",""
"instructions","1","1585","0.0-1.0","63e576170eb086a90644efb4","bdp_wmem","Mon Mar 13 2023 00:13:48 GMT-0400 (Eastern Daylight Time)","591680","Match,No Match","[{""page_index"":0,""viewing_time"":1580}]","1581","","","","","","","","","","","","","","","","","","",""
"","","","","63e576170eb086a90644efb4","bdp_wmem","Mon Mar 13 2023 00:13:48 GMT-0400 (Eastern Daylight Time)","591680","Match,No Match","","","fullscreenenter","2","4014","fullscreenenter","","","","","","","","","","","","","","",""
"fullscreen","2","5008","0.0-2.0","63e576170eb086a90644efb4","bdp_wmem","Mon Mar 13 2023 00:13:48 GMT-0400 (Eastern Daylight Time)","591680","Match,No Match","","","","","","","true","","","","","","","","","","","","","",""
"instructions","3","64438","0.0-4.0","63e576170eb086a90644efb4","bdp_wmem","Mon Mar 13 2023 00:13:48 GMT-0400 (Eastern Daylight Time)","591680","Match,No Match","[{""page_index"":0,""viewing_time"":11484},{""page_index"":1,""viewing_time"":20445},{""page_index"":2,""viewing_time"":9320},{""page_index"":3,""viewing_time"":8532},{""page_index"":4,""viewing_time"":9649}]","59430","","","","","","","","","","","","","","","","","","",""
"html-keyboard-response","4","64942","0.0-5.0-1.0","63e576170eb086a90644efb4","bdp_wmem","Mon Mar 13 2023 00:13:48 GMT-0400 (Eastern Daylight Time)","591680","Match,No Match","","null","","","","","","<div class='trialBorder'><div class='vertical-center'><img src='img/fixation2_sml.jpg'</img></div></div>","null","FIX","","","","","","","","","","",""
"html-keyboard-response","5","67946","0.0-5.0-2.0","63e576170eb086a90644efb4","bdp_wmem","Mon Mar 13 2023 00:13:48 GMT-0400 (Eastern Daylight Time)","591680","Match,No Match","","null","","","","","","<div class='trialBorder'><div class='vertical-center'><img style='vertical-align:center; align:center' src='img/fixation2_sml.jpg'></div><div class='arrayDiv2'><div class='tl'><img class='introPic' src='trustrating_stim/white_mw092.bmp'><br><font color='green'><strong>Share</strong></font></div><div class='tr'><img class='introPic' src='trustrating_stim/white_mw010.bmp'><br><font color='red'><strong>Keep</strong></font></div></div></div>","null","ARRAY","2","trustrating_stim/white_mw092.bmp,trustrating_stim/white_mw010.bmp","1,0","noMatchFace","i","3000","","","","",""
"html-keyboard-response","6","71948","0.0-5.0-3.0","63e576170eb086a90644efb4","bdp_wmem","Mon Mar 13 2023 00:13:48 GMT-0400 (Eastern Daylight Time)","591680","Match,No Match","","null","","","","","","<div class='trialBorder'><div class='vertical-center'><img src='img/fixation2_sml.jpg'</img></div></div>","null","DELAY","","","","","","","","","","",""
"html-keyboard-response","7","73841","0.0-5.0-4.0","63e576170eb086a90644efb4","bdp_wmem","Mon Mar 13 2023 00:13:48 GMT-0400 (Eastern Daylight Time)","591680","Match,No Match","","1891","","","","","","<div class='trialBorder'><div class='targDiv'><div class='tc'><img class='introPic' src='trustrating_stim/white_mw070.bmp'><br><font color='red'><strong>Keep</strong></font></div></div><div class='respDiv'><div class='respDivL'>Match<br>(e)</div><div class='respDivR'>No Match<br>(i)</div></div></div>","i","TARGET","2","trustrating_stim/white_mw092.bmp,trustrating_stim/white_mw010.bmp","1,0","noMatchFace","i","3000","trustrating_stim/white_mw070.bmp","red","Keep","PRACTICE","1"
"html-keyboard-response","8","74345","0.0-5.0-5.0","63e576170eb086a90644efb4","bdp_wmem","Mon Mar 13 2023 00:13:48 GMT-0400 (Eastern Daylight Time)","591680","Match,No Match","","null","","","","","","<div class='trialBorder'><div class='vertical-center'><img src='img/correct.jpg'></div><div class='respDiv'><div class='respDivL'>Match<br>(e)</div><div class='respDivR'><font style='color:orange'>No Match<br>(i)</font></div></div></div>","null","FEEDBACK","","","","","","","","","","",""
"html-keyboard-response","9","74847","0.0-5.0-1.1","63e576170eb086a90644efb4","bdp_wmem","Mon Mar 13 2023 00:13:48 GMT-0400 (Eastern Daylight Time)","591680","Match,No Match","","null","","","","","","<div class='trialBorder'><div class='vertical-center'><img src='img/fixation2_sml.jpg'</img></div></div>","null","FIX","","","","","","","","","","",""
"html-keyboard-response","10","79351","0.0-5.0-2.1","63e576170eb086a90644efb4","bdp_wmem","Mon Mar 13 2023 00:13:48 GMT-0400 (Eastern Daylight Time)","591680","Match,No Match","","null","","","","","","<div class='trialBorder'><div class='vertical-center'><img style='vertical-align:center; align:center' src='img/fixation2_sml.jpg'></div><div class='arrayDiv3'><div class='tl'><img class='introPic' src='trustrating_stim/white_mw042.bmp'><br><font color='red'><strong>Keep</strong></font></div><div class='tc'><img class='introPic' src='trustrating_stim/white_mw012.bmp'><br><font color='green'><strong>Share</strong></font></div><div class='tr'><img class='introPic' src='trustrating_stim/white_mw078.bmp'><br><font color='red'><strong>Keep</strong></font></div></div></div>","null","ARRAY","3","trustrating_stim/white_mw042.bmp,trustrating_stim/white_mw012.bmp,trustrating_stim/white_mw078.bmp","0,1,0","Match","e","4500","","","","",""
"html-keyboard-response","11","83354","0.0-5.0-3.1","63e576170eb086a90644efb4","bdp_wmem","Mon Mar 13 2023 00:13:48 GMT-0400 (Eastern Daylight Time)","591680","Match,No Match","","null","","","","","","<div class='trialBorder'><div class='vertical-center'><img src='img/fixation2_sml.jpg'</img></div></div>","null","DELAY","","","","","","","","","","",""
"html-keyboard-response","12","86690","0.0-5.0-4.1","63e576170eb086a90644efb4","bdp_wmem","Mon Mar 13 2023 00:13:48 GMT-0400 (Eastern Daylight Time)","591680","Match,No Match","","3335","","","","","","<div class='trialBorder'><div class='targDiv'><div class='tc'><img class='introPic' src='trustrating_stim/white_mw012.bmp'><br><font color='green'><strong>Share</strong></font></div></div><div class='respDiv'><div class='respDivL'>Match<br>(e)</div><div class='respDivR'>No Match<br>(i)</div></div></div>","i","TARGET","3","trustrating_stim/white_mw042.bmp,trustrating_stim/white_mw012.bmp,trustrating_stim/white_mw078.bmp","0,1,0","Match","e","4500","trustrating_stim/white_mw012.bmp","green","Share","PRACTICE","0"
"html-keyboard-response","13","87193","0.0-5.0-5.1","63e576170eb086a90644efb4","bdp_wmem","Mon Mar 13 2023 00:13:48 GMT-0400 (Eastern Daylight Time)","591680","Match,No Match","","null","","","","","","<div class='trialBorder'><div class='vertical-center'><img src='img/error.jpg'></div><div class='respDiv'><div class='respDivL'>Match<br>(e)</div><div class='respDivR'><font style='color:orange'>No Match<br>(i)</font></div></div></div>","null","FEEDBACK","","","","","","","","","","",""
"html-keyboard-response","14","87695","0.0-5.0-1.2","63e576170eb086a90644efb4","bdp_wmem","Mon Mar 13 2023 00:13:48 GMT-0400 (Eastern Daylight Time)","591680","Match,No Match","","null","","","","","","<div class='trialBorder'><div class='vertical-center'><img src='img/fixation2_sml.jpg'</img></div></div>","null","FIX","","","","","","","","","","",""
"html-keyboard-response","15","89198","0.0-5.0-2.2","63e576170eb086a90644efb4","bdp_wmem","Mon Mar 13 2023 00:13:48 GMT-0400 (Eastern Daylight Time)","591680","Match,No Match","","null","","","","","","<div class='trialBorder'><div class='vertical-center'><img style='vertical-align:center; align:center' src='img/fixation2_sml.jpg'></div><div class='arrayDiv1'><div class='tc'><img class='introPic' src='trustrating_stim/white_mw091.bmp'><br><font color='green'><strong>Share</strong></font></div></div></div>","null","ARRAY","1","trustrating_stim/white_mw091.bmp","1","Match","e","1500","","","","",""
"html-keyboard-response","16","93201","0.0-5.0-3.2","63e576170eb086a90644efb4","bdp_wmem","Mon Mar 13 2023 00:13:48 GMT-0400 (Eastern Daylight Time)","591680","Match,No Match","","null","","","","","","<div class='trialBorder'><div class='vertical-center'><img src='img/fixation2_sml.jpg'</img></div></div>","null","DELAY","","","","","","","","","","",""
"html-keyboard-response","17","94696","0.0-5.0-4.2","63e576170eb086a90644efb4","bdp_wmem","Mon Mar 13 2023 00:13:48 GMT-0400 (Eastern Daylight Time)","591680","Match,No Match","","1494","","","","","","<div class='trialBorder'><div class='targDiv'><div class='tc'><img class='introPic' src='trustrating_stim/white_mw091.bmp'><br><font color='green'><strong>Share</strong></font></div></div><div class='respDiv'><div class='respDivL'>Match<br>(e)</div><div class='respDivR'>No Match<br>(i)</div></div></div>","e","TARGET","1","trustrating_stim/white_mw091.bmp","1","Match","e","1500","trustrating_stim/white_mw091.bmp","green","Share","PRACTICE","1"
"html-keyboard-response","18","95199","0.0-5.0-5.2","63e576170eb086a90644efb4","bdp_wmem","Mon Mar 13 2023 00:13:48 GMT-0400 (Eastern Daylight Time)","591680","Match,No Match","","null","","","","","","<div class='trialBorder'><div class='vertical-center'><img src='img/correct.jpg'></div><div class='respDiv'><div class='respDivL'><font style='color:orange'>Match<br>(e)</font></div><div class='respDivR'>No Match<br>(i)</div></div></div>","null","FEEDBACK","","","","","","","","","","",""
"html-keyboard-response","19","95701","0.0-5.0-1.3","63e576170eb086a90644efb4","bdp_wmem","Mon Mar 13 2023 00:13:48 GMT-0400 (Eastern Daylight Time)","591680","Match,No Match","","null","","","","","","<div class='trialBorder'><div class='vertical-center'><img src='img/fixation2_sml.jpg'</img></div></div>","null","FIX","","","","","","","","","","",""
"html-keyboard-response","20","100206","0.0-5.0-2.3","63e576170eb086a90644efb4","bdp_wmem","Mon Mar 13 2023 00:13:48 GMT-0400 (Eastern Daylight Time)","591680","Match,No Match","","null","","","","","","<div class='trialBorder'><div class='vertical-center'><img style='vertical-align:center; align:center' src='img/fixation2_sml.jpg'></div><div class='arrayDiv3'><div class='tl'><img class='introPic' src='trustrating_stim/white_mw010.bmp'><br><font color='green'><strong>Share</strong></font></div><div class='tc'><img class='introPic' src='trustrating_stim/white_mw078.bmp'><br><font color='red'><strong>Keep</strong></font></div><div class='tr'><img class='introPic' src='trustrating_stim/white_mw012.bmp'><br><font color='red'><strong>Keep</strong></font></div></div></div>","null","ARRAY","3","trustrating_stim/white_mw010.bmp,trustrating_stim/white_mw078.bmp,trustrating_stim/white_mw012.bmp","1,0,0","noMatchOutcome","i","4500","","","","",""
"html-keyboard-response","21","104208","0.0-5.0-3.3","63e576170eb086a90644efb4","bdp_wmem","Mon Mar 13 2023 00:13:48 GMT-0400 (Eastern Daylight Time)","591680","Match,No Match","","null","","","","","","<div class='trialBorder'><div class='vertical-center'><img src='img/fixation2_sml.jpg'</img></div></div>","null","DELAY","","","","","","","","","","",""
"html-keyboard-response","22","108243","0.0-5.0-4.3","63e576170eb086a90644efb4","bdp_wmem","Mon Mar 13 2023 00:13:48 GMT-0400 (Eastern Daylight Time)","591680","Match,No Match","","4032","","","","","","<div class='trialBorder'><div class='targDiv'><div class='tc'><img class='introPic' src='trustrating_stim/white_mw010.bmp'><br><font color='red'><strong>Keep</strong></font></div></div><div class='respDiv'><div class='respDivL'>Match<br>(e)</div><div class='respDivR'>No Match<br>(i)</div></div></div>","i","TARGET","3","trustrating_stim/white_mw010.bmp,trustrating_stim/white_mw078.bmp,trustrating_stim/white_mw012.bmp","1,0,0","noMatchOutcome","i","4500","trustrating_stim/white_mw010.bmp","red","Keep","PRACTICE","1"
"html-keyboard-response","23","108744","0.0-5.0-5.3","63e576170eb086a90644efb4","bdp_wmem","Mon Mar 13 2023 00:13:48 GMT-0400 (Eastern Daylight Time)","591680","Match,No Match","","null","","","","","","<div class='trialBorder'><div class='vertical-center'><img src='img/correct.jpg'></div><div class='respDiv'><div class='respDivL'>Match<br>(e)</div><div class='respDivR'><font style='color:orange'>No Match<br>(i)</font></div></div></div>","null","FEEDBACK","","","","","","","","","","",""
"html-keyboard-response","24","109245","0.0-5.0-1.4","63e576170eb086a90644efb4","bdp_wmem","Mon Mar 13 2023 00:13:48 GMT-0400 (Eastern Daylight Time)","591680","Match,No Match","","null","","","","","","<div class='trialBorder'><div class='vertical-center'><img src='img/fixation2_sml.jpg'</img></div></div>","null","FIX","","","","","","","","","","",""
"html-keyboard-response","25","112249","0.0-5.0-2.4","63e576170eb086a90644efb4","bdp_wmem","Mon Mar 13 2023 00:13:48 GMT-0400 (Eastern Daylight Time)","591680","Match,No Match","","null","","","","","","<div class='trialBorder'><div class='vertical-center'><img style='vertical-align:center; align:center' src='img/fixation2_sml.jpg'></div><div class='arrayDiv2'><div class='tl'><img class='introPic' src='trustrating_stim/white_mw003.bmp'><br><font color='green'><strong>Share</strong></font></div><div class='tr'><img class='introPic' src='trustrating_stim/white_mw078.bmp'><br><font color='red'><strong>Keep</strong></font></div></div></div>","null","ARRAY","2","trustrating_stim/white_mw003.bmp,trustrating_stim/white_mw078.bmp","1,0","Match","e","3000","","","","",""
"html-keyboard-response","26","116251","0.0-5.0-3.4","63e576170eb086a90644efb4","bdp_wmem","Mon Mar 13 2023 00:13:48 GMT-0400 (Eastern Daylight Time)","591680","Match,No Match","","null","","","","","","<div class='trialBorder'><div class='vertical-center'><img src='img/fixation2_sml.jpg'</img></div></div>","null","DELAY","","","","","","","","","","",""
"html-keyboard-response","27","118503","0.0-5.0-4.4","63e576170eb086a90644efb4","bdp_wmem","Mon Mar 13 2023 00:13:48 GMT-0400 (Eastern Daylight Time)","591680","Match,No Match","","2250","","","","","","<div class='trialBorder'><div class='targDiv'><div class='tc'><img class='introPic' src='trustrating_stim/white_mw078.bmp'><br><font color='red'><strong>Keep</strong></font></div></div><div class='respDiv'><div class='respDivL'>Match<br>(e)</div><div class='respDivR'>No Match<br>(i)</div></div></div>","e","TARGET","2","trustrating_stim/white_mw003.bmp,trustrating_stim/white_mw078.bmp","1,0","Match","e","3000","trustrating_stim/white_mw078.bmp","red","Keep","PRACTICE","1"
"html-keyboard-response","28","119005","0.0-5.0-5.4","63e576170eb086a90644efb4","bdp_wmem","Mon Mar 13 2023 00:13:48 GMT-0400 (Eastern Daylight Time)","591680","Match,No Match","","null","","","","","","<div class='trialBorder'><div class='vertical-center'><img src='img/correct.jpg'></div><div class='respDiv'><div class='respDivL'><font style='color:orange'>Match<br>(e)</font></div><div class='respDivR'>No Match<br>(i)</div></div></div>","null","FEEDBACK","","","","","","","","","","",""
"html-keyboard-response","29","119506","0.0-5.0-1.5","63e576170eb086a90644efb4","bdp_wmem","Mon Mar 13 2023 00:13:48 GMT-0400 (Eastern Daylight Time)","591680","Match,No Match","","null","","","","","","<div class='trialBorder'><div class='vertical-center'><img src='img/fixation2_sml.jpg'</img></div></div>","null","FIX","","","","","","","","","","",""
"html-keyboard-response","30","121009","0.0-5.0-2.5","63e576170eb086a90644efb4","bdp_wmem","Mon Mar 13 2023 00:13:48 GMT-0400 (Eastern Daylight Time)","591680","Match,No Match","","null","","","","","","<div class='trialBorder'><div class='vertical-center'><img style='vertical-align:center; align:center' src='img/fixation2_sml.jpg'></div><div class='arrayDiv1'><div class='tc'><img class='introPic' src='trustrating_stim/white_mw091.bmp'><br><font color='red'><strong>Keep</strong></font></div></div></div>","null","ARRAY","1","trustrating_stim/white_mw091.bmp","0","noMatchFace","i","1500","","","","",""
"html-keyboard-response","31","125012","0.0-5.0-3.5","63e576170eb086a90644efb4","bdp_wmem","Mon Mar 13 2023 00:13:48 GMT-0400 (Eastern Daylight Time)","591680","Match,No Match","","null","","","","","","<div class='trialBorder'><div class='vertical-center'><img src='img/fixation2_sml.jpg'</img></div></div>","null","DELAY","","","","","","","","","","",""
"html-keyboard-response","32","126011","0.0-5.0-4.5","63e576170eb086a90644efb4","bdp_wmem","Mon Mar 13 2023 00:13:48 GMT-0400 (Eastern Daylight Time)","591680","Match,No Match","","997","","","","","","<div class='trialBorder'><div class='targDiv'><div class='tc'><img class='introPic' src='trustrating_stim/white_mw013.bmp'><br><font color='red'><strong>Keep</strong></font></div></div><div class='respDiv'><div class='respDivL'>Match<br>(e)</div><div class='respDivR'>No Match<br>(i)</div></div></div>","i","TARGET","1","trustrating_stim/white_mw091.bmp","0","noMatchFace","i","1500","trustrating_stim/white_mw013.bmp","red","Keep","PRACTICE","1"
"html-keyboard-response","33","126514","0.0-5.0-5.5","63e576170eb086a90644efb4","bdp_wmem","Mon Mar 13 2023 00:13:48 GMT-0400 (Eastern Daylight Time)","591680","Match,No Match","","null","","","","","","<div class='trialBorder'><div class='vertical-center'><img src='img/correct.jpg'></div><div class='respDiv'><div class='respDivL'>Match<br>(e)</div><div class='respDivR'><font style='color:orange'>No Match<br>(i)</font></div></div></div>","null","FEEDBACK","","","","","","","","","","",""
"instructions","34","131641","0.0-6.0","63e576170eb086a90644efb4","bdp_wmem","Mon Mar 13 2023 00:13:48 GMT-0400 (Eastern Daylight Time)","591680","Match,No Match","[{""page_index"":0,""viewing_time"":5126}]","5126","","","","","","","","","","","","","","","","","","",""
"html-keyboard-response","35","132143","0.0-7.0-1.0","63e576170eb086a90644efb4","bdp_wmem","Mon Mar 13 2023 00:13:48 GMT-0400 (Eastern Daylight Time)","591680","Match,No Match","","null","","","","","","<div class='trialBorder'><div class='vertical-center'><img src='img/fixation2_sml.jpg'</img></div></div>","null","FIX","","","","","","","","","","",""
"html-keyboard-response","36","133646","0.0-7.0-2.0","63e576170eb086a90644efb4","bdp_wmem","Mon Mar 13 2023 00:13:48 GMT-0400 (Eastern Daylight Time)","591680","Match,No Match","","null","","","","","","<div class='trialBorder'><div class='vertical-center'><img style='vertical-align:center; align:center' src='img/fixation2_sml.jpg'></div><div class='arrayDiv1'><div class='tc'><img class='introPic' src='trustrating_stim/white_mw091.bmp'><br><font color='green'><strong>Share</strong></font></div></div></div>","null","ARRAY","1","trustrating_stim/white_mw091.bmp","1","Match","e","1500","","","","",""
"html-keyboard-response","37","137648","0.0-7.0-3.0","63e576170eb086a90644efb4","bdp_wmem","Mon Mar 13 2023 00:13:48 GMT-0400 (Eastern Daylight Time)","591680","Match,No Match","","null","","","","","","<div class='trialBorder'><div class='vertical-center'><img src='img/fixation2_sml.jpg'</img></div></div>","null","DELAY","","","","","","","","","","",""
"html-keyboard-response","38","138628","0.0-7.0-4.0","63e576170eb086a90644efb4","bdp_wmem","Mon Mar 13 2023 00:13:48 GMT-0400 (Eastern Daylight Time)","591680","Match,No Match","","977","","","","","","<div class='trialBorder'><div class='targDiv'><div class='tc'><img class='introPic' src='trustrating_stim/white_mw091.bmp'><br><font color='green'><strong>Share</strong></font></div></div><div class='respDiv'><div class='respDivL'>Match<br>(e)</div><div class='respDivR'>No Match<br>(i)</div></div></div>","e","TARGET","1","trustrating_stim/white_mw091.bmp","1","Match","e","1500","trustrating_stim/white_mw091.bmp","green","Share","REAL","1"
"html-keyboard-response","39","139130","0.0-7.0-5.0","63e576170eb086a90644efb4","bdp_wmem","Mon Mar 13 2023 00:13:48 GMT-0400 (Eastern Daylight Time)","591680","Match,No Match","","null","","","","","","<div class='trialBorder'><div class='vertical-center'><img src='img/correct.jpg'></div><div class='respDiv'><div class='respDivL'><font style='color:orange'>Match<br>(e)</font></div><div class='respDivR'>No Match<br>(i)</div></div></div>","null","FEEDBACK","","","","","","","","","","",""
"html-keyboard-response","40","139633","0.0-7.0-1.1","63e576170eb086a90644efb4","bdp_wmem","Mon Mar 13 2023 00:13:48 GMT-0400 (Eastern Daylight Time)","591680","Match,No Match","","null","","","","","","<div class='trialBorder'><div class='vertical-center'><img src='img/fixation2_sml.jpg'</img></div></div>","null","FIX","","","","","","","","","","",""
"html-keyboard-response","41","144136","0.0-7.0-2.1","63e576170eb086a90644efb4","bdp_wmem","Mon Mar 13 2023 00:13:48 GMT-0400 (Eastern Daylight Time)","591680","Match,No Match","","null","","","","","","<div class='trialBorder'><div class='vertical-center'><img style='vertical-align:center; align:center' src='img/fixation2_sml.jpg'></div><div class='arrayDiv3'><div class='tl'><img class='introPic' src='trustrating_stim/white_mw092.bmp'><br><font color='green'><strong>Share</strong></font></div><div class='tc'><img class='introPic' src='trustrating_stim/white_mw091.bmp'><br><font color='red'><strong>Keep</strong></font></div><div class='tr'><img class='introPic' src='trustrating_stim/white_mw042.bmp'><br><font color='red'><strong>Keep</strong></font></div></div></div>","null","ARRAY","3","trustrating_stim/white_mw092.bmp,trustrating_stim/white_mw091.bmp,trustrating_stim/white_mw042.bmp","1,0,0","Match","e","4500","","","","",""
"html-keyboard-response","42","148139","0.0-7.0-3.1","63e576170eb086a90644efb4","bdp_wmem","Mon Mar 13 2023 00:13:48 GMT-0400 (Eastern Daylight Time)","591680","Match,No Match","","null","","","","","","<div class='trialBorder'><div class='vertical-center'><img src='img/fixation2_sml.jpg'</img></div></div>","null","DELAY","","","","","","","","","","",""
"html-keyboard-response","43","149989","0.0-7.0-4.1","63e576170eb086a90644efb4","bdp_wmem","Mon Mar 13 2023 00:13:48 GMT-0400 (Eastern Daylight Time)","591680","Match,No Match","","1849","","","","","","<div class='trialBorder'><div class='targDiv'><div class='tc'><img class='introPic' src='trustrating_stim/white_mw091.bmp'><br><font color='red'><strong>Keep</strong></font></div></div><div class='respDiv'><div class='respDivL'>Match<br>(e)</div><div class='respDivR'>No Match<br>(i)</div></div></div>","e","TARGET","3","trustrating_stim/white_mw092.bmp,trustrating_stim/white_mw091.bmp,trustrating_stim/white_mw042.bmp","1,0,0","Match","e","4500","trustrating_stim/white_mw091.bmp","red","Keep","REAL","1"
"html-keyboard-response","44","150492","0.0-7.0-5.1","63e576170eb086a90644efb4","bdp_wmem","Mon Mar 13 2023 00:13:48 GMT-0400 (Eastern Daylight Time)","591680","Match,No Match","","null","","","","","","<div class='trialBorder'><div class='vertical-center'><img src='img/correct.jpg'></div><div class='respDiv'><div class='respDivL'><font style='color:orange'>Match<br>(e)</font></div><div class='respDivR'>No Match<br>(i)</div></div></div>","null","FEEDBACK","","","","","","","","","","",""
"html-keyboard-response","45","150995","0.0-7.0-1.2","63e576170eb086a90644efb4","bdp_wmem","Mon Mar 13 2023 00:13:48 GMT-0400 (Eastern Daylight Time)","591680","Match,No Match","","null","","","","","","<div class='trialBorder'><div class='vertical-center'><img src='img/fixation2_sml.jpg'</img></div></div>","null","FIX","","","","","","","","","","",""
"html-keyboard-response","46","152498","0.0-7.0-2.2","63e576170eb086a90644efb4","bdp_wmem","Mon Mar 13 2023 00:13:48 GMT-0400 (Eastern Daylight Time)","591680","Match,No Match","","null","","","","","","<div class='trialBorder'><div class='vertical-center'><img style='vertical-align:center; align:center' src='img/fixation2_sml.jpg'></div><div class='arrayDiv1'><div class='tc'><img class='introPic' src='trustrating_stim/white_mw040.bmp'><br><font color='green'><strong>Share</strong></font></div></div></div>","null","ARRAY","1","trustrating_stim/white_mw040.bmp","1","Match","e","1500","","","","",""
"html-keyboard-response","47","156501","0.0-7.0-3.2","63e576170eb086a90644efb4","bdp_wmem","Mon Mar 13 2023 00:13:48 GMT-0400 (Eastern Daylight Time)","591680","Match,No Match","","null","","","","","","<div class='trialBorder'><div class='vertical-center'><img src='img/fixation2_sml.jpg'</img></div></div>","null","DELAY","","","","","","","","","","",""
"html-keyboard-response","48","157479","0.0-7.0-4.2","63e576170eb086a90644efb4","bdp_wmem","Mon Mar 13 2023 00:13:48 GMT-0400 (Eastern Daylight Time)","591680","Match,No Match","","976","","","","","","<div class='trialBorder'><div class='targDiv'><div class='tc'><img class='introPic' src='trustrating_stim/white_mw040.bmp'><br><font color='green'><strong>Share</strong></font></div></div><div class='respDiv'><div class='respDivL'>Match<br>(e)</div><div class='respDivR'>No Match<br>(i)</div></div></div>","e","TARGET","1","trustrating_stim/white_mw040.bmp","1","Match","e","1500","trustrating_stim/white_mw040.bmp","green","Share","REAL","1"
"html-keyboard-response","49","157982","0.0-7.0-5.2","63e576170eb086a90644efb4","bdp_wmem","Mon Mar 13 2023 00:13:48 GMT-0400 (Eastern Daylight Time)","591680","Match,No Match","","null","","","","","","<div class='trialBorder'><div class='vertical-center'><img src='img/correct.jpg'></div><div class='respDiv'><div class='respDivL'><font style='color:orange'>Match<br>(e)</font></div><div class='respDivR'>No Match<br>(i)</div></div></div>","null","FEEDBACK","","","","","","","","","","",""
"html-keyboard-response","50","158485","0.0-7.0-1.3","63e576170eb086a90644efb4","bdp_wmem","Mon Mar 13 2023 00:13:48 GMT-0400 (Eastern Daylight Time)","591680","Match,No Match","","null","","","","","","<div class='trialBorder'><div class='vertical-center'><img src='img/fixation2_sml.jpg'</img></div></div>","null","FIX","","","","","","","","","","",""
"html-keyboard-response","51","161489","0.0-7.0-2.3","63e576170eb086a90644efb4","bdp_wmem","Mon Mar 13 2023 00:13:48 GMT-0400 (Eastern Daylight Time)","591680","Match,No Match","","null","","","","","","<div class='trialBorder'><div class='vertical-center'><img style='vertical-align:center; align:center' src='img/fixation2_sml.jpg'></div><div class='arrayDiv2'><div class='tl'><img class='introPic' src='trustrating_stim/white_mw091.bmp'><br><font color='green'><strong>Share</strong></font></div><div class='tr'><img class='introPic' src='trustrating_stim/white_mw013.bmp'><br><font color='red'><strong>Keep</strong></font></div></div></div>","null","ARRAY","2","trustrating_stim/white_mw091.bmp,trustrating_stim/white_mw013.bmp","1,0","noMatchFace","i","3000","","","","",""
"html-keyboard-response","52","165491","0.0-7.0-3.3","63e576170eb086a90644efb4","bdp_wmem","Mon Mar 13 2023 00:13:48 GMT-0400 (Eastern Daylight Time)","591680","Match,No Match","","null","","","","","","<div class='trialBorder'><div class='vertical-center'><img src='img/fixation2_sml.jpg'</img></div></div>","null","DELAY","","","","","","","","","","",""
"html-keyboard-response","53","166962","0.0-7.0-4.3","63e576170eb086a90644efb4","bdp_wmem","Mon Mar 13 2023 00:13:48 GMT-0400 (Eastern Daylight Time)","591680","Match,No Match","","1469","","","","","","<div class='trialBorder'><div class='targDiv'><div class='tc'><img class='introPic' src='trustrating_stim/white_mw078.bmp'><br><font color='green'><strong>Share</strong></font></div></div><div class='respDiv'><div class='respDivL'>Match<br>(e)</div><div class='respDivR'>No Match<br>(i)</div></div></div>","i","TARGET","2","trustrating_stim/white_mw091.bmp,trustrating_stim/white_mw013.bmp","1,0","noMatchFace","i","3000","trustrating_stim/white_mw078.bmp","green","Share","REAL","1"
"html-keyboard-response","54","167465","0.0-7.0-5.3","63e576170eb086a90644efb4","bdp_wmem","Mon Mar 13 2023 00:13:48 GMT-0400 (Eastern Daylight Time)","591680","Match,No Match","","null","","","","","","<div class='trialBorder'><div class='vertical-center'><img src='img/correct.jpg'></div><div class='respDiv'><div class='respDivL'>Match<br>(e)</div><div class='respDivR'><font style='color:orange'>No Match<br>(i)</font></div></div></div>","null","FEEDBACK","","","","","","","","","","",""
"html-keyboard-response","55","167968","0.0-7.0-1.4","63e576170eb086a90644efb4","bdp_wmem","Mon Mar 13 2023 00:13:48 GMT-0400 (Eastern Daylight Time)","591680","Match,No Match","","null","","","","","","<div class='trialBorder'><div class='vertical-center'><img src='img/fixation2_sml.jpg'</img></div></div>","null","FIX","","","","","","","","","","",""
"html-keyboard-response","56","172471","0.0-7.0-2.4","63e576170eb086a90644efb4","bdp_wmem","Mon Mar 13 2023 00:13:48 GMT-0400 (Eastern Daylight Time)","591680","Match,No Match","","null","","","","","","<div class='trialBorder'><div class='vertical-center'><img style='vertical-align:center; align:center' src='img/fixation2_sml.jpg'></div><div class='arrayDiv3'><div class='tl'><img class='introPic' src='trustrating_stim/white_mw040.bmp'><br><font color='green'><strong>Share</strong></font></div><div class='tc'><img class='introPic' src='trustrating_stim/white_mw010.bmp'><br><font color='red'><strong>Keep</strong></font></div><div class='tr'><img class='introPic' src='trustrating_stim/white_mw003.bmp'><br><font color='green'><strong>Share</strong></font></div></div></div>","null","ARRAY","3","trustrating_stim/white_mw040.bmp,trustrating_stim/white_mw010.bmp,trustrating_stim/white_mw003.bmp","1,0,1","noMatchOutcome","i","4500","","","","",""
"html-keyboard-response","57","176474","0.0-7.0-3.4","63e576170eb086a90644efb4","bdp_wmem","Mon Mar 13 2023 00:13:48 GMT-0400 (Eastern Daylight Time)","591680","Match,No Match","","null","","","","","","<div class='trialBorder'><div class='vertical-center'><img src='img/fixation2_sml.jpg'</img></div></div>","null","DELAY","","","","","","","","","","",""
"html-keyboard-response","58","179208","0.0-7.0-4.4","63e576170eb086a90644efb4","bdp_wmem","Mon Mar 13 2023 00:13:48 GMT-0400 (Eastern Daylight Time)","591680","Match,No Match","","2732","","","","","","<div class='trialBorder'><div class='targDiv'><div class='tc'><img class='introPic' src='trustrating_stim/white_mw040.bmp'><br><font color='red'><strong>Keep</strong></font></div></div><div class='respDiv'><div class='respDivL'>Match<br>(e)</div><div class='respDivR'>No Match<br>(i)</div></div></div>","e","TARGET","3","trustrating_stim/white_mw040.bmp,trustrating_stim/white_mw010.bmp,trustrating_stim/white_mw003.bmp","1,0,1","noMatchOutcome","i","4500","trustrating_stim/white_mw040.bmp","red","Keep","REAL","0"
"html-keyboard-response","59","179712","0.0-7.0-5.4","63e576170eb086a90644efb4","bdp_wmem","Mon Mar 13 2023 00:13:48 GMT-0400 (Eastern Daylight Time)","591680","Match,No Match","","null","","","","","","<div class='trialBorder'><div class='vertical-center'><img src='img/error.jpg'></div><div class='respDiv'><div class='respDivL'><font style='color:orange'>Match<br>(e)</font></div><div class='respDivR'>No Match<br>(i)</div></div></div>","null","FEEDBACK","","","","","","","","","","",""
"html-keyboard-response","60","180213","0.0-7.0-1.5","63e576170eb086a90644efb4","bdp_wmem","Mon Mar 13 2023 00:13:48 GMT-0400 (Eastern Daylight Time)","591680","Match,No Match","","null","","","","","","<div class='trialBorder'><div class='vertical-center'><img src='img/fixation2_sml.jpg'</img></div></div>","null","FIX","","","","","","","","","","",""
"html-keyboard-response","61","181717","0.0-7.0-2.5","63e576170eb086a90644efb4","bdp_wmem","Mon Mar 13 2023 00:13:48 GMT-0400 (Eastern Daylight Time)","591680","Match,No Match","","null","","","","","","<div class='trialBorder'><div class='vertical-center'><img style='vertical-align:center; align:center' src='img/fixation2_sml.jpg'></div><div class='arrayDiv1'><div class='tc'><img class='introPic' src='trustrating_stim/white_mw012.bmp'><br><font color='red'><strong>Keep</strong></font></div></div></div>","null","ARRAY","1","trustrating_stim/white_mw012.bmp","0","noMatchOutcome","i","1500","","","","",""
"html-keyboard-response","62","185719","0.0-7.0-3.5","63e576170eb086a90644efb4","bdp_wmem","Mon Mar 13 2023 00:13:48 GMT-0400 (Eastern Daylight Time)","591680","Match,No Match","","null","","","","","","<div class='trialBorder'><div class='vertical-center'><img src='img/fixation2_sml.jpg'</img></div></div>","null","DELAY","","","","","","","","","","",""
"html-keyboard-response","63","186762","0.0-7.0-4.5","63e576170eb086a90644efb4","bdp_wmem","Mon Mar 13 2023 00:13:48 GMT-0400 (Eastern Daylight Time)","591680","Match,No Match","","1041","","","","","","<div class='trialBorder'><div class='targDiv'><div class='tc'><img class='introPic' src='trustrating_stim/white_mw012.bmp'><br><font color='green'><strong>Share</strong></font></div></div><div class='respDiv'><div class='respDivL'>Match<br>(e)</div><div class='respDivR'>No Match<br>(i)</div></div></div>","i","TARGET","1","trustrating_stim/white_mw012.bmp","0","noMatchOutcome","i","1500","trustrating_stim/white_mw012.bmp","green","Share","REAL","1"
"html-keyboard-response","64","187263","0.0-7.0-5.5","63e576170eb086a90644efb4","bdp_wmem","Mon Mar 13 2023 00:13:48 GMT-0400 (Eastern Daylight Time)","591680","Match,No Match","","null","","","","","","<div class='trialBorder'><div class='vertical-center'><img src='img/correct.jpg'></div><div class='respDiv'><div class='respDivL'>Match<br>(e)</div><div class='respDivR'><font style='color:orange'>No Match<br>(i)</font></div></div></div>","null","FEEDBACK","","","","","","","","","","",""
"html-keyboard-response","65","187765","0.0-7.0-1.6","63e576170eb086a90644efb4","bdp_wmem","Mon Mar 13 2023 00:13:48 GMT-0400 (Eastern Daylight Time)","591680","Match,No Match","","null","","","","","","<div class='trialBorder'><div class='vertical-center'><img src='img/fixation2_sml.jpg'</img></div></div>","null","FIX","","","","","","","","","","",""
"html-keyboard-response","66","192266","0.0-7.0-2.6","63e576170eb086a90644efb4","bdp_wmem","Mon Mar 13 2023 00:13:48 GMT-0400 (Eastern Daylight Time)","591680","Match,No Match","","null","","","","","","<div class='trialBorder'><div class='vertical-center'><img style='vertical-align:center; align:center' src='img/fixation2_sml.jpg'></div><div class='arrayDiv3'><div class='tl'><img class='introPic' src='trustrating_stim/white_mw012.bmp'><br><font color='green'><strong>Share</strong></font></div><div class='tc'><img class='introPic' src='trustrating_stim/white_mw038.bmp'><br><font color='red'><strong>Keep</strong></font></div><div class='tr'><img class='introPic' src='trustrating_stim/white_mw070.bmp'><br><font color='red'><strong>Keep</strong></font></div></div></div>","null","ARRAY","3","trustrating_stim/white_mw012.bmp,trustrating_stim/white_mw038.bmp,trustrating_stim/white_mw070.bmp","1,0,0","Match","e","4500","","","","",""
"html-keyboard-response","67","196267","0.0-7.0-3.6","63e576170eb086a90644efb4","bdp_wmem","Mon Mar 13 2023 00:13:48 GMT-0400 (Eastern Daylight Time)","591680","Match,No Match","","null","","","","","","<div class='trialBorder'><div class='vertical-center'><img src='img/fixation2_sml.jpg'</img></div></div>","null","DELAY","","","","","","","","","","",""
"html-keyboard-response","68","198232","0.0-7.0-4.6","63e576170eb086a90644efb4","bdp_wmem","Mon Mar 13 2023 00:13:48 GMT-0400 (Eastern Daylight Time)","591680","Match,No Match","","1963","","","","","","<div class='trialBorder'><div class='targDiv'><div class='tc'><img class='introPic' src='trustrating_stim/white_mw070.bmp'><br><font color='red'><strong>Keep</strong></font></div></div><div class='respDiv'><div class='respDivL'>Match<br>(e)</div><div class='respDivR'>No Match<br>(i)</div></div></div>","e","TARGET","3","trustrating_stim/white_mw012.bmp,trustrating_stim/white_mw038.bmp,trustrating_stim/white_mw070.bmp","1,0,0","Match","e","4500","trustrating_stim/white_mw070.bmp","red","Keep","REAL","1"
"html-keyboard-response","69","198734","0.0-7.0-5.6","63e576170eb086a90644efb4","bdp_wmem","Mon Mar 13 2023 00:13:48 GMT-0400 (Eastern Daylight Time)","591680","Match,No Match","","null","","","","","","<div class='trialBorder'><div class='vertical-center'><img src='img/correct.jpg'></div><div class='respDiv'><div class='respDivL'><font style='color:orange'>Match<br>(e)</font></div><div class='respDivR'>No Match<br>(i)</div></div></div>","null","FEEDBACK","","","","","","","","","","",""
"html-keyboard-response","70","199236","0.0-7.0-1.7","63e576170eb086a90644efb4","bdp_wmem","Mon Mar 13 2023 00:13:48 GMT-0400 (Eastern Daylight Time)","591680","Match,No Match","","null","","","","","","<div class='trialBorder'><div class='vertical-center'><img src='img/fixation2_sml.jpg'</img></div></div>","null","FIX","","","","","","","","","","",""
"html-keyboard-response","71","203739","0.0-7.0-2.7","63e576170eb086a90644efb4","bdp_wmem","Mon Mar 13 2023 00:13:48 GMT-0400 (Eastern Daylight Time)","591680","Match,No Match","","null","","","","","","<div class='trialBorder'><div class='vertical-center'><img style='vertical-align:center; align:center' src='img/fixation2_sml.jpg'></div><div class='arrayDiv3'><div class='tl'><img class='introPic' src='trustrating_stim/white_mw092.bmp'><br><font color='red'><strong>Keep</strong></font></div><div class='tc'><img class='introPic' src='trustrating_stim/white_mw040.bmp'><br><font color='red'><strong>Keep</strong></font></div><div class='tr'><img class='introPic' src='trustrating_stim/white_mw091.bmp'><br><font color='green'><strong>Share</strong></font></div></div></div>","null","ARRAY","3","trustrating_stim/white_mw092.bmp,trustrating_stim/white_mw040.bmp,trustrating_stim/white_mw091.bmp","0,0,1","noMatchFace","i","4500","","","","",""
"html-keyboard-response","72","207741","0.0-7.0-3.7","63e576170eb086a90644efb4","bdp_wmem","Mon Mar 13 2023 00:13:48 GMT-0400 (Eastern Daylight Time)","591680","Match,No Match","","null","","","","","","<div class='trialBorder'><div class='vertical-center'><img src='img/fixation2_sml.jpg'</img></div></div>","null","DELAY","","","","","","","","","","",""
"html-keyboard-response","73","209027","0.0-7.0-4.7","63e576170eb086a90644efb4","bdp_wmem","Mon Mar 13 2023 00:13:48 GMT-0400 (Eastern Daylight Time)","591680","Match,No Match","","1283","","","","","","<div class='trialBorder'><div class='targDiv'><div class='tc'><img class='introPic' src='trustrating_stim/white_mw012.bmp'><br><font color='green'><strong>Share</strong></font></div></div><div class='respDiv'><div class='respDivL'>Match<br>(e)</div><div class='respDivR'>No Match<br>(i)</div></div></div>","i","TARGET","3","trustrating_stim/white_mw092.bmp,trustrating_stim/white_mw040.bmp,trustrating_stim/white_mw091.bmp","0,0,1","noMatchFace","i","4500","trustrating_stim/white_mw012.bmp","green","Share","REAL","1"
"html-keyboard-response","74","209530","0.0-7.0-5.7","63e576170eb086a90644efb4","bdp_wmem","Mon Mar 13 2023 00:13:48 GMT-0400 (Eastern Daylight Time)","591680","Match,No Match","","null","","","","","","<div class='trialBorder'><div class='vertical-center'><img src='img/correct.jpg'></div><div class='respDiv'><div class='respDivL'>Match<br>(e)</div><div class='respDivR'><font style='color:orange'>No Match<br>(i)</font></div></div></div>","null","FEEDBACK","","","","","","","","","","",""
"html-keyboard-response","75","210033","0.0-7.0-1.8","63e576170eb086a90644efb4","bdp_wmem","Mon Mar 13 2023 00:13:48 GMT-0400 (Eastern Daylight Time)","591680","Match,No Match","","null","","","","","","<div class='trialBorder'><div class='vertical-center'><img src='img/fixation2_sml.jpg'</img></div></div>","null","FIX","","","","","","","","","","",""
"html-keyboard-response","76","213036","0.0-7.0-2.8","63e576170eb086a90644efb4","bdp_wmem","Mon Mar 13 2023 00:13:48 GMT-0400 (Eastern Daylight Time)","591680","Match,No Match","","null","","","","","","<div class='trialBorder'><div class='vertical-center'><img style='vertical-align:center; align:center' src='img/fixation2_sml.jpg'></div><div class='arrayDiv2'><div class='tl'><img class='introPic' src='trustrating_stim/white_mw042.bmp'><br><font color='red'><strong>Keep</strong></font></div><div class='tr'><img class='introPic' src='trustrating_stim/white_mw010.bmp'><br><font color='green'><strong>Share</strong></font></div></div></div>","null","ARRAY","2","trustrating_stim/white_mw042.bmp,trustrating_stim/white_mw010.bmp","0,1","Match","e","3000","","","","",""
"html-keyboard-response","77","217038","0.0-7.0-3.8","63e576170eb086a90644efb4","bdp_wmem","Mon Mar 13 2023 00:13:48 GMT-0400 (Eastern Daylight Time)","591680","Match,No Match","","null","","","","","","<div class='trialBorder'><div class='vertical-center'><img src='img/fixation2_sml.jpg'</img></div></div>","null","DELAY","","","","","","","","","","",""
"html-keyboard-response","78","218983","0.0-7.0-4.8","63e576170eb086a90644efb4","bdp_wmem","Mon Mar 13 2023 00:13:48 GMT-0400 (Eastern Daylight Time)","591680","Match,No Match","","1943","","","","","","<div class='trialBorder'><div class='targDiv'><div class='tc'><img class='introPic' src='trustrating_stim/white_mw042.bmp'><br><font color='red'><strong>Keep</strong></font></div></div><div class='respDiv'><div class='respDivL'>Match<br>(e)</div><div class='respDivR'>No Match<br>(i)</div></div></div>","e","TARGET","2","trustrating_stim/white_mw042.bmp,trustrating_stim/white_mw010.bmp","0,1","Match","e","3000","trustrating_stim/white_mw042.bmp","red","Keep","REAL","1"
"html-keyboard-response","79","219485","0.0-7.0-5.8","63e576170eb086a90644efb4","bdp_wmem","Mon Mar 13 2023 00:13:48 GMT-0400 (Eastern Daylight Time)","591680","Match,No Match","","null","","","","","","<div class='trialBorder'><div class='vertical-center'><img src='img/correct.jpg'></div><div class='respDiv'><div class='respDivL'><font style='color:orange'>Match<br>(e)</font></div><div class='respDivR'>No Match<br>(i)</div></div></div>","null","FEEDBACK","","","","","","","","","","",""
"html-keyboard-response","80","219988","0.0-7.0-1.9","63e576170eb086a90644efb4","bdp_wmem","Mon Mar 13 2023 00:13:48 GMT-0400 (Eastern Daylight Time)","591680","Match,No Match","","null","","","","","","<div class='trialBorder'><div class='vertical-center'><img src='img/fixation2_sml.jpg'</img></div></div>","null","FIX","","","","","","","","","","",""
"html-keyboard-response","81","224491","0.0-7.0-2.9","63e576170eb086a90644efb4","bdp_wmem","Mon Mar 13 2023 00:13:48 GMT-0400 (Eastern Daylight Time)","591680","Match,No Match","","null","","","","","","<div class='trialBorder'><div class='vertical-center'><img style='vertical-align:center; align:center' src='img/fixation2_sml.jpg'></div><div class='arrayDiv3'><div class='tl'><img class='introPic' src='trustrating_stim/white_mw091.bmp'><br><font color='red'><strong>Keep</strong></font></div><div class='tc'><img class='introPic' src='trustrating_stim/white_mw042.bmp'><br><font color='green'><strong>Share</strong></font></div><div class='tr'><img class='introPic' src='trustrating_stim/white_mw013.bmp'><br><font color='green'><strong>Share</strong></font></div></div></div>","null","ARRAY","3","trustrating_stim/white_mw091.bmp,trustrating_stim/white_mw042.bmp,trustrating_stim/white_mw013.bmp","0,1,1","Match","e","4500","","","","",""
"html-keyboard-response","82","228494","0.0-7.0-3.9","63e576170eb086a90644efb4","bdp_wmem","Mon Mar 13 2023 00:13:48 GMT-0400 (Eastern Daylight Time)","591680","Match,No Match","","null","","","","","","<div class='trialBorder'><div class='vertical-center'><img src='img/fixation2_sml.jpg'</img></div></div>","null","DELAY","","","","","","","","","","",""
"html-keyboard-response","83","230790","0.0-7.0-4.9","63e576170eb086a90644efb4","bdp_wmem","Mon Mar 13 2023 00:13:48 GMT-0400 (Eastern Daylight Time)","591680","Match,No Match","","2294","","","","","","<div class='trialBorder'><div class='targDiv'><div class='tc'><img class='introPic' src='trustrating_stim/white_mw042.bmp'><br><font color='green'><strong>Share</strong></font></div></div><div class='respDiv'><div class='respDivL'>Match<br>(e)</div><div class='respDivR'>No Match<br>(i)</div></div></div>","e","TARGET","3","trustrating_stim/white_mw091.bmp,trustrating_stim/white_mw042.bmp,trustrating_stim/white_mw013.bmp","0,1,1","Match","e","4500","trustrating_stim/white_mw042.bmp","green","Share","REAL","1"
"html-keyboard-response","84","231292","0.0-7.0-5.9","63e576170eb086a90644efb4","bdp_wmem","Mon Mar 13 2023 00:13:48 GMT-0400 (Eastern Daylight Time)","591680","Match,No Match","","null","","","","","","<div class='trialBorder'><div class='vertical-center'><img src='img/correct.jpg'></div><div class='respDiv'><div class='respDivL'><font style='color:orange'>Match<br>(e)</font></div><div class='respDivR'>No Match<br>(i)</div></div></div>","null","FEEDBACK","","","","","","","","","","",""
"html-keyboard-response","85","231794","0.0-7.0-1.10","63e576170eb086a90644efb4","bdp_wmem","Mon Mar 13 2023 00:13:48 GMT-0400 (Eastern Daylight Time)","591680","Match,No Match","","null","","","","","","<div class='trialBorder'><div class='vertical-center'><img src='img/fixation2_sml.jpg'</img></div></div>","null","FIX","","","","","","","","","","",""
"html-keyboard-response","86","233298","0.0-7.0-2.10","63e576170eb086a90644efb4","bdp_wmem","Mon Mar 13 2023 00:13:48 GMT-0400 (Eastern Daylight Time)","591680","Match,No Match","","null","","","","","","<div class='trialBorder'><div class='vertical-center'><img style='vertical-align:center; align:center' src='img/fixation2_sml.jpg'></div><div class='arrayDiv1'><div class='tc'><img class='introPic' src='trustrating_stim/white_mw042.bmp'><br><font color='red'><strong>Keep</strong></font></div></div></div>","null","ARRAY","1","trustrating_stim/white_mw042.bmp","0","noMatchFace","i","1500","","","","",""
"html-keyboard-response","87","237299","0.0-7.0-3.10","63e576170eb086a90644efb4","bdp_wmem","Mon Mar 13 2023 00:13:48 GMT-0400 (Eastern Daylight Time)","591680","Match,No Match","","null","","","","","","<div class='trialBorder'><div class='vertical-center'><img src='img/fixation2_sml.jpg'</img></div></div>","null","DELAY","","","","","","","","","","",""
"html-keyboard-response","88","238512","0.0-7.0-4.10","63e576170eb086a90644efb4","bdp_wmem","Mon Mar 13 2023 00:13:48 GMT-0400 (Eastern Daylight Time)","591680","Match,No Match","","1211","","","","","","<div class='trialBorder'><div class='targDiv'><div class='tc'><img class='introPic' src='trustrating_stim/white_mw012.bmp'><br><font color='red'><strong>Keep</strong></font></div></div><div class='respDiv'><div class='respDivL'>Match<br>(e)</div><div class='respDivR'>No Match<br>(i)</div></div></div>","i","TARGET","1","trustrating_stim/white_mw042.bmp","0","noMatchFace","i","1500","trustrating_stim/white_mw012.bmp","red","Keep","REAL","1"
"html-keyboard-response","89","239015","0.0-7.0-5.10","63e576170eb086a90644efb4","bdp_wmem","Mon Mar 13 2023 00:13:48 GMT-0400 (Eastern Daylight Time)","591680","Match,No Match","","null","","","","","","<div class='trialBorder'><div class='vertical-center'><img src='img/correct.jpg'></div><div class='respDiv'><div class='respDivL'>Match<br>(e)</div><div class='respDivR'><font style='color:orange'>No Match<br>(i)</font></div></div></div>","null","FEEDBACK","","","","","","","","","","",""
"html-keyboard-response","90","239518","0.0-7.0-1.11","63e576170eb086a90644efb4","bdp_wmem","Mon Mar 13 2023 00:13:48 GMT-0400 (Eastern Daylight Time)","591680","Match,No Match","","null","","","","","","<div class='trialBorder'><div class='vertical-center'><img src='img/fixation2_sml.jpg'</img></div></div>","null","FIX","","","","","","","","","","",""
"html-keyboard-response","91","244019","0.0-7.0-2.11","63e576170eb086a90644efb4","bdp_wmem","Mon Mar 13 2023 00:13:48 GMT-0400 (Eastern Daylight Time)","591680","Match,No Match","","null","","","","","","<div class='trialBorder'><div class='vertical-center'><img style='vertical-align:center; align:center' src='img/fixation2_sml.jpg'></div><div class='arrayDiv3'><div class='tl'><img class='introPic' src='trustrating_stim/white_mw091.bmp'><br><font color='green'><strong>Share</strong></font></div><div class='tc'><img class='introPic' src='trustrating_stim/white_mw038.bmp'><br><font color='green'><strong>Share</strong></font></div><div class='tr'><img class='introPic' src='trustrating_stim/white_mw078.bmp'><br><font color='red'><strong>Keep</strong></font></div></div></div>","null","ARRAY","3","trustrating_stim/white_mw091.bmp,trustrating_stim/white_mw038.bmp,trustrating_stim/white_mw078.bmp","1,1,0","Match","e","4500","","","","",""
"html-keyboard-response","92","248022","0.0-7.0-3.11","63e576170eb086a90644efb4","bdp_wmem","Mon Mar 13 2023 00:13:48 GMT-0400 (Eastern Daylight Time)","591680","Match,No Match","","null","","","","","","<div class='trialBorder'><div class='vertical-center'><img src='img/fixation2_sml.jpg'</img></div></div>","null","DELAY","","","","","","","","","","",""
"html-keyboard-response","93","249865","0.0-7.0-4.11","63e576170eb086a90644efb4","bdp_wmem","Mon Mar 13 2023 00:13:48 GMT-0400 (Eastern Daylight Time)","591680","Match,No Match","","1840","","","","","","<div class='trialBorder'><div class='targDiv'><div class='tc'><img class='introPic' src='trustrating_stim/white_mw078.bmp'><br><font color='red'><strong>Keep</strong></font></div></div><div class='respDiv'><div class='respDivL'>Match<br>(e)</div><div class='respDivR'>No Match<br>(i)</div></div></div>","e","TARGET","3","trustrating_stim/white_mw091.bmp,trustrating_stim/white_mw038.bmp,trustrating_stim/white_mw078.bmp","1,1,0","Match","e","4500","trustrating_stim/white_mw078.bmp","red","Keep","REAL","1"
"html-keyboard-response","94","250366","0.0-7.0-5.11","63e576170eb086a90644efb4","bdp_wmem","Mon Mar 13 2023 00:13:48 GMT-0400 (Eastern Daylight Time)","591680","Match,No Match","","null","","","","","","<div class='trialBorder'><div class='vertical-center'><img src='img/correct.jpg'></div><div class='respDiv'><div class='respDivL'><font style='color:orange'>Match<br>(e)</font></div><div class='respDivR'>No Match<br>(i)</div></div></div>","null","FEEDBACK","","","","","","","","","","",""
"html-keyboard-response","95","250868","0.0-7.0-1.12","63e576170eb086a90644efb4","bdp_wmem","Mon Mar 13 2023 00:13:48 GMT-0400 (Eastern Daylight Time)","591680","Match,No Match","","null","","","","","","<div class='trialBorder'><div class='vertical-center'><img src='img/fixation2_sml.jpg'</img></div></div>","null","FIX","","","","","","","","","","",""
"html-keyboard-response","96","253868","0.0-7.0-2.12","63e576170eb086a90644efb4","bdp_wmem","Mon Mar 13 2023 00:13:48 GMT-0400 (Eastern Daylight Time)","591680","Match,No Match","","null","","","","","","<div class='trialBorder'><div class='vertical-center'><img style='vertical-align:center; align:center' src='img/fixation2_sml.jpg'></div><div class='arrayDiv2'><div class='tl'><img class='introPic' src='trustrating_stim/white_mw092.bmp'><br><font color='green'><strong>Share</strong></font></div><div class='tr'><img class='introPic' src='trustrating_stim/white_mw070.bmp'><br><font color='red'><strong>Keep</strong></font></div></div></div>","null","ARRAY","2","trustrating_stim/white_mw092.bmp,trustrating_stim/white_mw070.bmp","1,0","Match","e","3000","","","","",""
"html-keyboard-response","97","257871","0.0-7.0-3.12","63e576170eb086a90644efb4","bdp_wmem","Mon Mar 13 2023 00:13:48 GMT-0400 (Eastern Daylight Time)","591680","Match,No Match","","null","","","","","","<div class='trialBorder'><div class='vertical-center'><img src='img/fixation2_sml.jpg'</img></div></div>","null","DELAY","","","","","","","","","","",""
"html-keyboard-response","98","258961","0.0-7.0-4.12","63e576170eb086a90644efb4","bdp_wmem","Mon Mar 13 2023 00:13:48 GMT-0400 (Eastern Daylight Time)","591680","Match,No Match","","1087","","","","","","<div class='trialBorder'><div class='targDiv'><div class='tc'><img class='introPic' src='trustrating_stim/white_mw092.bmp'><br><font color='green'><strong>Share</strong></font></div></div><div class='respDiv'><div class='respDivL'>Match<br>(e)</div><div class='respDivR'>No Match<br>(i)</div></div></div>","e","TARGET","2","trustrating_stim/white_mw092.bmp,trustrating_stim/white_mw070.bmp","1,0","Match","e","3000","trustrating_stim/white_mw092.bmp","green","Share","REAL","1"
"html-keyboard-response","99","259464","0.0-7.0-5.12","63e576170eb086a90644efb4","bdp_wmem","Mon Mar 13 2023 00:13:48 GMT-0400 (Eastern Daylight Time)","591680","Match,No Match","","null","","","","","","<div class='trialBorder'><div class='vertical-center'><img src='img/correct.jpg'></div><div class='respDiv'><div class='respDivL'><font style='color:orange'>Match<br>(e)</font></div><div class='respDivR'>No Match<br>(i)</div></div></div>","null","FEEDBACK","","","","","","","","","","",""
"html-keyboard-response","100","259967","0.0-7.0-1.13","63e576170eb086a90644efb4","bdp_wmem","Mon Mar 13 2023 00:13:48 GMT-0400 (Eastern Daylight Time)","591680","Match,No Match","","null","","","","","","<div class='trialBorder'><div class='vertical-center'><img src='img/fixation2_sml.jpg'</img></div></div>","null","FIX","","","","","","","","","","",""
"html-keyboard-response","101","262969","0.0-7.0-2.13","63e576170eb086a90644efb4","bdp_wmem","Mon Mar 13 2023 00:13:48 GMT-0400 (Eastern Daylight Time)","591680","Match,No Match","","null","","","","","","<div class='trialBorder'><div class='vertical-center'><img style='vertical-align:center; align:center' src='img/fixation2_sml.jpg'></div><div class='arrayDiv2'><div class='tl'><img class='introPic' src='trustrating_stim/white_mw003.bmp'><br><font color='green'><strong>Share</strong></font></div><div class='tr'><img class='introPic' src='trustrating_stim/white_mw070.bmp'><br><font color='red'><strong>Keep</strong></font></div></div></div>","null","ARRAY","2","trustrating_stim/white_mw003.bmp,trustrating_stim/white_mw070.bmp","1,0","Match","e","3000","","","","",""
"html-keyboard-response","102","266972","0.0-7.0-3.13","63e576170eb086a90644efb4","bdp_wmem","Mon Mar 13 2023 00:13:48 GMT-0400 (Eastern Daylight Time)","591680","Match,No Match","","null","","","","","","<div class='trialBorder'><div class='vertical-center'><img src='img/fixation2_sml.jpg'</img></div></div>","null","DELAY","","","","","","","","","","",""
"html-keyboard-response","103","268423","0.0-7.0-4.13","63e576170eb086a90644efb4","bdp_wmem","Mon Mar 13 2023 00:13:48 GMT-0400 (Eastern Daylight Time)","591680","Match,No Match","","1448","","","","","","<div class='trialBorder'><div class='targDiv'><div class='tc'><img class='introPic' src='trustrating_stim/white_mw070.bmp'><br><font color='red'><strong>Keep</strong></font></div></div><div class='respDiv'><div class='respDivL'>Match<br>(e)</div><div class='respDivR'>No Match<br>(i)</div></div></div>","e","TARGET","2","trustrating_stim/white_mw003.bmp,trustrating_stim/white_mw070.bmp","1,0","Match","e","3000","trustrating_stim/white_mw070.bmp","red","Keep","REAL","1"
"html-keyboard-response","104","268924","0.0-7.0-5.13","63e576170eb086a90644efb4","bdp_wmem","Mon Mar 13 2023 00:13:48 GMT-0400 (Eastern Daylight Time)","591680","Match,No Match","","null","","","","","","<div class='trialBorder'><div class='vertical-center'><img src='img/correct.jpg'></div><div class='respDiv'><div class='respDivL'><font style='color:orange'>Match<br>(e)</font></div><div class='respDivR'>No Match<br>(i)</div></div></div>","null","FEEDBACK","","","","","","","","","","",""
"html-keyboard-response","105","269426","0.0-7.0-1.14","63e576170eb086a90644efb4","bdp_wmem","Mon Mar 13 2023 00:13:48 GMT-0400 (Eastern Daylight Time)","591680","Match,No Match","","null","","","","","","<div class='trialBorder'><div class='vertical-center'><img src='img/fixation2_sml.jpg'</img></div></div>","null","FIX","","","","","","","","","","",""
"html-keyboard-response","106","272429","0.0-7.0-2.14","63e576170eb086a90644efb4","bdp_wmem","Mon Mar 13 2023 00:13:48 GMT-0400 (Eastern Daylight Time)","591680","Match,No Match","","null","","","","","","<div class='trialBorder'><div class='vertical-center'><img style='vertical-align:center; align:center' src='img/fixation2_sml.jpg'></div><div class='arrayDiv2'><div class='tl'><img class='introPic' src='trustrating_stim/white_mw013.bmp'><br><font color='red'><strong>Keep</strong></font></div><div class='tr'><img class='introPic' src='trustrating_stim/white_mw078.bmp'><br><font color='green'><strong>Share</strong></font></div></div></div>","null","ARRAY","2","trustrating_stim/white_mw013.bmp,trustrating_stim/white_mw078.bmp","0,1","Match","e","3000","","","","",""
"html-keyboard-response","107","276431","0.0-7.0-3.14","63e576170eb086a90644efb4","bdp_wmem","Mon Mar 13 2023 00:13:48 GMT-0400 (Eastern Daylight Time)","591680","Match,No Match","","null","","","","","","<div class='trialBorder'><div class='vertical-center'><img src='img/fixation2_sml.jpg'</img></div></div>","null","DELAY","","","","","","","","","","",""
"html-keyboard-response","108","278313","0.0-7.0-4.14","63e576170eb086a90644efb4","bdp_wmem","Mon Mar 13 2023 00:13:48 GMT-0400 (Eastern Daylight Time)","591680","Match,No Match","","1881","","","","","","<div class='trialBorder'><div class='targDiv'><div class='tc'><img class='introPic' src='trustrating_stim/white_mw013.bmp'><br><font color='red'><strong>Keep</strong></font></div></div><div class='respDiv'><div class='respDivL'>Match<br>(e)</div><div class='respDivR'>No Match<br>(i)</div></div></div>","e","TARGET","2","trustrating_stim/white_mw013.bmp,trustrating_stim/white_mw078.bmp","0,1","Match","e","3000","trustrating_stim/white_mw013.bmp","red","Keep","REAL","1"
"html-keyboard-response","109","278816","0.0-7.0-5.14","63e576170eb086a90644efb4","bdp_wmem","Mon Mar 13 2023 00:13:48 GMT-0400 (Eastern Daylight Time)","591680","Match,No Match","","null","","","","","","<div class='trialBorder'><div class='vertical-center'><img src='img/correct.jpg'></div><div class='respDiv'><div class='respDivL'><font style='color:orange'>Match<br>(e)</font></div><div class='respDivR'>No Match<br>(i)</div></div></div>","null","FEEDBACK","","","","","","","","","","",""
"html-keyboard-response","110","279318","0.0-7.0-1.15","63e576170eb086a90644efb4","bdp_wmem","Mon Mar 13 2023 00:13:48 GMT-0400 (Eastern Daylight Time)","591680","Match,No Match","","null","","","","","","<div class='trialBorder'><div class='vertical-center'><img src='img/fixation2_sml.jpg'</img></div></div>","null","FIX","","","","","","","","","","",""
"html-keyboard-response","111","280821","0.0-7.0-2.15","63e576170eb086a90644efb4","bdp_wmem","Mon Mar 13 2023 00:13:48 GMT-0400 (Eastern Daylight Time)","591680","Match,No Match","","null","","","","","","<div class='trialBorder'><div class='vertical-center'><img style='vertical-align:center; align:center' src='img/fixation2_sml.jpg'></div><div class='arrayDiv1'><div class='tc'><img class='introPic' src='trustrating_stim/white_mw070.bmp'><br><font color='green'><strong>Share</strong></font></div></div></div>","null","ARRAY","1","trustrating_stim/white_mw070.bmp","1","noMatchFace","i","1500","","","","",""
"html-keyboard-response","112","284823","0.0-7.0-3.15","63e576170eb086a90644efb4","bdp_wmem","Mon Mar 13 2023 00:13:48 GMT-0400 (Eastern Daylight Time)","591680","Match,No Match","","null","","","","","","<div class='trialBorder'><div class='vertical-center'><img src='img/fixation2_sml.jpg'</img></div></div>","null","DELAY","","","","","","","","","","",""
"html-keyboard-response","113","285769","0.0-7.0-4.15","63e576170eb086a90644efb4","bdp_wmem","Mon Mar 13 2023 00:13:48 GMT-0400 (Eastern Daylight Time)","591680","Match,No Match","","944","","","","","","<div class='trialBorder'><div class='targDiv'><div class='tc'><img class='introPic' src='trustrating_stim/white_mw012.bmp'><br><font color='green'><strong>Share</strong></font></div></div><div class='respDiv'><div class='respDivL'>Match<br>(e)</div><div class='respDivR'>No Match<br>(i)</div></div></div>","i","TARGET","1","trustrating_stim/white_mw070.bmp","1","noMatchFace","i","1500","trustrating_stim/white_mw012.bmp","green","Share","REAL","1"
"html-keyboard-response","114","286273","0.0-7.0-5.15","63e576170eb086a90644efb4","bdp_wmem","Mon Mar 13 2023 00:13:48 GMT-0400 (Eastern Daylight Time)","591680","Match,No Match","","null","","","","","","<div class='trialBorder'><div class='vertical-center'><img src='img/correct.jpg'></div><div class='respDiv'><div class='respDivL'>Match<br>(e)</div><div class='respDivR'><font style='color:orange'>No Match<br>(i)</font></div></div></div>","null","FEEDBACK","","","","","","","","","","",""
"html-keyboard-response","115","286775","0.0-7.0-1.16","63e576170eb086a90644efb4","bdp_wmem","Mon Mar 13 2023 00:13:48 GMT-0400 (Eastern Daylight Time)","591680","Match,No Match","","null","","","","","","<div class='trialBorder'><div class='vertical-center'><img src='img/fixation2_sml.jpg'</img></div></div>","null","FIX","","","","","","","","","","",""
"html-keyboard-response","116","291278","0.0-7.0-2.16","63e576170eb086a90644efb4","bdp_wmem","Mon Mar 13 2023 00:13:48 GMT-0400 (Eastern Daylight Time)","591680","Match,No Match","","null","","","","","","<div class='trialBorder'><div class='vertical-center'><img style='vertical-align:center; align:center' src='img/fixation2_sml.jpg'></div><div class='arrayDiv3'><div class='tl'><img class='introPic' src='trustrating_stim/white_mw092.bmp'><br><font color='green'><strong>Share</strong></font></div><div class='tc'><img class='introPic' src='trustrating_stim/white_mw042.bmp'><br><font color='red'><strong>Keep</strong></font></div><div class='tr'><img class='introPic' src='trustrating_stim/white_mw038.bmp'><br><font color='green'><strong>Share</strong></font></div></div></div>","null","ARRAY","3","trustrating_stim/white_mw092.bmp,trustrating_stim/white_mw042.bmp,trustrating_stim/white_mw038.bmp","1,0,1","Match","e","4500","","","","",""
"html-keyboard-response","117","295281","0.0-7.0-3.16","63e576170eb086a90644efb4","bdp_wmem","Mon Mar 13 2023 00:13:48 GMT-0400 (Eastern Daylight Time)","591680","Match,No Match","","null","","","","","","<div class='trialBorder'><div class='vertical-center'><img src='img/fixation2_sml.jpg'</img></div></div>","null","DELAY","","","","","","","","","","",""
"html-keyboard-response","118","297393","0.0-7.0-4.16","63e576170eb086a90644efb4","bdp_wmem","Mon Mar 13 2023 00:13:48 GMT-0400 (Eastern Daylight Time)","591680","Match,No Match","","2109","","","","","","<div class='trialBorder'><div class='targDiv'><div class='tc'><img class='introPic' src='trustrating_stim/white_mw042.bmp'><br><font color='red'><strong>Keep</strong></font></div></div><div class='respDiv'><div class='respDivL'>Match<br>(e)</div><div class='respDivR'>No Match<br>(i)</div></div></div>","e","TARGET","3","trustrating_stim/white_mw092.bmp,trustrating_stim/white_mw042.bmp,trustrating_stim/white_mw038.bmp","1,0,1","Match","e","4500","trustrating_stim/white_mw042.bmp","red","Keep","REAL","1"
"html-keyboard-response","119","297896","0.0-7.0-5.16","63e576170eb086a90644efb4","bdp_wmem","Mon Mar 13 2023 00:13:48 GMT-0400 (Eastern Daylight Time)","591680","Match,No Match","","null","","","","","","<div class='trialBorder'><div class='vertical-center'><img src='img/correct.jpg'></div><div class='respDiv'><div class='respDivL'><font style='color:orange'>Match<br>(e)</font></div><div class='respDivR'>No Match<br>(i)</div></div></div>","null","FEEDBACK","","","","","","","","","","",""
"html-keyboard-response","120","298399","0.0-7.0-1.17","63e576170eb086a90644efb4","bdp_wmem","Mon Mar 13 2023 00:13:48 GMT-0400 (Eastern Daylight Time)","591680","Match,No Match","","null","","","","","","<div class='trialBorder'><div class='vertical-center'><img src='img/fixation2_sml.jpg'</img></div></div>","null","FIX","","","","","","","","","","",""
"html-keyboard-response","121","302903","0.0-7.0-2.17","63e576170eb086a90644efb4","bdp_wmem","Mon Mar 13 2023 00:13:48 GMT-0400 (Eastern Daylight Time)","591680","Match,No Match","","null","","","","","","<div class='trialBorder'><div class='vertical-center'><img style='vertical-align:center; align:center' src='img/fixation2_sml.jpg'></div><div class='arrayDiv3'><div class='tl'><img class='introPic' src='trustrating_stim/white_mw042.bmp'><br><font color='green'><strong>Share</strong></font></div><div class='tc'><img class='introPic' src='trustrating_stim/white_mw038.bmp'><br><font color='green'><strong>Share</strong></font></div><div class='tr'><img class='introPic' src='trustrating_stim/white_mw012.bmp'><br><font color='red'><strong>Keep</strong></font></div></div></div>","null","ARRAY","3","trustrating_stim/white_mw042.bmp,trustrating_stim/white_mw038.bmp,trustrating_stim/white_mw012.bmp","1,1,0","noMatchFace","i","4500","","","","",""
"html-keyboard-response","122","306906","0.0-7.0-3.17","63e576170eb086a90644efb4","bdp_wmem","Mon Mar 13 2023 00:13:48 GMT-0400 (Eastern Daylight Time)","591680","Match,No Match","","null","","","","","","<div class='trialBorder'><div class='vertical-center'><img src='img/fixation2_sml.jpg'</img></div></div>","null","DELAY","","","","","","","","","","",""
"html-keyboard-response","123","308788","0.0-7.0-4.17","63e576170eb086a90644efb4","bdp_wmem","Mon Mar 13 2023 00:13:48 GMT-0400 (Eastern Daylight Time)","591680","Match,No Match","","1880","","","","","","<div class='trialBorder'><div class='targDiv'><div class='tc'><img class='introPic' src='trustrating_stim/white_mw003.bmp'><br><font color='red'><strong>Keep</strong></font></div></div><div class='respDiv'><div class='respDivL'>Match<br>(e)</div><div class='respDivR'>No Match<br>(i)</div></div></div>","i","TARGET","3","trustrating_stim/white_mw042.bmp,trustrating_stim/white_mw038.bmp,trustrating_stim/white_mw012.bmp","1,1,0","noMatchFace","i","4500","trustrating_stim/white_mw003.bmp","red","Keep","REAL","1"
"html-keyboard-response","124","309291","0.0-7.0-5.17","63e576170eb086a90644efb4","bdp_wmem","Mon Mar 13 2023 00:13:48 GMT-0400 (Eastern Daylight Time)","591680","Match,No Match","","null","","","","","","<div class='trialBorder'><div class='vertical-center'><img src='img/correct.jpg'></div><div class='respDiv'><div class='respDivL'>Match<br>(e)</div><div class='respDivR'><font style='color:orange'>No Match<br>(i)</font></div></div></div>","null","FEEDBACK","","","","","","","","","","",""
"html-keyboard-response","125","309793","0.0-7.0-1.18","63e576170eb086a90644efb4","bdp_wmem","Mon Mar 13 2023 00:13:48 GMT-0400 (Eastern Daylight Time)","591680","Match,No Match","","null","","","","","","<div class='trialBorder'><div class='vertical-center'><img src='img/fixation2_sml.jpg'</img></div></div>","null","FIX","","","","","","","","","","",""
"html-keyboard-response","126","312796","0.0-7.0-2.18","63e576170eb086a90644efb4","bdp_wmem","Mon Mar 13 2023 00:13:48 GMT-0400 (Eastern Daylight Time)","591680","Match,No Match","","null","","","","","","<div class='trialBorder'><div class='vertical-center'><img style='vertical-align:center; align:center' src='img/fixation2_sml.jpg'></div><div class='arrayDiv2'><div class='tl'><img class='introPic' src='trustrating_stim/white_mw013.bmp'><br><font color='red'><strong>Keep</strong></font></div><div class='tr'><img class='introPic' src='trustrating_stim/white_mw040.bmp'><br><font color='green'><strong>Share</strong></font></div></div></div>","null","ARRAY","2","trustrating_stim/white_mw013.bmp,trustrating_stim/white_mw040.bmp","0,1","noMatchOutcome","i","3000","","","","",""
"html-keyboard-response","127","316799","0.0-7.0-3.18","63e576170eb086a90644efb4","bdp_wmem","Mon Mar 13 2023 00:13:48 GMT-0400 (Eastern Daylight Time)","591680","Match,No Match","","null","","","","","","<div class='trialBorder'><div class='vertical-center'><img src='img/fixation2_sml.jpg'</img></div></div>","null","DELAY","","","","","","","","","","",""
"html-keyboard-response","128","319019","0.0-7.0-4.18","63e576170eb086a90644efb4","bdp_wmem","Mon Mar 13 2023 00:13:48 GMT-0400 (Eastern Daylight Time)","591680","Match,No Match","","2218","","","","","","<div class='trialBorder'><div class='targDiv'><div class='tc'><img class='introPic' src='trustrating_stim/white_mw040.bmp'><br><font color='red'><strong>Keep</strong></font></div></div><div class='respDiv'><div class='respDivL'>Match<br>(e)</div><div class='respDivR'>No Match<br>(i)</div></div></div>","i","TARGET","2","trustrating_stim/white_mw013.bmp,trustrating_stim/white_mw040.bmp","0,1","noMatchOutcome","i","3000","trustrating_stim/white_mw040.bmp","red","Keep","REAL","1"
"html-keyboard-response","129","319521","0.0-7.0-5.18","63e576170eb086a90644efb4","bdp_wmem","Mon Mar 13 2023 00:13:48 GMT-0400 (Eastern Daylight Time)","591680","Match,No Match","","null","","","","","","<div class='trialBorder'><div class='vertical-center'><img src='img/correct.jpg'></div><div class='respDiv'><div class='respDivL'>Match<br>(e)</div><div class='respDivR'><font style='color:orange'>No Match<br>(i)</font></div></div></div>","null","FEEDBACK","","","","","","","","","","",""
"html-keyboard-response","130","320023","0.0-7.0-1.19","63e576170eb086a90644efb4","bdp_wmem","Mon Mar 13 2023 00:13:48 GMT-0400 (Eastern Daylight Time)","591680","Match,No Match","","null","","","","","","<div class='trialBorder'><div class='vertical-center'><img src='img/fixation2_sml.jpg'</img></div></div>","null","FIX","","","","","","","","","","",""
"html-keyboard-response","131","324526","0.0-7.0-2.19","63e576170eb086a90644efb4","bdp_wmem","Mon Mar 13 2023 00:13:48 GMT-0400 (Eastern Daylight Time)","591680","Match,No Match","","null","","","","","","<div class='trialBorder'><div class='vertical-center'><img style='vertical-align:center; align:center' src='img/fixation2_sml.jpg'></div><div class='arrayDiv3'><div class='tl'><img class='introPic' src='trustrating_stim/white_mw091.bmp'><br><font color='green'><strong>Share</strong></font></div><div class='tc'><img class='introPic' src='trustrating_stim/white_mw010.bmp'><br><font color='green'><strong>Share</strong></font></div><div class='tr'><img class='introPic' src='trustrating_stim/white_mw012.bmp'><br><font color='red'><strong>Keep</strong></font></div></div></div>","null","ARRAY","3","trustrating_stim/white_mw091.bmp,trustrating_stim/white_mw010.bmp,trustrating_stim/white_mw012.bmp","1,1,0","Match","e","4500","","","","",""
"html-keyboard-response","132","328528","0.0-7.0-3.19","63e576170eb086a90644efb4","bdp_wmem","Mon Mar 13 2023 00:13:48 GMT-0400 (Eastern Daylight Time)","591680","Match,No Match","","null","","","","","","<div class='trialBorder'><div class='vertical-center'><img src='img/fixation2_sml.jpg'</img></div></div>","null","DELAY","","","","","","","","","","",""
"html-keyboard-response","133","330437","0.0-7.0-4.19","63e576170eb086a90644efb4","bdp_wmem","Mon Mar 13 2023 00:13:48 GMT-0400 (Eastern Daylight Time)","591680","Match,No Match","","1906","","","","","","<div class='trialBorder'><div class='targDiv'><div class='tc'><img class='introPic' src='trustrating_stim/white_mw012.bmp'><br><font color='red'><strong>Keep</strong></font></div></div><div class='respDiv'><div class='respDivL'>Match<br>(e)</div><div class='respDivR'>No Match<br>(i)</div></div></div>","e","TARGET","3","trustrating_stim/white_mw091.bmp,trustrating_stim/white_mw010.bmp,trustrating_stim/white_mw012.bmp","1,1,0","Match","e","4500","trustrating_stim/white_mw012.bmp","red","Keep","REAL","1"
"html-keyboard-response","134","330939","0.0-7.0-5.19","63e576170eb086a90644efb4","bdp_wmem","Mon Mar 13 2023 00:13:48 GMT-0400 (Eastern Daylight Time)","591680","Match,No Match","","null","","","","","","<div class='trialBorder'><div class='vertical-center'><img src='img/correct.jpg'></div><div class='respDiv'><div class='respDivL'><font style='color:orange'>Match<br>(e)</font></div><div class='respDivR'>No Match<br>(i)</div></div></div>","null","FEEDBACK","","","","","","","","","","",""
"html-keyboard-response","135","331442","0.0-7.0-1.20","63e576170eb086a90644efb4","bdp_wmem","Mon Mar 13 2023 00:13:48 GMT-0400 (Eastern Daylight Time)","591680","Match,No Match","","null","","","","","","<div class='trialBorder'><div class='vertical-center'><img src='img/fixation2_sml.jpg'</img></div></div>","null","FIX","","","","","","","","","","",""
"html-keyboard-response","136","332944","0.0-7.0-2.20","63e576170eb086a90644efb4","bdp_wmem","Mon Mar 13 2023 00:13:48 GMT-0400 (Eastern Daylight Time)","591680","Match,No Match","","null","","","","","","<div class='trialBorder'><div class='vertical-center'><img style='vertical-align:center; align:center' src='img/fixation2_sml.jpg'></div><div class='arrayDiv1'><div class='tc'><img class='introPic' src='trustrating_stim/white_mw042.bmp'><br><font color='green'><strong>Share</strong></font></div></div></div>","null","ARRAY","1","trustrating_stim/white_mw042.bmp","1","Match","e","1500","","","","",""
"html-keyboard-response","137","336947","0.0-7.0-3.20","63e576170eb086a90644efb4","bdp_wmem","Mon Mar 13 2023 00:13:48 GMT-0400 (Eastern Daylight Time)","591680","Match,No Match","","null","","","","","","<div class='trialBorder'><div class='vertical-center'><img src='img/fixation2_sml.jpg'</img></div></div>","null","DELAY","","","","","","","","","","",""
"html-keyboard-response","138","338015","0.0-7.0-4.20","63e576170eb086a90644efb4","bdp_wmem","Mon Mar 13 2023 00:13:48 GMT-0400 (Eastern Daylight Time)","591680","Match,No Match","","1066","","","","","","<div class='trialBorder'><div class='targDiv'><div class='tc'><img class='introPic' src='trustrating_stim/white_mw042.bmp'><br><font color='green'><strong>Share</strong></font></div></div><div class='respDiv'><div class='respDivL'>Match<br>(e)</div><div class='respDivR'>No Match<br>(i)</div></div></div>","e","TARGET","1","trustrating_stim/white_mw042.bmp","1","Match","e","1500","trustrating_stim/white_mw042.bmp","green","Share","REAL","1"
"html-keyboard-response","139","338518","0.0-7.0-5.20","63e576170eb086a90644efb4","bdp_wmem","Mon Mar 13 2023 00:13:48 GMT-0400 (Eastern Daylight Time)","591680","Match,No Match","","null","","","","","","<div class='trialBorder'><div class='vertical-center'><img src='img/correct.jpg'></div><div class='respDiv'><div class='respDivL'><font style='color:orange'>Match<br>(e)</font></div><div class='respDivR'>No Match<br>(i)</div></div></div>","null","FEEDBACK","","","","","","","","","","",""
"html-keyboard-response","140","339019","0.0-7.0-1.21","63e576170eb086a90644efb4","bdp_wmem","Mon Mar 13 2023 00:13:48 GMT-0400 (Eastern Daylight Time)","591680","Match,No Match","","null","","","","","","<div class='trialBorder'><div class='vertical-center'><img src='img/fixation2_sml.jpg'</img></div></div>","null","FIX","","","","","","","","","","",""
"html-keyboard-response","141","342022","0.0-7.0-2.21","63e576170eb086a90644efb4","bdp_wmem","Mon Mar 13 2023 00:13:48 GMT-0400 (Eastern Daylight Time)","591680","Match,No Match","","null","","","","","","<div class='trialBorder'><div class='vertical-center'><img style='vertical-align:center; align:center' src='img/fixation2_sml.jpg'></div><div class='arrayDiv2'><div class='tl'><img class='introPic' src='trustrating_stim/white_mw042.bmp'><br><font color='green'><strong>Share</strong></font></div><div class='tr'><img class='introPic' src='trustrating_stim/white_mw078.bmp'><br><font color='red'><strong>Keep</strong></font></div></div></div>","null","ARRAY","2","trustrating_stim/white_mw042.bmp,trustrating_stim/white_mw078.bmp","1,0","noMatchOutcome","i","3000","","","","",""
"html-keyboard-response","142","346025","0.0-7.0-3.21","63e576170eb086a90644efb4","bdp_wmem","Mon Mar 13 2023 00:13:48 GMT-0400 (Eastern Daylight Time)","591680","Match,No Match","","null","","","","","","<div class='trialBorder'><div class='vertical-center'><img src='img/fixation2_sml.jpg'</img></div></div>","null","DELAY","","","","","","","","","","",""
"html-keyboard-response","143","347312","0.0-7.0-4.21","63e576170eb086a90644efb4","bdp_wmem","Mon Mar 13 2023 00:13:48 GMT-0400 (Eastern Daylight Time)","591680","Match,No Match","","1285","","","","","","<div class='trialBorder'><div class='targDiv'><div class='tc'><img class='introPic' src='trustrating_stim/white_mw078.bmp'><br><font color='green'><strong>Share</strong></font></div></div><div class='respDiv'><div class='respDivL'>Match<br>(e)</div><div class='respDivR'>No Match<br>(i)</div></div></div>","i","TARGET","2","trustrating_stim/white_mw042.bmp,trustrating_stim/white_mw078.bmp","1,0","noMatchOutcome","i","3000","trustrating_stim/white_mw078.bmp","green","Share","REAL","1"
"html-keyboard-response","144","347816","0.0-7.0-5.21","63e576170eb086a90644efb4","bdp_wmem","Mon Mar 13 2023 00:13:48 GMT-0400 (Eastern Daylight Time)","591680","Match,No Match","","null","","","","","","<div class='trialBorder'><div class='vertical-center'><img src='img/correct.jpg'></div><div class='respDiv'><div class='respDivL'>Match<br>(e)</div><div class='respDivR'><font style='color:orange'>No Match<br>(i)</font></div></div></div>","null","FEEDBACK","","","","","","","","","","",""
"html-keyboard-response","145","348318","0.0-7.0-1.22","63e576170eb086a90644efb4","bdp_wmem","Mon Mar 13 2023 00:13:48 GMT-0400 (Eastern Daylight Time)","591680","Match,No Match","","null","","","","","","<div class='trialBorder'><div class='vertical-center'><img src='img/fixation2_sml.jpg'</img></div></div>","null","FIX","","","","","","","","","","",""
"html-keyboard-response","146","349821","0.0-7.0-2.22","63e576170eb086a90644efb4","bdp_wmem","Mon Mar 13 2023 00:13:48 GMT-0400 (Eastern Daylight Time)","591680","Match,No Match","","null","","","","","","<div class='trialBorder'><div class='vertical-center'><img style='vertical-align:center; align:center' src='img/fixation2_sml.jpg'></div><div class='arrayDiv1'><div class='tc'><img class='introPic' src='trustrating_stim/white_mw042.bmp'><br><font color='green'><strong>Share</strong></font></div></div></div>","null","ARRAY","1","trustrating_stim/white_mw042.bmp","1","Match","e","1500","","","","",""
"html-keyboard-response","147","353824","0.0-7.0-3.22","63e576170eb086a90644efb4","bdp_wmem","Mon Mar 13 2023 00:13:48 GMT-0400 (Eastern Daylight Time)","591680","Match,No Match","","null","","","","","","<div class='trialBorder'><div class='vertical-center'><img src='img/fixation2_sml.jpg'</img></div></div>","null","DELAY","","","","","","","","","","",""
"html-keyboard-response","148","354713","0.0-7.0-4.22","63e576170eb086a90644efb4","bdp_wmem","Mon Mar 13 2023 00:13:48 GMT-0400 (Eastern Daylight Time)","591680","Match,No Match","","886","","","","","","<div class='trialBorder'><div class='targDiv'><div class='tc'><img class='introPic' src='trustrating_stim/white_mw042.bmp'><br><font color='green'><strong>Share</strong></font></div></div><div class='respDiv'><div class='respDivL'>Match<br>(e)</div><div class='respDivR'>No Match<br>(i)</div></div></div>","e","TARGET","1","trustrating_stim/white_mw042.bmp","1","Match","e","1500","trustrating_stim/white_mw042.bmp","green","Share","REAL","1"
"html-keyboard-response","149","355216","0.0-7.0-5.22","63e576170eb086a90644efb4","bdp_wmem","Mon Mar 13 2023 00:13:48 GMT-0400 (Eastern Daylight Time)","591680","Match,No Match","","null","","","","","","<div class='trialBorder'><div class='vertical-center'><img src='img/correct.jpg'></div><div class='respDiv'><div class='respDivL'><font style='color:orange'>Match<br>(e)</font></div><div class='respDivR'>No Match<br>(i)</div></div></div>","null","FEEDBACK","","","","","","","","","","",""
"html-keyboard-response","150","355719","0.0-7.0-1.23","63e576170eb086a90644efb4","bdp_wmem","Mon Mar 13 2023 00:13:48 GMT-0400 (Eastern Daylight Time)","591680","Match,No Match","","null","","","","","","<div class='trialBorder'><div class='vertical-center'><img src='img/fixation2_sml.jpg'</img></div></div>","null","FIX","","","","","","","","","","",""
"html-keyboard-response","151","360222","0.0-7.0-2.23","63e576170eb086a90644efb4","bdp_wmem","Mon Mar 13 2023 00:13:48 GMT-0400 (Eastern Daylight Time)","591680","Match,No Match","","null","","","","","","<div class='trialBorder'><div class='vertical-center'><img style='vertical-align:center; align:center' src='img/fixation2_sml.jpg'></div><div class='arrayDiv3'><div class='tl'><img class='introPic' src='trustrating_stim/white_mw092.bmp'><br><font color='red'><strong>Keep</strong></font></div><div class='tc'><img class='introPic' src='trustrating_stim/white_mw012.bmp'><br><font color='green'><strong>Share</strong></font></div><div class='tr'><img class='introPic' src='trustrating_stim/white_mw010.bmp'><br><font color='green'><strong>Share</strong></font></div></div></div>","null","ARRAY","3","trustrating_stim/white_mw092.bmp,trustrating_stim/white_mw012.bmp,trustrating_stim/white_mw010.bmp","0,1,1","noMatchOutcome","i","4500","","","","",""
"html-keyboard-response","152","364224","0.0-7.0-3.23","63e576170eb086a90644efb4","bdp_wmem","Mon Mar 13 2023 00:13:48 GMT-0400 (Eastern Daylight Time)","591680","Match,No Match","","null","","","","","","<div class='trialBorder'><div class='vertical-center'><img src='img/fixation2_sml.jpg'</img></div></div>","null","DELAY","","","","","","","","","","",""
"html-keyboard-response","153","367412","0.0-7.0-4.23","63e576170eb086a90644efb4","bdp_wmem","Mon Mar 13 2023 00:13:48 GMT-0400 (Eastern Daylight Time)","591680","Match,No Match","","3185","","","","","","<div class='trialBorder'><div class='targDiv'><div class='tc'><img class='introPic' src='trustrating_stim/white_mw012.bmp'><br><font color='red'><strong>Keep</strong></font></div></div><div class='respDiv'><div class='respDivL'>Match<br>(e)</div><div class='respDivR'>No Match<br>(i)</div></div></div>","i","TARGET","3","trustrating_stim/white_mw092.bmp,trustrating_stim/white_mw012.bmp,trustrating_stim/white_mw010.bmp","0,1,1","noMatchOutcome","i","4500","trustrating_stim/white_mw012.bmp","red","Keep","REAL","1"
"html-keyboard-response","154","367915","0.0-7.0-5.23","63e576170eb086a90644efb4","bdp_wmem","Mon Mar 13 2023 00:13:48 GMT-0400 (Eastern Daylight Time)","591680","Match,No Match","","null","","","","","","<div class='trialBorder'><div class='vertical-center'><img src='img/correct.jpg'></div><div class='respDiv'><div class='respDivL'>Match<br>(e)</div><div class='respDivR'><font style='color:orange'>No Match<br>(i)</font></div></div></div>","null","FEEDBACK","","","","","","","","","","",""
"html-keyboard-response","155","368418","0.0-7.0-1.24","63e576170eb086a90644efb4","bdp_wmem","Mon Mar 13 2023 00:13:48 GMT-0400 (Eastern Daylight Time)","591680","Match,No Match","","null","","","","","","<div class='trialBorder'><div class='vertical-center'><img src='img/fixation2_sml.jpg'</img></div></div>","null","FIX","","","","","","","","","","",""
"html-keyboard-response","156","372922","0.0-7.0-2.24","63e576170eb086a90644efb4","bdp_wmem","Mon Mar 13 2023 00:13:48 GMT-0400 (Eastern Daylight Time)","591680","Match,No Match","","null","","","","","","<div class='trialBorder'><div class='vertical-center'><img style='vertical-align:center; align:center' src='img/fixation2_sml.jpg'></div><div class='arrayDiv3'><div class='tl'><img class='introPic' src='trustrating_stim/white_mw091.bmp'><br><font color='green'><strong>Share</strong></font></div><div class='tc'><img class='introPic' src='trustrating_stim/white_mw092.bmp'><br><font color='red'><strong>Keep</strong></font></div><div class='tr'><img class='introPic' src='trustrating_stim/white_mw012.bmp'><br><font color='red'><strong>Keep</strong></font></div></div></div>","null","ARRAY","3","trustrating_stim/white_mw091.bmp,trustrating_stim/white_mw092.bmp,trustrating_stim/white_mw012.bmp","1,0,0","Match","e","4500","","","","",""
"html-keyboard-response","157","376924","0.0-7.0-3.24","63e576170eb086a90644efb4","bdp_wmem","Mon Mar 13 2023 00:13:48 GMT-0400 (Eastern Daylight Time)","591680","Match,No Match","","null","","","","","","<div class='trialBorder'><div class='vertical-center'><img src='img/fixation2_sml.jpg'</img></div></div>","null","DELAY","","","","","","","","","","",""
"html-keyboard-response","158","378484","0.0-7.0-4.24","63e576170eb086a90644efb4","bdp_wmem","Mon Mar 13 2023 00:13:48 GMT-0400 (Eastern Daylight Time)","591680","Match,No Match","","1557","","","","","","<div class='trialBorder'><div class='targDiv'><div class='tc'><img class='introPic' src='trustrating_stim/white_mw092.bmp'><br><font color='red'><strong>Keep</strong></font></div></div><div class='respDiv'><div class='respDivL'>Match<br>(e)</div><div class='respDivR'>No Match<br>(i)</div></div></div>","e","TARGET","3","trustrating_stim/white_mw091.bmp,trustrating_stim/white_mw092.bmp,trustrating_stim/white_mw012.bmp","1,0,0","Match","e","4500","trustrating_stim/white_mw092.bmp","red","Keep","REAL","1"
"html-keyboard-response","159","378986","0.0-7.0-5.24","63e576170eb086a90644efb4","bdp_wmem","Mon Mar 13 2023 00:13:48 GMT-0400 (Eastern Daylight Time)","591680","Match,No Match","","null","","","","","","<div class='trialBorder'><div class='vertical-center'><img src='img/correct.jpg'></div><div class='respDiv'><div class='respDivL'><font style='color:orange'>Match<br>(e)</font></div><div class='respDivR'>No Match<br>(i)</div></div></div>","null","FEEDBACK","","","","","","","","","","",""
"html-keyboard-response","160","379489","0.0-7.0-1.25","63e576170eb086a90644efb4","bdp_wmem","Mon Mar 13 2023 00:13:48 GMT-0400 (Eastern Daylight Time)","591680","Match,No Match","","null","","","","","","<div class='trialBorder'><div class='vertical-center'><img src='img/fixation2_sml.jpg'</img></div></div>","null","FIX","","","","","","","","","","",""
"html-keyboard-response","161","382492","0.0-7.0-2.25","63e576170eb086a90644efb4","bdp_wmem","Mon Mar 13 2023 00:13:48 GMT-0400 (Eastern Daylight Time)","591680","Match,No Match","","null","","","","","","<div class='trialBorder'><div class='vertical-center'><img style='vertical-align:center; align:center' src='img/fixation2_sml.jpg'></div><div class='arrayDiv2'><div class='tl'><img class='introPic' src='trustrating_stim/white_mw010.bmp'><br><font color='red'><strong>Keep</strong></font></div><div class='tr'><img class='introPic' src='trustrating_stim/white_mw003.bmp'><br><font color='green'><strong>Share</strong></font></div></div></div>","null","ARRAY","2","trustrating_stim/white_mw010.bmp,trustrating_stim/white_mw003.bmp","0,1","Match","e","3000","","","","",""
"html-keyboard-response","162","386494","0.0-7.0-3.25","63e576170eb086a90644efb4","bdp_wmem","Mon Mar 13 2023 00:13:48 GMT-0400 (Eastern Daylight Time)","591680","Match,No Match","","null","","","","","","<div class='trialBorder'><div class='vertical-center'><img src='img/fixation2_sml.jpg'</img></div></div>","null","DELAY","","","","","","","","","","",""
"html-keyboard-response","163","388124","0.0-7.0-4.25","63e576170eb086a90644efb4","bdp_wmem","Mon Mar 13 2023 00:13:48 GMT-0400 (Eastern Daylight Time)","591680","Match,No Match","","1626","","","","","","<div class='trialBorder'><div class='targDiv'><div class='tc'><img class='introPic' src='trustrating_stim/white_mw003.bmp'><br><font color='green'><strong>Share</strong></font></div></div><div class='respDiv'><div class='respDivL'>Match<br>(e)</div><div class='respDivR'>No Match<br>(i)</div></div></div>","e","TARGET","2","trustrating_stim/white_mw010.bmp,trustrating_stim/white_mw003.bmp","0,1","Match","e","3000","trustrating_stim/white_mw003.bmp","green","Share","REAL","1"
"html-keyboard-response","164","388627","0.0-7.0-5.25","63e576170eb086a90644efb4","bdp_wmem","Mon Mar 13 2023 00:13:48 GMT-0400 (Eastern Daylight Time)","591680","Match,No Match","","null","","","","","","<div class='trialBorder'><div class='vertical-center'><img src='img/correct.jpg'></div><div class='respDiv'><div class='respDivL'><font style='color:orange'>Match<br>(e)</font></div><div class='respDivR'>No Match<br>(i)</div></div></div>","null","FEEDBACK","","","","","","","","","","",""
"html-keyboard-response","165","389129","0.0-7.0-1.26","63e576170eb086a90644efb4","bdp_wmem","Mon Mar 13 2023 00:13:48 GMT-0400 (Eastern Daylight Time)","591680","Match,No Match","","null","","","","","","<div class='trialBorder'><div class='vertical-center'><img src='img/fixation2_sml.jpg'</img></div></div>","null","FIX","","","","","","","","","","",""
"html-keyboard-response","166","393632","0.0-7.0-2.26","63e576170eb086a90644efb4","bdp_wmem","Mon Mar 13 2023 00:13:48 GMT-0400 (Eastern Daylight Time)","591680","Match,No Match","","null","","","","","","<div class='trialBorder'><div class='vertical-center'><img style='vertical-align:center; align:center' src='img/fixation2_sml.jpg'></div><div class='arrayDiv3'><div class='tl'><img class='introPic' src='trustrating_stim/white_mw038.bmp'><br><font color='red'><strong>Keep</strong></font></div><div class='tc'><img class='introPic' src='trustrating_stim/white_mw078.bmp'><br><font color='green'><strong>Share</strong></font></div><div class='tr'><img class='introPic' src='trustrating_stim/white_mw003.bmp'><br><font color='red'><strong>Keep</strong></font></div></div></div>","null","ARRAY","3","trustrating_stim/white_mw038.bmp,trustrating_stim/white_mw078.bmp,trustrating_stim/white_mw003.bmp","0,1,0","noMatchOutcome","i","4500","","","","",""
"html-keyboard-response","167","397636","0.0-7.0-3.26","63e576170eb086a90644efb4","bdp_wmem","Mon Mar 13 2023 00:13:48 GMT-0400 (Eastern Daylight Time)","591680","Match,No Match","","null","","","","","","<div class='trialBorder'><div class='vertical-center'><img src='img/fixation2_sml.jpg'</img></div></div>","null","DELAY","","","","","","","","","","",""
"html-keyboard-response","168","399456","0.0-7.0-4.26","63e576170eb086a90644efb4","bdp_wmem","Mon Mar 13 2023 00:13:48 GMT-0400 (Eastern Daylight Time)","591680","Match,No Match","","1819","","","","","","<div class='trialBorder'><div class='targDiv'><div class='tc'><img class='introPic' src='trustrating_stim/white_mw038.bmp'><br><font color='green'><strong>Share</strong></font></div></div><div class='respDiv'><div class='respDivL'>Match<br>(e)</div><div class='respDivR'>No Match<br>(i)</div></div></div>","i","TARGET","3","trustrating_stim/white_mw038.bmp,trustrating_stim/white_mw078.bmp,trustrating_stim/white_mw003.bmp","0,1,0","noMatchOutcome","i","4500","trustrating_stim/white_mw038.bmp","green","Share","REAL","1"
"html-keyboard-response","169","399956","0.0-7.0-5.26","63e576170eb086a90644efb4","bdp_wmem","Mon Mar 13 2023 00:13:48 GMT-0400 (Eastern Daylight Time)","591680","Match,No Match","","null","","","","","","<div class='trialBorder'><div class='vertical-center'><img src='img/correct.jpg'></div><div class='respDiv'><div class='respDivL'>Match<br>(e)</div><div class='respDivR'><font style='color:orange'>No Match<br>(i)</font></div></div></div>","null","FEEDBACK","","","","","","","","","","",""
"html-keyboard-response","170","400458","0.0-7.0-1.27","63e576170eb086a90644efb4","bdp_wmem","Mon Mar 13 2023 00:13:48 GMT-0400 (Eastern Daylight Time)","591680","Match,No Match","","null","","","","","","<div class='trialBorder'><div class='vertical-center'><img src='img/fixation2_sml.jpg'</img></div></div>","null","FIX","","","","","","","","","","",""
"html-keyboard-response","171","401959","0.0-7.0-2.27","63e576170eb086a90644efb4","bdp_wmem","Mon Mar 13 2023 00:13:48 GMT-0400 (Eastern Daylight Time)","591680","Match,No Match","","null","","","","","","<div class='trialBorder'><div class='vertical-center'><img style='vertical-align:center; align:center' src='img/fixation2_sml.jpg'></div><div class='arrayDiv1'><div class='tc'><img class='introPic' src='trustrating_stim/white_mw085.bmp'><br><font color='red'><strong>Keep</strong></font></div></div></div>","null","ARRAY","1","trustrating_stim/white_mw085.bmp","0","noMatchFace","i","1500","","","","",""
"html-keyboard-response","172","405961","0.0-7.0-3.27","63e576170eb086a90644efb4","bdp_wmem","Mon Mar 13 2023 00:13:48 GMT-0400 (Eastern Daylight Time)","591680","Match,No Match","","null","","","","","","<div class='trialBorder'><div class='vertical-center'><img src='img/fixation2_sml.jpg'</img></div></div>","null","DELAY","","","","","","","","","","",""
"html-keyboard-response","173","407069","0.0-7.0-4.27","63e576170eb086a90644efb4","bdp_wmem","Mon Mar 13 2023 00:13:48 GMT-0400 (Eastern Daylight Time)","591680","Match,No Match","","1106","","","","","","<div class='trialBorder'><div class='targDiv'><div class='tc'><img class='introPic' src='trustrating_stim/white_mw012.bmp'><br><font color='red'><strong>Keep</strong></font></div></div><div class='respDiv'><div class='respDivL'>Match<br>(e)</div><div class='respDivR'>No Match<br>(i)</div></div></div>","i","TARGET","1","trustrating_stim/white_mw085.bmp","0","noMatchFace","i","1500","trustrating_stim/white_mw012.bmp","red","Keep","REAL","1"
"html-keyboard-response","174","407572","0.0-7.0-5.27","63e576170eb086a90644efb4","bdp_wmem","Mon Mar 13 2023 00:13:48 GMT-0400 (Eastern Daylight Time)","591680","Match,No Match","","null","","","","","","<div class='trialBorder'><div class='vertical-center'><img src='img/correct.jpg'></div><div class='respDiv'><div class='respDivL'>Match<br>(e)</div><div class='respDivR'><font style='color:orange'>No Match<br>(i)</font></div></div></div>","null","FEEDBACK","","","","","","","","","","",""
"html-keyboard-response","175","408075","0.0-7.0-1.28","63e576170eb086a90644efb4","bdp_wmem","Mon Mar 13 2023 00:13:48 GMT-0400 (Eastern Daylight Time)","591680","Match,No Match","","null","","","","","","<div class='trialBorder'><div class='vertical-center'><img src='img/fixation2_sml.jpg'</img></div></div>","null","FIX","","","","","","","","","","",""
"html-keyboard-response","176","409578","0.0-7.0-2.28","63e576170eb086a90644efb4","bdp_wmem","Mon Mar 13 2023 00:13:48 GMT-0400 (Eastern Daylight Time)","591680","Match,No Match","","null","","","","","","<div class='trialBorder'><div class='vertical-center'><img style='vertical-align:center; align:center' src='img/fixation2_sml.jpg'></div><div class='arrayDiv1'><div class='tc'><img class='introPic' src='trustrating_stim/white_mw040.bmp'><br><font color='red'><strong>Keep</strong></font></div></div></div>","null","ARRAY","1","trustrating_stim/white_mw040.bmp","0","noMatchOutcome","i","1500","","","","",""
"html-keyboard-response","177","413581","0.0-7.0-3.28","63e576170eb086a90644efb4","bdp_wmem","Mon Mar 13 2023 00:13:48 GMT-0400 (Eastern Daylight Time)","591680","Match,No Match","","null","","","","","","<div class='trialBorder'><div class='vertical-center'><img src='img/fixation2_sml.jpg'</img></div></div>","null","DELAY","","","","","","","","","","",""
"html-keyboard-response","178","414591","0.0-7.0-4.28","63e576170eb086a90644efb4","bdp_wmem","Mon Mar 13 2023 00:13:48 GMT-0400 (Eastern Daylight Time)","591680","Match,No Match","","1010","","","","","","<div class='trialBorder'><div class='targDiv'><div class='tc'><img class='introPic' src='trustrating_stim/white_mw040.bmp'><br><font color='green'><strong>Share</strong></font></div></div><div class='respDiv'><div class='respDivL'>Match<br>(e)</div><div class='respDivR'>No Match<br>(i)</div></div></div>","i","TARGET","1","trustrating_stim/white_mw040.bmp","0","noMatchOutcome","i","1500","trustrating_stim/white_mw040.bmp","green","Share","REAL","1"
"html-keyboard-response","179","415093","0.0-7.0-5.28","63e576170eb086a90644efb4","bdp_wmem","Mon Mar 13 2023 00:13:48 GMT-0400 (Eastern Daylight Time)","591680","Match,No Match","","null","","","","","","<div class='trialBorder'><div class='vertical-center'><img src='img/correct.jpg'></div><div class='respDiv'><div class='respDivL'>Match<br>(e)</div><div class='respDivR'><font style='color:orange'>No Match<br>(i)</font></div></div></div>","null","FEEDBACK","","","","","","","","","","",""
"html-keyboard-response","180","415596","0.0-7.0-1.29","63e576170eb086a90644efb4","bdp_wmem","Mon Mar 13 2023 00:13:48 GMT-0400 (Eastern Daylight Time)","591680","Match,No Match","","null","","","","","","<div class='trialBorder'><div class='vertical-center'><img src='img/fixation2_sml.jpg'</img></div></div>","null","FIX","","","","","","","","","","",""
"html-keyboard-response","181","417099","0.0-7.0-2.29","63e576170eb086a90644efb4","bdp_wmem","Mon Mar 13 2023 00:13:48 GMT-0400 (Eastern Daylight Time)","591680","Match,No Match","","null","","","","","","<div class='trialBorder'><div class='vertical-center'><img style='vertical-align:center; align:center' src='img/fixation2_sml.jpg'></div><div class='arrayDiv1'><div class='tc'><img class='introPic' src='trustrating_stim/white_mw010.bmp'><br><font color='red'><strong>Keep</strong></font></div></div></div>","null","ARRAY","1","trustrating_stim/white_mw010.bmp","0","Match","e","1500","","","","",""
"html-keyboard-response","182","421101","0.0-7.0-3.29","63e576170eb086a90644efb4","bdp_wmem","Mon Mar 13 2023 00:13:48 GMT-0400 (Eastern Daylight Time)","591680","Match,No Match","","null","","","","","","<div class='trialBorder'><div class='vertical-center'><img src='img/fixation2_sml.jpg'</img></div></div>","null","DELAY","","","","","","","","","","",""
"html-keyboard-response","183","422126","0.0-7.0-4.29","63e576170eb086a90644efb4","bdp_wmem","Mon Mar 13 2023 00:13:48 GMT-0400 (Eastern Daylight Time)","591680","Match,No Match","","1021","","","","","","<div class='trialBorder'><div class='targDiv'><div class='tc'><img class='introPic' src='trustrating_stim/white_mw010.bmp'><br><font color='red'><strong>Keep</strong></font></div></div><div class='respDiv'><div class='respDivL'>Match<br>(e)</div><div class='respDivR'>No Match<br>(i)</div></div></div>","e","TARGET","1","trustrating_stim/white_mw010.bmp","0","Match","e","1500","trustrating_stim/white_mw010.bmp","red","Keep","REAL","1"
"html-keyboard-response","184","422629","0.0-7.0-5.29","63e576170eb086a90644efb4","bdp_wmem","Mon Mar 13 2023 00:13:48 GMT-0400 (Eastern Daylight Time)","591680","Match,No Match","","null","","","","","","<div class='trialBorder'><div class='vertical-center'><img src='img/correct.jpg'></div><div class='respDiv'><div class='respDivL'><font style='color:orange'>Match<br>(e)</font></div><div class='respDivR'>No Match<br>(i)</div></div></div>","null","FEEDBACK","","","","","","","","","","",""
"html-keyboard-response","185","423132","0.0-7.0-1.30","63e576170eb086a90644efb4","bdp_wmem","Mon Mar 13 2023 00:13:48 GMT-0400 (Eastern Daylight Time)","591680","Match,No Match","","null","","","","","","<div class='trialBorder'><div class='vertical-center'><img src='img/fixation2_sml.jpg'</img></div></div>","null","FIX","","","","","","","","","","",""
"html-keyboard-response","186","426134","0.0-7.0-2.30","63e576170eb086a90644efb4","bdp_wmem","Mon Mar 13 2023 00:13:48 GMT-0400 (Eastern Daylight Time)","591680","Match,No Match","","null","","","","","","<div class='trialBorder'><div class='vertical-center'><img style='vertical-align:center; align:center' src='img/fixation2_sml.jpg'></div><div class='arrayDiv2'><div class='tl'><img class='introPic' src='trustrating_stim/white_mw085.bmp'><br><font color='green'><strong>Share</strong></font></div><div class='tr'><img class='introPic' src='trustrating_stim/white_mw040.bmp'><br><font color='red'><strong>Keep</strong></font></div></div></div>","null","ARRAY","2","trustrating_stim/white_mw085.bmp,trustrating_stim/white_mw040.bmp","1,0","noMatchFace","i","3000","","","","",""
"html-keyboard-response","187","430137","0.0-7.0-3.30","63e576170eb086a90644efb4","bdp_wmem","Mon Mar 13 2023 00:13:48 GMT-0400 (Eastern Daylight Time)","591680","Match,No Match","","null","","","","","","<div class='trialBorder'><div class='vertical-center'><img src='img/fixation2_sml.jpg'</img></div></div>","null","DELAY","","","","","","","","","","",""
