"trial_type","trial_index","time_elapsed","internal_node_id","subject_id","task","startTime","totalTime","labels","view_history","rt","event","trial","time","trialtype","success","stimulus","key_press","stimType","arraySize","arrayFaces","arrayOutcomes","matchType","corrResp","arrayDur","targFace","targCol","targOutcome","trialType","corr"
"pavlovia","0","2","0.0-0.0","611d4519393cabb9a4a46ebd","bdp_wmem","Wed Mar 15 2023 23:37:21 GMT-0400 (Eastern Daylight Time)","638065","Match,No Match","","","","","","","","","","","","","","","","","","","","",""
"instructions","1","22662","0.0-1.0","611d4519393cabb9a4a46ebd","bdp_wmem","Wed Mar 15 2023 23:37:21 GMT-0400 (Eastern Daylight Time)","638065","Match,No Match","[{""page_index"":0,""viewing_time"":22660}]","22660","","","","","","","","","","","","","","","","","","",""
"","","","","611d4519393cabb9a4a46ebd","bdp_wmem","Wed Mar 15 2023 23:37:21 GMT-0400 (Eastern Daylight Time)","638065","Match,No Match","","","fullscreenenter","2","25816","fullscreenenter","","","","","","","","","","","","","","",""
"fullscreen","2","26808","0.0-2.0","611d4519393cabb9a4a46ebd","bdp_wmem","Wed Mar 15 2023 23:37:21 GMT-0400 (Eastern Daylight Time)","638065","Match,No Match","","","","","","","true","","","","","","","","","","","","","",""
"instructions","3","120236","0.0-4.0","611d4519393cabb9a4a46ebd","bdp_wmem","Wed Mar 15 2023 23:37:21 GMT-0400 (Eastern Daylight Time)","638065","Match,No Match","[{""page_index"":0,""viewing_time"":35165},{""page_index"":1,""viewing_time"":28157},{""page_index"":2,""viewing_time"":16543},{""page_index"":3,""viewing_time"":6297},{""page_index"":4,""viewing_time"":7265}]","93427","","","","","","","","","","","","","","","","","","",""
"html-keyboard-response","4","120737","0.0-5.0-1.0","611d4519393cabb9a4a46ebd","bdp_wmem","Wed Mar 15 2023 23:37:21 GMT-0400 (Eastern Daylight Time)","638065","Match,No Match","","null","","","","","","<div class='trialBorder'><div class='vertical-center'><img src='img/fixation2_sml.jpg'</img></div></div>","null","FIX","","","","","","","","","","",""
"html-keyboard-response","5","125240","0.0-5.0-2.0","611d4519393cabb9a4a46ebd","bdp_wmem","Wed Mar 15 2023 23:37:21 GMT-0400 (Eastern Daylight Time)","638065","Match,No Match","","null","","","","","","<div class='trialBorder'><div class='vertical-center'><img style='vertical-align:center; align:center' src='img/fixation2_sml.jpg'></div><div class='arrayDiv3'><div class='tl'><img class='introPic' src='trustrating_stim/white_mw091.bmp'><br><font color='green'><strong>Share</strong></font></div><div class='tc'><img class='introPic' src='trustrating_stim/white_mw070.bmp'><br><font color='red'><strong>Keep</strong></font></div><div class='tr'><img class='introPic' src='trustrating_stim/white_mw012.bmp'><br><font color='red'><strong>Keep</strong></font></div></div></div>","null","ARRAY","3","trustrating_stim/white_mw091.bmp,trustrating_stim/white_mw070.bmp,trustrating_stim/white_mw012.bmp","1,0,0","Match","e","4500","","","","",""
"html-keyboard-response","6","129240","0.0-5.0-3.0","611d4519393cabb9a4a46ebd","bdp_wmem","Wed Mar 15 2023 23:37:21 GMT-0400 (Eastern Daylight Time)","638065","Match,No Match","","null","","","","","","<div class='trialBorder'><div class='vertical-center'><img src='img/fixation2_sml.jpg'</img></div></div>","null","DELAY","","","","","","","","","","",""
"html-keyboard-response","7","133670","0.0-5.0-4.0","611d4519393cabb9a4a46ebd","bdp_wmem","Wed Mar 15 2023 23:37:21 GMT-0400 (Eastern Daylight Time)","638065","Match,No Match","","4429","","","","","","<div class='trialBorder'><div class='targDiv'><div class='tc'><img class='introPic' src='trustrating_stim/white_mw012.bmp'><br><font color='red'><strong>Keep</strong></font></div></div><div class='respDiv'><div class='respDivL'>Match<br>(e)</div><div class='respDivR'>No Match<br>(i)</div></div></div>","e","TARGET","3","trustrating_stim/white_mw091.bmp,trustrating_stim/white_mw070.bmp,trustrating_stim/white_mw012.bmp","1,0,0","Match","e","4500","trustrating_stim/white_mw012.bmp","red","Keep","PRACTICE","1"
"html-keyboard-response","8","134171","0.0-5.0-5.0","611d4519393cabb9a4a46ebd","bdp_wmem","Wed Mar 15 2023 23:37:21 GMT-0400 (Eastern Daylight Time)","638065","Match,No Match","","null","","","","","","<div class='trialBorder'><div class='vertical-center'><img src='img/correct.jpg'></div><div class='respDiv'><div class='respDivL'><font style='color:orange'>Match<br>(e)</font></div><div class='respDivR'>No Match<br>(i)</div></div></div>","null","FEEDBACK","","","","","","","","","","",""
"html-keyboard-response","9","134673","0.0-5.0-1.1","611d4519393cabb9a4a46ebd","bdp_wmem","Wed Mar 15 2023 23:37:21 GMT-0400 (Eastern Daylight Time)","638065","Match,No Match","","null","","","","","","<div class='trialBorder'><div class='vertical-center'><img src='img/fixation2_sml.jpg'</img></div></div>","null","FIX","","","","","","","","","","",""
"html-keyboard-response","10","139174","0.0-5.0-2.1","611d4519393cabb9a4a46ebd","bdp_wmem","Wed Mar 15 2023 23:37:21 GMT-0400 (Eastern Daylight Time)","638065","Match,No Match","","null","","","","","","<div class='trialBorder'><div class='vertical-center'><img style='vertical-align:center; align:center' src='img/fixation2_sml.jpg'></div><div class='arrayDiv3'><div class='tl'><img class='introPic' src='trustrating_stim/white_mw092.bmp'><br><font color='red'><strong>Keep</strong></font></div><div class='tc'><img class='introPic' src='trustrating_stim/white_mw012.bmp'><br><font color='green'><strong>Share</strong></font></div><div class='tr'><img class='introPic' src='trustrating_stim/white_mw042.bmp'><br><font color='red'><strong>Keep</strong></font></div></div></div>","null","ARRAY","3","trustrating_stim/white_mw092.bmp,trustrating_stim/white_mw012.bmp,trustrating_stim/white_mw042.bmp","0,1,0","noMatchOutcome","i","4500","","","","",""
"html-keyboard-response","11","143176","0.0-5.0-3.1","611d4519393cabb9a4a46ebd","bdp_wmem","Wed Mar 15 2023 23:37:21 GMT-0400 (Eastern Daylight Time)","638065","Match,No Match","","null","","","","","","<div class='trialBorder'><div class='vertical-center'><img src='img/fixation2_sml.jpg'</img></div></div>","null","DELAY","","","","","","","","","","",""
"html-keyboard-response","12","145999","0.0-5.0-4.1","611d4519393cabb9a4a46ebd","bdp_wmem","Wed Mar 15 2023 23:37:21 GMT-0400 (Eastern Daylight Time)","638065","Match,No Match","","2822","","","","","","<div class='trialBorder'><div class='targDiv'><div class='tc'><img class='introPic' src='trustrating_stim/white_mw042.bmp'><br><font color='green'><strong>Share</strong></font></div></div><div class='respDiv'><div class='respDivL'>Match<br>(e)</div><div class='respDivR'>No Match<br>(i)</div></div></div>","i","TARGET","3","trustrating_stim/white_mw092.bmp,trustrating_stim/white_mw012.bmp,trustrating_stim/white_mw042.bmp","0,1,0","noMatchOutcome","i","4500","trustrating_stim/white_mw042.bmp","green","Share","PRACTICE","1"
"html-keyboard-response","13","146501","0.0-5.0-5.1","611d4519393cabb9a4a46ebd","bdp_wmem","Wed Mar 15 2023 23:37:21 GMT-0400 (Eastern Daylight Time)","638065","Match,No Match","","null","","","","","","<div class='trialBorder'><div class='vertical-center'><img src='img/correct.jpg'></div><div class='respDiv'><div class='respDivL'>Match<br>(e)</div><div class='respDivR'><font style='color:orange'>No Match<br>(i)</font></div></div></div>","null","FEEDBACK","","","","","","","","","","",""
"html-keyboard-response","14","147003","0.0-5.0-1.2","611d4519393cabb9a4a46ebd","bdp_wmem","Wed Mar 15 2023 23:37:21 GMT-0400 (Eastern Daylight Time)","638065","Match,No Match","","null","","","","","","<div class='trialBorder'><div class='vertical-center'><img src='img/fixation2_sml.jpg'</img></div></div>","null","FIX","","","","","","","","","","",""
"html-keyboard-response","15","148504","0.0-5.0-2.2","611d4519393cabb9a4a46ebd","bdp_wmem","Wed Mar 15 2023 23:37:21 GMT-0400 (Eastern Daylight Time)","638065","Match,No Match","","null","","","","","","<div class='trialBorder'><div class='vertical-center'><img style='vertical-align:center; align:center' src='img/fixation2_sml.jpg'></div><div class='arrayDiv1'><div class='tc'><img class='introPic' src='trustrating_stim/white_mw040.bmp'><br><font color='red'><strong>Keep</strong></font></div></div></div>","null","ARRAY","1","trustrating_stim/white_mw040.bmp","0","noMatchFace","i","1500","","","","",""
"html-keyboard-response","16","152506","0.0-5.0-3.2","611d4519393cabb9a4a46ebd","bdp_wmem","Wed Mar 15 2023 23:37:21 GMT-0400 (Eastern Daylight Time)","638065","Match,No Match","","null","","","","","","<div class='trialBorder'><div class='vertical-center'><img src='img/fixation2_sml.jpg'</img></div></div>","null","DELAY","","","","","","","","","","",""
"html-keyboard-response","17","154551","0.0-5.0-4.2","611d4519393cabb9a4a46ebd","bdp_wmem","Wed Mar 15 2023 23:37:21 GMT-0400 (Eastern Daylight Time)","638065","Match,No Match","","2044","","","","","","<div class='trialBorder'><div class='targDiv'><div class='tc'><img class='introPic' src='trustrating_stim/white_mw012.bmp'><br><font color='red'><strong>Keep</strong></font></div></div><div class='respDiv'><div class='respDivL'>Match<br>(e)</div><div class='respDivR'>No Match<br>(i)</div></div></div>","i","TARGET","1","trustrating_stim/white_mw040.bmp","0","noMatchFace","i","1500","trustrating_stim/white_mw012.bmp","red","Keep","PRACTICE","1"
"html-keyboard-response","18","155052","0.0-5.0-5.2","611d4519393cabb9a4a46ebd","bdp_wmem","Wed Mar 15 2023 23:37:21 GMT-0400 (Eastern Daylight Time)","638065","Match,No Match","","null","","","","","","<div class='trialBorder'><div class='vertical-center'><img src='img/correct.jpg'></div><div class='respDiv'><div class='respDivL'>Match<br>(e)</div><div class='respDivR'><font style='color:orange'>No Match<br>(i)</font></div></div></div>","null","FEEDBACK","","","","","","","","","","",""
"html-keyboard-response","19","155553","0.0-5.0-1.3","611d4519393cabb9a4a46ebd","bdp_wmem","Wed Mar 15 2023 23:37:21 GMT-0400 (Eastern Daylight Time)","638065","Match,No Match","","null","","","","","","<div class='trialBorder'><div class='vertical-center'><img src='img/fixation2_sml.jpg'</img></div></div>","null","FIX","","","","","","","","","","",""
"html-keyboard-response","20","158554","0.0-5.0-2.3","611d4519393cabb9a4a46ebd","bdp_wmem","Wed Mar 15 2023 23:37:21 GMT-0400 (Eastern Daylight Time)","638065","Match,No Match","","null","","","","","","<div class='trialBorder'><div class='vertical-center'><img style='vertical-align:center; align:center' src='img/fixation2_sml.jpg'></div><div class='arrayDiv2'><div class='tl'><img class='introPic' src='trustrating_stim/white_mw010.bmp'><br><font color='red'><strong>Keep</strong></font></div><div class='tr'><img class='introPic' src='trustrating_stim/white_mw085.bmp'><br><font color='green'><strong>Share</strong></font></div></div></div>","null","ARRAY","2","trustrating_stim/white_mw010.bmp,trustrating_stim/white_mw085.bmp","0,1","Match","e","3000","","","","",""
"html-keyboard-response","21","162555","0.0-5.0-3.3","611d4519393cabb9a4a46ebd","bdp_wmem","Wed Mar 15 2023 23:37:21 GMT-0400 (Eastern Daylight Time)","638065","Match,No Match","","null","","","","","","<div class='trialBorder'><div class='vertical-center'><img src='img/fixation2_sml.jpg'</img></div></div>","null","DELAY","","","","","","","","","","",""
"html-keyboard-response","22","164100","0.0-5.0-4.3","611d4519393cabb9a4a46ebd","bdp_wmem","Wed Mar 15 2023 23:37:21 GMT-0400 (Eastern Daylight Time)","638065","Match,No Match","","1544","","","","","","<div class='trialBorder'><div class='targDiv'><div class='tc'><img class='introPic' src='trustrating_stim/white_mw085.bmp'><br><font color='green'><strong>Share</strong></font></div></div><div class='respDiv'><div class='respDivL'>Match<br>(e)</div><div class='respDivR'>No Match<br>(i)</div></div></div>","e","TARGET","2","trustrating_stim/white_mw010.bmp,trustrating_stim/white_mw085.bmp","0,1","Match","e","3000","trustrating_stim/white_mw085.bmp","green","Share","PRACTICE","1"
"html-keyboard-response","23","164602","0.0-5.0-5.3","611d4519393cabb9a4a46ebd","bdp_wmem","Wed Mar 15 2023 23:37:21 GMT-0400 (Eastern Daylight Time)","638065","Match,No Match","","null","","","","","","<div class='trialBorder'><div class='vertical-center'><img src='img/correct.jpg'></div><div class='respDiv'><div class='respDivL'><font style='color:orange'>Match<br>(e)</font></div><div class='respDivR'>No Match<br>(i)</div></div></div>","null","FEEDBACK","","","","","","","","","","",""
"html-keyboard-response","24","165104","0.0-5.0-1.4","611d4519393cabb9a4a46ebd","bdp_wmem","Wed Mar 15 2023 23:37:21 GMT-0400 (Eastern Daylight Time)","638065","Match,No Match","","null","","","","","","<div class='trialBorder'><div class='vertical-center'><img src='img/fixation2_sml.jpg'</img></div></div>","null","FIX","","","","","","","","","","",""
"html-keyboard-response","25","166605","0.0-5.0-2.4","611d4519393cabb9a4a46ebd","bdp_wmem","Wed Mar 15 2023 23:37:21 GMT-0400 (Eastern Daylight Time)","638065","Match,No Match","","null","","","","","","<div class='trialBorder'><div class='vertical-center'><img style='vertical-align:center; align:center' src='img/fixation2_sml.jpg'></div><div class='arrayDiv1'><div class='tc'><img class='introPic' src='trustrating_stim/white_mw003.bmp'><br><font color='green'><strong>Share</strong></font></div></div></div>","null","ARRAY","1","trustrating_stim/white_mw003.bmp","1","Match","e","1500","","","","",""
"html-keyboard-response","26","170607","0.0-5.0-3.4","611d4519393cabb9a4a46ebd","bdp_wmem","Wed Mar 15 2023 23:37:21 GMT-0400 (Eastern Daylight Time)","638065","Match,No Match","","null","","","","","","<div class='trialBorder'><div class='vertical-center'><img src='img/fixation2_sml.jpg'</img></div></div>","null","DELAY","","","","","","","","","","",""
"html-keyboard-response","27","171664","0.0-5.0-4.4","611d4519393cabb9a4a46ebd","bdp_wmem","Wed Mar 15 2023 23:37:21 GMT-0400 (Eastern Daylight Time)","638065","Match,No Match","","1057","","","","","","<div class='trialBorder'><div class='targDiv'><div class='tc'><img class='introPic' src='trustrating_stim/white_mw003.bmp'><br><font color='green'><strong>Share</strong></font></div></div><div class='respDiv'><div class='respDivL'>Match<br>(e)</div><div class='respDivR'>No Match<br>(i)</div></div></div>","e","TARGET","1","trustrating_stim/white_mw003.bmp","1","Match","e","1500","trustrating_stim/white_mw003.bmp","green","Share","PRACTICE","1"
"html-keyboard-response","28","172165","0.0-5.0-5.4","611d4519393cabb9a4a46ebd","bdp_wmem","Wed Mar 15 2023 23:37:21 GMT-0400 (Eastern Daylight Time)","638065","Match,No Match","","null","","","","","","<div class='trialBorder'><div class='vertical-center'><img src='img/correct.jpg'></div><div class='respDiv'><div class='respDivL'><font style='color:orange'>Match<br>(e)</font></div><div class='respDivR'>No Match<br>(i)</div></div></div>","null","FEEDBACK","","","","","","","","","","",""
"html-keyboard-response","29","172667","0.0-5.0-1.5","611d4519393cabb9a4a46ebd","bdp_wmem","Wed Mar 15 2023 23:37:21 GMT-0400 (Eastern Daylight Time)","638065","Match,No Match","","null","","","","","","<div class='trialBorder'><div class='vertical-center'><img src='img/fixation2_sml.jpg'</img></div></div>","null","FIX","","","","","","","","","","",""
"html-keyboard-response","30","175669","0.0-5.0-2.5","611d4519393cabb9a4a46ebd","bdp_wmem","Wed Mar 15 2023 23:37:21 GMT-0400 (Eastern Daylight Time)","638065","Match,No Match","","null","","","","","","<div class='trialBorder'><div class='vertical-center'><img style='vertical-align:center; align:center' src='img/fixation2_sml.jpg'></div><div class='arrayDiv2'><div class='tl'><img class='introPic' src='trustrating_stim/white_mw070.bmp'><br><font color='green'><strong>Share</strong></font></div><div class='tr'><img class='introPic' src='trustrating_stim/white_mw091.bmp'><br><font color='red'><strong>Keep</strong></font></div></div></div>","null","ARRAY","2","trustrating_stim/white_mw070.bmp,trustrating_stim/white_mw091.bmp","1,0","noMatchFace","i","3000","","","","",""
"html-keyboard-response","31","179670","0.0-5.0-3.5","611d4519393cabb9a4a46ebd","bdp_wmem","Wed Mar 15 2023 23:37:21 GMT-0400 (Eastern Daylight Time)","638065","Match,No Match","","null","","","","","","<div class='trialBorder'><div class='vertical-center'><img src='img/fixation2_sml.jpg'</img></div></div>","null","DELAY","","","","","","","","","","",""
"html-keyboard-response","32","180693","0.0-5.0-4.5","611d4519393cabb9a4a46ebd","bdp_wmem","Wed Mar 15 2023 23:37:21 GMT-0400 (Eastern Daylight Time)","638065","Match,No Match","","1022","","","","","","<div class='trialBorder'><div class='targDiv'><div class='tc'><img class='introPic' src='trustrating_stim/white_mw038.bmp'><br><font color='red'><strong>Keep</strong></font></div></div><div class='respDiv'><div class='respDivL'>Match<br>(e)</div><div class='respDivR'>No Match<br>(i)</div></div></div>","i","TARGET","2","trustrating_stim/white_mw070.bmp,trustrating_stim/white_mw091.bmp","1,0","noMatchFace","i","3000","trustrating_stim/white_mw038.bmp","red","Keep","PRACTICE","1"
"html-keyboard-response","33","181194","0.0-5.0-5.5","611d4519393cabb9a4a46ebd","bdp_wmem","Wed Mar 15 2023 23:37:21 GMT-0400 (Eastern Daylight Time)","638065","Match,No Match","","null","","","","","","<div class='trialBorder'><div class='vertical-center'><img src='img/correct.jpg'></div><div class='respDiv'><div class='respDivL'>Match<br>(e)</div><div class='respDivR'><font style='color:orange'>No Match<br>(i)</font></div></div></div>","null","FEEDBACK","","","","","","","","","","",""
"instructions","34","186976","0.0-6.0","611d4519393cabb9a4a46ebd","bdp_wmem","Wed Mar 15 2023 23:37:21 GMT-0400 (Eastern Daylight Time)","638065","Match,No Match","[{""page_index"":0,""viewing_time"":5781}]","5782","","","","","","","","","","","","","","","","","","",""
"html-keyboard-response","35","187478","0.0-7.0-1.0","611d4519393cabb9a4a46ebd","bdp_wmem","Wed Mar 15 2023 23:37:21 GMT-0400 (Eastern Daylight Time)","638065","Match,No Match","","null","","","","","","<div class='trialBorder'><div class='vertical-center'><img src='img/fixation2_sml.jpg'</img></div></div>","null","FIX","","","","","","","","","","",""
"html-keyboard-response","36","188979","0.0-7.0-2.0","611d4519393cabb9a4a46ebd","bdp_wmem","Wed Mar 15 2023 23:37:21 GMT-0400 (Eastern Daylight Time)","638065","Match,No Match","","null","","","","","","<div class='trialBorder'><div class='vertical-center'><img style='vertical-align:center; align:center' src='img/fixation2_sml.jpg'></div><div class='arrayDiv1'><div class='tc'><img class='introPic' src='trustrating_stim/white_mw038.bmp'><br><font color='red'><strong>Keep</strong></font></div></div></div>","null","ARRAY","1","trustrating_stim/white_mw038.bmp","0","Match","e","1500","","","","",""
"html-keyboard-response","37","192981","0.0-7.0-3.0","611d4519393cabb9a4a46ebd","bdp_wmem","Wed Mar 15 2023 23:37:21 GMT-0400 (Eastern Daylight Time)","638065","Match,No Match","","null","","","","","","<div class='trialBorder'><div class='vertical-center'><img src='img/fixation2_sml.jpg'</img></div></div>","null","DELAY","","","","","","","","","","",""
"html-keyboard-response","38","194384","0.0-7.0-4.0","611d4519393cabb9a4a46ebd","bdp_wmem","Wed Mar 15 2023 23:37:21 GMT-0400 (Eastern Daylight Time)","638065","Match,No Match","","1403","","","","","","<div class='trialBorder'><div class='targDiv'><div class='tc'><img class='introPic' src='trustrating_stim/white_mw038.bmp'><br><font color='red'><strong>Keep</strong></font></div></div><div class='respDiv'><div class='respDivL'>Match<br>(e)</div><div class='respDivR'>No Match<br>(i)</div></div></div>","e","TARGET","1","trustrating_stim/white_mw038.bmp","0","Match","e","1500","trustrating_stim/white_mw038.bmp","red","Keep","REAL","1"
"html-keyboard-response","39","194885","0.0-7.0-5.0","611d4519393cabb9a4a46ebd","bdp_wmem","Wed Mar 15 2023 23:37:21 GMT-0400 (Eastern Daylight Time)","638065","Match,No Match","","null","","","","","","<div class='trialBorder'><div class='vertical-center'><img src='img/correct.jpg'></div><div class='respDiv'><div class='respDivL'><font style='color:orange'>Match<br>(e)</font></div><div class='respDivR'>No Match<br>(i)</div></div></div>","null","FEEDBACK","","","","","","","","","","",""
"html-keyboard-response","40","195387","0.0-7.0-1.1","611d4519393cabb9a4a46ebd","bdp_wmem","Wed Mar 15 2023 23:37:21 GMT-0400 (Eastern Daylight Time)","638065","Match,No Match","","null","","","","","","<div class='trialBorder'><div class='vertical-center'><img src='img/fixation2_sml.jpg'</img></div></div>","null","FIX","","","","","","","","","","",""
"html-keyboard-response","41","198389","0.0-7.0-2.1","611d4519393cabb9a4a46ebd","bdp_wmem","Wed Mar 15 2023 23:37:21 GMT-0400 (Eastern Daylight Time)","638065","Match,No Match","","null","","","","","","<div class='trialBorder'><div class='vertical-center'><img style='vertical-align:center; align:center' src='img/fixation2_sml.jpg'></div><div class='arrayDiv2'><div class='tl'><img class='introPic' src='trustrating_stim/white_mw012.bmp'><br><font color='red'><strong>Keep</strong></font></div><div class='tr'><img class='introPic' src='trustrating_stim/white_mw070.bmp'><br><font color='green'><strong>Share</strong></font></div></div></div>","null","ARRAY","2","trustrating_stim/white_mw012.bmp,trustrating_stim/white_mw070.bmp","0,1","noMatchOutcome","i","3000","","","","",""
"html-keyboard-response","42","202391","0.0-7.0-3.1","611d4519393cabb9a4a46ebd","bdp_wmem","Wed Mar 15 2023 23:37:21 GMT-0400 (Eastern Daylight Time)","638065","Match,No Match","","null","","","","","","<div class='trialBorder'><div class='vertical-center'><img src='img/fixation2_sml.jpg'</img></div></div>","null","DELAY","","","","","","","","","","",""
"html-keyboard-response","43","204887","0.0-7.0-4.1","611d4519393cabb9a4a46ebd","bdp_wmem","Wed Mar 15 2023 23:37:21 GMT-0400 (Eastern Daylight Time)","638065","Match,No Match","","2496","","","","","","<div class='trialBorder'><div class='targDiv'><div class='tc'><img class='introPic' src='trustrating_stim/white_mw070.bmp'><br><font color='red'><strong>Keep</strong></font></div></div><div class='respDiv'><div class='respDivL'>Match<br>(e)</div><div class='respDivR'>No Match<br>(i)</div></div></div>","i","TARGET","2","trustrating_stim/white_mw012.bmp,trustrating_stim/white_mw070.bmp","0,1","noMatchOutcome","i","3000","trustrating_stim/white_mw070.bmp","red","Keep","REAL","1"
"html-keyboard-response","44","205389","0.0-7.0-5.1","611d4519393cabb9a4a46ebd","bdp_wmem","Wed Mar 15 2023 23:37:21 GMT-0400 (Eastern Daylight Time)","638065","Match,No Match","","null","","","","","","<div class='trialBorder'><div class='vertical-center'><img src='img/correct.jpg'></div><div class='respDiv'><div class='respDivL'>Match<br>(e)</div><div class='respDivR'><font style='color:orange'>No Match<br>(i)</font></div></div></div>","null","FEEDBACK","","","","","","","","","","",""
"html-keyboard-response","45","205889","0.0-7.0-1.2","611d4519393cabb9a4a46ebd","bdp_wmem","Wed Mar 15 2023 23:37:21 GMT-0400 (Eastern Daylight Time)","638065","Match,No Match","","null","","","","","","<div class='trialBorder'><div class='vertical-center'><img src='img/fixation2_sml.jpg'</img></div></div>","null","FIX","","","","","","","","","","",""
"html-keyboard-response","46","210391","0.0-7.0-2.2","611d4519393cabb9a4a46ebd","bdp_wmem","Wed Mar 15 2023 23:37:21 GMT-0400 (Eastern Daylight Time)","638065","Match,No Match","","null","","","","","","<div class='trialBorder'><div class='vertical-center'><img style='vertical-align:center; align:center' src='img/fixation2_sml.jpg'></div><div class='arrayDiv3'><div class='tl'><img class='introPic' src='trustrating_stim/white_mw042.bmp'><br><font color='green'><strong>Share</strong></font></div><div class='tc'><img class='introPic' src='trustrating_stim/white_mw010.bmp'><br><font color='red'><strong>Keep</strong></font></div><div class='tr'><img class='introPic' src='trustrating_stim/white_mw013.bmp'><br><font color='red'><strong>Keep</strong></font></div></div></div>","null","ARRAY","3","trustrating_stim/white_mw042.bmp,trustrating_stim/white_mw010.bmp,trustrating_stim/white_mw013.bmp","1,0,0","noMatchFace","i","4500","","","","",""
"html-keyboard-response","47","214392","0.0-7.0-3.2","611d4519393cabb9a4a46ebd","bdp_wmem","Wed Mar 15 2023 23:37:21 GMT-0400 (Eastern Daylight Time)","638065","Match,No Match","","null","","","","","","<div class='trialBorder'><div class='vertical-center'><img src='img/fixation2_sml.jpg'</img></div></div>","null","DELAY","","","","","","","","","","",""
"html-keyboard-response","48","216661","0.0-7.0-4.2","611d4519393cabb9a4a46ebd","bdp_wmem","Wed Mar 15 2023 23:37:21 GMT-0400 (Eastern Daylight Time)","638065","Match,No Match","","2267","","","","","","<div class='trialBorder'><div class='targDiv'><div class='tc'><img class='introPic' src='trustrating_stim/white_mw038.bmp'><br><font color='red'><strong>Keep</strong></font></div></div><div class='respDiv'><div class='respDivL'>Match<br>(e)</div><div class='respDivR'>No Match<br>(i)</div></div></div>","e","TARGET","3","trustrating_stim/white_mw042.bmp,trustrating_stim/white_mw010.bmp,trustrating_stim/white_mw013.bmp","1,0,0","noMatchFace","i","4500","trustrating_stim/white_mw038.bmp","red","Keep","REAL","0"
"html-keyboard-response","49","217161","0.0-7.0-5.2","611d4519393cabb9a4a46ebd","bdp_wmem","Wed Mar 15 2023 23:37:21 GMT-0400 (Eastern Daylight Time)","638065","Match,No Match","","null","","","","","","<div class='trialBorder'><div class='vertical-center'><img src='img/error.jpg'></div><div class='respDiv'><div class='respDivL'><font style='color:orange'>Match<br>(e)</font></div><div class='respDivR'>No Match<br>(i)</div></div></div>","null","FEEDBACK","","","","","","","","","","",""
"html-keyboard-response","50","217663","0.0-7.0-1.3","611d4519393cabb9a4a46ebd","bdp_wmem","Wed Mar 15 2023 23:37:21 GMT-0400 (Eastern Daylight Time)","638065","Match,No Match","","null","","","","","","<div class='trialBorder'><div class='vertical-center'><img src='img/fixation2_sml.jpg'</img></div></div>","null","FIX","","","","","","","","","","",""
"html-keyboard-response","51","220664","0.0-7.0-2.3","611d4519393cabb9a4a46ebd","bdp_wmem","Wed Mar 15 2023 23:37:21 GMT-0400 (Eastern Daylight Time)","638065","Match,No Match","","null","","","","","","<div class='trialBorder'><div class='vertical-center'><img style='vertical-align:center; align:center' src='img/fixation2_sml.jpg'></div><div class='arrayDiv2'><div class='tl'><img class='introPic' src='trustrating_stim/white_mw013.bmp'><br><font color='red'><strong>Keep</strong></font></div><div class='tr'><img class='introPic' src='trustrating_stim/white_mw003.bmp'><br><font color='green'><strong>Share</strong></font></div></div></div>","null","ARRAY","2","trustrating_stim/white_mw013.bmp,trustrating_stim/white_mw003.bmp","0,1","noMatchOutcome","i","3000","","","","",""
"html-keyboard-response","52","224664","0.0-7.0-3.3","611d4519393cabb9a4a46ebd","bdp_wmem","Wed Mar 15 2023 23:37:21 GMT-0400 (Eastern Daylight Time)","638065","Match,No Match","","null","","","","","","<div class='trialBorder'><div class='vertical-center'><img src='img/fixation2_sml.jpg'</img></div></div>","null","DELAY","","","","","","","","","","",""
"html-keyboard-response","53","226080","0.0-7.0-4.3","611d4519393cabb9a4a46ebd","bdp_wmem","Wed Mar 15 2023 23:37:21 GMT-0400 (Eastern Daylight Time)","638065","Match,No Match","","1415","","","","","","<div class='trialBorder'><div class='targDiv'><div class='tc'><img class='introPic' src='trustrating_stim/white_mw013.bmp'><br><font color='green'><strong>Share</strong></font></div></div><div class='respDiv'><div class='respDivL'>Match<br>(e)</div><div class='respDivR'>No Match<br>(i)</div></div></div>","i","TARGET","2","trustrating_stim/white_mw013.bmp,trustrating_stim/white_mw003.bmp","0,1","noMatchOutcome","i","3000","trustrating_stim/white_mw013.bmp","green","Share","REAL","1"
"html-keyboard-response","54","226581","0.0-7.0-5.3","611d4519393cabb9a4a46ebd","bdp_wmem","Wed Mar 15 2023 23:37:21 GMT-0400 (Eastern Daylight Time)","638065","Match,No Match","","null","","","","","","<div class='trialBorder'><div class='vertical-center'><img src='img/correct.jpg'></div><div class='respDiv'><div class='respDivL'>Match<br>(e)</div><div class='respDivR'><font style='color:orange'>No Match<br>(i)</font></div></div></div>","null","FEEDBACK","","","","","","","","","","",""
"html-keyboard-response","55","227082","0.0-7.0-1.4","611d4519393cabb9a4a46ebd","bdp_wmem","Wed Mar 15 2023 23:37:21 GMT-0400 (Eastern Daylight Time)","638065","Match,No Match","","null","","","","","","<div class='trialBorder'><div class='vertical-center'><img src='img/fixation2_sml.jpg'</img></div></div>","null","FIX","","","","","","","","","","",""
"html-keyboard-response","56","231583","0.0-7.0-2.4","611d4519393cabb9a4a46ebd","bdp_wmem","Wed Mar 15 2023 23:37:21 GMT-0400 (Eastern Daylight Time)","638065","Match,No Match","","null","","","","","","<div class='trialBorder'><div class='vertical-center'><img style='vertical-align:center; align:center' src='img/fixation2_sml.jpg'></div><div class='arrayDiv3'><div class='tl'><img class='introPic' src='trustrating_stim/white_mw003.bmp'><br><font color='red'><strong>Keep</strong></font></div><div class='tc'><img class='introPic' src='trustrating_stim/white_mw013.bmp'><br><font color='green'><strong>Share</strong></font></div><div class='tr'><img class='introPic' src='trustrating_stim/white_mw078.bmp'><br><font color='red'><strong>Keep</strong></font></div></div></div>","null","ARRAY","3","trustrating_stim/white_mw003.bmp,trustrating_stim/white_mw013.bmp,trustrating_stim/white_mw078.bmp","0,1,0","noMatchOutcome","i","4500","","","","",""
"html-keyboard-response","57","235584","0.0-7.0-3.4","611d4519393cabb9a4a46ebd","bdp_wmem","Wed Mar 15 2023 23:37:21 GMT-0400 (Eastern Daylight Time)","638065","Match,No Match","","null","","","","","","<div class='trialBorder'><div class='vertical-center'><img src='img/fixation2_sml.jpg'</img></div></div>","null","DELAY","","","","","","","","","","",""
"html-keyboard-response","58","237197","0.0-7.0-4.4","611d4519393cabb9a4a46ebd","bdp_wmem","Wed Mar 15 2023 23:37:21 GMT-0400 (Eastern Daylight Time)","638065","Match,No Match","","1612","","","","","","<div class='trialBorder'><div class='targDiv'><div class='tc'><img class='introPic' src='trustrating_stim/white_mw013.bmp'><br><font color='red'><strong>Keep</strong></font></div></div><div class='respDiv'><div class='respDivL'>Match<br>(e)</div><div class='respDivR'>No Match<br>(i)</div></div></div>","e","TARGET","3","trustrating_stim/white_mw003.bmp,trustrating_stim/white_mw013.bmp,trustrating_stim/white_mw078.bmp","0,1,0","noMatchOutcome","i","4500","trustrating_stim/white_mw013.bmp","red","Keep","REAL","0"
"html-keyboard-response","59","237697","0.0-7.0-5.4","611d4519393cabb9a4a46ebd","bdp_wmem","Wed Mar 15 2023 23:37:21 GMT-0400 (Eastern Daylight Time)","638065","Match,No Match","","null","","","","","","<div class='trialBorder'><div class='vertical-center'><img src='img/error.jpg'></div><div class='respDiv'><div class='respDivL'><font style='color:orange'>Match<br>(e)</font></div><div class='respDivR'>No Match<br>(i)</div></div></div>","null","FEEDBACK","","","","","","","","","","",""
"html-keyboard-response","60","238198","0.0-7.0-1.5","611d4519393cabb9a4a46ebd","bdp_wmem","Wed Mar 15 2023 23:37:21 GMT-0400 (Eastern Daylight Time)","638065","Match,No Match","","null","","","","","","<div class='trialBorder'><div class='vertical-center'><img src='img/fixation2_sml.jpg'</img></div></div>","null","FIX","","","","","","","","","","",""
"html-keyboard-response","61","239699","0.0-7.0-2.5","611d4519393cabb9a4a46ebd","bdp_wmem","Wed Mar 15 2023 23:37:21 GMT-0400 (Eastern Daylight Time)","638065","Match,No Match","","null","","","","","","<div class='trialBorder'><div class='vertical-center'><img style='vertical-align:center; align:center' src='img/fixation2_sml.jpg'></div><div class='arrayDiv1'><div class='tc'><img class='introPic' src='trustrating_stim/white_mw092.bmp'><br><font color='green'><strong>Share</strong></font></div></div></div>","null","ARRAY","1","trustrating_stim/white_mw092.bmp","1","noMatchOutcome","i","1500","","","","",""
"html-keyboard-response","62","243700","0.0-7.0-3.5","611d4519393cabb9a4a46ebd","bdp_wmem","Wed Mar 15 2023 23:37:21 GMT-0400 (Eastern Daylight Time)","638065","Match,No Match","","null","","","","","","<div class='trialBorder'><div class='vertical-center'><img src='img/fixation2_sml.jpg'</img></div></div>","null","DELAY","","","","","","","","","","",""
"html-keyboard-response","63","244928","0.0-7.0-4.5","611d4519393cabb9a4a46ebd","bdp_wmem","Wed Mar 15 2023 23:37:21 GMT-0400 (Eastern Daylight Time)","638065","Match,No Match","","1227","","","","","","<div class='trialBorder'><div class='targDiv'><div class='tc'><img class='introPic' src='trustrating_stim/white_mw092.bmp'><br><font color='red'><strong>Keep</strong></font></div></div><div class='respDiv'><div class='respDivL'>Match<br>(e)</div><div class='respDivR'>No Match<br>(i)</div></div></div>","i","TARGET","1","trustrating_stim/white_mw092.bmp","1","noMatchOutcome","i","1500","trustrating_stim/white_mw092.bmp","red","Keep","REAL","1"
"html-keyboard-response","64","245430","0.0-7.0-5.5","611d4519393cabb9a4a46ebd","bdp_wmem","Wed Mar 15 2023 23:37:21 GMT-0400 (Eastern Daylight Time)","638065","Match,No Match","","null","","","","","","<div class='trialBorder'><div class='vertical-center'><img src='img/correct.jpg'></div><div class='respDiv'><div class='respDivL'>Match<br>(e)</div><div class='respDivR'><font style='color:orange'>No Match<br>(i)</font></div></div></div>","null","FEEDBACK","","","","","","","","","","",""
"html-keyboard-response","65","245931","0.0-7.0-1.6","611d4519393cabb9a4a46ebd","bdp_wmem","Wed Mar 15 2023 23:37:21 GMT-0400 (Eastern Daylight Time)","638065","Match,No Match","","null","","","","","","<div class='trialBorder'><div class='vertical-center'><img src='img/fixation2_sml.jpg'</img></div></div>","null","FIX","","","","","","","","","","",""
"html-keyboard-response","66","247432","0.0-7.0-2.6","611d4519393cabb9a4a46ebd","bdp_wmem","Wed Mar 15 2023 23:37:21 GMT-0400 (Eastern Daylight Time)","638065","Match,No Match","","null","","","","","","<div class='trialBorder'><div class='vertical-center'><img style='vertical-align:center; align:center' src='img/fixation2_sml.jpg'></div><div class='arrayDiv1'><div class='tc'><img class='introPic' src='trustrating_stim/white_mw078.bmp'><br><font color='green'><strong>Share</strong></font></div></div></div>","null","ARRAY","1","trustrating_stim/white_mw078.bmp","1","Match","e","1500","","","","",""
"html-keyboard-response","67","251433","0.0-7.0-3.6","611d4519393cabb9a4a46ebd","bdp_wmem","Wed Mar 15 2023 23:37:21 GMT-0400 (Eastern Daylight Time)","638065","Match,No Match","","null","","","","","","<div class='trialBorder'><div class='vertical-center'><img src='img/fixation2_sml.jpg'</img></div></div>","null","DELAY","","","","","","","","","","",""
"html-keyboard-response","68","252357","0.0-7.0-4.6","611d4519393cabb9a4a46ebd","bdp_wmem","Wed Mar 15 2023 23:37:21 GMT-0400 (Eastern Daylight Time)","638065","Match,No Match","","922","","","","","","<div class='trialBorder'><div class='targDiv'><div class='tc'><img class='introPic' src='trustrating_stim/white_mw078.bmp'><br><font color='green'><strong>Share</strong></font></div></div><div class='respDiv'><div class='respDivL'>Match<br>(e)</div><div class='respDivR'>No Match<br>(i)</div></div></div>","e","TARGET","1","trustrating_stim/white_mw078.bmp","1","Match","e","1500","trustrating_stim/white_mw078.bmp","green","Share","REAL","1"
"html-keyboard-response","69","252858","0.0-7.0-5.6","611d4519393cabb9a4a46ebd","bdp_wmem","Wed Mar 15 2023 23:37:21 GMT-0400 (Eastern Daylight Time)","638065","Match,No Match","","null","","","","","","<div class='trialBorder'><div class='vertical-center'><img src='img/correct.jpg'></div><div class='respDiv'><div class='respDivL'><font style='color:orange'>Match<br>(e)</font></div><div class='respDivR'>No Match<br>(i)</div></div></div>","null","FEEDBACK","","","","","","","","","","",""
"html-keyboard-response","70","253359","0.0-7.0-1.7","611d4519393cabb9a4a46ebd","bdp_wmem","Wed Mar 15 2023 23:37:21 GMT-0400 (Eastern Daylight Time)","638065","Match,No Match","","null","","","","","","<div class='trialBorder'><div class='vertical-center'><img src='img/fixation2_sml.jpg'</img></div></div>","null","FIX","","","","","","","","","","",""
"html-keyboard-response","71","257859","0.0-7.0-2.7","611d4519393cabb9a4a46ebd","bdp_wmem","Wed Mar 15 2023 23:37:21 GMT-0400 (Eastern Daylight Time)","638065","Match,No Match","","null","","","","","","<div class='trialBorder'><div class='vertical-center'><img style='vertical-align:center; align:center' src='img/fixation2_sml.jpg'></div><div class='arrayDiv3'><div class='tl'><img class='introPic' src='trustrating_stim/white_mw042.bmp'><br><font color='red'><strong>Keep</strong></font></div><div class='tc'><img class='introPic' src='trustrating_stim/white_mw038.bmp'><br><font color='red'><strong>Keep</strong></font></div><div class='tr'><img class='introPic' src='trustrating_stim/white_mw092.bmp'><br><font color='green'><strong>Share</strong></font></div></div></div>","null","ARRAY","3","trustrating_stim/white_mw042.bmp,trustrating_stim/white_mw038.bmp,trustrating_stim/white_mw092.bmp","0,0,1","Match","e","4500","","","","",""
"html-keyboard-response","72","261860","0.0-7.0-3.7","611d4519393cabb9a4a46ebd","bdp_wmem","Wed Mar 15 2023 23:37:21 GMT-0400 (Eastern Daylight Time)","638065","Match,No Match","","null","","","","","","<div class='trialBorder'><div class='vertical-center'><img src='img/fixation2_sml.jpg'</img></div></div>","null","DELAY","","","","","","","","","","",""
"html-keyboard-response","73","264586","0.0-7.0-4.7","611d4519393cabb9a4a46ebd","bdp_wmem","Wed Mar 15 2023 23:37:21 GMT-0400 (Eastern Daylight Time)","638065","Match,No Match","","2725","","","","","","<div class='trialBorder'><div class='targDiv'><div class='tc'><img class='introPic' src='trustrating_stim/white_mw038.bmp'><br><font color='red'><strong>Keep</strong></font></div></div><div class='respDiv'><div class='respDivL'>Match<br>(e)</div><div class='respDivR'>No Match<br>(i)</div></div></div>","e","TARGET","3","trustrating_stim/white_mw042.bmp,trustrating_stim/white_mw038.bmp,trustrating_stim/white_mw092.bmp","0,0,1","Match","e","4500","trustrating_stim/white_mw038.bmp","red","Keep","REAL","1"
"html-keyboard-response","74","265087","0.0-7.0-5.7","611d4519393cabb9a4a46ebd","bdp_wmem","Wed Mar 15 2023 23:37:21 GMT-0400 (Eastern Daylight Time)","638065","Match,No Match","","null","","","","","","<div class='trialBorder'><div class='vertical-center'><img src='img/correct.jpg'></div><div class='respDiv'><div class='respDivL'><font style='color:orange'>Match<br>(e)</font></div><div class='respDivR'>No Match<br>(i)</div></div></div>","null","FEEDBACK","","","","","","","","","","",""
"html-keyboard-response","75","265588","0.0-7.0-1.8","611d4519393cabb9a4a46ebd","bdp_wmem","Wed Mar 15 2023 23:37:21 GMT-0400 (Eastern Daylight Time)","638065","Match,No Match","","null","","","","","","<div class='trialBorder'><div class='vertical-center'><img src='img/fixation2_sml.jpg'</img></div></div>","null","FIX","","","","","","","","","","",""
"html-keyboard-response","76","268589","0.0-7.0-2.8","611d4519393cabb9a4a46ebd","bdp_wmem","Wed Mar 15 2023 23:37:21 GMT-0400 (Eastern Daylight Time)","638065","Match,No Match","","null","","","","","","<div class='trialBorder'><div class='vertical-center'><img style='vertical-align:center; align:center' src='img/fixation2_sml.jpg'></div><div class='arrayDiv2'><div class='tl'><img class='introPic' src='trustrating_stim/white_mw091.bmp'><br><font color='green'><strong>Share</strong></font></div><div class='tr'><img class='introPic' src='trustrating_stim/white_mw040.bmp'><br><font color='red'><strong>Keep</strong></font></div></div></div>","null","ARRAY","2","trustrating_stim/white_mw091.bmp,trustrating_stim/white_mw040.bmp","1,0","Match","e","3000","","","","",""
"html-keyboard-response","77","272590","0.0-7.0-3.8","611d4519393cabb9a4a46ebd","bdp_wmem","Wed Mar 15 2023 23:37:21 GMT-0400 (Eastern Daylight Time)","638065","Match,No Match","","null","","","","","","<div class='trialBorder'><div class='vertical-center'><img src='img/fixation2_sml.jpg'</img></div></div>","null","DELAY","","","","","","","","","","",""
"html-keyboard-response","78","273663","0.0-7.0-4.8","611d4519393cabb9a4a46ebd","bdp_wmem","Wed Mar 15 2023 23:37:21 GMT-0400 (Eastern Daylight Time)","638065","Match,No Match","","1072","","","","","","<div class='trialBorder'><div class='targDiv'><div class='tc'><img class='introPic' src='trustrating_stim/white_mw091.bmp'><br><font color='green'><strong>Share</strong></font></div></div><div class='respDiv'><div class='respDivL'>Match<br>(e)</div><div class='respDivR'>No Match<br>(i)</div></div></div>","e","TARGET","2","trustrating_stim/white_mw091.bmp,trustrating_stim/white_mw040.bmp","1,0","Match","e","3000","trustrating_stim/white_mw091.bmp","green","Share","REAL","1"
"html-keyboard-response","79","274164","0.0-7.0-5.8","611d4519393cabb9a4a46ebd","bdp_wmem","Wed Mar 15 2023 23:37:21 GMT-0400 (Eastern Daylight Time)","638065","Match,No Match","","null","","","","","","<div class='trialBorder'><div class='vertical-center'><img src='img/correct.jpg'></div><div class='respDiv'><div class='respDivL'><font style='color:orange'>Match<br>(e)</font></div><div class='respDivR'>No Match<br>(i)</div></div></div>","null","FEEDBACK","","","","","","","","","","",""
"html-keyboard-response","80","274666","0.0-7.0-1.9","611d4519393cabb9a4a46ebd","bdp_wmem","Wed Mar 15 2023 23:37:21 GMT-0400 (Eastern Daylight Time)","638065","Match,No Match","","null","","","","","","<div class='trialBorder'><div class='vertical-center'><img src='img/fixation2_sml.jpg'</img></div></div>","null","FIX","","","","","","","","","","",""
"html-keyboard-response","81","279168","0.0-7.0-2.9","611d4519393cabb9a4a46ebd","bdp_wmem","Wed Mar 15 2023 23:37:21 GMT-0400 (Eastern Daylight Time)","638065","Match,No Match","","null","","","","","","<div class='trialBorder'><div class='vertical-center'><img style='vertical-align:center; align:center' src='img/fixation2_sml.jpg'></div><div class='arrayDiv3'><div class='tl'><img class='introPic' src='trustrating_stim/white_mw042.bmp'><br><font color='green'><strong>Share</strong></font></div><div class='tc'><img class='introPic' src='trustrating_stim/white_mw085.bmp'><br><font color='red'><strong>Keep</strong></font></div><div class='tr'><img class='introPic' src='trustrating_stim/white_mw038.bmp'><br><font color='green'><strong>Share</strong></font></div></div></div>","null","ARRAY","3","trustrating_stim/white_mw042.bmp,trustrating_stim/white_mw085.bmp,trustrating_stim/white_mw038.bmp","1,0,1","Match","e","4500","","","","",""
"html-keyboard-response","82","283170","0.0-7.0-3.9","611d4519393cabb9a4a46ebd","bdp_wmem","Wed Mar 15 2023 23:37:21 GMT-0400 (Eastern Daylight Time)","638065","Match,No Match","","null","","","","","","<div class='trialBorder'><div class='vertical-center'><img src='img/fixation2_sml.jpg'</img></div></div>","null","DELAY","","","","","","","","","","",""
"html-keyboard-response","83","284424","0.0-7.0-4.9","611d4519393cabb9a4a46ebd","bdp_wmem","Wed Mar 15 2023 23:37:21 GMT-0400 (Eastern Daylight Time)","638065","Match,No Match","","1253","","","","","","<div class='trialBorder'><div class='targDiv'><div class='tc'><img class='introPic' src='trustrating_stim/white_mw042.bmp'><br><font color='green'><strong>Share</strong></font></div></div><div class='respDiv'><div class='respDivL'>Match<br>(e)</div><div class='respDivR'>No Match<br>(i)</div></div></div>","e","TARGET","3","trustrating_stim/white_mw042.bmp,trustrating_stim/white_mw085.bmp,trustrating_stim/white_mw038.bmp","1,0,1","Match","e","4500","trustrating_stim/white_mw042.bmp","green","Share","REAL","1"
"html-keyboard-response","84","284925","0.0-7.0-5.9","611d4519393cabb9a4a46ebd","bdp_wmem","Wed Mar 15 2023 23:37:21 GMT-0400 (Eastern Daylight Time)","638065","Match,No Match","","null","","","","","","<div class='trialBorder'><div class='vertical-center'><img src='img/correct.jpg'></div><div class='respDiv'><div class='respDivL'><font style='color:orange'>Match<br>(e)</font></div><div class='respDivR'>No Match<br>(i)</div></div></div>","null","FEEDBACK","","","","","","","","","","",""
"html-keyboard-response","85","285426","0.0-7.0-1.10","611d4519393cabb9a4a46ebd","bdp_wmem","Wed Mar 15 2023 23:37:21 GMT-0400 (Eastern Daylight Time)","638065","Match,No Match","","null","","","","","","<div class='trialBorder'><div class='vertical-center'><img src='img/fixation2_sml.jpg'</img></div></div>","null","FIX","","","","","","","","","","",""
"html-keyboard-response","86","288428","0.0-7.0-2.10","611d4519393cabb9a4a46ebd","bdp_wmem","Wed Mar 15 2023 23:37:21 GMT-0400 (Eastern Daylight Time)","638065","Match,No Match","","null","","","","","","<div class='trialBorder'><div class='vertical-center'><img style='vertical-align:center; align:center' src='img/fixation2_sml.jpg'></div><div class='arrayDiv2'><div class='tl'><img class='introPic' src='trustrating_stim/white_mw013.bmp'><br><font color='red'><strong>Keep</strong></font></div><div class='tr'><img class='introPic' src='trustrating_stim/white_mw042.bmp'><br><font color='green'><strong>Share</strong></font></div></div></div>","null","ARRAY","2","trustrating_stim/white_mw013.bmp,trustrating_stim/white_mw042.bmp","0,1","noMatchFace","i","3000","","","","",""
"html-keyboard-response","87","292430","0.0-7.0-3.10","611d4519393cabb9a4a46ebd","bdp_wmem","Wed Mar 15 2023 23:37:21 GMT-0400 (Eastern Daylight Time)","638065","Match,No Match","","null","","","","","","<div class='trialBorder'><div class='vertical-center'><img src='img/fixation2_sml.jpg'</img></div></div>","null","DELAY","","","","","","","","","","",""
"html-keyboard-response","88","295114","0.0-7.0-4.10","611d4519393cabb9a4a46ebd","bdp_wmem","Wed Mar 15 2023 23:37:21 GMT-0400 (Eastern Daylight Time)","638065","Match,No Match","","2683","","","","","","<div class='trialBorder'><div class='targDiv'><div class='tc'><img class='introPic' src='trustrating_stim/white_mw078.bmp'><br><font color='green'><strong>Share</strong></font></div></div><div class='respDiv'><div class='respDivL'>Match<br>(e)</div><div class='respDivR'>No Match<br>(i)</div></div></div>","e","TARGET","2","trustrating_stim/white_mw013.bmp,trustrating_stim/white_mw042.bmp","0,1","noMatchFace","i","3000","trustrating_stim/white_mw078.bmp","green","Share","REAL","0"
"html-keyboard-response","89","295615","0.0-7.0-5.10","611d4519393cabb9a4a46ebd","bdp_wmem","Wed Mar 15 2023 23:37:21 GMT-0400 (Eastern Daylight Time)","638065","Match,No Match","","null","","","","","","<div class='trialBorder'><div class='vertical-center'><img src='img/error.jpg'></div><div class='respDiv'><div class='respDivL'><font style='color:orange'>Match<br>(e)</font></div><div class='respDivR'>No Match<br>(i)</div></div></div>","null","FEEDBACK","","","","","","","","","","",""
"html-keyboard-response","90","296116","0.0-7.0-1.11","611d4519393cabb9a4a46ebd","bdp_wmem","Wed Mar 15 2023 23:37:21 GMT-0400 (Eastern Daylight Time)","638065","Match,No Match","","null","","","","","","<div class='trialBorder'><div class='vertical-center'><img src='img/fixation2_sml.jpg'</img></div></div>","null","FIX","","","","","","","","","","",""
"html-keyboard-response","91","300617","0.0-7.0-2.11","611d4519393cabb9a4a46ebd","bdp_wmem","Wed Mar 15 2023 23:37:21 GMT-0400 (Eastern Daylight Time)","638065","Match,No Match","","null","","","","","","<div class='trialBorder'><div class='vertical-center'><img style='vertical-align:center; align:center' src='img/fixation2_sml.jpg'></div><div class='arrayDiv3'><div class='tl'><img class='introPic' src='trustrating_stim/white_mw038.bmp'><br><font color='green'><strong>Share</strong></font></div><div class='tc'><img class='introPic' src='trustrating_stim/white_mw078.bmp'><br><font color='red'><strong>Keep</strong></font></div><div class='tr'><img class='introPic' src='trustrating_stim/white_mw040.bmp'><br><font color='red'><strong>Keep</strong></font></div></div></div>","null","ARRAY","3","trustrating_stim/white_mw038.bmp,trustrating_stim/white_mw078.bmp,trustrating_stim/white_mw040.bmp","1,0,0","Match","e","4500","","","","",""
"html-keyboard-response","92","304619","0.0-7.0-3.11","611d4519393cabb9a4a46ebd","bdp_wmem","Wed Mar 15 2023 23:37:21 GMT-0400 (Eastern Daylight Time)","638065","Match,No Match","","null","","","","","","<div class='trialBorder'><div class='vertical-center'><img src='img/fixation2_sml.jpg'</img></div></div>","null","DELAY","","","","","","","","","","",""
"html-keyboard-response","93","305655","0.0-7.0-4.11","611d4519393cabb9a4a46ebd","bdp_wmem","Wed Mar 15 2023 23:37:21 GMT-0400 (Eastern Daylight Time)","638065","Match,No Match","","1034","","","","","","<div class='trialBorder'><div class='targDiv'><div class='tc'><img class='introPic' src='trustrating_stim/white_mw078.bmp'><br><font color='red'><strong>Keep</strong></font></div></div><div class='respDiv'><div class='respDivL'>Match<br>(e)</div><div class='respDivR'>No Match<br>(i)</div></div></div>","e","TARGET","3","trustrating_stim/white_mw038.bmp,trustrating_stim/white_mw078.bmp,trustrating_stim/white_mw040.bmp","1,0,0","Match","e","4500","trustrating_stim/white_mw078.bmp","red","Keep","REAL","1"
"html-keyboard-response","94","306156","0.0-7.0-5.11","611d4519393cabb9a4a46ebd","bdp_wmem","Wed Mar 15 2023 23:37:21 GMT-0400 (Eastern Daylight Time)","638065","Match,No Match","","null","","","","","","<div class='trialBorder'><div class='vertical-center'><img src='img/correct.jpg'></div><div class='respDiv'><div class='respDivL'><font style='color:orange'>Match<br>(e)</font></div><div class='respDivR'>No Match<br>(i)</div></div></div>","null","FEEDBACK","","","","","","","","","","",""
"html-keyboard-response","95","306658","0.0-7.0-1.12","611d4519393cabb9a4a46ebd","bdp_wmem","Wed Mar 15 2023 23:37:21 GMT-0400 (Eastern Daylight Time)","638065","Match,No Match","","null","","","","","","<div class='trialBorder'><div class='vertical-center'><img src='img/fixation2_sml.jpg'</img></div></div>","null","FIX","","","","","","","","","","",""
"html-keyboard-response","96","311159","0.0-7.0-2.12","611d4519393cabb9a4a46ebd","bdp_wmem","Wed Mar 15 2023 23:37:21 GMT-0400 (Eastern Daylight Time)","638065","Match,No Match","","null","","","","","","<div class='trialBorder'><div class='vertical-center'><img style='vertical-align:center; align:center' src='img/fixation2_sml.jpg'></div><div class='arrayDiv3'><div class='tl'><img class='introPic' src='trustrating_stim/white_mw012.bmp'><br><font color='green'><strong>Share</strong></font></div><div class='tc'><img class='introPic' src='trustrating_stim/white_mw003.bmp'><br><font color='red'><strong>Keep</strong></font></div><div class='tr'><img class='introPic' src='trustrating_stim/white_mw070.bmp'><br><font color='green'><strong>Share</strong></font></div></div></div>","null","ARRAY","3","trustrating_stim/white_mw012.bmp,trustrating_stim/white_mw003.bmp,trustrating_stim/white_mw070.bmp","1,0,1","noMatchFace","i","4500","","","","",""
"html-keyboard-response","97","315161","0.0-7.0-3.12","611d4519393cabb9a4a46ebd","bdp_wmem","Wed Mar 15 2023 23:37:21 GMT-0400 (Eastern Daylight Time)","638065","Match,No Match","","null","","","","","","<div class='trialBorder'><div class='vertical-center'><img src='img/fixation2_sml.jpg'</img></div></div>","null","DELAY","","","","","","","","","","",""
"html-keyboard-response","98","317967","0.0-7.0-4.12","611d4519393cabb9a4a46ebd","bdp_wmem","Wed Mar 15 2023 23:37:21 GMT-0400 (Eastern Daylight Time)","638065","Match,No Match","","2805","","","","","","<div class='trialBorder'><div class='targDiv'><div class='tc'><img class='introPic' src='trustrating_stim/white_mw092.bmp'><br><font color='green'><strong>Share</strong></font></div></div><div class='respDiv'><div class='respDivL'>Match<br>(e)</div><div class='respDivR'>No Match<br>(i)</div></div></div>","e","TARGET","3","trustrating_stim/white_mw012.bmp,trustrating_stim/white_mw003.bmp,trustrating_stim/white_mw070.bmp","1,0,1","noMatchFace","i","4500","trustrating_stim/white_mw092.bmp","green","Share","REAL","0"
"html-keyboard-response","99","318468","0.0-7.0-5.12","611d4519393cabb9a4a46ebd","bdp_wmem","Wed Mar 15 2023 23:37:21 GMT-0400 (Eastern Daylight Time)","638065","Match,No Match","","null","","","","","","<div class='trialBorder'><div class='vertical-center'><img src='img/error.jpg'></div><div class='respDiv'><div class='respDivL'><font style='color:orange'>Match<br>(e)</font></div><div class='respDivR'>No Match<br>(i)</div></div></div>","null","FEEDBACK","","","","","","","","","","",""
"html-keyboard-response","100","318969","0.0-7.0-1.13","611d4519393cabb9a4a46ebd","bdp_wmem","Wed Mar 15 2023 23:37:21 GMT-0400 (Eastern Daylight Time)","638065","Match,No Match","","null","","","","","","<div class='trialBorder'><div class='vertical-center'><img src='img/fixation2_sml.jpg'</img></div></div>","null","FIX","","","","","","","","","","",""
"html-keyboard-response","101","320472","0.0-7.0-2.13","611d4519393cabb9a4a46ebd","bdp_wmem","Wed Mar 15 2023 23:37:21 GMT-0400 (Eastern Daylight Time)","638065","Match,No Match","","null","","","","","","<div class='trialBorder'><div class='vertical-center'><img style='vertical-align:center; align:center' src='img/fixation2_sml.jpg'></div><div class='arrayDiv1'><div class='tc'><img class='introPic' src='trustrating_stim/white_mw012.bmp'><br><font color='green'><strong>Share</strong></font></div></div></div>","null","ARRAY","1","trustrating_stim/white_mw012.bmp","1","noMatchOutcome","i","1500","","","","",""
"html-keyboard-response","102","324473","0.0-7.0-3.13","611d4519393cabb9a4a46ebd","bdp_wmem","Wed Mar 15 2023 23:37:21 GMT-0400 (Eastern Daylight Time)","638065","Match,No Match","","null","","","","","","<div class='trialBorder'><div class='vertical-center'><img src='img/fixation2_sml.jpg'</img></div></div>","null","DELAY","","","","","","","","","","",""
"html-keyboard-response","103","325414","0.0-7.0-4.13","611d4519393cabb9a4a46ebd","bdp_wmem","Wed Mar 15 2023 23:37:21 GMT-0400 (Eastern Daylight Time)","638065","Match,No Match","","941","","","","","","<div class='trialBorder'><div class='targDiv'><div class='tc'><img class='introPic' src='trustrating_stim/white_mw012.bmp'><br><font color='red'><strong>Keep</strong></font></div></div><div class='respDiv'><div class='respDivL'>Match<br>(e)</div><div class='respDivR'>No Match<br>(i)</div></div></div>","i","TARGET","1","trustrating_stim/white_mw012.bmp","1","noMatchOutcome","i","1500","trustrating_stim/white_mw012.bmp","red","Keep","REAL","1"
"html-keyboard-response","104","325915","0.0-7.0-5.13","611d4519393cabb9a4a46ebd","bdp_wmem","Wed Mar 15 2023 23:37:21 GMT-0400 (Eastern Daylight Time)","638065","Match,No Match","","null","","","","","","<div class='trialBorder'><div class='vertical-center'><img src='img/correct.jpg'></div><div class='respDiv'><div class='respDivL'>Match<br>(e)</div><div class='respDivR'><font style='color:orange'>No Match<br>(i)</font></div></div></div>","null","FEEDBACK","","","","","","","","","","",""
"html-keyboard-response","105","326416","0.0-7.0-1.14","611d4519393cabb9a4a46ebd","bdp_wmem","Wed Mar 15 2023 23:37:21 GMT-0400 (Eastern Daylight Time)","638065","Match,No Match","","null","","","","","","<div class='trialBorder'><div class='vertical-center'><img src='img/fixation2_sml.jpg'</img></div></div>","null","FIX","","","","","","","","","","",""
"html-keyboard-response","106","330918","0.0-7.0-2.14","611d4519393cabb9a4a46ebd","bdp_wmem","Wed Mar 15 2023 23:37:21 GMT-0400 (Eastern Daylight Time)","638065","Match,No Match","","null","","","","","","<div class='trialBorder'><div class='vertical-center'><img style='vertical-align:center; align:center' src='img/fixation2_sml.jpg'></div><div class='arrayDiv3'><div class='tl'><img class='introPic' src='trustrating_stim/white_mw092.bmp'><br><font color='green'><strong>Share</strong></font></div><div class='tc'><img class='introPic' src='trustrating_stim/white_mw012.bmp'><br><font color='red'><strong>Keep</strong></font></div><div class='tr'><img class='introPic' src='trustrating_stim/white_mw042.bmp'><br><font color='red'><strong>Keep</strong></font></div></div></div>","null","ARRAY","3","trustrating_stim/white_mw092.bmp,trustrating_stim/white_mw012.bmp,trustrating_stim/white_mw042.bmp","1,0,0","noMatchOutcome","i","4500","","","","",""
"html-keyboard-response","107","334919","0.0-7.0-3.14","611d4519393cabb9a4a46ebd","bdp_wmem","Wed Mar 15 2023 23:37:21 GMT-0400 (Eastern Daylight Time)","638065","Match,No Match","","null","","","","","","<div class='trialBorder'><div class='vertical-center'><img src='img/fixation2_sml.jpg'</img></div></div>","null","DELAY","","","","","","","","","","",""
"html-keyboard-response","108","336020","0.0-7.0-4.14","611d4519393cabb9a4a46ebd","bdp_wmem","Wed Mar 15 2023 23:37:21 GMT-0400 (Eastern Daylight Time)","638065","Match,No Match","","1100","","","","","","<div class='trialBorder'><div class='targDiv'><div class='tc'><img class='introPic' src='trustrating_stim/white_mw012.bmp'><br><font color='green'><strong>Share</strong></font></div></div><div class='respDiv'><div class='respDivL'>Match<br>(e)</div><div class='respDivR'>No Match<br>(i)</div></div></div>","e","TARGET","3","trustrating_stim/white_mw092.bmp,trustrating_stim/white_mw012.bmp,trustrating_stim/white_mw042.bmp","1,0,0","noMatchOutcome","i","4500","trustrating_stim/white_mw012.bmp","green","Share","REAL","0"
"html-keyboard-response","109","336522","0.0-7.0-5.14","611d4519393cabb9a4a46ebd","bdp_wmem","Wed Mar 15 2023 23:37:21 GMT-0400 (Eastern Daylight Time)","638065","Match,No Match","","null","","","","","","<div class='trialBorder'><div class='vertical-center'><img src='img/error.jpg'></div><div class='respDiv'><div class='respDivL'><font style='color:orange'>Match<br>(e)</font></div><div class='respDivR'>No Match<br>(i)</div></div></div>","null","FEEDBACK","","","","","","","","","","",""
"html-keyboard-response","110","337022","0.0-7.0-1.15","611d4519393cabb9a4a46ebd","bdp_wmem","Wed Mar 15 2023 23:37:21 GMT-0400 (Eastern Daylight Time)","638065","Match,No Match","","null","","","","","","<div class='trialBorder'><div class='vertical-center'><img src='img/fixation2_sml.jpg'</img></div></div>","null","FIX","","","","","","","","","","",""
"html-keyboard-response","111","341523","0.0-7.0-2.15","611d4519393cabb9a4a46ebd","bdp_wmem","Wed Mar 15 2023 23:37:21 GMT-0400 (Eastern Daylight Time)","638065","Match,No Match","","null","","","","","","<div class='trialBorder'><div class='vertical-center'><img style='vertical-align:center; align:center' src='img/fixation2_sml.jpg'></div><div class='arrayDiv3'><div class='tl'><img class='introPic' src='trustrating_stim/white_mw091.bmp'><br><font color='green'><strong>Share</strong></font></div><div class='tc'><img class='introPic' src='trustrating_stim/white_mw042.bmp'><br><font color='green'><strong>Share</strong></font></div><div class='tr'><img class='introPic' src='trustrating_stim/white_mw078.bmp'><br><font color='red'><strong>Keep</strong></font></div></div></div>","null","ARRAY","3","trustrating_stim/white_mw091.bmp,trustrating_stim/white_mw042.bmp,trustrating_stim/white_mw078.bmp","1,1,0","noMatchFace","i","4500","","","","",""
"html-keyboard-response","112","345524","0.0-7.0-3.15","611d4519393cabb9a4a46ebd","bdp_wmem","Wed Mar 15 2023 23:37:21 GMT-0400 (Eastern Daylight Time)","638065","Match,No Match","","null","","","","","","<div class='trialBorder'><div class='vertical-center'><img src='img/fixation2_sml.jpg'</img></div></div>","null","DELAY","","","","","","","","","","",""
"html-keyboard-response","113","346917","0.0-7.0-4.15","611d4519393cabb9a4a46ebd","bdp_wmem","Wed Mar 15 2023 23:37:21 GMT-0400 (Eastern Daylight Time)","638065","Match,No Match","","1392","","","","","","<div class='trialBorder'><div class='targDiv'><div class='tc'><img class='introPic' src='trustrating_stim/white_mw038.bmp'><br><font color='red'><strong>Keep</strong></font></div></div><div class='respDiv'><div class='respDivL'>Match<br>(e)</div><div class='respDivR'>No Match<br>(i)</div></div></div>","i","TARGET","3","trustrating_stim/white_mw091.bmp,trustrating_stim/white_mw042.bmp,trustrating_stim/white_mw078.bmp","1,1,0","noMatchFace","i","4500","trustrating_stim/white_mw038.bmp","red","Keep","REAL","1"
"html-keyboard-response","114","347418","0.0-7.0-5.15","611d4519393cabb9a4a46ebd","bdp_wmem","Wed Mar 15 2023 23:37:21 GMT-0400 (Eastern Daylight Time)","638065","Match,No Match","","null","","","","","","<div class='trialBorder'><div class='vertical-center'><img src='img/correct.jpg'></div><div class='respDiv'><div class='respDivL'>Match<br>(e)</div><div class='respDivR'><font style='color:orange'>No Match<br>(i)</font></div></div></div>","null","FEEDBACK","","","","","","","","","","",""
"html-keyboard-response","115","347919","0.0-7.0-1.16","611d4519393cabb9a4a46ebd","bdp_wmem","Wed Mar 15 2023 23:37:21 GMT-0400 (Eastern Daylight Time)","638065","Match,No Match","","null","","","","","","<div class='trialBorder'><div class='vertical-center'><img src='img/fixation2_sml.jpg'</img></div></div>","null","FIX","","","","","","","","","","",""
"html-keyboard-response","116","350921","0.0-7.0-2.16","611d4519393cabb9a4a46ebd","bdp_wmem","Wed Mar 15 2023 23:37:21 GMT-0400 (Eastern Daylight Time)","638065","Match,No Match","","null","","","","","","<div class='trialBorder'><div class='vertical-center'><img style='vertical-align:center; align:center' src='img/fixation2_sml.jpg'></div><div class='arrayDiv2'><div class='tl'><img class='introPic' src='trustrating_stim/white_mw040.bmp'><br><font color='red'><strong>Keep</strong></font></div><div class='tr'><img class='introPic' src='trustrating_stim/white_mw012.bmp'><br><font color='green'><strong>Share</strong></font></div></div></div>","null","ARRAY","2","trustrating_stim/white_mw040.bmp,trustrating_stim/white_mw012.bmp","0,1","Match","e","3000","","","","",""
"html-keyboard-response","117","354922","0.0-7.0-3.16","611d4519393cabb9a4a46ebd","bdp_wmem","Wed Mar 15 2023 23:37:21 GMT-0400 (Eastern Daylight Time)","638065","Match,No Match","","null","","","","","","<div class='trialBorder'><div class='vertical-center'><img src='img/fixation2_sml.jpg'</img></div></div>","null","DELAY","","","","","","","","","","",""
"html-keyboard-response","118","356254","0.0-7.0-4.16","611d4519393cabb9a4a46ebd","bdp_wmem","Wed Mar 15 2023 23:37:21 GMT-0400 (Eastern Daylight Time)","638065","Match,No Match","","1331","","","","","","<div class='trialBorder'><div class='targDiv'><div class='tc'><img class='introPic' src='trustrating_stim/white_mw040.bmp'><br><font color='red'><strong>Keep</strong></font></div></div><div class='respDiv'><div class='respDivL'>Match<br>(e)</div><div class='respDivR'>No Match<br>(i)</div></div></div>","i","TARGET","2","trustrating_stim/white_mw040.bmp,trustrating_stim/white_mw012.bmp","0,1","Match","e","3000","trustrating_stim/white_mw040.bmp","red","Keep","REAL","0"
"html-keyboard-response","119","356755","0.0-7.0-5.16","611d4519393cabb9a4a46ebd","bdp_wmem","Wed Mar 15 2023 23:37:21 GMT-0400 (Eastern Daylight Time)","638065","Match,No Match","","null","","","","","","<div class='trialBorder'><div class='vertical-center'><img src='img/error.jpg'></div><div class='respDiv'><div class='respDivL'>Match<br>(e)</div><div class='respDivR'><font style='color:orange'>No Match<br>(i)</font></div></div></div>","null","FEEDBACK","","","","","","","","","","",""
"html-keyboard-response","120","357257","0.0-7.0-1.17","611d4519393cabb9a4a46ebd","bdp_wmem","Wed Mar 15 2023 23:37:21 GMT-0400 (Eastern Daylight Time)","638065","Match,No Match","","null","","","","","","<div class='trialBorder'><div class='vertical-center'><img src='img/fixation2_sml.jpg'</img></div></div>","null","FIX","","","","","","","","","","",""
"html-keyboard-response","121","358758","0.0-7.0-2.17","611d4519393cabb9a4a46ebd","bdp_wmem","Wed Mar 15 2023 23:37:21 GMT-0400 (Eastern Daylight Time)","638065","Match,No Match","","null","","","","","","<div class='trialBorder'><div class='vertical-center'><img style='vertical-align:center; align:center' src='img/fixation2_sml.jpg'></div><div class='arrayDiv1'><div class='tc'><img class='introPic' src='trustrating_stim/white_mw085.bmp'><br><font color='green'><strong>Share</strong></font></div></div></div>","null","ARRAY","1","trustrating_stim/white_mw085.bmp","1","noMatchOutcome","i","1500","","","","",""
"html-keyboard-response","122","362760","0.0-7.0-3.17","611d4519393cabb9a4a46ebd","bdp_wmem","Wed Mar 15 2023 23:37:21 GMT-0400 (Eastern Daylight Time)","638065","Match,No Match","","null","","","","","","<div class='trialBorder'><div class='vertical-center'><img src='img/fixation2_sml.jpg'</img></div></div>","null","DELAY","","","","","","","","","","",""
"html-keyboard-response","123","365513","0.0-7.0-4.17","611d4519393cabb9a4a46ebd","bdp_wmem","Wed Mar 15 2023 23:37:21 GMT-0400 (Eastern Daylight Time)","638065","Match,No Match","","2751","","","","","","<div class='trialBorder'><div class='targDiv'><div class='tc'><img class='introPic' src='trustrating_stim/white_mw085.bmp'><br><font color='red'><strong>Keep</strong></font></div></div><div class='respDiv'><div class='respDivL'>Match<br>(e)</div><div class='respDivR'>No Match<br>(i)</div></div></div>","i","TARGET","1","trustrating_stim/white_mw085.bmp","1","noMatchOutcome","i","1500","trustrating_stim/white_mw085.bmp","red","Keep","REAL","1"
"html-keyboard-response","124","366013","0.0-7.0-5.17","611d4519393cabb9a4a46ebd","bdp_wmem","Wed Mar 15 2023 23:37:21 GMT-0400 (Eastern Daylight Time)","638065","Match,No Match","","null","","","","","","<div class='trialBorder'><div class='vertical-center'><img src='img/correct.jpg'></div><div class='respDiv'><div class='respDivL'>Match<br>(e)</div><div class='respDivR'><font style='color:orange'>No Match<br>(i)</font></div></div></div>","null","FEEDBACK","","","","","","","","","","",""
"html-keyboard-response","125","366514","0.0-7.0-1.18","611d4519393cabb9a4a46ebd","bdp_wmem","Wed Mar 15 2023 23:37:21 GMT-0400 (Eastern Daylight Time)","638065","Match,No Match","","null","","","","","","<div class='trialBorder'><div class='vertical-center'><img src='img/fixation2_sml.jpg'</img></div></div>","null","FIX","","","","","","","","","","",""
"html-keyboard-response","126","369515","0.0-7.0-2.18","611d4519393cabb9a4a46ebd","bdp_wmem","Wed Mar 15 2023 23:37:21 GMT-0400 (Eastern Daylight Time)","638065","Match,No Match","","null","","","","","","<div class='trialBorder'><div class='vertical-center'><img style='vertical-align:center; align:center' src='img/fixation2_sml.jpg'></div><div class='arrayDiv2'><div class='tl'><img class='introPic' src='trustrating_stim/white_mw012.bmp'><br><font color='red'><strong>Keep</strong></font></div><div class='tr'><img class='introPic' src='trustrating_stim/white_mw085.bmp'><br><font color='green'><strong>Share</strong></font></div></div></div>","null","ARRAY","2","trustrating_stim/white_mw012.bmp,trustrating_stim/white_mw085.bmp","0,1","Match","e","3000","","","","",""
"html-keyboard-response","127","373517","0.0-7.0-3.18","611d4519393cabb9a4a46ebd","bdp_wmem","Wed Mar 15 2023 23:37:21 GMT-0400 (Eastern Daylight Time)","638065","Match,No Match","","null","","","","","","<div class='trialBorder'><div class='vertical-center'><img src='img/fixation2_sml.jpg'</img></div></div>","null","DELAY","","","","","","","","","","",""
"html-keyboard-response","128","374801","0.0-7.0-4.18","611d4519393cabb9a4a46ebd","bdp_wmem","Wed Mar 15 2023 23:37:21 GMT-0400 (Eastern Daylight Time)","638065","Match,No Match","","1283","","","","","","<div class='trialBorder'><div class='targDiv'><div class='tc'><img class='introPic' src='trustrating_stim/white_mw012.bmp'><br><font color='red'><strong>Keep</strong></font></div></div><div class='respDiv'><div class='respDivL'>Match<br>(e)</div><div class='respDivR'>No Match<br>(i)</div></div></div>","e","TARGET","2","trustrating_stim/white_mw012.bmp,trustrating_stim/white_mw085.bmp","0,1","Match","e","3000","trustrating_stim/white_mw012.bmp","red","Keep","REAL","1"
"html-keyboard-response","129","375302","0.0-7.0-5.18","611d4519393cabb9a4a46ebd","bdp_wmem","Wed Mar 15 2023 23:37:21 GMT-0400 (Eastern Daylight Time)","638065","Match,No Match","","null","","","","","","<div class='trialBorder'><div class='vertical-center'><img src='img/correct.jpg'></div><div class='respDiv'><div class='respDivL'><font style='color:orange'>Match<br>(e)</font></div><div class='respDivR'>No Match<br>(i)</div></div></div>","null","FEEDBACK","","","","","","","","","","",""
"html-keyboard-response","130","375804","0.0-7.0-1.19","611d4519393cabb9a4a46ebd","bdp_wmem","Wed Mar 15 2023 23:37:21 GMT-0400 (Eastern Daylight Time)","638065","Match,No Match","","null","","","","","","<div class='trialBorder'><div class='vertical-center'><img src='img/fixation2_sml.jpg'</img></div></div>","null","FIX","","","","","","","","","","",""
"html-keyboard-response","131","378806","0.0-7.0-2.19","611d4519393cabb9a4a46ebd","bdp_wmem","Wed Mar 15 2023 23:37:21 GMT-0400 (Eastern Daylight Time)","638065","Match,No Match","","null","","","","","","<div class='trialBorder'><div class='vertical-center'><img style='vertical-align:center; align:center' src='img/fixation2_sml.jpg'></div><div class='arrayDiv2'><div class='tl'><img class='introPic' src='trustrating_stim/white_mw091.bmp'><br><font color='red'><strong>Keep</strong></font></div><div class='tr'><img class='introPic' src='trustrating_stim/white_mw092.bmp'><br><font color='green'><strong>Share</strong></font></div></div></div>","null","ARRAY","2","trustrating_stim/white_mw091.bmp,trustrating_stim/white_mw092.bmp","0,1","Match","e","3000","","","","",""
"html-keyboard-response","132","382808","0.0-7.0-3.19","611d4519393cabb9a4a46ebd","bdp_wmem","Wed Mar 15 2023 23:37:21 GMT-0400 (Eastern Daylight Time)","638065","Match,No Match","","null","","","","","","<div class='trialBorder'><div class='vertical-center'><img src='img/fixation2_sml.jpg'</img></div></div>","null","DELAY","","","","","","","","","","",""
"html-keyboard-response","133","383656","0.0-7.0-4.19","611d4519393cabb9a4a46ebd","bdp_wmem","Wed Mar 15 2023 23:37:21 GMT-0400 (Eastern Daylight Time)","638065","Match,No Match","","847","","","","","","<div class='trialBorder'><div class='targDiv'><div class='tc'><img class='introPic' src='trustrating_stim/white_mw091.bmp'><br><font color='red'><strong>Keep</strong></font></div></div><div class='respDiv'><div class='respDivL'>Match<br>(e)</div><div class='respDivR'>No Match<br>(i)</div></div></div>","e","TARGET","2","trustrating_stim/white_mw091.bmp,trustrating_stim/white_mw092.bmp","0,1","Match","e","3000","trustrating_stim/white_mw091.bmp","red","Keep","REAL","1"
"html-keyboard-response","134","384156","0.0-7.0-5.19","611d4519393cabb9a4a46ebd","bdp_wmem","Wed Mar 15 2023 23:37:21 GMT-0400 (Eastern Daylight Time)","638065","Match,No Match","","null","","","","","","<div class='trialBorder'><div class='vertical-center'><img src='img/correct.jpg'></div><div class='respDiv'><div class='respDivL'><font style='color:orange'>Match<br>(e)</font></div><div class='respDivR'>No Match<br>(i)</div></div></div>","null","FEEDBACK","","","","","","","","","","",""
"html-keyboard-response","135","384657","0.0-7.0-1.20","611d4519393cabb9a4a46ebd","bdp_wmem","Wed Mar 15 2023 23:37:21 GMT-0400 (Eastern Daylight Time)","638065","Match,No Match","","null","","","","","","<div class='trialBorder'><div class='vertical-center'><img src='img/fixation2_sml.jpg'</img></div></div>","null","FIX","","","","","","","","","","",""
"html-keyboard-response","136","386159","0.0-7.0-2.20","611d4519393cabb9a4a46ebd","bdp_wmem","Wed Mar 15 2023 23:37:21 GMT-0400 (Eastern Daylight Time)","638065","Match,No Match","","null","","","","","","<div class='trialBorder'><div class='vertical-center'><img style='vertical-align:center; align:center' src='img/fixation2_sml.jpg'></div><div class='arrayDiv1'><div class='tc'><img class='introPic' src='trustrating_stim/white_mw038.bmp'><br><font color='green'><strong>Share</strong></font></div></div></div>","null","ARRAY","1","trustrating_stim/white_mw038.bmp","1","noMatchOutcome","i","1500","","","","",""
"html-keyboard-response","137","390161","0.0-7.0-3.20","611d4519393cabb9a4a46ebd","bdp_wmem","Wed Mar 15 2023 23:37:21 GMT-0400 (Eastern Daylight Time)","638065","Match,No Match","","null","","","","","","<div class='trialBorder'><div class='vertical-center'><img src='img/fixation2_sml.jpg'</img></div></div>","null","DELAY","","","","","","","","","","",""
"html-keyboard-response","138","391020","0.0-7.0-4.20","611d4519393cabb9a4a46ebd","bdp_wmem","Wed Mar 15 2023 23:37:21 GMT-0400 (Eastern Daylight Time)","638065","Match,No Match","","858","","","","","","<div class='trialBorder'><div class='targDiv'><div class='tc'><img class='introPic' src='trustrating_stim/white_mw038.bmp'><br><font color='red'><strong>Keep</strong></font></div></div><div class='respDiv'><div class='respDivL'>Match<br>(e)</div><div class='respDivR'>No Match<br>(i)</div></div></div>","i","TARGET","1","trustrating_stim/white_mw038.bmp","1","noMatchOutcome","i","1500","trustrating_stim/white_mw038.bmp","red","Keep","REAL","1"
"html-keyboard-response","139","391522","0.0-7.0-5.20","611d4519393cabb9a4a46ebd","bdp_wmem","Wed Mar 15 2023 23:37:21 GMT-0400 (Eastern Daylight Time)","638065","Match,No Match","","null","","","","","","<div class='trialBorder'><div class='vertical-center'><img src='img/correct.jpg'></div><div class='respDiv'><div class='respDivL'>Match<br>(e)</div><div class='respDivR'><font style='color:orange'>No Match<br>(i)</font></div></div></div>","null","FEEDBACK","","","","","","","","","","",""
"html-keyboard-response","140","392024","0.0-7.0-1.21","611d4519393cabb9a4a46ebd","bdp_wmem","Wed Mar 15 2023 23:37:21 GMT-0400 (Eastern Daylight Time)","638065","Match,No Match","","null","","","","","","<div class='trialBorder'><div class='vertical-center'><img src='img/fixation2_sml.jpg'</img></div></div>","null","FIX","","","","","","","","","","",""
"html-keyboard-response","141","395026","0.0-7.0-2.21","611d4519393cabb9a4a46ebd","bdp_wmem","Wed Mar 15 2023 23:37:21 GMT-0400 (Eastern Daylight Time)","638065","Match,No Match","","null","","","","","","<div class='trialBorder'><div class='vertical-center'><img style='vertical-align:center; align:center' src='img/fixation2_sml.jpg'></div><div class='arrayDiv2'><div class='tl'><img class='introPic' src='trustrating_stim/white_mw042.bmp'><br><font color='red'><strong>Keep</strong></font></div><div class='tr'><img class='introPic' src='trustrating_stim/white_mw003.bmp'><br><font color='green'><strong>Share</strong></font></div></div></div>","null","ARRAY","2","trustrating_stim/white_mw042.bmp,trustrating_stim/white_mw003.bmp","0,1","Match","e","3000","","","","",""
"html-keyboard-response","142","399027","0.0-7.0-3.21","611d4519393cabb9a4a46ebd","bdp_wmem","Wed Mar 15 2023 23:37:21 GMT-0400 (Eastern Daylight Time)","638065","Match,No Match","","null","","","","","","<div class='trialBorder'><div class='vertical-center'><img src='img/fixation2_sml.jpg'</img></div></div>","null","DELAY","","","","","","","","","","",""
"html-keyboard-response","143","399938","0.0-7.0-4.21","611d4519393cabb9a4a46ebd","bdp_wmem","Wed Mar 15 2023 23:37:21 GMT-0400 (Eastern Daylight Time)","638065","Match,No Match","","910","","","","","","<div class='trialBorder'><div class='targDiv'><div class='tc'><img class='introPic' src='trustrating_stim/white_mw042.bmp'><br><font color='red'><strong>Keep</strong></font></div></div><div class='respDiv'><div class='respDivL'>Match<br>(e)</div><div class='respDivR'>No Match<br>(i)</div></div></div>","e","TARGET","2","trustrating_stim/white_mw042.bmp,trustrating_stim/white_mw003.bmp","0,1","Match","e","3000","trustrating_stim/white_mw042.bmp","red","Keep","REAL","1"
"html-keyboard-response","144","400439","0.0-7.0-5.21","611d4519393cabb9a4a46ebd","bdp_wmem","Wed Mar 15 2023 23:37:21 GMT-0400 (Eastern Daylight Time)","638065","Match,No Match","","null","","","","","","<div class='trialBorder'><div class='vertical-center'><img src='img/correct.jpg'></div><div class='respDiv'><div class='respDivL'><font style='color:orange'>Match<br>(e)</font></div><div class='respDivR'>No Match<br>(i)</div></div></div>","null","FEEDBACK","","","","","","","","","","",""
"html-keyboard-response","145","400941","0.0-7.0-1.22","611d4519393cabb9a4a46ebd","bdp_wmem","Wed Mar 15 2023 23:37:21 GMT-0400 (Eastern Daylight Time)","638065","Match,No Match","","null","","","","","","<div class='trialBorder'><div class='vertical-center'><img src='img/fixation2_sml.jpg'</img></div></div>","null","FIX","","","","","","","","","","",""
"html-keyboard-response","146","405442","0.0-7.0-2.22","611d4519393cabb9a4a46ebd","bdp_wmem","Wed Mar 15 2023 23:37:21 GMT-0400 (Eastern Daylight Time)","638065","Match,No Match","","null","","","","","","<div class='trialBorder'><div class='vertical-center'><img style='vertical-align:center; align:center' src='img/fixation2_sml.jpg'></div><div class='arrayDiv3'><div class='tl'><img class='introPic' src='trustrating_stim/white_mw013.bmp'><br><font color='green'><strong>Share</strong></font></div><div class='tc'><img class='introPic' src='trustrating_stim/white_mw010.bmp'><br><font color='red'><strong>Keep</strong></font></div><div class='tr'><img class='introPic' src='trustrating_stim/white_mw078.bmp'><br><font color='red'><strong>Keep</strong></font></div></div></div>","null","ARRAY","3","trustrating_stim/white_mw013.bmp,trustrating_stim/white_mw010.bmp,trustrating_stim/white_mw078.bmp","1,0,0","noMatchOutcome","i","4500","","","","",""
"html-keyboard-response","147","409444","0.0-7.0-3.22","611d4519393cabb9a4a46ebd","bdp_wmem","Wed Mar 15 2023 23:37:21 GMT-0400 (Eastern Daylight Time)","638065","Match,No Match","","null","","","","","","<div class='trialBorder'><div class='vertical-center'><img src='img/fixation2_sml.jpg'</img></div></div>","null","DELAY","","","","","","","","","","",""
"html-keyboard-response","148","410649","0.0-7.0-4.22","611d4519393cabb9a4a46ebd","bdp_wmem","Wed Mar 15 2023 23:37:21 GMT-0400 (Eastern Daylight Time)","638065","Match,No Match","","1204","","","","","","<div class='trialBorder'><div class='targDiv'><div class='tc'><img class='introPic' src='trustrating_stim/white_mw013.bmp'><br><font color='red'><strong>Keep</strong></font></div></div><div class='respDiv'><div class='respDivL'>Match<br>(e)</div><div class='respDivR'>No Match<br>(i)</div></div></div>","i","TARGET","3","trustrating_stim/white_mw013.bmp,trustrating_stim/white_mw010.bmp,trustrating_stim/white_mw078.bmp","1,0,0","noMatchOutcome","i","4500","trustrating_stim/white_mw013.bmp","red","Keep","REAL","1"
"html-keyboard-response","149","411150","0.0-7.0-5.22","611d4519393cabb9a4a46ebd","bdp_wmem","Wed Mar 15 2023 23:37:21 GMT-0400 (Eastern Daylight Time)","638065","Match,No Match","","null","","","","","","<div class='trialBorder'><div class='vertical-center'><img src='img/correct.jpg'></div><div class='respDiv'><div class='respDivL'>Match<br>(e)</div><div class='respDivR'><font style='color:orange'>No Match<br>(i)</font></div></div></div>","null","FEEDBACK","","","","","","","","","","",""
"html-keyboard-response","150","411651","0.0-7.0-1.23","611d4519393cabb9a4a46ebd","bdp_wmem","Wed Mar 15 2023 23:37:21 GMT-0400 (Eastern Daylight Time)","638065","Match,No Match","","null","","","","","","<div class='trialBorder'><div class='vertical-center'><img src='img/fixation2_sml.jpg'</img></div></div>","null","FIX","","","","","","","","","","",""
"html-keyboard-response","151","414652","0.0-7.0-2.23","611d4519393cabb9a4a46ebd","bdp_wmem","Wed Mar 15 2023 23:37:21 GMT-0400 (Eastern Daylight Time)","638065","Match,No Match","","null","","","","","","<div class='trialBorder'><div class='vertical-center'><img style='vertical-align:center; align:center' src='img/fixation2_sml.jpg'></div><div class='arrayDiv2'><div class='tl'><img class='introPic' src='trustrating_stim/white_mw070.bmp'><br><font color='red'><strong>Keep</strong></font></div><div class='tr'><img class='introPic' src='trustrating_stim/white_mw013.bmp'><br><font color='green'><strong>Share</strong></font></div></div></div>","null","ARRAY","2","trustrating_stim/white_mw070.bmp,trustrating_stim/white_mw013.bmp","0,1","noMatchOutcome","i","3000","","","","",""
"html-keyboard-response","152","418654","0.0-7.0-3.23","611d4519393cabb9a4a46ebd","bdp_wmem","Wed Mar 15 2023 23:37:21 GMT-0400 (Eastern Daylight Time)","638065","Match,No Match","","null","","","","","","<div class='trialBorder'><div class='vertical-center'><img src='img/fixation2_sml.jpg'</img></div></div>","null","DELAY","","","","","","","","","","",""
"html-keyboard-response","153","420062","0.0-7.0-4.23","611d4519393cabb9a4a46ebd","bdp_wmem","Wed Mar 15 2023 23:37:21 GMT-0400 (Eastern Daylight Time)","638065","Match,No Match","","1407","","","","","","<div class='trialBorder'><div class='targDiv'><div class='tc'><img class='introPic' src='trustrating_stim/white_mw013.bmp'><br><font color='red'><strong>Keep</strong></font></div></div><div class='respDiv'><div class='respDivL'>Match<br>(e)</div><div class='respDivR'>No Match<br>(i)</div></div></div>","i","TARGET","2","trustrating_stim/white_mw070.bmp,trustrating_stim/white_mw013.bmp","0,1","noMatchOutcome","i","3000","trustrating_stim/white_mw013.bmp","red","Keep","REAL","1"
"html-keyboard-response","154","420563","0.0-7.0-5.23","611d4519393cabb9a4a46ebd","bdp_wmem","Wed Mar 15 2023 23:37:21 GMT-0400 (Eastern Daylight Time)","638065","Match,No Match","","null","","","","","","<div class='trialBorder'><div class='vertical-center'><img src='img/correct.jpg'></div><div class='respDiv'><div class='respDivL'>Match<br>(e)</div><div class='respDivR'><font style='color:orange'>No Match<br>(i)</font></div></div></div>","null","FEEDBACK","","","","","","","","","","",""
"html-keyboard-response","155","421065","0.0-7.0-1.24","611d4519393cabb9a4a46ebd","bdp_wmem","Wed Mar 15 2023 23:37:21 GMT-0400 (Eastern Daylight Time)","638065","Match,No Match","","null","","","","","","<div class='trialBorder'><div class='vertical-center'><img src='img/fixation2_sml.jpg'</img></div></div>","null","FIX","","","","","","","","","","",""
"html-keyboard-response","156","422566","0.0-7.0-2.24","611d4519393cabb9a4a46ebd","bdp_wmem","Wed Mar 15 2023 23:37:21 GMT-0400 (Eastern Daylight Time)","638065","Match,No Match","","null","","","","","","<div class='trialBorder'><div class='vertical-center'><img style='vertical-align:center; align:center' src='img/fixation2_sml.jpg'></div><div class='arrayDiv1'><div class='tc'><img class='introPic' src='trustrating_stim/white_mw078.bmp'><br><font color='red'><strong>Keep</strong></font></div></div></div>","null","ARRAY","1","trustrating_stim/white_mw078.bmp","0","noMatchFace","i","1500","","","","",""
"html-keyboard-response","157","426567","0.0-7.0-3.24","611d4519393cabb9a4a46ebd","bdp_wmem","Wed Mar 15 2023 23:37:21 GMT-0400 (Eastern Daylight Time)","638065","Match,No Match","","null","","","","","","<div class='trialBorder'><div class='vertical-center'><img src='img/fixation2_sml.jpg'</img></div></div>","null","DELAY","","","","","","","","","","",""
"html-keyboard-response","158","427700","0.0-7.0-4.24","611d4519393cabb9a4a46ebd","bdp_wmem","Wed Mar 15 2023 23:37:21 GMT-0400 (Eastern Daylight Time)","638065","Match,No Match","","1132","","","","","","<div class='trialBorder'><div class='targDiv'><div class='tc'><img class='introPic' src='trustrating_stim/white_mw013.bmp'><br><font color='red'><strong>Keep</strong></font></div></div><div class='respDiv'><div class='respDivL'>Match<br>(e)</div><div class='respDivR'>No Match<br>(i)</div></div></div>","i","TARGET","1","trustrating_stim/white_mw078.bmp","0","noMatchFace","i","1500","trustrating_stim/white_mw013.bmp","red","Keep","REAL","1"
"html-keyboard-response","159","428202","0.0-7.0-5.24","611d4519393cabb9a4a46ebd","bdp_wmem","Wed Mar 15 2023 23:37:21 GMT-0400 (Eastern Daylight Time)","638065","Match,No Match","","null","","","","","","<div class='trialBorder'><div class='vertical-center'><img src='img/correct.jpg'></div><div class='respDiv'><div class='respDivL'>Match<br>(e)</div><div class='respDivR'><font style='color:orange'>No Match<br>(i)</font></div></div></div>","null","FEEDBACK","","","","","","","","","","",""
"html-keyboard-response","160","428703","0.0-7.0-1.25","611d4519393cabb9a4a46ebd","bdp_wmem","Wed Mar 15 2023 23:37:21 GMT-0400 (Eastern Daylight Time)","638065","Match,No Match","","null","","","","","","<div class='trialBorder'><div class='vertical-center'><img src='img/fixation2_sml.jpg'</img></div></div>","null","FIX","","","","","","","","","","",""
"html-keyboard-response","161","431704","0.0-7.0-2.25","611d4519393cabb9a4a46ebd","bdp_wmem","Wed Mar 15 2023 23:37:21 GMT-0400 (Eastern Daylight Time)","638065","Match,No Match","","null","","","","","","<div class='trialBorder'><div class='vertical-center'><img style='vertical-align:center; align:center' src='img/fixation2_sml.jpg'></div><div class='arrayDiv2'><div class='tl'><img class='introPic' src='trustrating_stim/white_mw070.bmp'><br><font color='green'><strong>Share</strong></font></div><div class='tr'><img class='introPic' src='trustrating_stim/white_mw013.bmp'><br><font color='red'><strong>Keep</strong></font></div></div></div>","null","ARRAY","2","trustrating_stim/white_mw070.bmp,trustrating_stim/white_mw013.bmp","1,0","Match","e","3000","","","","",""
"html-keyboard-response","162","435705","0.0-7.0-3.25","611d4519393cabb9a4a46ebd","bdp_wmem","Wed Mar 15 2023 23:37:21 GMT-0400 (Eastern Daylight Time)","638065","Match,No Match","","null","","","","","","<div class='trialBorder'><div class='vertical-center'><img src='img/fixation2_sml.jpg'</img></div></div>","null","DELAY","","","","","","","","","","",""
"html-keyboard-response","163","437030","0.0-7.0-4.25","611d4519393cabb9a4a46ebd","bdp_wmem","Wed Mar 15 2023 23:37:21 GMT-0400 (Eastern Daylight Time)","638065","Match,No Match","","1324","","","","","","<div class='trialBorder'><div class='targDiv'><div class='tc'><img class='introPic' src='trustrating_stim/white_mw070.bmp'><br><font color='green'><strong>Share</strong></font></div></div><div class='respDiv'><div class='respDivL'>Match<br>(e)</div><div class='respDivR'>No Match<br>(i)</div></div></div>","e","TARGET","2","trustrating_stim/white_mw070.bmp,trustrating_stim/white_mw013.bmp","1,0","Match","e","3000","trustrating_stim/white_mw070.bmp","green","Share","REAL","1"
"html-keyboard-response","164","437532","0.0-7.0-5.25","611d4519393cabb9a4a46ebd","bdp_wmem","Wed Mar 15 2023 23:37:21 GMT-0400 (Eastern Daylight Time)","638065","Match,No Match","","null","","","","","","<div class='trialBorder'><div class='vertical-center'><img src='img/correct.jpg'></div><div class='respDiv'><div class='respDivL'><font style='color:orange'>Match<br>(e)</font></div><div class='respDivR'>No Match<br>(i)</div></div></div>","null","FEEDBACK","","","","","","","","","","",""
"html-keyboard-response","165","438033","0.0-7.0-1.26","611d4519393cabb9a4a46ebd","bdp_wmem","Wed Mar 15 2023 23:37:21 GMT-0400 (Eastern Daylight Time)","638065","Match,No Match","","null","","","","","","<div class='trialBorder'><div class='vertical-center'><img src='img/fixation2_sml.jpg'</img></div></div>","null","FIX","","","","","","","","","","",""
"html-keyboard-response","166","442537","0.0-7.0-2.26","611d4519393cabb9a4a46ebd","bdp_wmem","Wed Mar 15 2023 23:37:21 GMT-0400 (Eastern Daylight Time)","638065","Match,No Match","","null","","","","","","<div class='trialBorder'><div class='vertical-center'><img style='vertical-align:center; align:center' src='img/fixation2_sml.jpg'></div><div class='arrayDiv3'><div class='tl'><img class='introPic' src='trustrating_stim/white_mw092.bmp'><br><font color='green'><strong>Share</strong></font></div><div class='tc'><img class='introPic' src='trustrating_stim/white_mw091.bmp'><br><font color='red'><strong>Keep</strong></font></div><div class='tr'><img class='introPic' src='trustrating_stim/white_mw042.bmp'><br><font color='red'><strong>Keep</strong></font></div></div></div>","null","ARRAY","3","trustrating_stim/white_mw092.bmp,trustrating_stim/white_mw091.bmp,trustrating_stim/white_mw042.bmp","1,0,0","Match","e","4500","","","","",""
"html-keyboard-response","167","446539","0.0-7.0-3.26","611d4519393cabb9a4a46ebd","bdp_wmem","Wed Mar 15 2023 23:37:21 GMT-0400 (Eastern Daylight Time)","638065","Match,No Match","","null","","","","","","<div class='trialBorder'><div class='vertical-center'><img src='img/fixation2_sml.jpg'</img></div></div>","null","DELAY","","","","","","","","","","",""
"html-keyboard-response","168","447672","0.0-7.0-4.26","611d4519393cabb9a4a46ebd","bdp_wmem","Wed Mar 15 2023 23:37:21 GMT-0400 (Eastern Daylight Time)","638065","Match,No Match","","1132","","","","","","<div class='trialBorder'><div class='targDiv'><div class='tc'><img class='introPic' src='trustrating_stim/white_mw091.bmp'><br><font color='red'><strong>Keep</strong></font></div></div><div class='respDiv'><div class='respDivL'>Match<br>(e)</div><div class='respDivR'>No Match<br>(i)</div></div></div>","e","TARGET","3","trustrating_stim/white_mw092.bmp,trustrating_stim/white_mw091.bmp,trustrating_stim/white_mw042.bmp","1,0,0","Match","e","4500","trustrating_stim/white_mw091.bmp","red","Keep","REAL","1"
"html-keyboard-response","169","448173","0.0-7.0-5.26","611d4519393cabb9a4a46ebd","bdp_wmem","Wed Mar 15 2023 23:37:21 GMT-0400 (Eastern Daylight Time)","638065","Match,No Match","","null","","","","","","<div class='trialBorder'><div class='vertical-center'><img src='img/correct.jpg'></div><div class='respDiv'><div class='respDivL'><font style='color:orange'>Match<br>(e)</font></div><div class='respDivR'>No Match<br>(i)</div></div></div>","null","FEEDBACK","","","","","","","","","","",""
"html-keyboard-response","170","448675","0.0-7.0-1.27","611d4519393cabb9a4a46ebd","bdp_wmem","Wed Mar 15 2023 23:37:21 GMT-0400 (Eastern Daylight Time)","638065","Match,No Match","","null","","","","","","<div class='trialBorder'><div class='vertical-center'><img src='img/fixation2_sml.jpg'</img></div></div>","null","FIX","","","","","","","","","","",""
"html-keyboard-response","171","451677","0.0-7.0-2.27","611d4519393cabb9a4a46ebd","bdp_wmem","Wed Mar 15 2023 23:37:21 GMT-0400 (Eastern Daylight Time)","638065","Match,No Match","","null","","","","","","<div class='trialBorder'><div class='vertical-center'><img style='vertical-align:center; align:center' src='img/fixation2_sml.jpg'></div><div class='arrayDiv2'><div class='tl'><img class='introPic' src='trustrating_stim/white_mw070.bmp'><br><font color='red'><strong>Keep</strong></font></div><div class='tr'><img class='introPic' src='trustrating_stim/white_mw040.bmp'><br><font color='green'><strong>Share</strong></font></div></div></div>","null","ARRAY","2","trustrating_stim/white_mw070.bmp,trustrating_stim/white_mw040.bmp","0,1","noMatchOutcome","i","3000","","","","",""
"html-keyboard-response","172","455678","0.0-7.0-3.27","611d4519393cabb9a4a46ebd","bdp_wmem","Wed Mar 15 2023 23:37:21 GMT-0400 (Eastern Daylight Time)","638065","Match,No Match","","null","","","","","","<div class='trialBorder'><div class='vertical-center'><img src='img/fixation2_sml.jpg'</img></div></div>","null","DELAY","","","","","","","","","","",""
"html-keyboard-response","173","458133","0.0-7.0-4.27","611d4519393cabb9a4a46ebd","bdp_wmem","Wed Mar 15 2023 23:37:21 GMT-0400 (Eastern Daylight Time)","638065","Match,No Match","","2454","","","","","","<div class='trialBorder'><div class='targDiv'><div class='tc'><img class='introPic' src='trustrating_stim/white_mw040.bmp'><br><font color='red'><strong>Keep</strong></font></div></div><div class='respDiv'><div class='respDivL'>Match<br>(e)</div><div class='respDivR'>No Match<br>(i)</div></div></div>","e","TARGET","2","trustrating_stim/white_mw070.bmp,trustrating_stim/white_mw040.bmp","0,1","noMatchOutcome","i","3000","trustrating_stim/white_mw040.bmp","red","Keep","REAL","0"
"html-keyboard-response","174","458634","0.0-7.0-5.27","611d4519393cabb9a4a46ebd","bdp_wmem","Wed Mar 15 2023 23:37:21 GMT-0400 (Eastern Daylight Time)","638065","Match,No Match","","null","","","","","","<div class='trialBorder'><div class='vertical-center'><img src='img/error.jpg'></div><div class='respDiv'><div class='respDivL'><font style='color:orange'>Match<br>(e)</font></div><div class='respDivR'>No Match<br>(i)</div></div></div>","null","FEEDBACK","","","","","","","","","","",""
"html-keyboard-response","175","459136","0.0-7.0-1.28","611d4519393cabb9a4a46ebd","bdp_wmem","Wed Mar 15 2023 23:37:21 GMT-0400 (Eastern Daylight Time)","638065","Match,No Match","","null","","","","","","<div class='trialBorder'><div class='vertical-center'><img src='img/fixation2_sml.jpg'</img></div></div>","null","FIX","","","","","","","","","","",""
"html-keyboard-response","176","463638","0.0-7.0-2.28","611d4519393cabb9a4a46ebd","bdp_wmem","Wed Mar 15 2023 23:37:21 GMT-0400 (Eastern Daylight Time)","638065","Match,No Match","","null","","","","","","<div class='trialBorder'><div class='vertical-center'><img style='vertical-align:center; align:center' src='img/fixation2_sml.jpg'></div><div class='arrayDiv3'><div class='tl'><img class='introPic' src='trustrating_stim/white_mw040.bmp'><br><font color='green'><strong>Share</strong></font></div><div class='tc'><img class='introPic' src='trustrating_stim/white_mw042.bmp'><br><font color='green'><strong>Share</strong></font></div><div class='tr'><img class='introPic' src='trustrating_stim/white_mw013.bmp'><br><font color='red'><strong>Keep</strong></font></div></div></div>","null","ARRAY","3","trustrating_stim/white_mw040.bmp,trustrating_stim/white_mw042.bmp,trustrating_stim/white_mw013.bmp","1,1,0","noMatchFace","i","4500","","","","",""
"html-keyboard-response","177","467640","0.0-7.0-3.28","611d4519393cabb9a4a46ebd","bdp_wmem","Wed Mar 15 2023 23:37:21 GMT-0400 (Eastern Daylight Time)","638065","Match,No Match","","null","","","","","","<div class='trialBorder'><div class='vertical-center'><img src='img/fixation2_sml.jpg'</img></div></div>","null","DELAY","","","","","","","","","","",""
"html-keyboard-response","178","470130","0.0-7.0-4.28","611d4519393cabb9a4a46ebd","bdp_wmem","Wed Mar 15 2023 23:37:21 GMT-0400 (Eastern Daylight Time)","638065","Match,No Match","","2488","","","","","","<div class='trialBorder'><div class='targDiv'><div class='tc'><img class='introPic' src='trustrating_stim/white_mw085.bmp'><br><font color='green'><strong>Share</strong></font></div></div><div class='respDiv'><div class='respDivL'>Match<br>(e)</div><div class='respDivR'>No Match<br>(i)</div></div></div>","i","TARGET","3","trustrating_stim/white_mw040.bmp,trustrating_stim/white_mw042.bmp,trustrating_stim/white_mw013.bmp","1,1,0","noMatchFace","i","4500","trustrating_stim/white_mw085.bmp","green","Share","REAL","1"
"html-keyboard-response","179","470631","0.0-7.0-5.28","611d4519393cabb9a4a46ebd","bdp_wmem","Wed Mar 15 2023 23:37:21 GMT-0400 (Eastern Daylight Time)","638065","Match,No Match","","null","","","","","","<div class='trialBorder'><div class='vertical-center'><img src='img/correct.jpg'></div><div class='respDiv'><div class='respDivL'>Match<br>(e)</div><div class='respDivR'><font style='color:orange'>No Match<br>(i)</font></div></div></div>","null","FEEDBACK","","","","","","","","","","",""
"html-keyboard-response","180","471132","0.0-7.0-1.29","611d4519393cabb9a4a46ebd","bdp_wmem","Wed Mar 15 2023 23:37:21 GMT-0400 (Eastern Daylight Time)","638065","Match,No Match","","null","","","","","","<div class='trialBorder'><div class='vertical-center'><img src='img/fixation2_sml.jpg'</img></div></div>","null","FIX","","","","","","","","","","",""
"html-keyboard-response","181","472634","0.0-7.0-2.29","611d4519393cabb9a4a46ebd","bdp_wmem","Wed Mar 15 2023 23:37:21 GMT-0400 (Eastern Daylight Time)","638065","Match,No Match","","null","","","","","","<div class='trialBorder'><div class='vertical-center'><img style='vertical-align:center; align:center' src='img/fixation2_sml.jpg'></div><div class='arrayDiv1'><div class='tc'><img class='introPic' src='trustrating_stim/white_mw040.bmp'><br><font color='red'><strong>Keep</strong></font></div></div></div>","null","ARRAY","1","trustrating_stim/white_mw040.bmp","0","Match","e","1500","","","","",""
"html-keyboard-response","182","476636","0.0-7.0-3.29","611d4519393cabb9a4a46ebd","bdp_wmem","Wed Mar 15 2023 23:37:21 GMT-0400 (Eastern Daylight Time)","638065","Match,No Match","","null","","","","","","<div class='trialBorder'><div class='vertical-center'><img src='img/fixation2_sml.jpg'</img></div></div>","null","DELAY","","","","","","","","","","",""
"html-keyboard-response","183","477466","0.0-7.0-4.29","611d4519393cabb9a4a46ebd","bdp_wmem","Wed Mar 15 2023 23:37:21 GMT-0400 (Eastern Daylight Time)","638065","Match,No Match","","829","","","","","","<div class='trialBorder'><div class='targDiv'><div class='tc'><img class='introPic' src='trustrating_stim/white_mw040.bmp'><br><font color='red'><strong>Keep</strong></font></div></div><div class='respDiv'><div class='respDivL'>Match<br>(e)</div><div class='respDivR'>No Match<br>(i)</div></div></div>","e","TARGET","1","trustrating_stim/white_mw040.bmp","0","Match","e","1500","trustrating_stim/white_mw040.bmp","red","Keep","REAL","1"
"html-keyboard-response","184","477967","0.0-7.0-5.29","611d4519393cabb9a4a46ebd","bdp_wmem","Wed Mar 15 2023 23:37:21 GMT-0400 (Eastern Daylight Time)","638065","Match,No Match","","null","","","","","","<div class='trialBorder'><div class='vertical-center'><img src='img/correct.jpg'></div><div class='respDiv'><div class='respDivL'><font style='color:orange'>Match<br>(e)</font></div><div class='respDivR'>No Match<br>(i)</div></div></div>","null","FEEDBACK","","","","","","","","","","",""
"html-keyboard-response","185","478468","0.0-7.0-1.30","611d4519393cabb9a4a46ebd","bdp_wmem","Wed Mar 15 2023 23:37:21 GMT-0400 (Eastern Daylight Time)","638065","Match,No Match","","null","","","","","","<div class='trialBorder'><div class='vertical-center'><img src='img/fixation2_sml.jpg'</img></div></div>","null","FIX","","","","","","","","","","",""
"html-keyboard-response","186","481470","0.0-7.0-2.30","611d4519393cabb9a4a46ebd","bdp_wmem","Wed Mar 15 2023 23:37:21 GMT-0400 (Eastern Daylight Time)","638065","Match,No Match","","null","","","","","","<div class='trialBorder'><div class='vertical-center'><img style='vertical-align:center; align:center' src='img/fixation2_sml.jpg'></div><div class='arrayDiv2'><div class='tl'><img class='introPic' src='trustrating_stim/white_mw010.bmp'><br><font color='green'><strong>Share</strong></font></div><div class='tr'><img class='introPic' src='trustrating_stim/white_mw078.bmp'><br><font color='red'><strong>Keep</strong></font></div></div></div>","null","ARRAY","2","trustrating_stim/white_mw010.bmp,trustrating_stim/white_mw078.bmp","1,0","noMatchFace","i","3000","","","","",""
