"trial_type","trial_index","time_elapsed","internal_node_id","subject_id","task","startTime","totalTime","labels","event","trial","time","trialtype","numBlurs","view_history","rt","success","stimulus","key_press","stimType","arraySize","arrayFaces","arrayOutcomes","matchType","corrResp","arrayDur","targFace","targCol","targOutcome","trialType","corr"
"pavlovia","0","17","0.0-0.0","6135752aa4ee5158b0708670","bdp_wmem","Thu Jul 28 2022 00:53:58 GMT-0400 (hora de verano oriental)","701263","Match,No Match","","","","","","","","","","","","","","","","","","","","","",""
"","","","","6135752aa4ee5158b0708670","bdp_wmem","Thu Jul 28 2022 00:53:58 GMT-0400 (hora de verano oriental)","701263","Match,No Match","blur","1","9478","blurevent","1","","","","","","","","","","","","","","","","",""
"","","","","6135752aa4ee5158b0708670","bdp_wmem","Thu Jul 28 2022 00:53:58 GMT-0400 (hora de verano oriental)","701263","Match,No Match","focus","1","12826","focusevent","","","","","","","","","","","","","","","","","",""
"instructions","1","13852","0.0-1.0","6135752aa4ee5158b0708670","bdp_wmem","Thu Jul 28 2022 00:53:58 GMT-0400 (hora de verano oriental)","701263","Match,No Match","","","","","","[{""page_index"":0,""viewing_time"":13829}]","13829","","","","","","","","","","","","","","",""
"","","","","6135752aa4ee5158b0708670","bdp_wmem","Thu Jul 28 2022 00:53:58 GMT-0400 (hora de verano oriental)","701263","Match,No Match","fullscreenenter","2","15555","fullscreenenter","","","","","","","","","","","","","","","","","",""
"fullscreen","2","16512","0.0-2.0","6135752aa4ee5158b0708670","bdp_wmem","Thu Jul 28 2022 00:53:58 GMT-0400 (hora de verano oriental)","701263","Match,No Match","","","","","","","","true","","","","","","","","","","","","","",""
"instructions","3","162581","0.0-4.0","6135752aa4ee5158b0708670","bdp_wmem","Thu Jul 28 2022 00:53:58 GMT-0400 (hora de verano oriental)","701263","Match,No Match","","","","","","[{""page_index"":0,""viewing_time"":61547},{""page_index"":1,""viewing_time"":51439},{""page_index"":2,""viewing_time"":17080},{""page_index"":3,""viewing_time"":6185},{""page_index"":4,""viewing_time"":9815}]","146066","","","","","","","","","","","","","","",""
"html-keyboard-response","4","163089","0.0-5.0-1.0","6135752aa4ee5158b0708670","bdp_wmem","Thu Jul 28 2022 00:53:58 GMT-0400 (hora de verano oriental)","701263","Match,No Match","","","","","","","null","","<div class='trialBorder'><div class='vertical-center'><img src='img/fixation2_sml.jpg'</img></div></div>","null","FIX","","","","","","","","","","",""
"html-keyboard-response","5","166093","0.0-5.0-2.0","6135752aa4ee5158b0708670","bdp_wmem","Thu Jul 28 2022 00:53:58 GMT-0400 (hora de verano oriental)","701263","Match,No Match","","","","","","","null","","<div class='trialBorder'><div class='vertical-center'><img style='vertical-align:center; align:center' src='img/fixation2_sml.jpg'></div><div class='arrayDiv2'><div class='tl'><img class='introPic' src='trustrating_stim/white_mw042.bmp'><br><font color='red'><strong>Keep</strong></font></div><div class='tr'><img class='introPic' src='trustrating_stim/white_mw091.bmp'><br><font color='green'><strong>Share</strong></font></div></div></div>","null","ARRAY","2","trustrating_stim/white_mw042.bmp,trustrating_stim/white_mw091.bmp","0,1","Match","e","3000","","","","",""
"html-keyboard-response","6","170101","0.0-5.0-3.0","6135752aa4ee5158b0708670","bdp_wmem","Thu Jul 28 2022 00:53:58 GMT-0400 (hora de verano oriental)","701263","Match,No Match","","","","","","","null","","<div class='trialBorder'><div class='vertical-center'><img src='img/fixation2_sml.jpg'</img></div></div>","null","DELAY","","","","","","","","","","",""
"html-keyboard-response","7","172192","0.0-5.0-4.0","6135752aa4ee5158b0708670","bdp_wmem","Thu Jul 28 2022 00:53:58 GMT-0400 (hora de verano oriental)","701263","Match,No Match","","","","","","","2086","","<div class='trialBorder'><div class='targDiv'><div class='tc'><img class='introPic' src='trustrating_stim/white_mw042.bmp'><br><font color='red'><strong>Keep</strong></font></div></div><div class='respDiv'><div class='respDivL'>Match<br>(e)</div><div class='respDivR'>No Match<br>(i)</div></div></div>","e","TARGET","2","trustrating_stim/white_mw042.bmp,trustrating_stim/white_mw091.bmp","0,1","Match","e","3000","trustrating_stim/white_mw042.bmp","red","Keep","PRACTICE","1"
"html-keyboard-response","8","172699","0.0-5.0-5.0","6135752aa4ee5158b0708670","bdp_wmem","Thu Jul 28 2022 00:53:58 GMT-0400 (hora de verano oriental)","701263","Match,No Match","","","","","","","null","","<div class='trialBorder'><div class='vertical-center'><img src='img/correct.jpg'></div><div class='respDiv'><div class='respDivL'><font style='color:orange'>Match<br>(e)</font></div><div class='respDivR'>No Match<br>(i)</div></div></div>","null","FEEDBACK","","","","","","","","","","",""
"html-keyboard-response","9","173205","0.0-5.0-1.1","6135752aa4ee5158b0708670","bdp_wmem","Thu Jul 28 2022 00:53:58 GMT-0400 (hora de verano oriental)","701263","Match,No Match","","","","","","","null","","<div class='trialBorder'><div class='vertical-center'><img src='img/fixation2_sml.jpg'</img></div></div>","null","FIX","","","","","","","","","","",""
"html-keyboard-response","10","176211","0.0-5.0-2.1","6135752aa4ee5158b0708670","bdp_wmem","Thu Jul 28 2022 00:53:58 GMT-0400 (hora de verano oriental)","701263","Match,No Match","","","","","","","null","","<div class='trialBorder'><div class='vertical-center'><img style='vertical-align:center; align:center' src='img/fixation2_sml.jpg'></div><div class='arrayDiv2'><div class='tl'><img class='introPic' src='trustrating_stim/white_mw003.bmp'><br><font color='red'><strong>Keep</strong></font></div><div class='tr'><img class='introPic' src='trustrating_stim/white_mw040.bmp'><br><font color='green'><strong>Share</strong></font></div></div></div>","null","ARRAY","2","trustrating_stim/white_mw003.bmp,trustrating_stim/white_mw040.bmp","0,1","noMatchOutcome","i","3000","","","","",""
"html-keyboard-response","11","180216","0.0-5.0-3.1","6135752aa4ee5158b0708670","bdp_wmem","Thu Jul 28 2022 00:53:58 GMT-0400 (hora de verano oriental)","701263","Match,No Match","","","","","","","null","","<div class='trialBorder'><div class='vertical-center'><img src='img/fixation2_sml.jpg'</img></div></div>","null","DELAY","","","","","","","","","","",""
"html-keyboard-response","12","183150","0.0-5.0-4.1","6135752aa4ee5158b0708670","bdp_wmem","Thu Jul 28 2022 00:53:58 GMT-0400 (hora de verano oriental)","701263","Match,No Match","","","","","","","2928","","<div class='trialBorder'><div class='targDiv'><div class='tc'><img class='introPic' src='trustrating_stim/white_mw040.bmp'><br><font color='red'><strong>Keep</strong></font></div></div><div class='respDiv'><div class='respDivL'>Match<br>(e)</div><div class='respDivR'>No Match<br>(i)</div></div></div>","i","TARGET","2","trustrating_stim/white_mw003.bmp,trustrating_stim/white_mw040.bmp","0,1","noMatchOutcome","i","3000","trustrating_stim/white_mw040.bmp","red","Keep","PRACTICE","1"
"html-keyboard-response","13","183657","0.0-5.0-5.1","6135752aa4ee5158b0708670","bdp_wmem","Thu Jul 28 2022 00:53:58 GMT-0400 (hora de verano oriental)","701263","Match,No Match","","","","","","","null","","<div class='trialBorder'><div class='vertical-center'><img src='img/correct.jpg'></div><div class='respDiv'><div class='respDivL'>Match<br>(e)</div><div class='respDivR'><font style='color:orange'>No Match<br>(i)</font></div></div></div>","null","FEEDBACK","","","","","","","","","","",""
"html-keyboard-response","14","184162","0.0-5.0-1.2","6135752aa4ee5158b0708670","bdp_wmem","Thu Jul 28 2022 00:53:58 GMT-0400 (hora de verano oriental)","701263","Match,No Match","","","","","","","null","","<div class='trialBorder'><div class='vertical-center'><img src='img/fixation2_sml.jpg'</img></div></div>","null","FIX","","","","","","","","","","",""
"html-keyboard-response","15","185668","0.0-5.0-2.2","6135752aa4ee5158b0708670","bdp_wmem","Thu Jul 28 2022 00:53:58 GMT-0400 (hora de verano oriental)","701263","Match,No Match","","","","","","","null","","<div class='trialBorder'><div class='vertical-center'><img style='vertical-align:center; align:center' src='img/fixation2_sml.jpg'></div><div class='arrayDiv1'><div class='tc'><img class='introPic' src='trustrating_stim/white_mw091.bmp'><br><font color='red'><strong>Keep</strong></font></div></div></div>","null","ARRAY","1","trustrating_stim/white_mw091.bmp","0","noMatchFace","i","1500","","","","",""
"html-keyboard-response","16","189678","0.0-5.0-3.2","6135752aa4ee5158b0708670","bdp_wmem","Thu Jul 28 2022 00:53:58 GMT-0400 (hora de verano oriental)","701263","Match,No Match","","","","","","","null","","<div class='trialBorder'><div class='vertical-center'><img src='img/fixation2_sml.jpg'</img></div></div>","null","DELAY","","","","","","","","","","",""
"html-keyboard-response","17","191312","0.0-5.0-4.2","6135752aa4ee5158b0708670","bdp_wmem","Thu Jul 28 2022 00:53:58 GMT-0400 (hora de verano oriental)","701263","Match,No Match","","","","","","","1630","","<div class='trialBorder'><div class='targDiv'><div class='tc'><img class='introPic' src='trustrating_stim/white_mw003.bmp'><br><font color='red'><strong>Keep</strong></font></div></div><div class='respDiv'><div class='respDivL'>Match<br>(e)</div><div class='respDivR'>No Match<br>(i)</div></div></div>","i","TARGET","1","trustrating_stim/white_mw091.bmp","0","noMatchFace","i","1500","trustrating_stim/white_mw003.bmp","red","Keep","PRACTICE","1"
"html-keyboard-response","18","191817","0.0-5.0-5.2","6135752aa4ee5158b0708670","bdp_wmem","Thu Jul 28 2022 00:53:58 GMT-0400 (hora de verano oriental)","701263","Match,No Match","","","","","","","null","","<div class='trialBorder'><div class='vertical-center'><img src='img/correct.jpg'></div><div class='respDiv'><div class='respDivL'>Match<br>(e)</div><div class='respDivR'><font style='color:orange'>No Match<br>(i)</font></div></div></div>","null","FEEDBACK","","","","","","","","","","",""
"html-keyboard-response","19","192325","0.0-5.0-1.3","6135752aa4ee5158b0708670","bdp_wmem","Thu Jul 28 2022 00:53:58 GMT-0400 (hora de verano oriental)","701263","Match,No Match","","","","","","","null","","<div class='trialBorder'><div class='vertical-center'><img src='img/fixation2_sml.jpg'</img></div></div>","null","FIX","","","","","","","","","","",""
"html-keyboard-response","20","196833","0.0-5.0-2.3","6135752aa4ee5158b0708670","bdp_wmem","Thu Jul 28 2022 00:53:58 GMT-0400 (hora de verano oriental)","701263","Match,No Match","","","","","","","null","","<div class='trialBorder'><div class='vertical-center'><img style='vertical-align:center; align:center' src='img/fixation2_sml.jpg'></div><div class='arrayDiv3'><div class='tl'><img class='introPic' src='trustrating_stim/white_mw042.bmp'><br><font color='red'><strong>Keep</strong></font></div><div class='tc'><img class='introPic' src='trustrating_stim/white_mw003.bmp'><br><font color='red'><strong>Keep</strong></font></div><div class='tr'><img class='introPic' src='trustrating_stim/white_mw092.bmp'><br><font color='green'><strong>Share</strong></font></div></div></div>","null","ARRAY","3","trustrating_stim/white_mw042.bmp,trustrating_stim/white_mw003.bmp,trustrating_stim/white_mw092.bmp","0,0,1","noMatchOutcome","i","4500","","","","",""
"html-keyboard-response","21","200841","0.0-5.0-3.3","6135752aa4ee5158b0708670","bdp_wmem","Thu Jul 28 2022 00:53:58 GMT-0400 (hora de verano oriental)","701263","Match,No Match","","","","","","","null","","<div class='trialBorder'><div class='vertical-center'><img src='img/fixation2_sml.jpg'</img></div></div>","null","DELAY","","","","","","","","","","",""
"html-keyboard-response","22","203233","0.0-5.0-4.3","6135752aa4ee5158b0708670","bdp_wmem","Thu Jul 28 2022 00:53:58 GMT-0400 (hora de verano oriental)","701263","Match,No Match","","","","","","","2386","","<div class='trialBorder'><div class='targDiv'><div class='tc'><img class='introPic' src='trustrating_stim/white_mw042.bmp'><br><font color='green'><strong>Share</strong></font></div></div><div class='respDiv'><div class='respDivL'>Match<br>(e)</div><div class='respDivR'>No Match<br>(i)</div></div></div>","e","TARGET","3","trustrating_stim/white_mw042.bmp,trustrating_stim/white_mw003.bmp,trustrating_stim/white_mw092.bmp","0,0,1","noMatchOutcome","i","4500","trustrating_stim/white_mw042.bmp","green","Share","PRACTICE","0"
"html-keyboard-response","23","203741","0.0-5.0-5.3","6135752aa4ee5158b0708670","bdp_wmem","Thu Jul 28 2022 00:53:58 GMT-0400 (hora de verano oriental)","701263","Match,No Match","","","","","","","null","","<div class='trialBorder'><div class='vertical-center'><img src='img/error.jpg'></div><div class='respDiv'><div class='respDivL'><font style='color:orange'>Match<br>(e)</font></div><div class='respDivR'>No Match<br>(i)</div></div></div>","null","FEEDBACK","","","","","","","","","","",""
"html-keyboard-response","24","204246","0.0-5.0-1.4","6135752aa4ee5158b0708670","bdp_wmem","Thu Jul 28 2022 00:53:58 GMT-0400 (hora de verano oriental)","701263","Match,No Match","","","","","","","null","","<div class='trialBorder'><div class='vertical-center'><img src='img/fixation2_sml.jpg'</img></div></div>","null","FIX","","","","","","","","","","",""
"html-keyboard-response","25","205750","0.0-5.0-2.4","6135752aa4ee5158b0708670","bdp_wmem","Thu Jul 28 2022 00:53:58 GMT-0400 (hora de verano oriental)","701263","Match,No Match","","","","","","","null","","<div class='trialBorder'><div class='vertical-center'><img style='vertical-align:center; align:center' src='img/fixation2_sml.jpg'></div><div class='arrayDiv1'><div class='tc'><img class='introPic' src='trustrating_stim/white_mw078.bmp'><br><font color='green'><strong>Share</strong></font></div></div></div>","null","ARRAY","1","trustrating_stim/white_mw078.bmp","1","Match","e","1500","","","","",""
"html-keyboard-response","26","209761","0.0-5.0-3.4","6135752aa4ee5158b0708670","bdp_wmem","Thu Jul 28 2022 00:53:58 GMT-0400 (hora de verano oriental)","701263","Match,No Match","","","","","","","null","","<div class='trialBorder'><div class='vertical-center'><img src='img/fixation2_sml.jpg'</img></div></div>","null","DELAY","","","","","","","","","","",""
"html-keyboard-response","27","211196","0.0-5.0-4.4","6135752aa4ee5158b0708670","bdp_wmem","Thu Jul 28 2022 00:53:58 GMT-0400 (hora de verano oriental)","701263","Match,No Match","","","","","","","1431","","<div class='trialBorder'><div class='targDiv'><div class='tc'><img class='introPic' src='trustrating_stim/white_mw078.bmp'><br><font color='green'><strong>Share</strong></font></div></div><div class='respDiv'><div class='respDivL'>Match<br>(e)</div><div class='respDivR'>No Match<br>(i)</div></div></div>","e","TARGET","1","trustrating_stim/white_mw078.bmp","1","Match","e","1500","trustrating_stim/white_mw078.bmp","green","Share","PRACTICE","1"
"html-keyboard-response","28","211699","0.0-5.0-5.4","6135752aa4ee5158b0708670","bdp_wmem","Thu Jul 28 2022 00:53:58 GMT-0400 (hora de verano oriental)","701263","Match,No Match","","","","","","","null","","<div class='trialBorder'><div class='vertical-center'><img src='img/correct.jpg'></div><div class='respDiv'><div class='respDivL'><font style='color:orange'>Match<br>(e)</font></div><div class='respDivR'>No Match<br>(i)</div></div></div>","null","FEEDBACK","","","","","","","","","","",""
"html-keyboard-response","29","212211","0.0-5.0-1.5","6135752aa4ee5158b0708670","bdp_wmem","Thu Jul 28 2022 00:53:58 GMT-0400 (hora de verano oriental)","701263","Match,No Match","","","","","","","null","","<div class='trialBorder'><div class='vertical-center'><img src='img/fixation2_sml.jpg'</img></div></div>","null","FIX","","","","","","","","","","",""
"html-keyboard-response","30","216718","0.0-5.0-2.5","6135752aa4ee5158b0708670","bdp_wmem","Thu Jul 28 2022 00:53:58 GMT-0400 (hora de verano oriental)","701263","Match,No Match","","","","","","","null","","<div class='trialBorder'><div class='vertical-center'><img style='vertical-align:center; align:center' src='img/fixation2_sml.jpg'></div><div class='arrayDiv3'><div class='tl'><img class='introPic' src='trustrating_stim/white_mw038.bmp'><br><font color='red'><strong>Keep</strong></font></div><div class='tc'><img class='introPic' src='trustrating_stim/white_mw040.bmp'><br><font color='red'><strong>Keep</strong></font></div><div class='tr'><img class='introPic' src='trustrating_stim/white_mw013.bmp'><br><font color='green'><strong>Share</strong></font></div></div></div>","null","ARRAY","3","trustrating_stim/white_mw038.bmp,trustrating_stim/white_mw040.bmp,trustrating_stim/white_mw013.bmp","0,0,1","Match","e","4500","","","","",""
"html-keyboard-response","31","220723","0.0-5.0-3.5","6135752aa4ee5158b0708670","bdp_wmem","Thu Jul 28 2022 00:53:58 GMT-0400 (hora de verano oriental)","701263","Match,No Match","","","","","","","null","","<div class='trialBorder'><div class='vertical-center'><img src='img/fixation2_sml.jpg'</img></div></div>","null","DELAY","","","","","","","","","","",""
"html-keyboard-response","32","222396","0.0-5.0-4.5","6135752aa4ee5158b0708670","bdp_wmem","Thu Jul 28 2022 00:53:58 GMT-0400 (hora de verano oriental)","701263","Match,No Match","","","","","","","1670","","<div class='trialBorder'><div class='targDiv'><div class='tc'><img class='introPic' src='trustrating_stim/white_mw013.bmp'><br><font color='green'><strong>Share</strong></font></div></div><div class='respDiv'><div class='respDivL'>Match<br>(e)</div><div class='respDivR'>No Match<br>(i)</div></div></div>","e","TARGET","3","trustrating_stim/white_mw038.bmp,trustrating_stim/white_mw040.bmp,trustrating_stim/white_mw013.bmp","0,0,1","Match","e","4500","trustrating_stim/white_mw013.bmp","green","Share","PRACTICE","1"
"html-keyboard-response","33","222905","0.0-5.0-5.5","6135752aa4ee5158b0708670","bdp_wmem","Thu Jul 28 2022 00:53:58 GMT-0400 (hora de verano oriental)","701263","Match,No Match","","","","","","","null","","<div class='trialBorder'><div class='vertical-center'><img src='img/correct.jpg'></div><div class='respDiv'><div class='respDivL'><font style='color:orange'>Match<br>(e)</font></div><div class='respDivR'>No Match<br>(i)</div></div></div>","null","FEEDBACK","","","","","","","","","","",""
"instructions","34","234170","0.0-6.0","6135752aa4ee5158b0708670","bdp_wmem","Thu Jul 28 2022 00:53:58 GMT-0400 (hora de verano oriental)","701263","Match,No Match","","","","","","[{""page_index"":0,""viewing_time"":11263}]","11264","","","","","","","","","","","","","","",""
"html-keyboard-response","35","234678","0.0-7.0-1.0","6135752aa4ee5158b0708670","bdp_wmem","Thu Jul 28 2022 00:53:58 GMT-0400 (hora de verano oriental)","701263","Match,No Match","","","","","","","null","","<div class='trialBorder'><div class='vertical-center'><img src='img/fixation2_sml.jpg'</img></div></div>","null","FIX","","","","","","","","","","",""
"html-keyboard-response","36","237685","0.0-7.0-2.0","6135752aa4ee5158b0708670","bdp_wmem","Thu Jul 28 2022 00:53:58 GMT-0400 (hora de verano oriental)","701263","Match,No Match","","","","","","","null","","<div class='trialBorder'><div class='vertical-center'><img style='vertical-align:center; align:center' src='img/fixation2_sml.jpg'></div><div class='arrayDiv2'><div class='tl'><img class='introPic' src='trustrating_stim/white_mw085.bmp'><br><font color='red'><strong>Keep</strong></font></div><div class='tr'><img class='introPic' src='trustrating_stim/white_mw013.bmp'><br><font color='green'><strong>Share</strong></font></div></div></div>","null","ARRAY","2","trustrating_stim/white_mw085.bmp,trustrating_stim/white_mw013.bmp","0,1","Match","e","3000","","","","",""
"html-keyboard-response","37","241694","0.0-7.0-3.0","6135752aa4ee5158b0708670","bdp_wmem","Thu Jul 28 2022 00:53:58 GMT-0400 (hora de verano oriental)","701263","Match,No Match","","","","","","","null","","<div class='trialBorder'><div class='vertical-center'><img src='img/fixation2_sml.jpg'</img></div></div>","null","DELAY","","","","","","","","","","",""
"html-keyboard-response","38","243523","0.0-7.0-4.0","6135752aa4ee5158b0708670","bdp_wmem","Thu Jul 28 2022 00:53:58 GMT-0400 (hora de verano oriental)","701263","Match,No Match","","","","","","","1825","","<div class='trialBorder'><div class='targDiv'><div class='tc'><img class='introPic' src='trustrating_stim/white_mw085.bmp'><br><font color='red'><strong>Keep</strong></font></div></div><div class='respDiv'><div class='respDivL'>Match<br>(e)</div><div class='respDivR'>No Match<br>(i)</div></div></div>","e","TARGET","2","trustrating_stim/white_mw085.bmp,trustrating_stim/white_mw013.bmp","0,1","Match","e","3000","trustrating_stim/white_mw085.bmp","red","Keep","REAL","1"
"html-keyboard-response","39","244028","0.0-7.0-5.0","6135752aa4ee5158b0708670","bdp_wmem","Thu Jul 28 2022 00:53:58 GMT-0400 (hora de verano oriental)","701263","Match,No Match","","","","","","","null","","<div class='trialBorder'><div class='vertical-center'><img src='img/correct.jpg'></div><div class='respDiv'><div class='respDivL'><font style='color:orange'>Match<br>(e)</font></div><div class='respDivR'>No Match<br>(i)</div></div></div>","null","FEEDBACK","","","","","","","","","","",""
"html-keyboard-response","40","244533","0.0-7.0-1.1","6135752aa4ee5158b0708670","bdp_wmem","Thu Jul 28 2022 00:53:58 GMT-0400 (hora de verano oriental)","701263","Match,No Match","","","","","","","null","","<div class='trialBorder'><div class='vertical-center'><img src='img/fixation2_sml.jpg'</img></div></div>","null","FIX","","","","","","","","","","",""
"html-keyboard-response","41","249044","0.0-7.0-2.1","6135752aa4ee5158b0708670","bdp_wmem","Thu Jul 28 2022 00:53:58 GMT-0400 (hora de verano oriental)","701263","Match,No Match","","","","","","","null","","<div class='trialBorder'><div class='vertical-center'><img style='vertical-align:center; align:center' src='img/fixation2_sml.jpg'></div><div class='arrayDiv3'><div class='tl'><img class='introPic' src='trustrating_stim/white_mw040.bmp'><br><font color='red'><strong>Keep</strong></font></div><div class='tc'><img class='introPic' src='trustrating_stim/white_mw010.bmp'><br><font color='red'><strong>Keep</strong></font></div><div class='tr'><img class='introPic' src='trustrating_stim/white_mw085.bmp'><br><font color='green'><strong>Share</strong></font></div></div></div>","null","ARRAY","3","trustrating_stim/white_mw040.bmp,trustrating_stim/white_mw010.bmp,trustrating_stim/white_mw085.bmp","0,0,1","noMatchOutcome","i","4500","","","","",""
"html-keyboard-response","42","253055","0.0-7.0-3.1","6135752aa4ee5158b0708670","bdp_wmem","Thu Jul 28 2022 00:53:58 GMT-0400 (hora de verano oriental)","701263","Match,No Match","","","","","","","null","","<div class='trialBorder'><div class='vertical-center'><img src='img/fixation2_sml.jpg'</img></div></div>","null","DELAY","","","","","","","","","","",""
"html-keyboard-response","43","254462","0.0-7.0-4.1","6135752aa4ee5158b0708670","bdp_wmem","Thu Jul 28 2022 00:53:58 GMT-0400 (hora de verano oriental)","701263","Match,No Match","","","","","","","1400","","<div class='trialBorder'><div class='targDiv'><div class='tc'><img class='introPic' src='trustrating_stim/white_mw040.bmp'><br><font color='green'><strong>Share</strong></font></div></div><div class='respDiv'><div class='respDivL'>Match<br>(e)</div><div class='respDivR'>No Match<br>(i)</div></div></div>","e","TARGET","3","trustrating_stim/white_mw040.bmp,trustrating_stim/white_mw010.bmp,trustrating_stim/white_mw085.bmp","0,0,1","noMatchOutcome","i","4500","trustrating_stim/white_mw040.bmp","green","Share","REAL","0"
"html-keyboard-response","44","254973","0.0-7.0-5.1","6135752aa4ee5158b0708670","bdp_wmem","Thu Jul 28 2022 00:53:58 GMT-0400 (hora de verano oriental)","701263","Match,No Match","","","","","","","null","","<div class='trialBorder'><div class='vertical-center'><img src='img/error.jpg'></div><div class='respDiv'><div class='respDivL'><font style='color:orange'>Match<br>(e)</font></div><div class='respDivR'>No Match<br>(i)</div></div></div>","null","FEEDBACK","","","","","","","","","","",""
"html-keyboard-response","45","255480","0.0-7.0-1.2","6135752aa4ee5158b0708670","bdp_wmem","Thu Jul 28 2022 00:53:58 GMT-0400 (hora de verano oriental)","701263","Match,No Match","","","","","","","null","","<div class='trialBorder'><div class='vertical-center'><img src='img/fixation2_sml.jpg'</img></div></div>","null","FIX","","","","","","","","","","",""
"html-keyboard-response","46","256987","0.0-7.0-2.2","6135752aa4ee5158b0708670","bdp_wmem","Thu Jul 28 2022 00:53:58 GMT-0400 (hora de verano oriental)","701263","Match,No Match","","","","","","","null","","<div class='trialBorder'><div class='vertical-center'><img style='vertical-align:center; align:center' src='img/fixation2_sml.jpg'></div><div class='arrayDiv1'><div class='tc'><img class='introPic' src='trustrating_stim/white_mw078.bmp'><br><font color='green'><strong>Share</strong></font></div></div></div>","null","ARRAY","1","trustrating_stim/white_mw078.bmp","1","Match","e","1500","","","","",""
"html-keyboard-response","47","260993","0.0-7.0-3.2","6135752aa4ee5158b0708670","bdp_wmem","Thu Jul 28 2022 00:53:58 GMT-0400 (hora de verano oriental)","701263","Match,No Match","","","","","","","null","","<div class='trialBorder'><div class='vertical-center'><img src='img/fixation2_sml.jpg'</img></div></div>","null","DELAY","","","","","","","","","","",""
"html-keyboard-response","48","262224","0.0-7.0-4.2","6135752aa4ee5158b0708670","bdp_wmem","Thu Jul 28 2022 00:53:58 GMT-0400 (hora de verano oriental)","701263","Match,No Match","","","","","","","1226","","<div class='trialBorder'><div class='targDiv'><div class='tc'><img class='introPic' src='trustrating_stim/white_mw078.bmp'><br><font color='green'><strong>Share</strong></font></div></div><div class='respDiv'><div class='respDivL'>Match<br>(e)</div><div class='respDivR'>No Match<br>(i)</div></div></div>","e","TARGET","1","trustrating_stim/white_mw078.bmp","1","Match","e","1500","trustrating_stim/white_mw078.bmp","green","Share","REAL","1"
"html-keyboard-response","49","262729","0.0-7.0-5.2","6135752aa4ee5158b0708670","bdp_wmem","Thu Jul 28 2022 00:53:58 GMT-0400 (hora de verano oriental)","701263","Match,No Match","","","","","","","null","","<div class='trialBorder'><div class='vertical-center'><img src='img/correct.jpg'></div><div class='respDiv'><div class='respDivL'><font style='color:orange'>Match<br>(e)</font></div><div class='respDivR'>No Match<br>(i)</div></div></div>","null","FEEDBACK","","","","","","","","","","",""
"html-keyboard-response","50","263232","0.0-7.0-1.3","6135752aa4ee5158b0708670","bdp_wmem","Thu Jul 28 2022 00:53:58 GMT-0400 (hora de verano oriental)","701263","Match,No Match","","","","","","","null","","<div class='trialBorder'><div class='vertical-center'><img src='img/fixation2_sml.jpg'</img></div></div>","null","FIX","","","","","","","","","","",""
"html-keyboard-response","51","267743","0.0-7.0-2.3","6135752aa4ee5158b0708670","bdp_wmem","Thu Jul 28 2022 00:53:58 GMT-0400 (hora de verano oriental)","701263","Match,No Match","","","","","","","null","","<div class='trialBorder'><div class='vertical-center'><img style='vertical-align:center; align:center' src='img/fixation2_sml.jpg'></div><div class='arrayDiv3'><div class='tl'><img class='introPic' src='trustrating_stim/white_mw040.bmp'><br><font color='red'><strong>Keep</strong></font></div><div class='tc'><img class='introPic' src='trustrating_stim/white_mw078.bmp'><br><font color='red'><strong>Keep</strong></font></div><div class='tr'><img class='introPic' src='trustrating_stim/white_mw085.bmp'><br><font color='green'><strong>Share</strong></font></div></div></div>","null","ARRAY","3","trustrating_stim/white_mw040.bmp,trustrating_stim/white_mw078.bmp,trustrating_stim/white_mw085.bmp","0,0,1","noMatchFace","i","4500","","","","",""
"html-keyboard-response","52","271750","0.0-7.0-3.3","6135752aa4ee5158b0708670","bdp_wmem","Thu Jul 28 2022 00:53:58 GMT-0400 (hora de verano oriental)","701263","Match,No Match","","","","","","","null","","<div class='trialBorder'><div class='vertical-center'><img src='img/fixation2_sml.jpg'</img></div></div>","null","DELAY","","","","","","","","","","",""
"html-keyboard-response","53","273713","0.0-7.0-4.3","6135752aa4ee5158b0708670","bdp_wmem","Thu Jul 28 2022 00:53:58 GMT-0400 (hora de verano oriental)","701263","Match,No Match","","","","","","","1961","","<div class='trialBorder'><div class='targDiv'><div class='tc'><img class='introPic' src='trustrating_stim/white_mw042.bmp'><br><font color='red'><strong>Keep</strong></font></div></div><div class='respDiv'><div class='respDivL'>Match<br>(e)</div><div class='respDivR'>No Match<br>(i)</div></div></div>","e","TARGET","3","trustrating_stim/white_mw040.bmp,trustrating_stim/white_mw078.bmp,trustrating_stim/white_mw085.bmp","0,0,1","noMatchFace","i","4500","trustrating_stim/white_mw042.bmp","red","Keep","REAL","0"
"html-keyboard-response","54","274218","0.0-7.0-5.3","6135752aa4ee5158b0708670","bdp_wmem","Thu Jul 28 2022 00:53:58 GMT-0400 (hora de verano oriental)","701263","Match,No Match","","","","","","","null","","<div class='trialBorder'><div class='vertical-center'><img src='img/error.jpg'></div><div class='respDiv'><div class='respDivL'><font style='color:orange'>Match<br>(e)</font></div><div class='respDivR'>No Match<br>(i)</div></div></div>","null","FEEDBACK","","","","","","","","","","",""
"html-keyboard-response","55","274722","0.0-7.0-1.4","6135752aa4ee5158b0708670","bdp_wmem","Thu Jul 28 2022 00:53:58 GMT-0400 (hora de verano oriental)","701263","Match,No Match","","","","","","","null","","<div class='trialBorder'><div class='vertical-center'><img src='img/fixation2_sml.jpg'</img></div></div>","null","FIX","","","","","","","","","","",""
"html-keyboard-response","56","279227","0.0-7.0-2.4","6135752aa4ee5158b0708670","bdp_wmem","Thu Jul 28 2022 00:53:58 GMT-0400 (hora de verano oriental)","701263","Match,No Match","","","","","","","null","","<div class='trialBorder'><div class='vertical-center'><img style='vertical-align:center; align:center' src='img/fixation2_sml.jpg'></div><div class='arrayDiv3'><div class='tl'><img class='introPic' src='trustrating_stim/white_mw012.bmp'><br><font color='red'><strong>Keep</strong></font></div><div class='tc'><img class='introPic' src='trustrating_stim/white_mw010.bmp'><br><font color='red'><strong>Keep</strong></font></div><div class='tr'><img class='introPic' src='trustrating_stim/white_mw085.bmp'><br><font color='green'><strong>Share</strong></font></div></div></div>","null","ARRAY","3","trustrating_stim/white_mw012.bmp,trustrating_stim/white_mw010.bmp,trustrating_stim/white_mw085.bmp","0,0,1","noMatchFace","i","4500","","","","",""
"html-keyboard-response","57","283232","0.0-7.0-3.4","6135752aa4ee5158b0708670","bdp_wmem","Thu Jul 28 2022 00:53:58 GMT-0400 (hora de verano oriental)","701263","Match,No Match","","","","","","","null","","<div class='trialBorder'><div class='vertical-center'><img src='img/fixation2_sml.jpg'</img></div></div>","null","DELAY","","","","","","","","","","",""
"html-keyboard-response","58","284653","0.0-7.0-4.4","6135752aa4ee5158b0708670","bdp_wmem","Thu Jul 28 2022 00:53:58 GMT-0400 (hora de verano oriental)","701263","Match,No Match","","","","","","","1416","","<div class='trialBorder'><div class='targDiv'><div class='tc'><img class='introPic' src='trustrating_stim/white_mw003.bmp'><br><font color='red'><strong>Keep</strong></font></div></div><div class='respDiv'><div class='respDivL'>Match<br>(e)</div><div class='respDivR'>No Match<br>(i)</div></div></div>","i","TARGET","3","trustrating_stim/white_mw012.bmp,trustrating_stim/white_mw010.bmp,trustrating_stim/white_mw085.bmp","0,0,1","noMatchFace","i","4500","trustrating_stim/white_mw003.bmp","red","Keep","REAL","1"
"html-keyboard-response","59","285162","0.0-7.0-5.4","6135752aa4ee5158b0708670","bdp_wmem","Thu Jul 28 2022 00:53:58 GMT-0400 (hora de verano oriental)","701263","Match,No Match","","","","","","","null","","<div class='trialBorder'><div class='vertical-center'><img src='img/correct.jpg'></div><div class='respDiv'><div class='respDivL'>Match<br>(e)</div><div class='respDivR'><font style='color:orange'>No Match<br>(i)</font></div></div></div>","null","FEEDBACK","","","","","","","","","","",""
"html-keyboard-response","60","285669","0.0-7.0-1.5","6135752aa4ee5158b0708670","bdp_wmem","Thu Jul 28 2022 00:53:58 GMT-0400 (hora de verano oriental)","701263","Match,No Match","","","","","","","null","","<div class='trialBorder'><div class='vertical-center'><img src='img/fixation2_sml.jpg'</img></div></div>","null","FIX","","","","","","","","","","",""
"html-keyboard-response","61","287178","0.0-7.0-2.5","6135752aa4ee5158b0708670","bdp_wmem","Thu Jul 28 2022 00:53:58 GMT-0400 (hora de verano oriental)","701263","Match,No Match","","","","","","","null","","<div class='trialBorder'><div class='vertical-center'><img style='vertical-align:center; align:center' src='img/fixation2_sml.jpg'></div><div class='arrayDiv1'><div class='tc'><img class='introPic' src='trustrating_stim/white_mw078.bmp'><br><font color='green'><strong>Share</strong></font></div></div></div>","null","ARRAY","1","trustrating_stim/white_mw078.bmp","1","noMatchOutcome","i","1500","","","","",""
"html-keyboard-response","62","291184","0.0-7.0-3.5","6135752aa4ee5158b0708670","bdp_wmem","Thu Jul 28 2022 00:53:58 GMT-0400 (hora de verano oriental)","701263","Match,No Match","","","","","","","null","","<div class='trialBorder'><div class='vertical-center'><img src='img/fixation2_sml.jpg'</img></div></div>","null","DELAY","","","","","","","","","","",""
"html-keyboard-response","63","293679","0.0-7.0-4.5","6135752aa4ee5158b0708670","bdp_wmem","Thu Jul 28 2022 00:53:58 GMT-0400 (hora de verano oriental)","701263","Match,No Match","","","","","","","2491","","<div class='trialBorder'><div class='targDiv'><div class='tc'><img class='introPic' src='trustrating_stim/white_mw078.bmp'><br><font color='red'><strong>Keep</strong></font></div></div><div class='respDiv'><div class='respDivL'>Match<br>(e)</div><div class='respDivR'>No Match<br>(i)</div></div></div>","i","TARGET","1","trustrating_stim/white_mw078.bmp","1","noMatchOutcome","i","1500","trustrating_stim/white_mw078.bmp","red","Keep","REAL","1"
"html-keyboard-response","64","294184","0.0-7.0-5.5","6135752aa4ee5158b0708670","bdp_wmem","Thu Jul 28 2022 00:53:58 GMT-0400 (hora de verano oriental)","701263","Match,No Match","","","","","","","null","","<div class='trialBorder'><div class='vertical-center'><img src='img/correct.jpg'></div><div class='respDiv'><div class='respDivL'>Match<br>(e)</div><div class='respDivR'><font style='color:orange'>No Match<br>(i)</font></div></div></div>","null","FEEDBACK","","","","","","","","","","",""
"html-keyboard-response","65","294691","0.0-7.0-1.6","6135752aa4ee5158b0708670","bdp_wmem","Thu Jul 28 2022 00:53:58 GMT-0400 (hora de verano oriental)","701263","Match,No Match","","","","","","","null","","<div class='trialBorder'><div class='vertical-center'><img src='img/fixation2_sml.jpg'</img></div></div>","null","FIX","","","","","","","","","","",""
"html-keyboard-response","66","297699","0.0-7.0-2.6","6135752aa4ee5158b0708670","bdp_wmem","Thu Jul 28 2022 00:53:58 GMT-0400 (hora de verano oriental)","701263","Match,No Match","","","","","","","null","","<div class='trialBorder'><div class='vertical-center'><img style='vertical-align:center; align:center' src='img/fixation2_sml.jpg'></div><div class='arrayDiv2'><div class='tl'><img class='introPic' src='trustrating_stim/white_mw013.bmp'><br><font color='green'><strong>Share</strong></font></div><div class='tr'><img class='introPic' src='trustrating_stim/white_mw003.bmp'><br><font color='red'><strong>Keep</strong></font></div></div></div>","null","ARRAY","2","trustrating_stim/white_mw013.bmp,trustrating_stim/white_mw003.bmp","1,0","noMatchOutcome","i","3000","","","","",""
"html-keyboard-response","67","301707","0.0-7.0-3.6","6135752aa4ee5158b0708670","bdp_wmem","Thu Jul 28 2022 00:53:58 GMT-0400 (hora de verano oriental)","701263","Match,No Match","","","","","","","null","","<div class='trialBorder'><div class='vertical-center'><img src='img/fixation2_sml.jpg'</img></div></div>","null","DELAY","","","","","","","","","","",""
"html-keyboard-response","68","304979","0.0-7.0-4.6","6135752aa4ee5158b0708670","bdp_wmem","Thu Jul 28 2022 00:53:58 GMT-0400 (hora de verano oriental)","701263","Match,No Match","","","","","","","3268","","<div class='trialBorder'><div class='targDiv'><div class='tc'><img class='introPic' src='trustrating_stim/white_mw003.bmp'><br><font color='green'><strong>Share</strong></font></div></div><div class='respDiv'><div class='respDivL'>Match<br>(e)</div><div class='respDivR'>No Match<br>(i)</div></div></div>","i","TARGET","2","trustrating_stim/white_mw013.bmp,trustrating_stim/white_mw003.bmp","1,0","noMatchOutcome","i","3000","trustrating_stim/white_mw003.bmp","green","Share","REAL","1"
"html-keyboard-response","69","305483","0.0-7.0-5.6","6135752aa4ee5158b0708670","bdp_wmem","Thu Jul 28 2022 00:53:58 GMT-0400 (hora de verano oriental)","701263","Match,No Match","","","","","","","null","","<div class='trialBorder'><div class='vertical-center'><img src='img/correct.jpg'></div><div class='respDiv'><div class='respDivL'>Match<br>(e)</div><div class='respDivR'><font style='color:orange'>No Match<br>(i)</font></div></div></div>","null","FEEDBACK","","","","","","","","","","",""
"html-keyboard-response","70","305995","0.0-7.0-1.7","6135752aa4ee5158b0708670","bdp_wmem","Thu Jul 28 2022 00:53:58 GMT-0400 (hora de verano oriental)","701263","Match,No Match","","","","","","","null","","<div class='trialBorder'><div class='vertical-center'><img src='img/fixation2_sml.jpg'</img></div></div>","null","FIX","","","","","","","","","","",""
"html-keyboard-response","71","310501","0.0-7.0-2.7","6135752aa4ee5158b0708670","bdp_wmem","Thu Jul 28 2022 00:53:58 GMT-0400 (hora de verano oriental)","701263","Match,No Match","","","","","","","null","","<div class='trialBorder'><div class='vertical-center'><img style='vertical-align:center; align:center' src='img/fixation2_sml.jpg'></div><div class='arrayDiv3'><div class='tl'><img class='introPic' src='trustrating_stim/white_mw012.bmp'><br><font color='green'><strong>Share</strong></font></div><div class='tc'><img class='introPic' src='trustrating_stim/white_mw010.bmp'><br><font color='green'><strong>Share</strong></font></div><div class='tr'><img class='introPic' src='trustrating_stim/white_mw013.bmp'><br><font color='red'><strong>Keep</strong></font></div></div></div>","null","ARRAY","3","trustrating_stim/white_mw012.bmp,trustrating_stim/white_mw010.bmp,trustrating_stim/white_mw013.bmp","1,1,0","Match","e","4500","","","","",""
"html-keyboard-response","72","314505","0.0-7.0-3.7","6135752aa4ee5158b0708670","bdp_wmem","Thu Jul 28 2022 00:53:58 GMT-0400 (hora de verano oriental)","701263","Match,No Match","","","","","","","null","","<div class='trialBorder'><div class='vertical-center'><img src='img/fixation2_sml.jpg'</img></div></div>","null","DELAY","","","","","","","","","","",""
"html-keyboard-response","73","316338","0.0-7.0-4.7","6135752aa4ee5158b0708670","bdp_wmem","Thu Jul 28 2022 00:53:58 GMT-0400 (hora de verano oriental)","701263","Match,No Match","","","","","","","1828","","<div class='trialBorder'><div class='targDiv'><div class='tc'><img class='introPic' src='trustrating_stim/white_mw010.bmp'><br><font color='green'><strong>Share</strong></font></div></div><div class='respDiv'><div class='respDivL'>Match<br>(e)</div><div class='respDivR'>No Match<br>(i)</div></div></div>","e","TARGET","3","trustrating_stim/white_mw012.bmp,trustrating_stim/white_mw010.bmp,trustrating_stim/white_mw013.bmp","1,1,0","Match","e","4500","trustrating_stim/white_mw010.bmp","green","Share","REAL","1"
"html-keyboard-response","74","316840","0.0-7.0-5.7","6135752aa4ee5158b0708670","bdp_wmem","Thu Jul 28 2022 00:53:58 GMT-0400 (hora de verano oriental)","701263","Match,No Match","","","","","","","null","","<div class='trialBorder'><div class='vertical-center'><img src='img/correct.jpg'></div><div class='respDiv'><div class='respDivL'><font style='color:orange'>Match<br>(e)</font></div><div class='respDivR'>No Match<br>(i)</div></div></div>","null","FEEDBACK","","","","","","","","","","",""
"html-keyboard-response","75","317344","0.0-7.0-1.8","6135752aa4ee5158b0708670","bdp_wmem","Thu Jul 28 2022 00:53:58 GMT-0400 (hora de verano oriental)","701263","Match,No Match","","","","","","","null","","<div class='trialBorder'><div class='vertical-center'><img src='img/fixation2_sml.jpg'</img></div></div>","null","FIX","","","","","","","","","","",""
"html-keyboard-response","76","320351","0.0-7.0-2.8","6135752aa4ee5158b0708670","bdp_wmem","Thu Jul 28 2022 00:53:58 GMT-0400 (hora de verano oriental)","701263","Match,No Match","","","","","","","null","","<div class='trialBorder'><div class='vertical-center'><img style='vertical-align:center; align:center' src='img/fixation2_sml.jpg'></div><div class='arrayDiv2'><div class='tl'><img class='introPic' src='trustrating_stim/white_mw042.bmp'><br><font color='red'><strong>Keep</strong></font></div><div class='tr'><img class='introPic' src='trustrating_stim/white_mw010.bmp'><br><font color='green'><strong>Share</strong></font></div></div></div>","null","ARRAY","2","trustrating_stim/white_mw042.bmp,trustrating_stim/white_mw010.bmp","0,1","noMatchOutcome","i","3000","","","","",""
"html-keyboard-response","77","324359","0.0-7.0-3.8","6135752aa4ee5158b0708670","bdp_wmem","Thu Jul 28 2022 00:53:58 GMT-0400 (hora de verano oriental)","701263","Match,No Match","","","","","","","null","","<div class='trialBorder'><div class='vertical-center'><img src='img/fixation2_sml.jpg'</img></div></div>","null","DELAY","","","","","","","","","","",""
"html-keyboard-response","78","327426","0.0-7.0-4.8","6135752aa4ee5158b0708670","bdp_wmem","Thu Jul 28 2022 00:53:58 GMT-0400 (hora de verano oriental)","701263","Match,No Match","","","","","","","3065","","<div class='trialBorder'><div class='targDiv'><div class='tc'><img class='introPic' src='trustrating_stim/white_mw010.bmp'><br><font color='red'><strong>Keep</strong></font></div></div><div class='respDiv'><div class='respDivL'>Match<br>(e)</div><div class='respDivR'>No Match<br>(i)</div></div></div>","e","TARGET","2","trustrating_stim/white_mw042.bmp,trustrating_stim/white_mw010.bmp","0,1","noMatchOutcome","i","3000","trustrating_stim/white_mw010.bmp","red","Keep","REAL","0"
"html-keyboard-response","79","327936","0.0-7.0-5.8","6135752aa4ee5158b0708670","bdp_wmem","Thu Jul 28 2022 00:53:58 GMT-0400 (hora de verano oriental)","701263","Match,No Match","","","","","","","null","","<div class='trialBorder'><div class='vertical-center'><img src='img/error.jpg'></div><div class='respDiv'><div class='respDivL'><font style='color:orange'>Match<br>(e)</font></div><div class='respDivR'>No Match<br>(i)</div></div></div>","null","FEEDBACK","","","","","","","","","","",""
"html-keyboard-response","80","328441","0.0-7.0-1.9","6135752aa4ee5158b0708670","bdp_wmem","Thu Jul 28 2022 00:53:58 GMT-0400 (hora de verano oriental)","701263","Match,No Match","","","","","","","null","","<div class='trialBorder'><div class='vertical-center'><img src='img/fixation2_sml.jpg'</img></div></div>","null","FIX","","","","","","","","","","",""
"html-keyboard-response","81","331446","0.0-7.0-2.9","6135752aa4ee5158b0708670","bdp_wmem","Thu Jul 28 2022 00:53:58 GMT-0400 (hora de verano oriental)","701263","Match,No Match","","","","","","","null","","<div class='trialBorder'><div class='vertical-center'><img style='vertical-align:center; align:center' src='img/fixation2_sml.jpg'></div><div class='arrayDiv2'><div class='tl'><img class='introPic' src='trustrating_stim/white_mw091.bmp'><br><font color='red'><strong>Keep</strong></font></div><div class='tr'><img class='introPic' src='trustrating_stim/white_mw013.bmp'><br><font color='green'><strong>Share</strong></font></div></div></div>","null","ARRAY","2","trustrating_stim/white_mw091.bmp,trustrating_stim/white_mw013.bmp","0,1","noMatchFace","i","3000","","","","",""
"html-keyboard-response","82","335454","0.0-7.0-3.9","6135752aa4ee5158b0708670","bdp_wmem","Thu Jul 28 2022 00:53:58 GMT-0400 (hora de verano oriental)","701263","Match,No Match","","","","","","","null","","<div class='trialBorder'><div class='vertical-center'><img src='img/fixation2_sml.jpg'</img></div></div>","null","DELAY","","","","","","","","","","",""
"html-keyboard-response","83","336649","0.0-7.0-4.9","6135752aa4ee5158b0708670","bdp_wmem","Thu Jul 28 2022 00:53:58 GMT-0400 (hora de verano oriental)","701263","Match,No Match","","","","","","","1191","","<div class='trialBorder'><div class='targDiv'><div class='tc'><img class='introPic' src='trustrating_stim/white_mw078.bmp'><br><font color='green'><strong>Share</strong></font></div></div><div class='respDiv'><div class='respDivL'>Match<br>(e)</div><div class='respDivR'>No Match<br>(i)</div></div></div>","i","TARGET","2","trustrating_stim/white_mw091.bmp,trustrating_stim/white_mw013.bmp","0,1","noMatchFace","i","3000","trustrating_stim/white_mw078.bmp","green","Share","REAL","1"
"html-keyboard-response","84","337153","0.0-7.0-5.9","6135752aa4ee5158b0708670","bdp_wmem","Thu Jul 28 2022 00:53:58 GMT-0400 (hora de verano oriental)","701263","Match,No Match","","","","","","","null","","<div class='trialBorder'><div class='vertical-center'><img src='img/correct.jpg'></div><div class='respDiv'><div class='respDivL'>Match<br>(e)</div><div class='respDivR'><font style='color:orange'>No Match<br>(i)</font></div></div></div>","null","FEEDBACK","","","","","","","","","","",""
"html-keyboard-response","85","337662","0.0-7.0-1.10","6135752aa4ee5158b0708670","bdp_wmem","Thu Jul 28 2022 00:53:58 GMT-0400 (hora de verano oriental)","701263","Match,No Match","","","","","","","null","","<div class='trialBorder'><div class='vertical-center'><img src='img/fixation2_sml.jpg'</img></div></div>","null","FIX","","","","","","","","","","",""
"html-keyboard-response","86","340669","0.0-7.0-2.10","6135752aa4ee5158b0708670","bdp_wmem","Thu Jul 28 2022 00:53:58 GMT-0400 (hora de verano oriental)","701263","Match,No Match","","","","","","","null","","<div class='trialBorder'><div class='vertical-center'><img style='vertical-align:center; align:center' src='img/fixation2_sml.jpg'></div><div class='arrayDiv2'><div class='tl'><img class='introPic' src='trustrating_stim/white_mw091.bmp'><br><font color='red'><strong>Keep</strong></font></div><div class='tr'><img class='introPic' src='trustrating_stim/white_mw040.bmp'><br><font color='green'><strong>Share</strong></font></div></div></div>","null","ARRAY","2","trustrating_stim/white_mw091.bmp,trustrating_stim/white_mw040.bmp","0,1","Match","e","3000","","","","",""
"html-keyboard-response","87","344680","0.0-7.0-3.10","6135752aa4ee5158b0708670","bdp_wmem","Thu Jul 28 2022 00:53:58 GMT-0400 (hora de verano oriental)","701263","Match,No Match","","","","","","","null","","<div class='trialBorder'><div class='vertical-center'><img src='img/fixation2_sml.jpg'</img></div></div>","null","DELAY","","","","","","","","","","",""
"html-keyboard-response","88","346037","0.0-7.0-4.10","6135752aa4ee5158b0708670","bdp_wmem","Thu Jul 28 2022 00:53:58 GMT-0400 (hora de verano oriental)","701263","Match,No Match","","","","","","","1352","","<div class='trialBorder'><div class='targDiv'><div class='tc'><img class='introPic' src='trustrating_stim/white_mw040.bmp'><br><font color='green'><strong>Share</strong></font></div></div><div class='respDiv'><div class='respDivL'>Match<br>(e)</div><div class='respDivR'>No Match<br>(i)</div></div></div>","e","TARGET","2","trustrating_stim/white_mw091.bmp,trustrating_stim/white_mw040.bmp","0,1","Match","e","3000","trustrating_stim/white_mw040.bmp","green","Share","REAL","1"
"html-keyboard-response","89","346542","0.0-7.0-5.10","6135752aa4ee5158b0708670","bdp_wmem","Thu Jul 28 2022 00:53:58 GMT-0400 (hora de verano oriental)","701263","Match,No Match","","","","","","","null","","<div class='trialBorder'><div class='vertical-center'><img src='img/correct.jpg'></div><div class='respDiv'><div class='respDivL'><font style='color:orange'>Match<br>(e)</font></div><div class='respDivR'>No Match<br>(i)</div></div></div>","null","FEEDBACK","","","","","","","","","","",""
"html-keyboard-response","90","347051","0.0-7.0-1.11","6135752aa4ee5158b0708670","bdp_wmem","Thu Jul 28 2022 00:53:58 GMT-0400 (hora de verano oriental)","701263","Match,No Match","","","","","","","null","","<div class='trialBorder'><div class='vertical-center'><img src='img/fixation2_sml.jpg'</img></div></div>","null","FIX","","","","","","","","","","",""
"html-keyboard-response","91","351561","0.0-7.0-2.11","6135752aa4ee5158b0708670","bdp_wmem","Thu Jul 28 2022 00:53:58 GMT-0400 (hora de verano oriental)","701263","Match,No Match","","","","","","","null","","<div class='trialBorder'><div class='vertical-center'><img style='vertical-align:center; align:center' src='img/fixation2_sml.jpg'></div><div class='arrayDiv3'><div class='tl'><img class='introPic' src='trustrating_stim/white_mw040.bmp'><br><font color='red'><strong>Keep</strong></font></div><div class='tc'><img class='introPic' src='trustrating_stim/white_mw091.bmp'><br><font color='green'><strong>Share</strong></font></div><div class='tr'><img class='introPic' src='trustrating_stim/white_mw038.bmp'><br><font color='green'><strong>Share</strong></font></div></div></div>","null","ARRAY","3","trustrating_stim/white_mw040.bmp,trustrating_stim/white_mw091.bmp,trustrating_stim/white_mw038.bmp","0,1,1","Match","e","4500","","","","",""
"html-keyboard-response","92","355565","0.0-7.0-3.11","6135752aa4ee5158b0708670","bdp_wmem","Thu Jul 28 2022 00:53:58 GMT-0400 (hora de verano oriental)","701263","Match,No Match","","","","","","","null","","<div class='trialBorder'><div class='vertical-center'><img src='img/fixation2_sml.jpg'</img></div></div>","null","DELAY","","","","","","","","","","",""
"html-keyboard-response","93","357154","0.0-7.0-4.11","6135752aa4ee5158b0708670","bdp_wmem","Thu Jul 28 2022 00:53:58 GMT-0400 (hora de verano oriental)","701263","Match,No Match","","","","","","","1584","","<div class='trialBorder'><div class='targDiv'><div class='tc'><img class='introPic' src='trustrating_stim/white_mw038.bmp'><br><font color='green'><strong>Share</strong></font></div></div><div class='respDiv'><div class='respDivL'>Match<br>(e)</div><div class='respDivR'>No Match<br>(i)</div></div></div>","e","TARGET","3","trustrating_stim/white_mw040.bmp,trustrating_stim/white_mw091.bmp,trustrating_stim/white_mw038.bmp","0,1,1","Match","e","4500","trustrating_stim/white_mw038.bmp","green","Share","REAL","1"
"html-keyboard-response","94","357665","0.0-7.0-5.11","6135752aa4ee5158b0708670","bdp_wmem","Thu Jul 28 2022 00:53:58 GMT-0400 (hora de verano oriental)","701263","Match,No Match","","","","","","","null","","<div class='trialBorder'><div class='vertical-center'><img src='img/correct.jpg'></div><div class='respDiv'><div class='respDivL'><font style='color:orange'>Match<br>(e)</font></div><div class='respDivR'>No Match<br>(i)</div></div></div>","null","FEEDBACK","","","","","","","","","","",""
"html-keyboard-response","95","358170","0.0-7.0-1.12","6135752aa4ee5158b0708670","bdp_wmem","Thu Jul 28 2022 00:53:58 GMT-0400 (hora de verano oriental)","701263","Match,No Match","","","","","","","null","","<div class='trialBorder'><div class='vertical-center'><img src='img/fixation2_sml.jpg'</img></div></div>","null","FIX","","","","","","","","","","",""
"html-keyboard-response","96","362679","0.0-7.0-2.12","6135752aa4ee5158b0708670","bdp_wmem","Thu Jul 28 2022 00:53:58 GMT-0400 (hora de verano oriental)","701263","Match,No Match","","","","","","","null","","<div class='trialBorder'><div class='vertical-center'><img style='vertical-align:center; align:center' src='img/fixation2_sml.jpg'></div><div class='arrayDiv3'><div class='tl'><img class='introPic' src='trustrating_stim/white_mw085.bmp'><br><font color='green'><strong>Share</strong></font></div><div class='tc'><img class='introPic' src='trustrating_stim/white_mw042.bmp'><br><font color='red'><strong>Keep</strong></font></div><div class='tr'><img class='introPic' src='trustrating_stim/white_mw038.bmp'><br><font color='green'><strong>Share</strong></font></div></div></div>","null","ARRAY","3","trustrating_stim/white_mw085.bmp,trustrating_stim/white_mw042.bmp,trustrating_stim/white_mw038.bmp","1,0,1","noMatchOutcome","i","4500","","","","",""
"html-keyboard-response","97","366690","0.0-7.0-3.12","6135752aa4ee5158b0708670","bdp_wmem","Thu Jul 28 2022 00:53:58 GMT-0400 (hora de verano oriental)","701263","Match,No Match","","","","","","","null","","<div class='trialBorder'><div class='vertical-center'><img src='img/fixation2_sml.jpg'</img></div></div>","null","DELAY","","","","","","","","","","",""
"html-keyboard-response","98","368289","0.0-7.0-4.12","6135752aa4ee5158b0708670","bdp_wmem","Thu Jul 28 2022 00:53:58 GMT-0400 (hora de verano oriental)","701263","Match,No Match","","","","","","","1595","","<div class='trialBorder'><div class='targDiv'><div class='tc'><img class='introPic' src='trustrating_stim/white_mw042.bmp'><br><font color='green'><strong>Share</strong></font></div></div><div class='respDiv'><div class='respDivL'>Match<br>(e)</div><div class='respDivR'>No Match<br>(i)</div></div></div>","i","TARGET","3","trustrating_stim/white_mw085.bmp,trustrating_stim/white_mw042.bmp,trustrating_stim/white_mw038.bmp","1,0,1","noMatchOutcome","i","4500","trustrating_stim/white_mw042.bmp","green","Share","REAL","1"
"html-keyboard-response","99","368793","0.0-7.0-5.12","6135752aa4ee5158b0708670","bdp_wmem","Thu Jul 28 2022 00:53:58 GMT-0400 (hora de verano oriental)","701263","Match,No Match","","","","","","","null","","<div class='trialBorder'><div class='vertical-center'><img src='img/correct.jpg'></div><div class='respDiv'><div class='respDivL'>Match<br>(e)</div><div class='respDivR'><font style='color:orange'>No Match<br>(i)</font></div></div></div>","null","FEEDBACK","","","","","","","","","","",""
"html-keyboard-response","100","369301","0.0-7.0-1.13","6135752aa4ee5158b0708670","bdp_wmem","Thu Jul 28 2022 00:53:58 GMT-0400 (hora de verano oriental)","701263","Match,No Match","","","","","","","null","","<div class='trialBorder'><div class='vertical-center'><img src='img/fixation2_sml.jpg'</img></div></div>","null","FIX","","","","","","","","","","",""
"html-keyboard-response","101","372309","0.0-7.0-2.13","6135752aa4ee5158b0708670","bdp_wmem","Thu Jul 28 2022 00:53:58 GMT-0400 (hora de verano oriental)","701263","Match,No Match","","","","","","","null","","<div class='trialBorder'><div class='vertical-center'><img style='vertical-align:center; align:center' src='img/fixation2_sml.jpg'></div><div class='arrayDiv2'><div class='tl'><img class='introPic' src='trustrating_stim/white_mw013.bmp'><br><font color='red'><strong>Keep</strong></font></div><div class='tr'><img class='introPic' src='trustrating_stim/white_mw091.bmp'><br><font color='green'><strong>Share</strong></font></div></div></div>","null","ARRAY","2","trustrating_stim/white_mw013.bmp,trustrating_stim/white_mw091.bmp","0,1","Match","e","3000","","","","",""
"html-keyboard-response","102","376316","0.0-7.0-3.13","6135752aa4ee5158b0708670","bdp_wmem","Thu Jul 28 2022 00:53:58 GMT-0400 (hora de verano oriental)","701263","Match,No Match","","","","","","","null","","<div class='trialBorder'><div class='vertical-center'><img src='img/fixation2_sml.jpg'</img></div></div>","null","DELAY","","","","","","","","","","",""
"html-keyboard-response","103","378159","0.0-7.0-4.13","6135752aa4ee5158b0708670","bdp_wmem","Thu Jul 28 2022 00:53:58 GMT-0400 (hora de verano oriental)","701263","Match,No Match","","","","","","","1841","","<div class='trialBorder'><div class='targDiv'><div class='tc'><img class='introPic' src='trustrating_stim/white_mw013.bmp'><br><font color='red'><strong>Keep</strong></font></div></div><div class='respDiv'><div class='respDivL'>Match<br>(e)</div><div class='respDivR'>No Match<br>(i)</div></div></div>","e","TARGET","2","trustrating_stim/white_mw013.bmp,trustrating_stim/white_mw091.bmp","0,1","Match","e","3000","trustrating_stim/white_mw013.bmp","red","Keep","REAL","1"
"html-keyboard-response","104","378675","0.0-7.0-5.13","6135752aa4ee5158b0708670","bdp_wmem","Thu Jul 28 2022 00:53:58 GMT-0400 (hora de verano oriental)","701263","Match,No Match","","","","","","","null","","<div class='trialBorder'><div class='vertical-center'><img src='img/correct.jpg'></div><div class='respDiv'><div class='respDivL'><font style='color:orange'>Match<br>(e)</font></div><div class='respDivR'>No Match<br>(i)</div></div></div>","null","FEEDBACK","","","","","","","","","","",""
"html-keyboard-response","105","379179","0.0-7.0-1.14","6135752aa4ee5158b0708670","bdp_wmem","Thu Jul 28 2022 00:53:58 GMT-0400 (hora de verano oriental)","701263","Match,No Match","","","","","","","null","","<div class='trialBorder'><div class='vertical-center'><img src='img/fixation2_sml.jpg'</img></div></div>","null","FIX","","","","","","","","","","",""
"html-keyboard-response","106","383683","0.0-7.0-2.14","6135752aa4ee5158b0708670","bdp_wmem","Thu Jul 28 2022 00:53:58 GMT-0400 (hora de verano oriental)","701263","Match,No Match","","","","","","","null","","<div class='trialBorder'><div class='vertical-center'><img style='vertical-align:center; align:center' src='img/fixation2_sml.jpg'></div><div class='arrayDiv3'><div class='tl'><img class='introPic' src='trustrating_stim/white_mw013.bmp'><br><font color='green'><strong>Share</strong></font></div><div class='tc'><img class='introPic' src='trustrating_stim/white_mw010.bmp'><br><font color='green'><strong>Share</strong></font></div><div class='tr'><img class='introPic' src='trustrating_stim/white_mw003.bmp'><br><font color='red'><strong>Keep</strong></font></div></div></div>","null","ARRAY","3","trustrating_stim/white_mw013.bmp,trustrating_stim/white_mw010.bmp,trustrating_stim/white_mw003.bmp","1,1,0","Match","e","4500","","","","",""
"html-keyboard-response","107","387690","0.0-7.0-3.14","6135752aa4ee5158b0708670","bdp_wmem","Thu Jul 28 2022 00:53:58 GMT-0400 (hora de verano oriental)","701263","Match,No Match","","","","","","","null","","<div class='trialBorder'><div class='vertical-center'><img src='img/fixation2_sml.jpg'</img></div></div>","null","DELAY","","","","","","","","","","",""
"html-keyboard-response","108","390386","0.0-7.0-4.14","6135752aa4ee5158b0708670","bdp_wmem","Thu Jul 28 2022 00:53:58 GMT-0400 (hora de verano oriental)","701263","Match,No Match","","","","","","","2693","","<div class='trialBorder'><div class='targDiv'><div class='tc'><img class='introPic' src='trustrating_stim/white_mw013.bmp'><br><font color='green'><strong>Share</strong></font></div></div><div class='respDiv'><div class='respDivL'>Match<br>(e)</div><div class='respDivR'>No Match<br>(i)</div></div></div>","i","TARGET","3","trustrating_stim/white_mw013.bmp,trustrating_stim/white_mw010.bmp,trustrating_stim/white_mw003.bmp","1,1,0","Match","e","4500","trustrating_stim/white_mw013.bmp","green","Share","REAL","0"
"html-keyboard-response","109","390896","0.0-7.0-5.14","6135752aa4ee5158b0708670","bdp_wmem","Thu Jul 28 2022 00:53:58 GMT-0400 (hora de verano oriental)","701263","Match,No Match","","","","","","","null","","<div class='trialBorder'><div class='vertical-center'><img src='img/error.jpg'></div><div class='respDiv'><div class='respDivL'>Match<br>(e)</div><div class='respDivR'><font style='color:orange'>No Match<br>(i)</font></div></div></div>","null","FEEDBACK","","","","","","","","","","",""
"html-keyboard-response","110","391406","0.0-7.0-1.15","6135752aa4ee5158b0708670","bdp_wmem","Thu Jul 28 2022 00:53:58 GMT-0400 (hora de verano oriental)","701263","Match,No Match","","","","","","","null","","<div class='trialBorder'><div class='vertical-center'><img src='img/fixation2_sml.jpg'</img></div></div>","null","FIX","","","","","","","","","","",""
"html-keyboard-response","111","394417","0.0-7.0-2.15","6135752aa4ee5158b0708670","bdp_wmem","Thu Jul 28 2022 00:53:58 GMT-0400 (hora de verano oriental)","701263","Match,No Match","","","","","","","null","","<div class='trialBorder'><div class='vertical-center'><img style='vertical-align:center; align:center' src='img/fixation2_sml.jpg'></div><div class='arrayDiv2'><div class='tl'><img class='introPic' src='trustrating_stim/white_mw085.bmp'><br><font color='green'><strong>Share</strong></font></div><div class='tr'><img class='introPic' src='trustrating_stim/white_mw042.bmp'><br><font color='red'><strong>Keep</strong></font></div></div></div>","null","ARRAY","2","trustrating_stim/white_mw085.bmp,trustrating_stim/white_mw042.bmp","1,0","noMatchFace","i","3000","","","","",""
"html-keyboard-response","112","398426","0.0-7.0-3.15","6135752aa4ee5158b0708670","bdp_wmem","Thu Jul 28 2022 00:53:58 GMT-0400 (hora de verano oriental)","701263","Match,No Match","","","","","","","null","","<div class='trialBorder'><div class='vertical-center'><img src='img/fixation2_sml.jpg'</img></div></div>","null","DELAY","","","","","","","","","","",""
"html-keyboard-response","113","399660","0.0-7.0-4.15","6135752aa4ee5158b0708670","bdp_wmem","Thu Jul 28 2022 00:53:58 GMT-0400 (hora de verano oriental)","701263","Match,No Match","","","","","","","1230","","<div class='trialBorder'><div class='targDiv'><div class='tc'><img class='introPic' src='trustrating_stim/white_mw038.bmp'><br><font color='green'><strong>Share</strong></font></div></div><div class='respDiv'><div class='respDivL'>Match<br>(e)</div><div class='respDivR'>No Match<br>(i)</div></div></div>","i","TARGET","2","trustrating_stim/white_mw085.bmp,trustrating_stim/white_mw042.bmp","1,0","noMatchFace","i","3000","trustrating_stim/white_mw038.bmp","green","Share","REAL","1"
"html-keyboard-response","114","400167","0.0-7.0-5.15","6135752aa4ee5158b0708670","bdp_wmem","Thu Jul 28 2022 00:53:58 GMT-0400 (hora de verano oriental)","701263","Match,No Match","","","","","","","null","","<div class='trialBorder'><div class='vertical-center'><img src='img/correct.jpg'></div><div class='respDiv'><div class='respDivL'>Match<br>(e)</div><div class='respDivR'><font style='color:orange'>No Match<br>(i)</font></div></div></div>","null","FEEDBACK","","","","","","","","","","",""
"html-keyboard-response","115","400671","0.0-7.0-1.16","6135752aa4ee5158b0708670","bdp_wmem","Thu Jul 28 2022 00:53:58 GMT-0400 (hora de verano oriental)","701263","Match,No Match","","","","","","","null","","<div class='trialBorder'><div class='vertical-center'><img src='img/fixation2_sml.jpg'</img></div></div>","null","FIX","","","","","","","","","","",""
"html-keyboard-response","116","403682","0.0-7.0-2.16","6135752aa4ee5158b0708670","bdp_wmem","Thu Jul 28 2022 00:53:58 GMT-0400 (hora de verano oriental)","701263","Match,No Match","","","","","","","null","","<div class='trialBorder'><div class='vertical-center'><img style='vertical-align:center; align:center' src='img/fixation2_sml.jpg'></div><div class='arrayDiv2'><div class='tl'><img class='introPic' src='trustrating_stim/white_mw038.bmp'><br><font color='red'><strong>Keep</strong></font></div><div class='tr'><img class='introPic' src='trustrating_stim/white_mw085.bmp'><br><font color='green'><strong>Share</strong></font></div></div></div>","null","ARRAY","2","trustrating_stim/white_mw038.bmp,trustrating_stim/white_mw085.bmp","0,1","noMatchFace","i","3000","","","","",""
"html-keyboard-response","117","407690","0.0-7.0-3.16","6135752aa4ee5158b0708670","bdp_wmem","Thu Jul 28 2022 00:53:58 GMT-0400 (hora de verano oriental)","701263","Match,No Match","","","","","","","null","","<div class='trialBorder'><div class='vertical-center'><img src='img/fixation2_sml.jpg'</img></div></div>","null","DELAY","","","","","","","","","","",""
"html-keyboard-response","118","409007","0.0-7.0-4.16","6135752aa4ee5158b0708670","bdp_wmem","Thu Jul 28 2022 00:53:58 GMT-0400 (hora de verano oriental)","701263","Match,No Match","","","","","","","1313","","<div class='trialBorder'><div class='targDiv'><div class='tc'><img class='introPic' src='trustrating_stim/white_mw012.bmp'><br><font color='green'><strong>Share</strong></font></div></div><div class='respDiv'><div class='respDivL'>Match<br>(e)</div><div class='respDivR'>No Match<br>(i)</div></div></div>","i","TARGET","2","trustrating_stim/white_mw038.bmp,trustrating_stim/white_mw085.bmp","0,1","noMatchFace","i","3000","trustrating_stim/white_mw012.bmp","green","Share","REAL","1"
"html-keyboard-response","119","409514","0.0-7.0-5.16","6135752aa4ee5158b0708670","bdp_wmem","Thu Jul 28 2022 00:53:58 GMT-0400 (hora de verano oriental)","701263","Match,No Match","","","","","","","null","","<div class='trialBorder'><div class='vertical-center'><img src='img/correct.jpg'></div><div class='respDiv'><div class='respDivL'>Match<br>(e)</div><div class='respDivR'><font style='color:orange'>No Match<br>(i)</font></div></div></div>","null","FEEDBACK","","","","","","","","","","",""
"html-keyboard-response","120","410018","0.0-7.0-1.17","6135752aa4ee5158b0708670","bdp_wmem","Thu Jul 28 2022 00:53:58 GMT-0400 (hora de verano oriental)","701263","Match,No Match","","","","","","","null","","<div class='trialBorder'><div class='vertical-center'><img src='img/fixation2_sml.jpg'</img></div></div>","null","FIX","","","","","","","","","","",""
"html-keyboard-response","121","414524","0.0-7.0-2.17","6135752aa4ee5158b0708670","bdp_wmem","Thu Jul 28 2022 00:53:58 GMT-0400 (hora de verano oriental)","701263","Match,No Match","","","","","","","null","","<div class='trialBorder'><div class='vertical-center'><img style='vertical-align:center; align:center' src='img/fixation2_sml.jpg'></div><div class='arrayDiv3'><div class='tl'><img class='introPic' src='trustrating_stim/white_mw042.bmp'><br><font color='green'><strong>Share</strong></font></div><div class='tc'><img class='introPic' src='trustrating_stim/white_mw012.bmp'><br><font color='green'><strong>Share</strong></font></div><div class='tr'><img class='introPic' src='trustrating_stim/white_mw070.bmp'><br><font color='red'><strong>Keep</strong></font></div></div></div>","null","ARRAY","3","trustrating_stim/white_mw042.bmp,trustrating_stim/white_mw012.bmp,trustrating_stim/white_mw070.bmp","1,1,0","Match","e","4500","","","","",""
"html-keyboard-response","122","418533","0.0-7.0-3.17","6135752aa4ee5158b0708670","bdp_wmem","Thu Jul 28 2022 00:53:58 GMT-0400 (hora de verano oriental)","701263","Match,No Match","","","","","","","null","","<div class='trialBorder'><div class='vertical-center'><img src='img/fixation2_sml.jpg'</img></div></div>","null","DELAY","","","","","","","","","","",""
"html-keyboard-response","123","419787","0.0-7.0-4.17","6135752aa4ee5158b0708670","bdp_wmem","Thu Jul 28 2022 00:53:58 GMT-0400 (hora de verano oriental)","701263","Match,No Match","","","","","","","1249","","<div class='trialBorder'><div class='targDiv'><div class='tc'><img class='introPic' src='trustrating_stim/white_mw012.bmp'><br><font color='green'><strong>Share</strong></font></div></div><div class='respDiv'><div class='respDivL'>Match<br>(e)</div><div class='respDivR'>No Match<br>(i)</div></div></div>","e","TARGET","3","trustrating_stim/white_mw042.bmp,trustrating_stim/white_mw012.bmp,trustrating_stim/white_mw070.bmp","1,1,0","Match","e","4500","trustrating_stim/white_mw012.bmp","green","Share","REAL","1"
"html-keyboard-response","124","420297","0.0-7.0-5.17","6135752aa4ee5158b0708670","bdp_wmem","Thu Jul 28 2022 00:53:58 GMT-0400 (hora de verano oriental)","701263","Match,No Match","","","","","","","null","","<div class='trialBorder'><div class='vertical-center'><img src='img/correct.jpg'></div><div class='respDiv'><div class='respDivL'><font style='color:orange'>Match<br>(e)</font></div><div class='respDivR'>No Match<br>(i)</div></div></div>","null","FEEDBACK","","","","","","","","","","",""
"html-keyboard-response","125","420802","0.0-7.0-1.18","6135752aa4ee5158b0708670","bdp_wmem","Thu Jul 28 2022 00:53:58 GMT-0400 (hora de verano oriental)","701263","Match,No Match","","","","","","","null","","<div class='trialBorder'><div class='vertical-center'><img src='img/fixation2_sml.jpg'</img></div></div>","null","FIX","","","","","","","","","","",""
"html-keyboard-response","126","423808","0.0-7.0-2.18","6135752aa4ee5158b0708670","bdp_wmem","Thu Jul 28 2022 00:53:58 GMT-0400 (hora de verano oriental)","701263","Match,No Match","","","","","","","null","","<div class='trialBorder'><div class='vertical-center'><img style='vertical-align:center; align:center' src='img/fixation2_sml.jpg'></div><div class='arrayDiv2'><div class='tl'><img class='introPic' src='trustrating_stim/white_mw042.bmp'><br><font color='red'><strong>Keep</strong></font></div><div class='tr'><img class='introPic' src='trustrating_stim/white_mw078.bmp'><br><font color='green'><strong>Share</strong></font></div></div></div>","null","ARRAY","2","trustrating_stim/white_mw042.bmp,trustrating_stim/white_mw078.bmp","0,1","Match","e","3000","","","","",""
"html-keyboard-response","127","427814","0.0-7.0-3.18","6135752aa4ee5158b0708670","bdp_wmem","Thu Jul 28 2022 00:53:58 GMT-0400 (hora de verano oriental)","701263","Match,No Match","","","","","","","null","","<div class='trialBorder'><div class='vertical-center'><img src='img/fixation2_sml.jpg'</img></div></div>","null","DELAY","","","","","","","","","","",""
"html-keyboard-response","128","429057","0.0-7.0-4.18","6135752aa4ee5158b0708670","bdp_wmem","Thu Jul 28 2022 00:53:58 GMT-0400 (hora de verano oriental)","701263","Match,No Match","","","","","","","1238","","<div class='trialBorder'><div class='targDiv'><div class='tc'><img class='introPic' src='trustrating_stim/white_mw078.bmp'><br><font color='green'><strong>Share</strong></font></div></div><div class='respDiv'><div class='respDivL'>Match<br>(e)</div><div class='respDivR'>No Match<br>(i)</div></div></div>","e","TARGET","2","trustrating_stim/white_mw042.bmp,trustrating_stim/white_mw078.bmp","0,1","Match","e","3000","trustrating_stim/white_mw078.bmp","green","Share","REAL","1"
"html-keyboard-response","129","429565","0.0-7.0-5.18","6135752aa4ee5158b0708670","bdp_wmem","Thu Jul 28 2022 00:53:58 GMT-0400 (hora de verano oriental)","701263","Match,No Match","","","","","","","null","","<div class='trialBorder'><div class='vertical-center'><img src='img/correct.jpg'></div><div class='respDiv'><div class='respDivL'><font style='color:orange'>Match<br>(e)</font></div><div class='respDivR'>No Match<br>(i)</div></div></div>","null","FEEDBACK","","","","","","","","","","",""
"html-keyboard-response","130","430075","0.0-7.0-1.19","6135752aa4ee5158b0708670","bdp_wmem","Thu Jul 28 2022 00:53:58 GMT-0400 (hora de verano oriental)","701263","Match,No Match","","","","","","","null","","<div class='trialBorder'><div class='vertical-center'><img src='img/fixation2_sml.jpg'</img></div></div>","null","FIX","","","","","","","","","","",""
"html-keyboard-response","131","431580","0.0-7.0-2.19","6135752aa4ee5158b0708670","bdp_wmem","Thu Jul 28 2022 00:53:58 GMT-0400 (hora de verano oriental)","701263","Match,No Match","","","","","","","null","","<div class='trialBorder'><div class='vertical-center'><img style='vertical-align:center; align:center' src='img/fixation2_sml.jpg'></div><div class='arrayDiv1'><div class='tc'><img class='introPic' src='trustrating_stim/white_mw092.bmp'><br><font color='green'><strong>Share</strong></font></div></div></div>","null","ARRAY","1","trustrating_stim/white_mw092.bmp","1","noMatchFace","i","1500","","","","",""
"html-keyboard-response","132","435582","0.0-7.0-3.19","6135752aa4ee5158b0708670","bdp_wmem","Thu Jul 28 2022 00:53:58 GMT-0400 (hora de verano oriental)","701263","Match,No Match","","","","","","","null","","<div class='trialBorder'><div class='vertical-center'><img src='img/fixation2_sml.jpg'</img></div></div>","null","DELAY","","","","","","","","","","",""
"html-keyboard-response","133","436831","0.0-7.0-4.19","6135752aa4ee5158b0708670","bdp_wmem","Thu Jul 28 2022 00:53:58 GMT-0400 (hora de verano oriental)","701263","Match,No Match","","","","","","","1245","","<div class='trialBorder'><div class='targDiv'><div class='tc'><img class='introPic' src='trustrating_stim/white_mw038.bmp'><br><font color='green'><strong>Share</strong></font></div></div><div class='respDiv'><div class='respDivL'>Match<br>(e)</div><div class='respDivR'>No Match<br>(i)</div></div></div>","i","TARGET","1","trustrating_stim/white_mw092.bmp","1","noMatchFace","i","1500","trustrating_stim/white_mw038.bmp","green","Share","REAL","1"
"html-keyboard-response","134","437333","0.0-7.0-5.19","6135752aa4ee5158b0708670","bdp_wmem","Thu Jul 28 2022 00:53:58 GMT-0400 (hora de verano oriental)","701263","Match,No Match","","","","","","","null","","<div class='trialBorder'><div class='vertical-center'><img src='img/correct.jpg'></div><div class='respDiv'><div class='respDivL'>Match<br>(e)</div><div class='respDivR'><font style='color:orange'>No Match<br>(i)</font></div></div></div>","null","FEEDBACK","","","","","","","","","","",""
"html-keyboard-response","135","437837","0.0-7.0-1.20","6135752aa4ee5158b0708670","bdp_wmem","Thu Jul 28 2022 00:53:58 GMT-0400 (hora de verano oriental)","701263","Match,No Match","","","","","","","null","","<div class='trialBorder'><div class='vertical-center'><img src='img/fixation2_sml.jpg'</img></div></div>","null","FIX","","","","","","","","","","",""
"html-keyboard-response","136","439342","0.0-7.0-2.20","6135752aa4ee5158b0708670","bdp_wmem","Thu Jul 28 2022 00:53:58 GMT-0400 (hora de verano oriental)","701263","Match,No Match","","","","","","","null","","<div class='trialBorder'><div class='vertical-center'><img style='vertical-align:center; align:center' src='img/fixation2_sml.jpg'></div><div class='arrayDiv1'><div class='tc'><img class='introPic' src='trustrating_stim/white_mw038.bmp'><br><font color='red'><strong>Keep</strong></font></div></div></div>","null","ARRAY","1","trustrating_stim/white_mw038.bmp","0","Match","e","1500","","","","",""
"html-keyboard-response","137","443347","0.0-7.0-3.20","6135752aa4ee5158b0708670","bdp_wmem","Thu Jul 28 2022 00:53:58 GMT-0400 (hora de verano oriental)","701263","Match,No Match","","","","","","","null","","<div class='trialBorder'><div class='vertical-center'><img src='img/fixation2_sml.jpg'</img></div></div>","null","DELAY","","","","","","","","","","",""
"html-keyboard-response","138","444256","0.0-7.0-4.20","6135752aa4ee5158b0708670","bdp_wmem","Thu Jul 28 2022 00:53:58 GMT-0400 (hora de verano oriental)","701263","Match,No Match","","","","","","","907","","<div class='trialBorder'><div class='targDiv'><div class='tc'><img class='introPic' src='trustrating_stim/white_mw038.bmp'><br><font color='red'><strong>Keep</strong></font></div></div><div class='respDiv'><div class='respDivL'>Match<br>(e)</div><div class='respDivR'>No Match<br>(i)</div></div></div>","e","TARGET","1","trustrating_stim/white_mw038.bmp","0","Match","e","1500","trustrating_stim/white_mw038.bmp","red","Keep","REAL","1"
"html-keyboard-response","139","444758","0.0-7.0-5.20","6135752aa4ee5158b0708670","bdp_wmem","Thu Jul 28 2022 00:53:58 GMT-0400 (hora de verano oriental)","701263","Match,No Match","","","","","","","null","","<div class='trialBorder'><div class='vertical-center'><img src='img/correct.jpg'></div><div class='respDiv'><div class='respDivL'><font style='color:orange'>Match<br>(e)</font></div><div class='respDivR'>No Match<br>(i)</div></div></div>","null","FEEDBACK","","","","","","","","","","",""
"html-keyboard-response","140","445263","0.0-7.0-1.21","6135752aa4ee5158b0708670","bdp_wmem","Thu Jul 28 2022 00:53:58 GMT-0400 (hora de verano oriental)","701263","Match,No Match","","","","","","","null","","<div class='trialBorder'><div class='vertical-center'><img src='img/fixation2_sml.jpg'</img></div></div>","null","FIX","","","","","","","","","","",""
"html-keyboard-response","141","449768","0.0-7.0-2.21","6135752aa4ee5158b0708670","bdp_wmem","Thu Jul 28 2022 00:53:58 GMT-0400 (hora de verano oriental)","701263","Match,No Match","","","","","","","null","","<div class='trialBorder'><div class='vertical-center'><img style='vertical-align:center; align:center' src='img/fixation2_sml.jpg'></div><div class='arrayDiv3'><div class='tl'><img class='introPic' src='trustrating_stim/white_mw042.bmp'><br><font color='red'><strong>Keep</strong></font></div><div class='tc'><img class='introPic' src='trustrating_stim/white_mw078.bmp'><br><font color='red'><strong>Keep</strong></font></div><div class='tr'><img class='introPic' src='trustrating_stim/white_mw012.bmp'><br><font color='green'><strong>Share</strong></font></div></div></div>","null","ARRAY","3","trustrating_stim/white_mw042.bmp,trustrating_stim/white_mw078.bmp,trustrating_stim/white_mw012.bmp","0,0,1","noMatchFace","i","4500","","","","",""
"html-keyboard-response","142","453771","0.0-7.0-3.21","6135752aa4ee5158b0708670","bdp_wmem","Thu Jul 28 2022 00:53:58 GMT-0400 (hora de verano oriental)","701263","Match,No Match","","","","","","","null","","<div class='trialBorder'><div class='vertical-center'><img src='img/fixation2_sml.jpg'</img></div></div>","null","DELAY","","","","","","","","","","",""
"html-keyboard-response","143","455072","0.0-7.0-4.21","6135752aa4ee5158b0708670","bdp_wmem","Thu Jul 28 2022 00:53:58 GMT-0400 (hora de verano oriental)","701263","Match,No Match","","","","","","","1297","","<div class='trialBorder'><div class='targDiv'><div class='tc'><img class='introPic' src='trustrating_stim/white_mw070.bmp'><br><font color='red'><strong>Keep</strong></font></div></div><div class='respDiv'><div class='respDivL'>Match<br>(e)</div><div class='respDivR'>No Match<br>(i)</div></div></div>","i","TARGET","3","trustrating_stim/white_mw042.bmp,trustrating_stim/white_mw078.bmp,trustrating_stim/white_mw012.bmp","0,0,1","noMatchFace","i","4500","trustrating_stim/white_mw070.bmp","red","Keep","REAL","1"
"html-keyboard-response","144","455578","0.0-7.0-5.21","6135752aa4ee5158b0708670","bdp_wmem","Thu Jul 28 2022 00:53:58 GMT-0400 (hora de verano oriental)","701263","Match,No Match","","","","","","","null","","<div class='trialBorder'><div class='vertical-center'><img src='img/correct.jpg'></div><div class='respDiv'><div class='respDivL'>Match<br>(e)</div><div class='respDivR'><font style='color:orange'>No Match<br>(i)</font></div></div></div>","null","FEEDBACK","","","","","","","","","","",""
"html-keyboard-response","145","456090","0.0-7.0-1.22","6135752aa4ee5158b0708670","bdp_wmem","Thu Jul 28 2022 00:53:58 GMT-0400 (hora de verano oriental)","701263","Match,No Match","","","","","","","null","","<div class='trialBorder'><div class='vertical-center'><img src='img/fixation2_sml.jpg'</img></div></div>","null","FIX","","","","","","","","","","",""
"html-keyboard-response","146","457598","0.0-7.0-2.22","6135752aa4ee5158b0708670","bdp_wmem","Thu Jul 28 2022 00:53:58 GMT-0400 (hora de verano oriental)","701263","Match,No Match","","","","","","","null","","<div class='trialBorder'><div class='vertical-center'><img style='vertical-align:center; align:center' src='img/fixation2_sml.jpg'></div><div class='arrayDiv1'><div class='tc'><img class='introPic' src='trustrating_stim/white_mw078.bmp'><br><font color='green'><strong>Share</strong></font></div></div></div>","null","ARRAY","1","trustrating_stim/white_mw078.bmp","1","Match","e","1500","","","","",""
"html-keyboard-response","147","461605","0.0-7.0-3.22","6135752aa4ee5158b0708670","bdp_wmem","Thu Jul 28 2022 00:53:58 GMT-0400 (hora de verano oriental)","701263","Match,No Match","","","","","","","null","","<div class='trialBorder'><div class='vertical-center'><img src='img/fixation2_sml.jpg'</img></div></div>","null","DELAY","","","","","","","","","","",""
"html-keyboard-response","148","463116","0.0-7.0-4.22","6135752aa4ee5158b0708670","bdp_wmem","Thu Jul 28 2022 00:53:58 GMT-0400 (hora de verano oriental)","701263","Match,No Match","","","","","","","1507","","<div class='trialBorder'><div class='targDiv'><div class='tc'><img class='introPic' src='trustrating_stim/white_mw078.bmp'><br><font color='green'><strong>Share</strong></font></div></div><div class='respDiv'><div class='respDivL'>Match<br>(e)</div><div class='respDivR'>No Match<br>(i)</div></div></div>","e","TARGET","1","trustrating_stim/white_mw078.bmp","1","Match","e","1500","trustrating_stim/white_mw078.bmp","green","Share","REAL","1"
"html-keyboard-response","149","463621","0.0-7.0-5.22","6135752aa4ee5158b0708670","bdp_wmem","Thu Jul 28 2022 00:53:58 GMT-0400 (hora de verano oriental)","701263","Match,No Match","","","","","","","null","","<div class='trialBorder'><div class='vertical-center'><img src='img/correct.jpg'></div><div class='respDiv'><div class='respDivL'><font style='color:orange'>Match<br>(e)</font></div><div class='respDivR'>No Match<br>(i)</div></div></div>","null","FEEDBACK","","","","","","","","","","",""
"html-keyboard-response","150","464127","0.0-7.0-1.23","6135752aa4ee5158b0708670","bdp_wmem","Thu Jul 28 2022 00:53:58 GMT-0400 (hora de verano oriental)","701263","Match,No Match","","","","","","","null","","<div class='trialBorder'><div class='vertical-center'><img src='img/fixation2_sml.jpg'</img></div></div>","null","FIX","","","","","","","","","","",""
"html-keyboard-response","151","467137","0.0-7.0-2.23","6135752aa4ee5158b0708670","bdp_wmem","Thu Jul 28 2022 00:53:58 GMT-0400 (hora de verano oriental)","701263","Match,No Match","","","","","","","null","","<div class='trialBorder'><div class='vertical-center'><img style='vertical-align:center; align:center' src='img/fixation2_sml.jpg'></div><div class='arrayDiv2'><div class='tl'><img class='introPic' src='trustrating_stim/white_mw078.bmp'><br><font color='red'><strong>Keep</strong></font></div><div class='tr'><img class='introPic' src='trustrating_stim/white_mw091.bmp'><br><font color='green'><strong>Share</strong></font></div></div></div>","null","ARRAY","2","trustrating_stim/white_mw078.bmp,trustrating_stim/white_mw091.bmp","0,1","noMatchFace","i","3000","","","","",""
"html-keyboard-response","152","471147","0.0-7.0-3.23","6135752aa4ee5158b0708670","bdp_wmem","Thu Jul 28 2022 00:53:58 GMT-0400 (hora de verano oriental)","701263","Match,No Match","","","","","","","null","","<div class='trialBorder'><div class='vertical-center'><img src='img/fixation2_sml.jpg'</img></div></div>","null","DELAY","","","","","","","","","","",""
"html-keyboard-response","153","472358","0.0-7.0-4.23","6135752aa4ee5158b0708670","bdp_wmem","Thu Jul 28 2022 00:53:58 GMT-0400 (hora de verano oriental)","701263","Match,No Match","","","","","","","1206","","<div class='trialBorder'><div class='targDiv'><div class='tc'><img class='introPic' src='trustrating_stim/white_mw085.bmp'><br><font color='green'><strong>Share</strong></font></div></div><div class='respDiv'><div class='respDivL'>Match<br>(e)</div><div class='respDivR'>No Match<br>(i)</div></div></div>","i","TARGET","2","trustrating_stim/white_mw078.bmp,trustrating_stim/white_mw091.bmp","0,1","noMatchFace","i","3000","trustrating_stim/white_mw085.bmp","green","Share","REAL","1"
"html-keyboard-response","154","472862","0.0-7.0-5.23","6135752aa4ee5158b0708670","bdp_wmem","Thu Jul 28 2022 00:53:58 GMT-0400 (hora de verano oriental)","701263","Match,No Match","","","","","","","null","","<div class='trialBorder'><div class='vertical-center'><img src='img/correct.jpg'></div><div class='respDiv'><div class='respDivL'>Match<br>(e)</div><div class='respDivR'><font style='color:orange'>No Match<br>(i)</font></div></div></div>","null","FEEDBACK","","","","","","","","","","",""
"html-keyboard-response","155","473368","0.0-7.0-1.24","6135752aa4ee5158b0708670","bdp_wmem","Thu Jul 28 2022 00:53:58 GMT-0400 (hora de verano oriental)","701263","Match,No Match","","","","","","","null","","<div class='trialBorder'><div class='vertical-center'><img src='img/fixation2_sml.jpg'</img></div></div>","null","FIX","","","","","","","","","","",""
"html-keyboard-response","156","477876","0.0-7.0-2.24","6135752aa4ee5158b0708670","bdp_wmem","Thu Jul 28 2022 00:53:58 GMT-0400 (hora de verano oriental)","701263","Match,No Match","","","","","","","null","","<div class='trialBorder'><div class='vertical-center'><img style='vertical-align:center; align:center' src='img/fixation2_sml.jpg'></div><div class='arrayDiv3'><div class='tl'><img class='introPic' src='trustrating_stim/white_mw013.bmp'><br><font color='green'><strong>Share</strong></font></div><div class='tc'><img class='introPic' src='trustrating_stim/white_mw085.bmp'><br><font color='red'><strong>Keep</strong></font></div><div class='tr'><img class='introPic' src='trustrating_stim/white_mw012.bmp'><br><font color='green'><strong>Share</strong></font></div></div></div>","null","ARRAY","3","trustrating_stim/white_mw013.bmp,trustrating_stim/white_mw085.bmp,trustrating_stim/white_mw012.bmp","1,0,1","noMatchOutcome","i","4500","","","","",""
"html-keyboard-response","157","481883","0.0-7.0-3.24","6135752aa4ee5158b0708670","bdp_wmem","Thu Jul 28 2022 00:53:58 GMT-0400 (hora de verano oriental)","701263","Match,No Match","","","","","","","null","","<div class='trialBorder'><div class='vertical-center'><img src='img/fixation2_sml.jpg'</img></div></div>","null","DELAY","","","","","","","","","","",""
"html-keyboard-response","158","483807","0.0-7.0-4.24","6135752aa4ee5158b0708670","bdp_wmem","Thu Jul 28 2022 00:53:58 GMT-0400 (hora de verano oriental)","701263","Match,No Match","","","","","","","1920","","<div class='trialBorder'><div class='targDiv'><div class='tc'><img class='introPic' src='trustrating_stim/white_mw012.bmp'><br><font color='red'><strong>Keep</strong></font></div></div><div class='respDiv'><div class='respDivL'>Match<br>(e)</div><div class='respDivR'>No Match<br>(i)</div></div></div>","i","TARGET","3","trustrating_stim/white_mw013.bmp,trustrating_stim/white_mw085.bmp,trustrating_stim/white_mw012.bmp","1,0,1","noMatchOutcome","i","4500","trustrating_stim/white_mw012.bmp","red","Keep","REAL","1"
"html-keyboard-response","159","484316","0.0-7.0-5.24","6135752aa4ee5158b0708670","bdp_wmem","Thu Jul 28 2022 00:53:58 GMT-0400 (hora de verano oriental)","701263","Match,No Match","","","","","","","null","","<div class='trialBorder'><div class='vertical-center'><img src='img/correct.jpg'></div><div class='respDiv'><div class='respDivL'>Match<br>(e)</div><div class='respDivR'><font style='color:orange'>No Match<br>(i)</font></div></div></div>","null","FEEDBACK","","","","","","","","","","",""
"html-keyboard-response","160","484822","0.0-7.0-1.25","6135752aa4ee5158b0708670","bdp_wmem","Thu Jul 28 2022 00:53:58 GMT-0400 (hora de verano oriental)","701263","Match,No Match","","","","","","","null","","<div class='trialBorder'><div class='vertical-center'><img src='img/fixation2_sml.jpg'</img></div></div>","null","FIX","","","","","","","","","","",""
"html-keyboard-response","161","489330","0.0-7.0-2.25","6135752aa4ee5158b0708670","bdp_wmem","Thu Jul 28 2022 00:53:58 GMT-0400 (hora de verano oriental)","701263","Match,No Match","","","","","","","null","","<div class='trialBorder'><div class='vertical-center'><img style='vertical-align:center; align:center' src='img/fixation2_sml.jpg'></div><div class='arrayDiv3'><div class='tl'><img class='introPic' src='trustrating_stim/white_mw042.bmp'><br><font color='red'><strong>Keep</strong></font></div><div class='tc'><img class='introPic' src='trustrating_stim/white_mw091.bmp'><br><font color='green'><strong>Share</strong></font></div><div class='tr'><img class='introPic' src='trustrating_stim/white_mw013.bmp'><br><font color='green'><strong>Share</strong></font></div></div></div>","null","ARRAY","3","trustrating_stim/white_mw042.bmp,trustrating_stim/white_mw091.bmp,trustrating_stim/white_mw013.bmp","0,1,1","Match","e","4500","","","","",""
"html-keyboard-response","162","493341","0.0-7.0-3.25","6135752aa4ee5158b0708670","bdp_wmem","Thu Jul 28 2022 00:53:58 GMT-0400 (hora de verano oriental)","701263","Match,No Match","","","","","","","null","","<div class='trialBorder'><div class='vertical-center'><img src='img/fixation2_sml.jpg'</img></div></div>","null","DELAY","","","","","","","","","","",""
"html-keyboard-response","163","494949","0.0-7.0-4.25","6135752aa4ee5158b0708670","bdp_wmem","Thu Jul 28 2022 00:53:58 GMT-0400 (hora de verano oriental)","701263","Match,No Match","","","","","","","1604","","<div class='trialBorder'><div class='targDiv'><div class='tc'><img class='introPic' src='trustrating_stim/white_mw091.bmp'><br><font color='green'><strong>Share</strong></font></div></div><div class='respDiv'><div class='respDivL'>Match<br>(e)</div><div class='respDivR'>No Match<br>(i)</div></div></div>","e","TARGET","3","trustrating_stim/white_mw042.bmp,trustrating_stim/white_mw091.bmp,trustrating_stim/white_mw013.bmp","0,1,1","Match","e","4500","trustrating_stim/white_mw091.bmp","green","Share","REAL","1"
"html-keyboard-response","164","495453","0.0-7.0-5.25","6135752aa4ee5158b0708670","bdp_wmem","Thu Jul 28 2022 00:53:58 GMT-0400 (hora de verano oriental)","701263","Match,No Match","","","","","","","null","","<div class='trialBorder'><div class='vertical-center'><img src='img/correct.jpg'></div><div class='respDiv'><div class='respDivL'><font style='color:orange'>Match<br>(e)</font></div><div class='respDivR'>No Match<br>(i)</div></div></div>","null","FEEDBACK","","","","","","","","","","",""
"html-keyboard-response","165","495956","0.0-7.0-1.26","6135752aa4ee5158b0708670","bdp_wmem","Thu Jul 28 2022 00:53:58 GMT-0400 (hora de verano oriental)","701263","Match,No Match","","","","","","","null","","<div class='trialBorder'><div class='vertical-center'><img src='img/fixation2_sml.jpg'</img></div></div>","null","FIX","","","","","","","","","","",""
"html-keyboard-response","166","497462","0.0-7.0-2.26","6135752aa4ee5158b0708670","bdp_wmem","Thu Jul 28 2022 00:53:58 GMT-0400 (hora de verano oriental)","701263","Match,No Match","","","","","","","null","","<div class='trialBorder'><div class='vertical-center'><img style='vertical-align:center; align:center' src='img/fixation2_sml.jpg'></div><div class='arrayDiv1'><div class='tc'><img class='introPic' src='trustrating_stim/white_mw070.bmp'><br><font color='green'><strong>Share</strong></font></div></div></div>","null","ARRAY","1","trustrating_stim/white_mw070.bmp","1","noMatchOutcome","i","1500","","","","",""
"html-keyboard-response","167","501470","0.0-7.0-3.26","6135752aa4ee5158b0708670","bdp_wmem","Thu Jul 28 2022 00:53:58 GMT-0400 (hora de verano oriental)","701263","Match,No Match","","","","","","","null","","<div class='trialBorder'><div class='vertical-center'><img src='img/fixation2_sml.jpg'</img></div></div>","null","DELAY","","","","","","","","","","",""
"html-keyboard-response","168","503012","0.0-7.0-4.26","6135752aa4ee5158b0708670","bdp_wmem","Thu Jul 28 2022 00:53:58 GMT-0400 (hora de verano oriental)","701263","Match,No Match","","","","","","","1540","","<div class='trialBorder'><div class='targDiv'><div class='tc'><img class='introPic' src='trustrating_stim/white_mw070.bmp'><br><font color='red'><strong>Keep</strong></font></div></div><div class='respDiv'><div class='respDivL'>Match<br>(e)</div><div class='respDivR'>No Match<br>(i)</div></div></div>","i","TARGET","1","trustrating_stim/white_mw070.bmp","1","noMatchOutcome","i","1500","trustrating_stim/white_mw070.bmp","red","Keep","REAL","1"
"html-keyboard-response","169","503521","0.0-7.0-5.26","6135752aa4ee5158b0708670","bdp_wmem","Thu Jul 28 2022 00:53:58 GMT-0400 (hora de verano oriental)","701263","Match,No Match","","","","","","","null","","<div class='trialBorder'><div class='vertical-center'><img src='img/correct.jpg'></div><div class='respDiv'><div class='respDivL'>Match<br>(e)</div><div class='respDivR'><font style='color:orange'>No Match<br>(i)</font></div></div></div>","null","FEEDBACK","","","","","","","","","","",""
"html-keyboard-response","170","504027","0.0-7.0-1.27","6135752aa4ee5158b0708670","bdp_wmem","Thu Jul 28 2022 00:53:58 GMT-0400 (hora de verano oriental)","701263","Match,No Match","","","","","","","null","","<div class='trialBorder'><div class='vertical-center'><img src='img/fixation2_sml.jpg'</img></div></div>","null","FIX","","","","","","","","","","",""
"html-keyboard-response","171","508531","0.0-7.0-2.27","6135752aa4ee5158b0708670","bdp_wmem","Thu Jul 28 2022 00:53:58 GMT-0400 (hora de verano oriental)","701263","Match,No Match","","","","","","","null","","<div class='trialBorder'><div class='vertical-center'><img style='vertical-align:center; align:center' src='img/fixation2_sml.jpg'></div><div class='arrayDiv3'><div class='tl'><img class='introPic' src='trustrating_stim/white_mw070.bmp'><br><font color='red'><strong>Keep</strong></font></div><div class='tc'><img class='introPic' src='trustrating_stim/white_mw091.bmp'><br><font color='green'><strong>Share</strong></font></div><div class='tr'><img class='introPic' src='trustrating_stim/white_mw013.bmp'><br><font color='green'><strong>Share</strong></font></div></div></div>","null","ARRAY","3","trustrating_stim/white_mw070.bmp,trustrating_stim/white_mw091.bmp,trustrating_stim/white_mw013.bmp","0,1,1","Match","e","4500","","","","",""
"html-keyboard-response","172","512536","0.0-7.0-3.27","6135752aa4ee5158b0708670","bdp_wmem","Thu Jul 28 2022 00:53:58 GMT-0400 (hora de verano oriental)","701263","Match,No Match","","","","","","","null","","<div class='trialBorder'><div class='vertical-center'><img src='img/fixation2_sml.jpg'</img></div></div>","null","DELAY","","","","","","","","","","",""
"html-keyboard-response","173","513687","0.0-7.0-4.27","6135752aa4ee5158b0708670","bdp_wmem","Thu Jul 28 2022 00:53:58 GMT-0400 (hora de verano oriental)","701263","Match,No Match","","","","","","","1147","","<div class='trialBorder'><div class='targDiv'><div class='tc'><img class='introPic' src='trustrating_stim/white_mw013.bmp'><br><font color='green'><strong>Share</strong></font></div></div><div class='respDiv'><div class='respDivL'>Match<br>(e)</div><div class='respDivR'>No Match<br>(i)</div></div></div>","e","TARGET","3","trustrating_stim/white_mw070.bmp,trustrating_stim/white_mw091.bmp,trustrating_stim/white_mw013.bmp","0,1,1","Match","e","4500","trustrating_stim/white_mw013.bmp","green","Share","REAL","1"
"html-keyboard-response","174","514194","0.0-7.0-5.27","6135752aa4ee5158b0708670","bdp_wmem","Thu Jul 28 2022 00:53:58 GMT-0400 (hora de verano oriental)","701263","Match,No Match","","","","","","","null","","<div class='trialBorder'><div class='vertical-center'><img src='img/correct.jpg'></div><div class='respDiv'><div class='respDivL'><font style='color:orange'>Match<br>(e)</font></div><div class='respDivR'>No Match<br>(i)</div></div></div>","null","FEEDBACK","","","","","","","","","","",""
"html-keyboard-response","175","514697","0.0-7.0-1.28","6135752aa4ee5158b0708670","bdp_wmem","Thu Jul 28 2022 00:53:58 GMT-0400 (hora de verano oriental)","701263","Match,No Match","","","","","","","null","","<div class='trialBorder'><div class='vertical-center'><img src='img/fixation2_sml.jpg'</img></div></div>","null","FIX","","","","","","","","","","",""
"html-keyboard-response","176","516203","0.0-7.0-2.28","6135752aa4ee5158b0708670","bdp_wmem","Thu Jul 28 2022 00:53:58 GMT-0400 (hora de verano oriental)","701263","Match,No Match","","","","","","","null","","<div class='trialBorder'><div class='vertical-center'><img style='vertical-align:center; align:center' src='img/fixation2_sml.jpg'></div><div class='arrayDiv1'><div class='tc'><img class='introPic' src='trustrating_stim/white_mw042.bmp'><br><font color='green'><strong>Share</strong></font></div></div></div>","null","ARRAY","1","trustrating_stim/white_mw042.bmp","1","noMatchFace","i","1500","","","","",""
"html-keyboard-response","177","520206","0.0-7.0-3.28","6135752aa4ee5158b0708670","bdp_wmem","Thu Jul 28 2022 00:53:58 GMT-0400 (hora de verano oriental)","701263","Match,No Match","","","","","","","null","","<div class='trialBorder'><div class='vertical-center'><img src='img/fixation2_sml.jpg'</img></div></div>","null","DELAY","","","","","","","","","","",""
"html-keyboard-response","178","521600","0.0-7.0-4.28","6135752aa4ee5158b0708670","bdp_wmem","Thu Jul 28 2022 00:53:58 GMT-0400 (hora de verano oriental)","701263","Match,No Match","","","","","","","1389","","<div class='trialBorder'><div class='targDiv'><div class='tc'><img class='introPic' src='trustrating_stim/white_mw012.bmp'><br><font color='green'><strong>Share</strong></font></div></div><div class='respDiv'><div class='respDivL'>Match<br>(e)</div><div class='respDivR'>No Match<br>(i)</div></div></div>","i","TARGET","1","trustrating_stim/white_mw042.bmp","1","noMatchFace","i","1500","trustrating_stim/white_mw012.bmp","green","Share","REAL","1"
"html-keyboard-response","179","522103","0.0-7.0-5.28","6135752aa4ee5158b0708670","bdp_wmem","Thu Jul 28 2022 00:53:58 GMT-0400 (hora de verano oriental)","701263","Match,No Match","","","","","","","null","","<div class='trialBorder'><div class='vertical-center'><img src='img/correct.jpg'></div><div class='respDiv'><div class='respDivL'>Match<br>(e)</div><div class='respDivR'><font style='color:orange'>No Match<br>(i)</font></div></div></div>","null","FEEDBACK","","","","","","","","","","",""
"html-keyboard-response","180","522610","0.0-7.0-1.29","6135752aa4ee5158b0708670","bdp_wmem","Thu Jul 28 2022 00:53:58 GMT-0400 (hora de verano oriental)","701263","Match,No Match","","","","","","","null","","<div class='trialBorder'><div class='vertical-center'><img src='img/fixation2_sml.jpg'</img></div></div>","null","FIX","","","","","","","","","","",""
"html-keyboard-response","181","527117","0.0-7.0-2.29","6135752aa4ee5158b0708670","bdp_wmem","Thu Jul 28 2022 00:53:58 GMT-0400 (hora de verano oriental)","701263","Match,No Match","","","","","","","null","","<div class='trialBorder'><div class='vertical-center'><img style='vertical-align:center; align:center' src='img/fixation2_sml.jpg'></div><div class='arrayDiv3'><div class='tl'><img class='introPic' src='trustrating_stim/white_mw038.bmp'><br><font color='green'><strong>Share</strong></font></div><div class='tc'><img class='introPic' src='trustrating_stim/white_mw070.bmp'><br><font color='red'><strong>Keep</strong></font></div><div class='tr'><img class='introPic' src='trustrating_stim/white_mw040.bmp'><br><font color='red'><strong>Keep</strong></font></div></div></div>","null","ARRAY","3","trustrating_stim/white_mw038.bmp,trustrating_stim/white_mw070.bmp,trustrating_stim/white_mw040.bmp","1,0,0","Match","e","4500","","","","",""
"html-keyboard-response","182","531123","0.0-7.0-3.29","6135752aa4ee5158b0708670","bdp_wmem","Thu Jul 28 2022 00:53:58 GMT-0400 (hora de verano oriental)","701263","Match,No Match","","","","","","","null","","<div class='trialBorder'><div class='vertical-center'><img src='img/fixation2_sml.jpg'</img></div></div>","null","DELAY","","","","","","","","","","",""
