"trial_type","trial_index","time_elapsed","internal_node_id","subject_id","task","startTime","totalTime","labels","view_history","rt","event","trial","time","trialtype","success","stimulus","key_press","stimType","arraySize","arrayFaces","arrayOutcomes","matchType","corrResp","arrayDur","targFace","targCol","targOutcome","trialType","corr"
"pavlovia","0","5","0.0-0.0","6144bf2539bc8f85335af4be","bdp_wmem","Wed Mar 15 2023 16:00:56 GMT-0400 (Eastern Daylight Time)","590557","Match,No Match","","","","","","","","","","","","","","","","","","","","",""
"instructions","1","2425","0.0-1.0","6144bf2539bc8f85335af4be","bdp_wmem","Wed Mar 15 2023 16:00:56 GMT-0400 (Eastern Daylight Time)","590557","Match,No Match","[{""page_index"":0,""viewing_time"":2420}]","2420","","","","","","","","","","","","","","","","","","",""
"","","","","6144bf2539bc8f85335af4be","bdp_wmem","Wed Mar 15 2023 16:00:56 GMT-0400 (Eastern Daylight Time)","590557","Match,No Match","","","fullscreenenter","2","3941","fullscreenenter","","","","","","","","","","","","","","",""
"fullscreen","2","4932","0.0-2.0","6144bf2539bc8f85335af4be","bdp_wmem","Wed Mar 15 2023 16:00:56 GMT-0400 (Eastern Daylight Time)","590557","Match,No Match","","","","","","","true","","","","","","","","","","","","","",""
"instructions","3","59461","0.0-4.0","6144bf2539bc8f85335af4be","bdp_wmem","Wed Mar 15 2023 16:00:56 GMT-0400 (Eastern Daylight Time)","590557","Match,No Match","[{""page_index"":0,""viewing_time"":15812},{""page_index"":1,""viewing_time"":17809},{""page_index"":2,""viewing_time"":6423},{""page_index"":3,""viewing_time"":5417},{""page_index"":4,""viewing_time"":9064}]","54526","","","","","","","","","","","","","","","","","","",""
"html-keyboard-response","4","59963","0.0-5.0-1.0","6144bf2539bc8f85335af4be","bdp_wmem","Wed Mar 15 2023 16:00:56 GMT-0400 (Eastern Daylight Time)","590557","Match,No Match","","null","","","","","","<div class='trialBorder'><div class='vertical-center'><img src='img/fixation2_sml.jpg'</img></div></div>","null","FIX","","","","","","","","","","",""
"html-keyboard-response","5","61467","0.0-5.0-2.0","6144bf2539bc8f85335af4be","bdp_wmem","Wed Mar 15 2023 16:00:56 GMT-0400 (Eastern Daylight Time)","590557","Match,No Match","","null","","","","","","<div class='trialBorder'><div class='vertical-center'><img style='vertical-align:center; align:center' src='img/fixation2_sml.jpg'></div><div class='arrayDiv1'><div class='tc'><img class='introPic' src='trustrating_stim/white_mw003.bmp'><br><font color='green'><strong>Share</strong></font></div></div></div>","null","ARRAY","1","trustrating_stim/white_mw003.bmp","1","Match","e","1500","","","","",""
"html-keyboard-response","6","65475","0.0-5.0-3.0","6144bf2539bc8f85335af4be","bdp_wmem","Wed Mar 15 2023 16:00:56 GMT-0400 (Eastern Daylight Time)","590557","Match,No Match","","null","","","","","","<div class='trialBorder'><div class='vertical-center'><img src='img/fixation2_sml.jpg'</img></div></div>","null","DELAY","","","","","","","","","","",""
"html-keyboard-response","7","67558","0.0-5.0-4.0","6144bf2539bc8f85335af4be","bdp_wmem","Wed Mar 15 2023 16:00:56 GMT-0400 (Eastern Daylight Time)","590557","Match,No Match","","2080","","","","","","<div class='trialBorder'><div class='targDiv'><div class='tc'><img class='introPic' src='trustrating_stim/white_mw003.bmp'><br><font color='green'><strong>Share</strong></font></div></div><div class='respDiv'><div class='respDivL'>Match<br>(e)</div><div class='respDivR'>No Match<br>(i)</div></div></div>","e","TARGET","1","trustrating_stim/white_mw003.bmp","1","Match","e","1500","trustrating_stim/white_mw003.bmp","green","Share","PRACTICE","1"
"html-keyboard-response","8","68067","0.0-5.0-5.0","6144bf2539bc8f85335af4be","bdp_wmem","Wed Mar 15 2023 16:00:56 GMT-0400 (Eastern Daylight Time)","590557","Match,No Match","","null","","","","","","<div class='trialBorder'><div class='vertical-center'><img src='img/correct.jpg'></div><div class='respDiv'><div class='respDivL'><font style='color:orange'>Match<br>(e)</font></div><div class='respDivR'>No Match<br>(i)</div></div></div>","null","FEEDBACK","","","","","","","","","","",""
"html-keyboard-response","9","68570","0.0-5.0-1.1","6144bf2539bc8f85335af4be","bdp_wmem","Wed Mar 15 2023 16:00:56 GMT-0400 (Eastern Daylight Time)","590557","Match,No Match","","null","","","","","","<div class='trialBorder'><div class='vertical-center'><img src='img/fixation2_sml.jpg'</img></div></div>","null","FIX","","","","","","","","","","",""
"html-keyboard-response","10","70075","0.0-5.0-2.1","6144bf2539bc8f85335af4be","bdp_wmem","Wed Mar 15 2023 16:00:56 GMT-0400 (Eastern Daylight Time)","590557","Match,No Match","","null","","","","","","<div class='trialBorder'><div class='vertical-center'><img style='vertical-align:center; align:center' src='img/fixation2_sml.jpg'></div><div class='arrayDiv1'><div class='tc'><img class='introPic' src='trustrating_stim/white_mw012.bmp'><br><font color='green'><strong>Share</strong></font></div></div></div>","null","ARRAY","1","trustrating_stim/white_mw012.bmp","1","noMatchFace","i","1500","","","","",""
"html-keyboard-response","11","74083","0.0-5.0-3.1","6144bf2539bc8f85335af4be","bdp_wmem","Wed Mar 15 2023 16:00:56 GMT-0400 (Eastern Daylight Time)","590557","Match,No Match","","null","","","","","","<div class='trialBorder'><div class='vertical-center'><img src='img/fixation2_sml.jpg'</img></div></div>","null","DELAY","","","","","","","","","","",""
"html-keyboard-response","12","75170","0.0-5.0-4.1","6144bf2539bc8f85335af4be","bdp_wmem","Wed Mar 15 2023 16:00:56 GMT-0400 (Eastern Daylight Time)","590557","Match,No Match","","1087","","","","","","<div class='trialBorder'><div class='targDiv'><div class='tc'><img class='introPic' src='trustrating_stim/white_mw042.bmp'><br><font color='green'><strong>Share</strong></font></div></div><div class='respDiv'><div class='respDivL'>Match<br>(e)</div><div class='respDivR'>No Match<br>(i)</div></div></div>","i","TARGET","1","trustrating_stim/white_mw012.bmp","1","noMatchFace","i","1500","trustrating_stim/white_mw042.bmp","green","Share","PRACTICE","1"
"html-keyboard-response","13","75674","0.0-5.0-5.1","6144bf2539bc8f85335af4be","bdp_wmem","Wed Mar 15 2023 16:00:56 GMT-0400 (Eastern Daylight Time)","590557","Match,No Match","","null","","","","","","<div class='trialBorder'><div class='vertical-center'><img src='img/correct.jpg'></div><div class='respDiv'><div class='respDivL'>Match<br>(e)</div><div class='respDivR'><font style='color:orange'>No Match<br>(i)</font></div></div></div>","null","FEEDBACK","","","","","","","","","","",""
"html-keyboard-response","14","76179","0.0-5.0-1.2","6144bf2539bc8f85335af4be","bdp_wmem","Wed Mar 15 2023 16:00:56 GMT-0400 (Eastern Daylight Time)","590557","Match,No Match","","null","","","","","","<div class='trialBorder'><div class='vertical-center'><img src='img/fixation2_sml.jpg'</img></div></div>","null","FIX","","","","","","","","","","",""
"html-keyboard-response","15","79187","0.0-5.0-2.2","6144bf2539bc8f85335af4be","bdp_wmem","Wed Mar 15 2023 16:00:56 GMT-0400 (Eastern Daylight Time)","590557","Match,No Match","","null","","","","","","<div class='trialBorder'><div class='vertical-center'><img style='vertical-align:center; align:center' src='img/fixation2_sml.jpg'></div><div class='arrayDiv2'><div class='tl'><img class='introPic' src='trustrating_stim/white_mw040.bmp'><br><font color='red'><strong>Keep</strong></font></div><div class='tr'><img class='introPic' src='trustrating_stim/white_mw078.bmp'><br><font color='green'><strong>Share</strong></font></div></div></div>","null","ARRAY","2","trustrating_stim/white_mw040.bmp,trustrating_stim/white_mw078.bmp","0,1","noMatchOutcome","i","3000","","","","",""
"html-keyboard-response","16","83194","0.0-5.0-3.2","6144bf2539bc8f85335af4be","bdp_wmem","Wed Mar 15 2023 16:00:56 GMT-0400 (Eastern Daylight Time)","590557","Match,No Match","","null","","","","","","<div class='trialBorder'><div class='vertical-center'><img src='img/fixation2_sml.jpg'</img></div></div>","null","DELAY","","","","","","","","","","",""
"html-keyboard-response","17","85317","0.0-5.0-4.2","6144bf2539bc8f85335af4be","bdp_wmem","Wed Mar 15 2023 16:00:56 GMT-0400 (Eastern Daylight Time)","590557","Match,No Match","","2121","","","","","","<div class='trialBorder'><div class='targDiv'><div class='tc'><img class='introPic' src='trustrating_stim/white_mw040.bmp'><br><font color='green'><strong>Share</strong></font></div></div><div class='respDiv'><div class='respDivL'>Match<br>(e)</div><div class='respDivR'>No Match<br>(i)</div></div></div>","i","TARGET","2","trustrating_stim/white_mw040.bmp,trustrating_stim/white_mw078.bmp","0,1","noMatchOutcome","i","3000","trustrating_stim/white_mw040.bmp","green","Share","PRACTICE","1"
"html-keyboard-response","18","85827","0.0-5.0-5.2","6144bf2539bc8f85335af4be","bdp_wmem","Wed Mar 15 2023 16:00:56 GMT-0400 (Eastern Daylight Time)","590557","Match,No Match","","null","","","","","","<div class='trialBorder'><div class='vertical-center'><img src='img/correct.jpg'></div><div class='respDiv'><div class='respDivL'>Match<br>(e)</div><div class='respDivR'><font style='color:orange'>No Match<br>(i)</font></div></div></div>","null","FEEDBACK","","","","","","","","","","",""
"html-keyboard-response","19","86330","0.0-5.0-1.3","6144bf2539bc8f85335af4be","bdp_wmem","Wed Mar 15 2023 16:00:56 GMT-0400 (Eastern Daylight Time)","590557","Match,No Match","","null","","","","","","<div class='trialBorder'><div class='vertical-center'><img src='img/fixation2_sml.jpg'</img></div></div>","null","FIX","","","","","","","","","","",""
"html-keyboard-response","20","90834","0.0-5.0-2.3","6144bf2539bc8f85335af4be","bdp_wmem","Wed Mar 15 2023 16:00:56 GMT-0400 (Eastern Daylight Time)","590557","Match,No Match","","null","","","","","","<div class='trialBorder'><div class='vertical-center'><img style='vertical-align:center; align:center' src='img/fixation2_sml.jpg'></div><div class='arrayDiv3'><div class='tl'><img class='introPic' src='trustrating_stim/white_mw092.bmp'><br><font color='green'><strong>Share</strong></font></div><div class='tc'><img class='introPic' src='trustrating_stim/white_mw012.bmp'><br><font color='red'><strong>Keep</strong></font></div><div class='tr'><img class='introPic' src='trustrating_stim/white_mw091.bmp'><br><font color='red'><strong>Keep</strong></font></div></div></div>","null","ARRAY","3","trustrating_stim/white_mw092.bmp,trustrating_stim/white_mw012.bmp,trustrating_stim/white_mw091.bmp","1,0,0","Match","e","4500","","","","",""
"html-keyboard-response","21","94842","0.0-5.0-3.3","6144bf2539bc8f85335af4be","bdp_wmem","Wed Mar 15 2023 16:00:56 GMT-0400 (Eastern Daylight Time)","590557","Match,No Match","","null","","","","","","<div class='trialBorder'><div class='vertical-center'><img src='img/fixation2_sml.jpg'</img></div></div>","null","DELAY","","","","","","","","","","",""
"html-keyboard-response","22","96918","0.0-5.0-4.3","6144bf2539bc8f85335af4be","bdp_wmem","Wed Mar 15 2023 16:00:56 GMT-0400 (Eastern Daylight Time)","590557","Match,No Match","","2073","","","","","","<div class='trialBorder'><div class='targDiv'><div class='tc'><img class='introPic' src='trustrating_stim/white_mw091.bmp'><br><font color='red'><strong>Keep</strong></font></div></div><div class='respDiv'><div class='respDivL'>Match<br>(e)</div><div class='respDivR'>No Match<br>(i)</div></div></div>","i","TARGET","3","trustrating_stim/white_mw092.bmp,trustrating_stim/white_mw012.bmp,trustrating_stim/white_mw091.bmp","1,0,0","Match","e","4500","trustrating_stim/white_mw091.bmp","red","Keep","PRACTICE","0"
"html-keyboard-response","23","97426","0.0-5.0-5.3","6144bf2539bc8f85335af4be","bdp_wmem","Wed Mar 15 2023 16:00:56 GMT-0400 (Eastern Daylight Time)","590557","Match,No Match","","null","","","","","","<div class='trialBorder'><div class='vertical-center'><img src='img/error.jpg'></div><div class='respDiv'><div class='respDivL'>Match<br>(e)</div><div class='respDivR'><font style='color:orange'>No Match<br>(i)</font></div></div></div>","null","FEEDBACK","","","","","","","","","","",""
"html-keyboard-response","24","97930","0.0-5.0-1.4","6144bf2539bc8f85335af4be","bdp_wmem","Wed Mar 15 2023 16:00:56 GMT-0400 (Eastern Daylight Time)","590557","Match,No Match","","null","","","","","","<div class='trialBorder'><div class='vertical-center'><img src='img/fixation2_sml.jpg'</img></div></div>","null","FIX","","","","","","","","","","",""
"html-keyboard-response","25","102434","0.0-5.0-2.4","6144bf2539bc8f85335af4be","bdp_wmem","Wed Mar 15 2023 16:00:56 GMT-0400 (Eastern Daylight Time)","590557","Match,No Match","","null","","","","","","<div class='trialBorder'><div class='vertical-center'><img style='vertical-align:center; align:center' src='img/fixation2_sml.jpg'></div><div class='arrayDiv3'><div class='tl'><img class='introPic' src='trustrating_stim/white_mw078.bmp'><br><font color='green'><strong>Share</strong></font></div><div class='tc'><img class='introPic' src='trustrating_stim/white_mw010.bmp'><br><font color='red'><strong>Keep</strong></font></div><div class='tr'><img class='introPic' src='trustrating_stim/white_mw038.bmp'><br><font color='green'><strong>Share</strong></font></div></div></div>","null","ARRAY","3","trustrating_stim/white_mw078.bmp,trustrating_stim/white_mw010.bmp,trustrating_stim/white_mw038.bmp","1,0,1","noMatchOutcome","i","4500","","","","",""
"html-keyboard-response","26","106441","0.0-5.0-3.4","6144bf2539bc8f85335af4be","bdp_wmem","Wed Mar 15 2023 16:00:56 GMT-0400 (Eastern Daylight Time)","590557","Match,No Match","","null","","","","","","<div class='trialBorder'><div class='vertical-center'><img src='img/fixation2_sml.jpg'</img></div></div>","null","DELAY","","","","","","","","","","",""
"html-keyboard-response","27","108617","0.0-5.0-4.4","6144bf2539bc8f85335af4be","bdp_wmem","Wed Mar 15 2023 16:00:56 GMT-0400 (Eastern Daylight Time)","590557","Match,No Match","","2174","","","","","","<div class='trialBorder'><div class='targDiv'><div class='tc'><img class='introPic' src='trustrating_stim/white_mw010.bmp'><br><font color='green'><strong>Share</strong></font></div></div><div class='respDiv'><div class='respDivL'>Match<br>(e)</div><div class='respDivR'>No Match<br>(i)</div></div></div>","e","TARGET","3","trustrating_stim/white_mw078.bmp,trustrating_stim/white_mw010.bmp,trustrating_stim/white_mw038.bmp","1,0,1","noMatchOutcome","i","4500","trustrating_stim/white_mw010.bmp","green","Share","PRACTICE","0"
"html-keyboard-response","28","109122","0.0-5.0-5.4","6144bf2539bc8f85335af4be","bdp_wmem","Wed Mar 15 2023 16:00:56 GMT-0400 (Eastern Daylight Time)","590557","Match,No Match","","null","","","","","","<div class='trialBorder'><div class='vertical-center'><img src='img/error.jpg'></div><div class='respDiv'><div class='respDivL'><font style='color:orange'>Match<br>(e)</font></div><div class='respDivR'>No Match<br>(i)</div></div></div>","null","FEEDBACK","","","","","","","","","","",""
"html-keyboard-response","29","109625","0.0-5.0-1.5","6144bf2539bc8f85335af4be","bdp_wmem","Wed Mar 15 2023 16:00:56 GMT-0400 (Eastern Daylight Time)","590557","Match,No Match","","null","","","","","","<div class='trialBorder'><div class='vertical-center'><img src='img/fixation2_sml.jpg'</img></div></div>","null","FIX","","","","","","","","","","",""
"html-keyboard-response","30","112633","0.0-5.0-2.5","6144bf2539bc8f85335af4be","bdp_wmem","Wed Mar 15 2023 16:00:56 GMT-0400 (Eastern Daylight Time)","590557","Match,No Match","","null","","","","","","<div class='trialBorder'><div class='vertical-center'><img style='vertical-align:center; align:center' src='img/fixation2_sml.jpg'></div><div class='arrayDiv2'><div class='tl'><img class='introPic' src='trustrating_stim/white_mw070.bmp'><br><font color='red'><strong>Keep</strong></font></div><div class='tr'><img class='introPic' src='trustrating_stim/white_mw078.bmp'><br><font color='green'><strong>Share</strong></font></div></div></div>","null","ARRAY","2","trustrating_stim/white_mw070.bmp,trustrating_stim/white_mw078.bmp","0,1","Match","e","3000","","","","",""
"html-keyboard-response","31","116639","0.0-5.0-3.5","6144bf2539bc8f85335af4be","bdp_wmem","Wed Mar 15 2023 16:00:56 GMT-0400 (Eastern Daylight Time)","590557","Match,No Match","","null","","","","","","<div class='trialBorder'><div class='vertical-center'><img src='img/fixation2_sml.jpg'</img></div></div>","null","DELAY","","","","","","","","","","",""
"html-keyboard-response","32","118928","0.0-5.0-4.5","6144bf2539bc8f85335af4be","bdp_wmem","Wed Mar 15 2023 16:00:56 GMT-0400 (Eastern Daylight Time)","590557","Match,No Match","","2287","","","","","","<div class='trialBorder'><div class='targDiv'><div class='tc'><img class='introPic' src='trustrating_stim/white_mw078.bmp'><br><font color='green'><strong>Share</strong></font></div></div><div class='respDiv'><div class='respDivL'>Match<br>(e)</div><div class='respDivR'>No Match<br>(i)</div></div></div>","e","TARGET","2","trustrating_stim/white_mw070.bmp,trustrating_stim/white_mw078.bmp","0,1","Match","e","3000","trustrating_stim/white_mw078.bmp","green","Share","PRACTICE","1"
"html-keyboard-response","33","119437","0.0-5.0-5.5","6144bf2539bc8f85335af4be","bdp_wmem","Wed Mar 15 2023 16:00:56 GMT-0400 (Eastern Daylight Time)","590557","Match,No Match","","null","","","","","","<div class='trialBorder'><div class='vertical-center'><img src='img/correct.jpg'></div><div class='respDiv'><div class='respDivL'><font style='color:orange'>Match<br>(e)</font></div><div class='respDivR'>No Match<br>(i)</div></div></div>","null","FEEDBACK","","","","","","","","","","",""
"instructions","34","123383","0.0-6.0","6144bf2539bc8f85335af4be","bdp_wmem","Wed Mar 15 2023 16:00:56 GMT-0400 (Eastern Daylight Time)","590557","Match,No Match","[{""page_index"":0,""viewing_time"":3945}]","3945","","","","","","","","","","","","","","","","","","",""
"html-keyboard-response","35","123892","0.0-7.0-1.0","6144bf2539bc8f85335af4be","bdp_wmem","Wed Mar 15 2023 16:00:56 GMT-0400 (Eastern Daylight Time)","590557","Match,No Match","","null","","","","","","<div class='trialBorder'><div class='vertical-center'><img src='img/fixation2_sml.jpg'</img></div></div>","null","FIX","","","","","","","","","","",""
"html-keyboard-response","36","128395","0.0-7.0-2.0","6144bf2539bc8f85335af4be","bdp_wmem","Wed Mar 15 2023 16:00:56 GMT-0400 (Eastern Daylight Time)","590557","Match,No Match","","null","","","","","","<div class='trialBorder'><div class='vertical-center'><img style='vertical-align:center; align:center' src='img/fixation2_sml.jpg'></div><div class='arrayDiv3'><div class='tl'><img class='introPic' src='trustrating_stim/white_mw003.bmp'><br><font color='red'><strong>Keep</strong></font></div><div class='tc'><img class='introPic' src='trustrating_stim/white_mw070.bmp'><br><font color='red'><strong>Keep</strong></font></div><div class='tr'><img class='introPic' src='trustrating_stim/white_mw042.bmp'><br><font color='green'><strong>Share</strong></font></div></div></div>","null","ARRAY","3","trustrating_stim/white_mw003.bmp,trustrating_stim/white_mw070.bmp,trustrating_stim/white_mw042.bmp","0,0,1","Match","e","4500","","","","",""
"html-keyboard-response","37","132401","0.0-7.0-3.0","6144bf2539bc8f85335af4be","bdp_wmem","Wed Mar 15 2023 16:00:56 GMT-0400 (Eastern Daylight Time)","590557","Match,No Match","","null","","","","","","<div class='trialBorder'><div class='vertical-center'><img src='img/fixation2_sml.jpg'</img></div></div>","null","DELAY","","","","","","","","","","",""
"html-keyboard-response","38","132968","0.0-7.0-4.0","6144bf2539bc8f85335af4be","bdp_wmem","Wed Mar 15 2023 16:00:56 GMT-0400 (Eastern Daylight Time)","590557","Match,No Match","","566","","","","","","<div class='trialBorder'><div class='targDiv'><div class='tc'><img class='introPic' src='trustrating_stim/white_mw042.bmp'><br><font color='green'><strong>Share</strong></font></div></div><div class='respDiv'><div class='respDivL'>Match<br>(e)</div><div class='respDivR'>No Match<br>(i)</div></div></div>","i","TARGET","3","trustrating_stim/white_mw003.bmp,trustrating_stim/white_mw070.bmp,trustrating_stim/white_mw042.bmp","0,0,1","Match","e","4500","trustrating_stim/white_mw042.bmp","green","Share","REAL","0"
"html-keyboard-response","39","133473","0.0-7.0-5.0","6144bf2539bc8f85335af4be","bdp_wmem","Wed Mar 15 2023 16:00:56 GMT-0400 (Eastern Daylight Time)","590557","Match,No Match","","null","","","","","","<div class='trialBorder'><div class='vertical-center'><img src='img/error.jpg'></div><div class='respDiv'><div class='respDivL'>Match<br>(e)</div><div class='respDivR'><font style='color:orange'>No Match<br>(i)</font></div></div></div>","null","FEEDBACK","","","","","","","","","","",""
"html-keyboard-response","40","133978","0.0-7.0-1.1","6144bf2539bc8f85335af4be","bdp_wmem","Wed Mar 15 2023 16:00:56 GMT-0400 (Eastern Daylight Time)","590557","Match,No Match","","null","","","","","","<div class='trialBorder'><div class='vertical-center'><img src='img/fixation2_sml.jpg'</img></div></div>","null","FIX","","","","","","","","","","",""
"html-keyboard-response","41","136985","0.0-7.0-2.1","6144bf2539bc8f85335af4be","bdp_wmem","Wed Mar 15 2023 16:00:56 GMT-0400 (Eastern Daylight Time)","590557","Match,No Match","","null","","","","","","<div class='trialBorder'><div class='vertical-center'><img style='vertical-align:center; align:center' src='img/fixation2_sml.jpg'></div><div class='arrayDiv2'><div class='tl'><img class='introPic' src='trustrating_stim/white_mw012.bmp'><br><font color='green'><strong>Share</strong></font></div><div class='tr'><img class='introPic' src='trustrating_stim/white_mw013.bmp'><br><font color='red'><strong>Keep</strong></font></div></div></div>","null","ARRAY","2","trustrating_stim/white_mw012.bmp,trustrating_stim/white_mw013.bmp","1,0","noMatchFace","i","3000","","","","",""
"html-keyboard-response","42","140992","0.0-7.0-3.1","6144bf2539bc8f85335af4be","bdp_wmem","Wed Mar 15 2023 16:00:56 GMT-0400 (Eastern Daylight Time)","590557","Match,No Match","","null","","","","","","<div class='trialBorder'><div class='vertical-center'><img src='img/fixation2_sml.jpg'</img></div></div>","null","DELAY","","","","","","","","","","",""
"html-keyboard-response","43","142396","0.0-7.0-4.1","6144bf2539bc8f85335af4be","bdp_wmem","Wed Mar 15 2023 16:00:56 GMT-0400 (Eastern Daylight Time)","590557","Match,No Match","","1402","","","","","","<div class='trialBorder'><div class='targDiv'><div class='tc'><img class='introPic' src='trustrating_stim/white_mw092.bmp'><br><font color='green'><strong>Share</strong></font></div></div><div class='respDiv'><div class='respDivL'>Match<br>(e)</div><div class='respDivR'>No Match<br>(i)</div></div></div>","i","TARGET","2","trustrating_stim/white_mw012.bmp,trustrating_stim/white_mw013.bmp","1,0","noMatchFace","i","3000","trustrating_stim/white_mw092.bmp","green","Share","REAL","1"
"html-keyboard-response","44","142904","0.0-7.0-5.1","6144bf2539bc8f85335af4be","bdp_wmem","Wed Mar 15 2023 16:00:56 GMT-0400 (Eastern Daylight Time)","590557","Match,No Match","","null","","","","","","<div class='trialBorder'><div class='vertical-center'><img src='img/correct.jpg'></div><div class='respDiv'><div class='respDivL'>Match<br>(e)</div><div class='respDivR'><font style='color:orange'>No Match<br>(i)</font></div></div></div>","null","FEEDBACK","","","","","","","","","","",""
"html-keyboard-response","45","143410","0.0-7.0-1.2","6144bf2539bc8f85335af4be","bdp_wmem","Wed Mar 15 2023 16:00:56 GMT-0400 (Eastern Daylight Time)","590557","Match,No Match","","null","","","","","","<div class='trialBorder'><div class='vertical-center'><img src='img/fixation2_sml.jpg'</img></div></div>","null","FIX","","","","","","","","","","",""
"html-keyboard-response","46","146416","0.0-7.0-2.2","6144bf2539bc8f85335af4be","bdp_wmem","Wed Mar 15 2023 16:00:56 GMT-0400 (Eastern Daylight Time)","590557","Match,No Match","","null","","","","","","<div class='trialBorder'><div class='vertical-center'><img style='vertical-align:center; align:center' src='img/fixation2_sml.jpg'></div><div class='arrayDiv2'><div class='tl'><img class='introPic' src='trustrating_stim/white_mw078.bmp'><br><font color='red'><strong>Keep</strong></font></div><div class='tr'><img class='introPic' src='trustrating_stim/white_mw085.bmp'><br><font color='green'><strong>Share</strong></font></div></div></div>","null","ARRAY","2","trustrating_stim/white_mw078.bmp,trustrating_stim/white_mw085.bmp","0,1","noMatchFace","i","3000","","","","",""
"html-keyboard-response","47","150424","0.0-7.0-3.2","6144bf2539bc8f85335af4be","bdp_wmem","Wed Mar 15 2023 16:00:56 GMT-0400 (Eastern Daylight Time)","590557","Match,No Match","","null","","","","","","<div class='trialBorder'><div class='vertical-center'><img src='img/fixation2_sml.jpg'</img></div></div>","null","DELAY","","","","","","","","","","",""
"html-keyboard-response","48","151992","0.0-7.0-4.2","6144bf2539bc8f85335af4be","bdp_wmem","Wed Mar 15 2023 16:00:56 GMT-0400 (Eastern Daylight Time)","590557","Match,No Match","","1566","","","","","","<div class='trialBorder'><div class='targDiv'><div class='tc'><img class='introPic' src='trustrating_stim/white_mw042.bmp'><br><font color='red'><strong>Keep</strong></font></div></div><div class='respDiv'><div class='respDivL'>Match<br>(e)</div><div class='respDivR'>No Match<br>(i)</div></div></div>","i","TARGET","2","trustrating_stim/white_mw078.bmp,trustrating_stim/white_mw085.bmp","0,1","noMatchFace","i","3000","trustrating_stim/white_mw042.bmp","red","Keep","REAL","1"
"html-keyboard-response","49","152495","0.0-7.0-5.2","6144bf2539bc8f85335af4be","bdp_wmem","Wed Mar 15 2023 16:00:56 GMT-0400 (Eastern Daylight Time)","590557","Match,No Match","","null","","","","","","<div class='trialBorder'><div class='vertical-center'><img src='img/correct.jpg'></div><div class='respDiv'><div class='respDivL'>Match<br>(e)</div><div class='respDivR'><font style='color:orange'>No Match<br>(i)</font></div></div></div>","null","FEEDBACK","","","","","","","","","","",""
"html-keyboard-response","50","152999","0.0-7.0-1.3","6144bf2539bc8f85335af4be","bdp_wmem","Wed Mar 15 2023 16:00:56 GMT-0400 (Eastern Daylight Time)","590557","Match,No Match","","null","","","","","","<div class='trialBorder'><div class='vertical-center'><img src='img/fixation2_sml.jpg'</img></div></div>","null","FIX","","","","","","","","","","",""
"html-keyboard-response","51","157503","0.0-7.0-2.3","6144bf2539bc8f85335af4be","bdp_wmem","Wed Mar 15 2023 16:00:56 GMT-0400 (Eastern Daylight Time)","590557","Match,No Match","","null","","","","","","<div class='trialBorder'><div class='vertical-center'><img style='vertical-align:center; align:center' src='img/fixation2_sml.jpg'></div><div class='arrayDiv3'><div class='tl'><img class='introPic' src='trustrating_stim/white_mw085.bmp'><br><font color='red'><strong>Keep</strong></font></div><div class='tc'><img class='introPic' src='trustrating_stim/white_mw070.bmp'><br><font color='red'><strong>Keep</strong></font></div><div class='tr'><img class='introPic' src='trustrating_stim/white_mw042.bmp'><br><font color='green'><strong>Share</strong></font></div></div></div>","null","ARRAY","3","trustrating_stim/white_mw085.bmp,trustrating_stim/white_mw070.bmp,trustrating_stim/white_mw042.bmp","0,0,1","noMatchFace","i","4500","","","","",""
"html-keyboard-response","52","161511","0.0-7.0-3.3","6144bf2539bc8f85335af4be","bdp_wmem","Wed Mar 15 2023 16:00:56 GMT-0400 (Eastern Daylight Time)","590557","Match,No Match","","null","","","","","","<div class='trialBorder'><div class='vertical-center'><img src='img/fixation2_sml.jpg'</img></div></div>","null","DELAY","","","","","","","","","","",""
"html-keyboard-response","53","163131","0.0-7.0-4.3","6144bf2539bc8f85335af4be","bdp_wmem","Wed Mar 15 2023 16:00:56 GMT-0400 (Eastern Daylight Time)","590557","Match,No Match","","1617","","","","","","<div class='trialBorder'><div class='targDiv'><div class='tc'><img class='introPic' src='trustrating_stim/white_mw040.bmp'><br><font color='red'><strong>Keep</strong></font></div></div><div class='respDiv'><div class='respDivL'>Match<br>(e)</div><div class='respDivR'>No Match<br>(i)</div></div></div>","i","TARGET","3","trustrating_stim/white_mw085.bmp,trustrating_stim/white_mw070.bmp,trustrating_stim/white_mw042.bmp","0,0,1","noMatchFace","i","4500","trustrating_stim/white_mw040.bmp","red","Keep","REAL","1"
"html-keyboard-response","54","163639","0.0-7.0-5.3","6144bf2539bc8f85335af4be","bdp_wmem","Wed Mar 15 2023 16:00:56 GMT-0400 (Eastern Daylight Time)","590557","Match,No Match","","null","","","","","","<div class='trialBorder'><div class='vertical-center'><img src='img/correct.jpg'></div><div class='respDiv'><div class='respDivL'>Match<br>(e)</div><div class='respDivR'><font style='color:orange'>No Match<br>(i)</font></div></div></div>","null","FEEDBACK","","","","","","","","","","",""
"html-keyboard-response","55","164142","0.0-7.0-1.4","6144bf2539bc8f85335af4be","bdp_wmem","Wed Mar 15 2023 16:00:56 GMT-0400 (Eastern Daylight Time)","590557","Match,No Match","","null","","","","","","<div class='trialBorder'><div class='vertical-center'><img src='img/fixation2_sml.jpg'</img></div></div>","null","FIX","","","","","","","","","","",""
"html-keyboard-response","56","168646","0.0-7.0-2.4","6144bf2539bc8f85335af4be","bdp_wmem","Wed Mar 15 2023 16:00:56 GMT-0400 (Eastern Daylight Time)","590557","Match,No Match","","null","","","","","","<div class='trialBorder'><div class='vertical-center'><img style='vertical-align:center; align:center' src='img/fixation2_sml.jpg'></div><div class='arrayDiv3'><div class='tl'><img class='introPic' src='trustrating_stim/white_mw010.bmp'><br><font color='red'><strong>Keep</strong></font></div><div class='tc'><img class='introPic' src='trustrating_stim/white_mw012.bmp'><br><font color='green'><strong>Share</strong></font></div><div class='tr'><img class='introPic' src='trustrating_stim/white_mw013.bmp'><br><font color='green'><strong>Share</strong></font></div></div></div>","null","ARRAY","3","trustrating_stim/white_mw010.bmp,trustrating_stim/white_mw012.bmp,trustrating_stim/white_mw013.bmp","0,1,1","noMatchFace","i","4500","","","","",""
"html-keyboard-response","57","172654","0.0-7.0-3.4","6144bf2539bc8f85335af4be","bdp_wmem","Wed Mar 15 2023 16:00:56 GMT-0400 (Eastern Daylight Time)","590557","Match,No Match","","null","","","","","","<div class='trialBorder'><div class='vertical-center'><img src='img/fixation2_sml.jpg'</img></div></div>","null","DELAY","","","","","","","","","","",""
"html-keyboard-response","58","175094","0.0-7.0-4.4","6144bf2539bc8f85335af4be","bdp_wmem","Wed Mar 15 2023 16:00:56 GMT-0400 (Eastern Daylight Time)","590557","Match,No Match","","2437","","","","","","<div class='trialBorder'><div class='targDiv'><div class='tc'><img class='introPic' src='trustrating_stim/white_mw092.bmp'><br><font color='green'><strong>Share</strong></font></div></div><div class='respDiv'><div class='respDivL'>Match<br>(e)</div><div class='respDivR'>No Match<br>(i)</div></div></div>","i","TARGET","3","trustrating_stim/white_mw010.bmp,trustrating_stim/white_mw012.bmp,trustrating_stim/white_mw013.bmp","0,1,1","noMatchFace","i","4500","trustrating_stim/white_mw092.bmp","green","Share","REAL","1"
"html-keyboard-response","59","175598","0.0-7.0-5.4","6144bf2539bc8f85335af4be","bdp_wmem","Wed Mar 15 2023 16:00:56 GMT-0400 (Eastern Daylight Time)","590557","Match,No Match","","null","","","","","","<div class='trialBorder'><div class='vertical-center'><img src='img/correct.jpg'></div><div class='respDiv'><div class='respDivL'>Match<br>(e)</div><div class='respDivR'><font style='color:orange'>No Match<br>(i)</font></div></div></div>","null","FEEDBACK","","","","","","","","","","",""
"html-keyboard-response","60","176102","0.0-7.0-1.5","6144bf2539bc8f85335af4be","bdp_wmem","Wed Mar 15 2023 16:00:56 GMT-0400 (Eastern Daylight Time)","590557","Match,No Match","","null","","","","","","<div class='trialBorder'><div class='vertical-center'><img src='img/fixation2_sml.jpg'</img></div></div>","null","FIX","","","","","","","","","","",""
"html-keyboard-response","61","180609","0.0-7.0-2.5","6144bf2539bc8f85335af4be","bdp_wmem","Wed Mar 15 2023 16:00:56 GMT-0400 (Eastern Daylight Time)","590557","Match,No Match","","null","","","","","","<div class='trialBorder'><div class='vertical-center'><img style='vertical-align:center; align:center' src='img/fixation2_sml.jpg'></div><div class='arrayDiv3'><div class='tl'><img class='introPic' src='trustrating_stim/white_mw003.bmp'><br><font color='red'><strong>Keep</strong></font></div><div class='tc'><img class='introPic' src='trustrating_stim/white_mw012.bmp'><br><font color='green'><strong>Share</strong></font></div><div class='tr'><img class='introPic' src='trustrating_stim/white_mw091.bmp'><br><font color='green'><strong>Share</strong></font></div></div></div>","null","ARRAY","3","trustrating_stim/white_mw003.bmp,trustrating_stim/white_mw012.bmp,trustrating_stim/white_mw091.bmp","0,1,1","Match","e","4500","","","","",""
"html-keyboard-response","62","184614","0.0-7.0-3.5","6144bf2539bc8f85335af4be","bdp_wmem","Wed Mar 15 2023 16:00:56 GMT-0400 (Eastern Daylight Time)","590557","Match,No Match","","null","","","","","","<div class='trialBorder'><div class='vertical-center'><img src='img/fixation2_sml.jpg'</img></div></div>","null","DELAY","","","","","","","","","","",""
"html-keyboard-response","63","186239","0.0-7.0-4.5","6144bf2539bc8f85335af4be","bdp_wmem","Wed Mar 15 2023 16:00:56 GMT-0400 (Eastern Daylight Time)","590557","Match,No Match","","1622","","","","","","<div class='trialBorder'><div class='targDiv'><div class='tc'><img class='introPic' src='trustrating_stim/white_mw012.bmp'><br><font color='green'><strong>Share</strong></font></div></div><div class='respDiv'><div class='respDivL'>Match<br>(e)</div><div class='respDivR'>No Match<br>(i)</div></div></div>","e","TARGET","3","trustrating_stim/white_mw003.bmp,trustrating_stim/white_mw012.bmp,trustrating_stim/white_mw091.bmp","0,1,1","Match","e","4500","trustrating_stim/white_mw012.bmp","green","Share","REAL","1"
"html-keyboard-response","64","186742","0.0-7.0-5.5","6144bf2539bc8f85335af4be","bdp_wmem","Wed Mar 15 2023 16:00:56 GMT-0400 (Eastern Daylight Time)","590557","Match,No Match","","null","","","","","","<div class='trialBorder'><div class='vertical-center'><img src='img/correct.jpg'></div><div class='respDiv'><div class='respDivL'><font style='color:orange'>Match<br>(e)</font></div><div class='respDivR'>No Match<br>(i)</div></div></div>","null","FEEDBACK","","","","","","","","","","",""
"html-keyboard-response","65","187248","0.0-7.0-1.6","6144bf2539bc8f85335af4be","bdp_wmem","Wed Mar 15 2023 16:00:56 GMT-0400 (Eastern Daylight Time)","590557","Match,No Match","","null","","","","","","<div class='trialBorder'><div class='vertical-center'><img src='img/fixation2_sml.jpg'</img></div></div>","null","FIX","","","","","","","","","","",""
"html-keyboard-response","66","188758","0.0-7.0-2.6","6144bf2539bc8f85335af4be","bdp_wmem","Wed Mar 15 2023 16:00:56 GMT-0400 (Eastern Daylight Time)","590557","Match,No Match","","null","","","","","","<div class='trialBorder'><div class='vertical-center'><img style='vertical-align:center; align:center' src='img/fixation2_sml.jpg'></div><div class='arrayDiv1'><div class='tc'><img class='introPic' src='trustrating_stim/white_mw038.bmp'><br><font color='green'><strong>Share</strong></font></div></div></div>","null","ARRAY","1","trustrating_stim/white_mw038.bmp","1","noMatchFace","i","1500","","","","",""
"html-keyboard-response","67","192765","0.0-7.0-3.6","6144bf2539bc8f85335af4be","bdp_wmem","Wed Mar 15 2023 16:00:56 GMT-0400 (Eastern Daylight Time)","590557","Match,No Match","","null","","","","","","<div class='trialBorder'><div class='vertical-center'><img src='img/fixation2_sml.jpg'</img></div></div>","null","DELAY","","","","","","","","","","",""
"html-keyboard-response","68","194062","0.0-7.0-4.6","6144bf2539bc8f85335af4be","bdp_wmem","Wed Mar 15 2023 16:00:56 GMT-0400 (Eastern Daylight Time)","590557","Match,No Match","","1295","","","","","","<div class='trialBorder'><div class='targDiv'><div class='tc'><img class='introPic' src='trustrating_stim/white_mw013.bmp'><br><font color='green'><strong>Share</strong></font></div></div><div class='respDiv'><div class='respDivL'>Match<br>(e)</div><div class='respDivR'>No Match<br>(i)</div></div></div>","i","TARGET","1","trustrating_stim/white_mw038.bmp","1","noMatchFace","i","1500","trustrating_stim/white_mw013.bmp","green","Share","REAL","1"
"html-keyboard-response","69","194566","0.0-7.0-5.6","6144bf2539bc8f85335af4be","bdp_wmem","Wed Mar 15 2023 16:00:56 GMT-0400 (Eastern Daylight Time)","590557","Match,No Match","","null","","","","","","<div class='trialBorder'><div class='vertical-center'><img src='img/correct.jpg'></div><div class='respDiv'><div class='respDivL'>Match<br>(e)</div><div class='respDivR'><font style='color:orange'>No Match<br>(i)</font></div></div></div>","null","FEEDBACK","","","","","","","","","","",""
"html-keyboard-response","70","195069","0.0-7.0-1.7","6144bf2539bc8f85335af4be","bdp_wmem","Wed Mar 15 2023 16:00:56 GMT-0400 (Eastern Daylight Time)","590557","Match,No Match","","null","","","","","","<div class='trialBorder'><div class='vertical-center'><img src='img/fixation2_sml.jpg'</img></div></div>","null","FIX","","","","","","","","","","",""
"html-keyboard-response","71","199574","0.0-7.0-2.7","6144bf2539bc8f85335af4be","bdp_wmem","Wed Mar 15 2023 16:00:56 GMT-0400 (Eastern Daylight Time)","590557","Match,No Match","","null","","","","","","<div class='trialBorder'><div class='vertical-center'><img style='vertical-align:center; align:center' src='img/fixation2_sml.jpg'></div><div class='arrayDiv3'><div class='tl'><img class='introPic' src='trustrating_stim/white_mw091.bmp'><br><font color='green'><strong>Share</strong></font></div><div class='tc'><img class='introPic' src='trustrating_stim/white_mw085.bmp'><br><font color='red'><strong>Keep</strong></font></div><div class='tr'><img class='introPic' src='trustrating_stim/white_mw042.bmp'><br><font color='green'><strong>Share</strong></font></div></div></div>","null","ARRAY","3","trustrating_stim/white_mw091.bmp,trustrating_stim/white_mw085.bmp,trustrating_stim/white_mw042.bmp","1,0,1","noMatchOutcome","i","4500","","","","",""
"html-keyboard-response","72","203581","0.0-7.0-3.7","6144bf2539bc8f85335af4be","bdp_wmem","Wed Mar 15 2023 16:00:56 GMT-0400 (Eastern Daylight Time)","590557","Match,No Match","","null","","","","","","<div class='trialBorder'><div class='vertical-center'><img src='img/fixation2_sml.jpg'</img></div></div>","null","DELAY","","","","","","","","","","",""
"html-keyboard-response","73","206278","0.0-7.0-4.7","6144bf2539bc8f85335af4be","bdp_wmem","Wed Mar 15 2023 16:00:56 GMT-0400 (Eastern Daylight Time)","590557","Match,No Match","","2695","","","","","","<div class='trialBorder'><div class='targDiv'><div class='tc'><img class='introPic' src='trustrating_stim/white_mw085.bmp'><br><font color='green'><strong>Share</strong></font></div></div><div class='respDiv'><div class='respDivL'>Match<br>(e)</div><div class='respDivR'>No Match<br>(i)</div></div></div>","i","TARGET","3","trustrating_stim/white_mw091.bmp,trustrating_stim/white_mw085.bmp,trustrating_stim/white_mw042.bmp","1,0,1","noMatchOutcome","i","4500","trustrating_stim/white_mw085.bmp","green","Share","REAL","1"
"html-keyboard-response","74","206781","0.0-7.0-5.7","6144bf2539bc8f85335af4be","bdp_wmem","Wed Mar 15 2023 16:00:56 GMT-0400 (Eastern Daylight Time)","590557","Match,No Match","","null","","","","","","<div class='trialBorder'><div class='vertical-center'><img src='img/correct.jpg'></div><div class='respDiv'><div class='respDivL'>Match<br>(e)</div><div class='respDivR'><font style='color:orange'>No Match<br>(i)</font></div></div></div>","null","FEEDBACK","","","","","","","","","","",""
"html-keyboard-response","75","207285","0.0-7.0-1.8","6144bf2539bc8f85335af4be","bdp_wmem","Wed Mar 15 2023 16:00:56 GMT-0400 (Eastern Daylight Time)","590557","Match,No Match","","null","","","","","","<div class='trialBorder'><div class='vertical-center'><img src='img/fixation2_sml.jpg'</img></div></div>","null","FIX","","","","","","","","","","",""
"html-keyboard-response","76","208789","0.0-7.0-2.8","6144bf2539bc8f85335af4be","bdp_wmem","Wed Mar 15 2023 16:00:56 GMT-0400 (Eastern Daylight Time)","590557","Match,No Match","","null","","","","","","<div class='trialBorder'><div class='vertical-center'><img style='vertical-align:center; align:center' src='img/fixation2_sml.jpg'></div><div class='arrayDiv1'><div class='tc'><img class='introPic' src='trustrating_stim/white_mw038.bmp'><br><font color='red'><strong>Keep</strong></font></div></div></div>","null","ARRAY","1","trustrating_stim/white_mw038.bmp","0","noMatchOutcome","i","1500","","","","",""
"html-keyboard-response","77","212797","0.0-7.0-3.8","6144bf2539bc8f85335af4be","bdp_wmem","Wed Mar 15 2023 16:00:56 GMT-0400 (Eastern Daylight Time)","590557","Match,No Match","","null","","","","","","<div class='trialBorder'><div class='vertical-center'><img src='img/fixation2_sml.jpg'</img></div></div>","null","DELAY","","","","","","","","","","",""
"html-keyboard-response","78","213930","0.0-7.0-4.8","6144bf2539bc8f85335af4be","bdp_wmem","Wed Mar 15 2023 16:00:56 GMT-0400 (Eastern Daylight Time)","590557","Match,No Match","","1131","","","","","","<div class='trialBorder'><div class='targDiv'><div class='tc'><img class='introPic' src='trustrating_stim/white_mw038.bmp'><br><font color='green'><strong>Share</strong></font></div></div><div class='respDiv'><div class='respDivL'>Match<br>(e)</div><div class='respDivR'>No Match<br>(i)</div></div></div>","e","TARGET","1","trustrating_stim/white_mw038.bmp","0","noMatchOutcome","i","1500","trustrating_stim/white_mw038.bmp","green","Share","REAL","0"
"html-keyboard-response","79","214437","0.0-7.0-5.8","6144bf2539bc8f85335af4be","bdp_wmem","Wed Mar 15 2023 16:00:56 GMT-0400 (Eastern Daylight Time)","590557","Match,No Match","","null","","","","","","<div class='trialBorder'><div class='vertical-center'><img src='img/error.jpg'></div><div class='respDiv'><div class='respDivL'><font style='color:orange'>Match<br>(e)</font></div><div class='respDivR'>No Match<br>(i)</div></div></div>","null","FEEDBACK","","","","","","","","","","",""
"html-keyboard-response","80","214941","0.0-7.0-1.9","6144bf2539bc8f85335af4be","bdp_wmem","Wed Mar 15 2023 16:00:56 GMT-0400 (Eastern Daylight Time)","590557","Match,No Match","","null","","","","","","<div class='trialBorder'><div class='vertical-center'><img src='img/fixation2_sml.jpg'</img></div></div>","null","FIX","","","","","","","","","","",""
"html-keyboard-response","81","217949","0.0-7.0-2.9","6144bf2539bc8f85335af4be","bdp_wmem","Wed Mar 15 2023 16:00:56 GMT-0400 (Eastern Daylight Time)","590557","Match,No Match","","null","","","","","","<div class='trialBorder'><div class='vertical-center'><img style='vertical-align:center; align:center' src='img/fixation2_sml.jpg'></div><div class='arrayDiv2'><div class='tl'><img class='introPic' src='trustrating_stim/white_mw012.bmp'><br><font color='red'><strong>Keep</strong></font></div><div class='tr'><img class='introPic' src='trustrating_stim/white_mw042.bmp'><br><font color='green'><strong>Share</strong></font></div></div></div>","null","ARRAY","2","trustrating_stim/white_mw012.bmp,trustrating_stim/white_mw042.bmp","0,1","Match","e","3000","","","","",""
"html-keyboard-response","82","221957","0.0-7.0-3.9","6144bf2539bc8f85335af4be","bdp_wmem","Wed Mar 15 2023 16:00:56 GMT-0400 (Eastern Daylight Time)","590557","Match,No Match","","null","","","","","","<div class='trialBorder'><div class='vertical-center'><img src='img/fixation2_sml.jpg'</img></div></div>","null","DELAY","","","","","","","","","","",""
"html-keyboard-response","83","223507","0.0-7.0-4.9","6144bf2539bc8f85335af4be","bdp_wmem","Wed Mar 15 2023 16:00:56 GMT-0400 (Eastern Daylight Time)","590557","Match,No Match","","1548","","","","","","<div class='trialBorder'><div class='targDiv'><div class='tc'><img class='introPic' src='trustrating_stim/white_mw012.bmp'><br><font color='red'><strong>Keep</strong></font></div></div><div class='respDiv'><div class='respDivL'>Match<br>(e)</div><div class='respDivR'>No Match<br>(i)</div></div></div>","i","TARGET","2","trustrating_stim/white_mw012.bmp,trustrating_stim/white_mw042.bmp","0,1","Match","e","3000","trustrating_stim/white_mw012.bmp","red","Keep","REAL","0"
"html-keyboard-response","84","224012","0.0-7.0-5.9","6144bf2539bc8f85335af4be","bdp_wmem","Wed Mar 15 2023 16:00:56 GMT-0400 (Eastern Daylight Time)","590557","Match,No Match","","null","","","","","","<div class='trialBorder'><div class='vertical-center'><img src='img/error.jpg'></div><div class='respDiv'><div class='respDivL'>Match<br>(e)</div><div class='respDivR'><font style='color:orange'>No Match<br>(i)</font></div></div></div>","null","FEEDBACK","","","","","","","","","","",""
"html-keyboard-response","85","224516","0.0-7.0-1.10","6144bf2539bc8f85335af4be","bdp_wmem","Wed Mar 15 2023 16:00:56 GMT-0400 (Eastern Daylight Time)","590557","Match,No Match","","null","","","","","","<div class='trialBorder'><div class='vertical-center'><img src='img/fixation2_sml.jpg'</img></div></div>","null","FIX","","","","","","","","","","",""
"html-keyboard-response","86","229020","0.0-7.0-2.10","6144bf2539bc8f85335af4be","bdp_wmem","Wed Mar 15 2023 16:00:56 GMT-0400 (Eastern Daylight Time)","590557","Match,No Match","","null","","","","","","<div class='trialBorder'><div class='vertical-center'><img style='vertical-align:center; align:center' src='img/fixation2_sml.jpg'></div><div class='arrayDiv3'><div class='tl'><img class='introPic' src='trustrating_stim/white_mw012.bmp'><br><font color='green'><strong>Share</strong></font></div><div class='tc'><img class='introPic' src='trustrating_stim/white_mw042.bmp'><br><font color='red'><strong>Keep</strong></font></div><div class='tr'><img class='introPic' src='trustrating_stim/white_mw092.bmp'><br><font color='green'><strong>Share</strong></font></div></div></div>","null","ARRAY","3","trustrating_stim/white_mw012.bmp,trustrating_stim/white_mw042.bmp,trustrating_stim/white_mw092.bmp","1,0,1","Match","e","4500","","","","",""
"html-keyboard-response","87","233028","0.0-7.0-3.10","6144bf2539bc8f85335af4be","bdp_wmem","Wed Mar 15 2023 16:00:56 GMT-0400 (Eastern Daylight Time)","590557","Match,No Match","","null","","","","","","<div class='trialBorder'><div class='vertical-center'><img src='img/fixation2_sml.jpg'</img></div></div>","null","DELAY","","","","","","","","","","",""
"html-keyboard-response","88","234523","0.0-7.0-4.10","6144bf2539bc8f85335af4be","bdp_wmem","Wed Mar 15 2023 16:00:56 GMT-0400 (Eastern Daylight Time)","590557","Match,No Match","","1491","","","","","","<div class='trialBorder'><div class='targDiv'><div class='tc'><img class='introPic' src='trustrating_stim/white_mw012.bmp'><br><font color='green'><strong>Share</strong></font></div></div><div class='respDiv'><div class='respDivL'>Match<br>(e)</div><div class='respDivR'>No Match<br>(i)</div></div></div>","e","TARGET","3","trustrating_stim/white_mw012.bmp,trustrating_stim/white_mw042.bmp,trustrating_stim/white_mw092.bmp","1,0,1","Match","e","4500","trustrating_stim/white_mw012.bmp","green","Share","REAL","1"
"html-keyboard-response","89","235028","0.0-7.0-5.10","6144bf2539bc8f85335af4be","bdp_wmem","Wed Mar 15 2023 16:00:56 GMT-0400 (Eastern Daylight Time)","590557","Match,No Match","","null","","","","","","<div class='trialBorder'><div class='vertical-center'><img src='img/correct.jpg'></div><div class='respDiv'><div class='respDivL'><font style='color:orange'>Match<br>(e)</font></div><div class='respDivR'>No Match<br>(i)</div></div></div>","null","FEEDBACK","","","","","","","","","","",""
"html-keyboard-response","90","235532","0.0-7.0-1.11","6144bf2539bc8f85335af4be","bdp_wmem","Wed Mar 15 2023 16:00:56 GMT-0400 (Eastern Daylight Time)","590557","Match,No Match","","null","","","","","","<div class='trialBorder'><div class='vertical-center'><img src='img/fixation2_sml.jpg'</img></div></div>","null","FIX","","","","","","","","","","",""
"html-keyboard-response","91","237036","0.0-7.0-2.11","6144bf2539bc8f85335af4be","bdp_wmem","Wed Mar 15 2023 16:00:56 GMT-0400 (Eastern Daylight Time)","590557","Match,No Match","","null","","","","","","<div class='trialBorder'><div class='vertical-center'><img style='vertical-align:center; align:center' src='img/fixation2_sml.jpg'></div><div class='arrayDiv1'><div class='tc'><img class='introPic' src='trustrating_stim/white_mw010.bmp'><br><font color='green'><strong>Share</strong></font></div></div></div>","null","ARRAY","1","trustrating_stim/white_mw010.bmp","1","Match","e","1500","","","","",""
"html-keyboard-response","92","241044","0.0-7.0-3.11","6144bf2539bc8f85335af4be","bdp_wmem","Wed Mar 15 2023 16:00:56 GMT-0400 (Eastern Daylight Time)","590557","Match,No Match","","null","","","","","","<div class='trialBorder'><div class='vertical-center'><img src='img/fixation2_sml.jpg'</img></div></div>","null","DELAY","","","","","","","","","","",""
"html-keyboard-response","93","241572","0.0-7.0-4.11","6144bf2539bc8f85335af4be","bdp_wmem","Wed Mar 15 2023 16:00:56 GMT-0400 (Eastern Daylight Time)","590557","Match,No Match","","526","","","","","","<div class='trialBorder'><div class='targDiv'><div class='tc'><img class='introPic' src='trustrating_stim/white_mw010.bmp'><br><font color='green'><strong>Share</strong></font></div></div><div class='respDiv'><div class='respDivL'>Match<br>(e)</div><div class='respDivR'>No Match<br>(i)</div></div></div>","e","TARGET","1","trustrating_stim/white_mw010.bmp","1","Match","e","1500","trustrating_stim/white_mw010.bmp","green","Share","REAL","1"
"html-keyboard-response","94","242076","0.0-7.0-5.11","6144bf2539bc8f85335af4be","bdp_wmem","Wed Mar 15 2023 16:00:56 GMT-0400 (Eastern Daylight Time)","590557","Match,No Match","","null","","","","","","<div class='trialBorder'><div class='vertical-center'><img src='img/correct.jpg'></div><div class='respDiv'><div class='respDivL'><font style='color:orange'>Match<br>(e)</font></div><div class='respDivR'>No Match<br>(i)</div></div></div>","null","FEEDBACK","","","","","","","","","","",""
"html-keyboard-response","95","242580","0.0-7.0-1.12","6144bf2539bc8f85335af4be","bdp_wmem","Wed Mar 15 2023 16:00:56 GMT-0400 (Eastern Daylight Time)","590557","Match,No Match","","null","","","","","","<div class='trialBorder'><div class='vertical-center'><img src='img/fixation2_sml.jpg'</img></div></div>","null","FIX","","","","","","","","","","",""
"html-keyboard-response","96","245588","0.0-7.0-2.12","6144bf2539bc8f85335af4be","bdp_wmem","Wed Mar 15 2023 16:00:56 GMT-0400 (Eastern Daylight Time)","590557","Match,No Match","","null","","","","","","<div class='trialBorder'><div class='vertical-center'><img style='vertical-align:center; align:center' src='img/fixation2_sml.jpg'></div><div class='arrayDiv2'><div class='tl'><img class='introPic' src='trustrating_stim/white_mw085.bmp'><br><font color='red'><strong>Keep</strong></font></div><div class='tr'><img class='introPic' src='trustrating_stim/white_mw092.bmp'><br><font color='green'><strong>Share</strong></font></div></div></div>","null","ARRAY","2","trustrating_stim/white_mw085.bmp,trustrating_stim/white_mw092.bmp","0,1","Match","e","3000","","","","",""
"html-keyboard-response","97","249596","0.0-7.0-3.12","6144bf2539bc8f85335af4be","bdp_wmem","Wed Mar 15 2023 16:00:56 GMT-0400 (Eastern Daylight Time)","590557","Match,No Match","","null","","","","","","<div class='trialBorder'><div class='vertical-center'><img src='img/fixation2_sml.jpg'</img></div></div>","null","DELAY","","","","","","","","","","",""
"html-keyboard-response","98","252296","0.0-7.0-4.12","6144bf2539bc8f85335af4be","bdp_wmem","Wed Mar 15 2023 16:00:56 GMT-0400 (Eastern Daylight Time)","590557","Match,No Match","","2698","","","","","","<div class='trialBorder'><div class='targDiv'><div class='tc'><img class='introPic' src='trustrating_stim/white_mw092.bmp'><br><font color='green'><strong>Share</strong></font></div></div><div class='respDiv'><div class='respDivL'>Match<br>(e)</div><div class='respDivR'>No Match<br>(i)</div></div></div>","e","TARGET","2","trustrating_stim/white_mw085.bmp,trustrating_stim/white_mw092.bmp","0,1","Match","e","3000","trustrating_stim/white_mw092.bmp","green","Share","REAL","1"
"html-keyboard-response","99","252806","0.0-7.0-5.12","6144bf2539bc8f85335af4be","bdp_wmem","Wed Mar 15 2023 16:00:56 GMT-0400 (Eastern Daylight Time)","590557","Match,No Match","","null","","","","","","<div class='trialBorder'><div class='vertical-center'><img src='img/correct.jpg'></div><div class='respDiv'><div class='respDivL'><font style='color:orange'>Match<br>(e)</font></div><div class='respDivR'>No Match<br>(i)</div></div></div>","null","FEEDBACK","","","","","","","","","","",""
"html-keyboard-response","100","253307","0.0-7.0-1.13","6144bf2539bc8f85335af4be","bdp_wmem","Wed Mar 15 2023 16:00:56 GMT-0400 (Eastern Daylight Time)","590557","Match,No Match","","null","","","","","","<div class='trialBorder'><div class='vertical-center'><img src='img/fixation2_sml.jpg'</img></div></div>","null","FIX","","","","","","","","","","",""
"html-keyboard-response","101","254815","0.0-7.0-2.13","6144bf2539bc8f85335af4be","bdp_wmem","Wed Mar 15 2023 16:00:56 GMT-0400 (Eastern Daylight Time)","590557","Match,No Match","","null","","","","","","<div class='trialBorder'><div class='vertical-center'><img style='vertical-align:center; align:center' src='img/fixation2_sml.jpg'></div><div class='arrayDiv1'><div class='tc'><img class='introPic' src='trustrating_stim/white_mw010.bmp'><br><font color='green'><strong>Share</strong></font></div></div></div>","null","ARRAY","1","trustrating_stim/white_mw010.bmp","1","Match","e","1500","","","","",""
"html-keyboard-response","102","258820","0.0-7.0-3.13","6144bf2539bc8f85335af4be","bdp_wmem","Wed Mar 15 2023 16:00:56 GMT-0400 (Eastern Daylight Time)","590557","Match,No Match","","null","","","","","","<div class='trialBorder'><div class='vertical-center'><img src='img/fixation2_sml.jpg'</img></div></div>","null","DELAY","","","","","","","","","","",""
"html-keyboard-response","103","261150","0.0-7.0-4.13","6144bf2539bc8f85335af4be","bdp_wmem","Wed Mar 15 2023 16:00:56 GMT-0400 (Eastern Daylight Time)","590557","Match,No Match","","2329","","","","","","<div class='trialBorder'><div class='targDiv'><div class='tc'><img class='introPic' src='trustrating_stim/white_mw010.bmp'><br><font color='green'><strong>Share</strong></font></div></div><div class='respDiv'><div class='respDivL'>Match<br>(e)</div><div class='respDivR'>No Match<br>(i)</div></div></div>","e","TARGET","1","trustrating_stim/white_mw010.bmp","1","Match","e","1500","trustrating_stim/white_mw010.bmp","green","Share","REAL","1"
"html-keyboard-response","104","261659","0.0-7.0-5.13","6144bf2539bc8f85335af4be","bdp_wmem","Wed Mar 15 2023 16:00:56 GMT-0400 (Eastern Daylight Time)","590557","Match,No Match","","null","","","","","","<div class='trialBorder'><div class='vertical-center'><img src='img/correct.jpg'></div><div class='respDiv'><div class='respDivL'><font style='color:orange'>Match<br>(e)</font></div><div class='respDivR'>No Match<br>(i)</div></div></div>","null","FEEDBACK","","","","","","","","","","",""
"html-keyboard-response","105","262163","0.0-7.0-1.14","6144bf2539bc8f85335af4be","bdp_wmem","Wed Mar 15 2023 16:00:56 GMT-0400 (Eastern Daylight Time)","590557","Match,No Match","","null","","","","","","<div class='trialBorder'><div class='vertical-center'><img src='img/fixation2_sml.jpg'</img></div></div>","null","FIX","","","","","","","","","","",""
"html-keyboard-response","106","263668","0.0-7.0-2.14","6144bf2539bc8f85335af4be","bdp_wmem","Wed Mar 15 2023 16:00:56 GMT-0400 (Eastern Daylight Time)","590557","Match,No Match","","null","","","","","","<div class='trialBorder'><div class='vertical-center'><img style='vertical-align:center; align:center' src='img/fixation2_sml.jpg'></div><div class='arrayDiv1'><div class='tc'><img class='introPic' src='trustrating_stim/white_mw038.bmp'><br><font color='green'><strong>Share</strong></font></div></div></div>","null","ARRAY","1","trustrating_stim/white_mw038.bmp","1","Match","e","1500","","","","",""
"html-keyboard-response","107","267675","0.0-7.0-3.14","6144bf2539bc8f85335af4be","bdp_wmem","Wed Mar 15 2023 16:00:56 GMT-0400 (Eastern Daylight Time)","590557","Match,No Match","","null","","","","","","<div class='trialBorder'><div class='vertical-center'><img src='img/fixation2_sml.jpg'</img></div></div>","null","DELAY","","","","","","","","","","",""
"html-keyboard-response","108","268517","0.0-7.0-4.14","6144bf2539bc8f85335af4be","bdp_wmem","Wed Mar 15 2023 16:00:56 GMT-0400 (Eastern Daylight Time)","590557","Match,No Match","","840","","","","","","<div class='trialBorder'><div class='targDiv'><div class='tc'><img class='introPic' src='trustrating_stim/white_mw038.bmp'><br><font color='green'><strong>Share</strong></font></div></div><div class='respDiv'><div class='respDivL'>Match<br>(e)</div><div class='respDivR'>No Match<br>(i)</div></div></div>","e","TARGET","1","trustrating_stim/white_mw038.bmp","1","Match","e","1500","trustrating_stim/white_mw038.bmp","green","Share","REAL","1"
"html-keyboard-response","109","269019","0.0-7.0-5.14","6144bf2539bc8f85335af4be","bdp_wmem","Wed Mar 15 2023 16:00:56 GMT-0400 (Eastern Daylight Time)","590557","Match,No Match","","null","","","","","","<div class='trialBorder'><div class='vertical-center'><img src='img/correct.jpg'></div><div class='respDiv'><div class='respDivL'><font style='color:orange'>Match<br>(e)</font></div><div class='respDivR'>No Match<br>(i)</div></div></div>","null","FEEDBACK","","","","","","","","","","",""
"html-keyboard-response","110","269523","0.0-7.0-1.15","6144bf2539bc8f85335af4be","bdp_wmem","Wed Mar 15 2023 16:00:56 GMT-0400 (Eastern Daylight Time)","590557","Match,No Match","","null","","","","","","<div class='trialBorder'><div class='vertical-center'><img src='img/fixation2_sml.jpg'</img></div></div>","null","FIX","","","","","","","","","","",""
"html-keyboard-response","111","271027","0.0-7.0-2.15","6144bf2539bc8f85335af4be","bdp_wmem","Wed Mar 15 2023 16:00:56 GMT-0400 (Eastern Daylight Time)","590557","Match,No Match","","null","","","","","","<div class='trialBorder'><div class='vertical-center'><img style='vertical-align:center; align:center' src='img/fixation2_sml.jpg'></div><div class='arrayDiv1'><div class='tc'><img class='introPic' src='trustrating_stim/white_mw091.bmp'><br><font color='red'><strong>Keep</strong></font></div></div></div>","null","ARRAY","1","trustrating_stim/white_mw091.bmp","0","Match","e","1500","","","","",""
"html-keyboard-response","112","275035","0.0-7.0-3.15","6144bf2539bc8f85335af4be","bdp_wmem","Wed Mar 15 2023 16:00:56 GMT-0400 (Eastern Daylight Time)","590557","Match,No Match","","null","","","","","","<div class='trialBorder'><div class='vertical-center'><img src='img/fixation2_sml.jpg'</img></div></div>","null","DELAY","","","","","","","","","","",""
"html-keyboard-response","113","275762","0.0-7.0-4.15","6144bf2539bc8f85335af4be","bdp_wmem","Wed Mar 15 2023 16:00:56 GMT-0400 (Eastern Daylight Time)","590557","Match,No Match","","725","","","","","","<div class='trialBorder'><div class='targDiv'><div class='tc'><img class='introPic' src='trustrating_stim/white_mw091.bmp'><br><font color='red'><strong>Keep</strong></font></div></div><div class='respDiv'><div class='respDivL'>Match<br>(e)</div><div class='respDivR'>No Match<br>(i)</div></div></div>","e","TARGET","1","trustrating_stim/white_mw091.bmp","0","Match","e","1500","trustrating_stim/white_mw091.bmp","red","Keep","REAL","1"
"html-keyboard-response","114","276267","0.0-7.0-5.15","6144bf2539bc8f85335af4be","bdp_wmem","Wed Mar 15 2023 16:00:56 GMT-0400 (Eastern Daylight Time)","590557","Match,No Match","","null","","","","","","<div class='trialBorder'><div class='vertical-center'><img src='img/correct.jpg'></div><div class='respDiv'><div class='respDivL'><font style='color:orange'>Match<br>(e)</font></div><div class='respDivR'>No Match<br>(i)</div></div></div>","null","FEEDBACK","","","","","","","","","","",""
"html-keyboard-response","115","276771","0.0-7.0-1.16","6144bf2539bc8f85335af4be","bdp_wmem","Wed Mar 15 2023 16:00:56 GMT-0400 (Eastern Daylight Time)","590557","Match,No Match","","null","","","","","","<div class='trialBorder'><div class='vertical-center'><img src='img/fixation2_sml.jpg'</img></div></div>","null","FIX","","","","","","","","","","",""
"html-keyboard-response","116","279779","0.0-7.0-2.16","6144bf2539bc8f85335af4be","bdp_wmem","Wed Mar 15 2023 16:00:56 GMT-0400 (Eastern Daylight Time)","590557","Match,No Match","","null","","","","","","<div class='trialBorder'><div class='vertical-center'><img style='vertical-align:center; align:center' src='img/fixation2_sml.jpg'></div><div class='arrayDiv2'><div class='tl'><img class='introPic' src='trustrating_stim/white_mw085.bmp'><br><font color='red'><strong>Keep</strong></font></div><div class='tr'><img class='introPic' src='trustrating_stim/white_mw091.bmp'><br><font color='green'><strong>Share</strong></font></div></div></div>","null","ARRAY","2","trustrating_stim/white_mw085.bmp,trustrating_stim/white_mw091.bmp","0,1","Match","e","3000","","","","",""
"html-keyboard-response","117","283787","0.0-7.0-3.16","6144bf2539bc8f85335af4be","bdp_wmem","Wed Mar 15 2023 16:00:56 GMT-0400 (Eastern Daylight Time)","590557","Match,No Match","","null","","","","","","<div class='trialBorder'><div class='vertical-center'><img src='img/fixation2_sml.jpg'</img></div></div>","null","DELAY","","","","","","","","","","",""
"html-keyboard-response","118","284531","0.0-7.0-4.16","6144bf2539bc8f85335af4be","bdp_wmem","Wed Mar 15 2023 16:00:56 GMT-0400 (Eastern Daylight Time)","590557","Match,No Match","","742","","","","","","<div class='trialBorder'><div class='targDiv'><div class='tc'><img class='introPic' src='trustrating_stim/white_mw091.bmp'><br><font color='green'><strong>Share</strong></font></div></div><div class='respDiv'><div class='respDivL'>Match<br>(e)</div><div class='respDivR'>No Match<br>(i)</div></div></div>","e","TARGET","2","trustrating_stim/white_mw085.bmp,trustrating_stim/white_mw091.bmp","0,1","Match","e","3000","trustrating_stim/white_mw091.bmp","green","Share","REAL","1"
"html-keyboard-response","119","285035","0.0-7.0-5.16","6144bf2539bc8f85335af4be","bdp_wmem","Wed Mar 15 2023 16:00:56 GMT-0400 (Eastern Daylight Time)","590557","Match,No Match","","null","","","","","","<div class='trialBorder'><div class='vertical-center'><img src='img/correct.jpg'></div><div class='respDiv'><div class='respDivL'><font style='color:orange'>Match<br>(e)</font></div><div class='respDivR'>No Match<br>(i)</div></div></div>","null","FEEDBACK","","","","","","","","","","",""
"html-keyboard-response","120","285539","0.0-7.0-1.17","6144bf2539bc8f85335af4be","bdp_wmem","Wed Mar 15 2023 16:00:56 GMT-0400 (Eastern Daylight Time)","590557","Match,No Match","","null","","","","","","<div class='trialBorder'><div class='vertical-center'><img src='img/fixation2_sml.jpg'</img></div></div>","null","FIX","","","","","","","","","","",""
"html-keyboard-response","121","287042","0.0-7.0-2.17","6144bf2539bc8f85335af4be","bdp_wmem","Wed Mar 15 2023 16:00:56 GMT-0400 (Eastern Daylight Time)","590557","Match,No Match","","null","","","","","","<div class='trialBorder'><div class='vertical-center'><img style='vertical-align:center; align:center' src='img/fixation2_sml.jpg'></div><div class='arrayDiv1'><div class='tc'><img class='introPic' src='trustrating_stim/white_mw040.bmp'><br><font color='red'><strong>Keep</strong></font></div></div></div>","null","ARRAY","1","trustrating_stim/white_mw040.bmp","0","noMatchOutcome","i","1500","","","","",""
"html-keyboard-response","122","291050","0.0-7.0-3.17","6144bf2539bc8f85335af4be","bdp_wmem","Wed Mar 15 2023 16:00:56 GMT-0400 (Eastern Daylight Time)","590557","Match,No Match","","null","","","","","","<div class='trialBorder'><div class='vertical-center'><img src='img/fixation2_sml.jpg'</img></div></div>","null","DELAY","","","","","","","","","","",""
"html-keyboard-response","123","291909","0.0-7.0-4.17","6144bf2539bc8f85335af4be","bdp_wmem","Wed Mar 15 2023 16:00:56 GMT-0400 (Eastern Daylight Time)","590557","Match,No Match","","857","","","","","","<div class='trialBorder'><div class='targDiv'><div class='tc'><img class='introPic' src='trustrating_stim/white_mw040.bmp'><br><font color='green'><strong>Share</strong></font></div></div><div class='respDiv'><div class='respDivL'>Match<br>(e)</div><div class='respDivR'>No Match<br>(i)</div></div></div>","e","TARGET","1","trustrating_stim/white_mw040.bmp","0","noMatchOutcome","i","1500","trustrating_stim/white_mw040.bmp","green","Share","REAL","0"
"html-keyboard-response","124","292419","0.0-7.0-5.17","6144bf2539bc8f85335af4be","bdp_wmem","Wed Mar 15 2023 16:00:56 GMT-0400 (Eastern Daylight Time)","590557","Match,No Match","","null","","","","","","<div class='trialBorder'><div class='vertical-center'><img src='img/error.jpg'></div><div class='respDiv'><div class='respDivL'><font style='color:orange'>Match<br>(e)</font></div><div class='respDivR'>No Match<br>(i)</div></div></div>","null","FEEDBACK","","","","","","","","","","",""
"html-keyboard-response","125","292922","0.0-7.0-1.18","6144bf2539bc8f85335af4be","bdp_wmem","Wed Mar 15 2023 16:00:56 GMT-0400 (Eastern Daylight Time)","590557","Match,No Match","","null","","","","","","<div class='trialBorder'><div class='vertical-center'><img src='img/fixation2_sml.jpg'</img></div></div>","null","FIX","","","","","","","","","","",""
"html-keyboard-response","126","297427","0.0-7.0-2.18","6144bf2539bc8f85335af4be","bdp_wmem","Wed Mar 15 2023 16:00:56 GMT-0400 (Eastern Daylight Time)","590557","Match,No Match","","null","","","","","","<div class='trialBorder'><div class='vertical-center'><img style='vertical-align:center; align:center' src='img/fixation2_sml.jpg'></div><div class='arrayDiv3'><div class='tl'><img class='introPic' src='trustrating_stim/white_mw078.bmp'><br><font color='green'><strong>Share</strong></font></div><div class='tc'><img class='introPic' src='trustrating_stim/white_mw012.bmp'><br><font color='red'><strong>Keep</strong></font></div><div class='tr'><img class='introPic' src='trustrating_stim/white_mw085.bmp'><br><font color='red'><strong>Keep</strong></font></div></div></div>","null","ARRAY","3","trustrating_stim/white_mw078.bmp,trustrating_stim/white_mw012.bmp,trustrating_stim/white_mw085.bmp","1,0,0","Match","e","4500","","","","",""
"html-keyboard-response","127","301434","0.0-7.0-3.18","6144bf2539bc8f85335af4be","bdp_wmem","Wed Mar 15 2023 16:00:56 GMT-0400 (Eastern Daylight Time)","590557","Match,No Match","","null","","","","","","<div class='trialBorder'><div class='vertical-center'><img src='img/fixation2_sml.jpg'</img></div></div>","null","DELAY","","","","","","","","","","",""
"html-keyboard-response","128","303094","0.0-7.0-4.18","6144bf2539bc8f85335af4be","bdp_wmem","Wed Mar 15 2023 16:00:56 GMT-0400 (Eastern Daylight Time)","590557","Match,No Match","","1658","","","","","","<div class='trialBorder'><div class='targDiv'><div class='tc'><img class='introPic' src='trustrating_stim/white_mw078.bmp'><br><font color='green'><strong>Share</strong></font></div></div><div class='respDiv'><div class='respDivL'>Match<br>(e)</div><div class='respDivR'>No Match<br>(i)</div></div></div>","i","TARGET","3","trustrating_stim/white_mw078.bmp,trustrating_stim/white_mw012.bmp,trustrating_stim/white_mw085.bmp","1,0,0","Match","e","4500","trustrating_stim/white_mw078.bmp","green","Share","REAL","0"
"html-keyboard-response","129","303605","0.0-7.0-5.18","6144bf2539bc8f85335af4be","bdp_wmem","Wed Mar 15 2023 16:00:56 GMT-0400 (Eastern Daylight Time)","590557","Match,No Match","","null","","","","","","<div class='trialBorder'><div class='vertical-center'><img src='img/error.jpg'></div><div class='respDiv'><div class='respDivL'>Match<br>(e)</div><div class='respDivR'><font style='color:orange'>No Match<br>(i)</font></div></div></div>","null","FEEDBACK","","","","","","","","","","",""
"html-keyboard-response","130","304114","0.0-7.0-1.19","6144bf2539bc8f85335af4be","bdp_wmem","Wed Mar 15 2023 16:00:56 GMT-0400 (Eastern Daylight Time)","590557","Match,No Match","","null","","","","","","<div class='trialBorder'><div class='vertical-center'><img src='img/fixation2_sml.jpg'</img></div></div>","null","FIX","","","","","","","","","","",""
"html-keyboard-response","131","307122","0.0-7.0-2.19","6144bf2539bc8f85335af4be","bdp_wmem","Wed Mar 15 2023 16:00:56 GMT-0400 (Eastern Daylight Time)","590557","Match,No Match","","null","","","","","","<div class='trialBorder'><div class='vertical-center'><img style='vertical-align:center; align:center' src='img/fixation2_sml.jpg'></div><div class='arrayDiv2'><div class='tl'><img class='introPic' src='trustrating_stim/white_mw091.bmp'><br><font color='green'><strong>Share</strong></font></div><div class='tr'><img class='introPic' src='trustrating_stim/white_mw070.bmp'><br><font color='red'><strong>Keep</strong></font></div></div></div>","null","ARRAY","2","trustrating_stim/white_mw091.bmp,trustrating_stim/white_mw070.bmp","1,0","noMatchFace","i","3000","","","","",""
"html-keyboard-response","132","311130","0.0-7.0-3.19","6144bf2539bc8f85335af4be","bdp_wmem","Wed Mar 15 2023 16:00:56 GMT-0400 (Eastern Daylight Time)","590557","Match,No Match","","null","","","","","","<div class='trialBorder'><div class='vertical-center'><img src='img/fixation2_sml.jpg'</img></div></div>","null","DELAY","","","","","","","","","","",""
"html-keyboard-response","133","312469","0.0-7.0-4.19","6144bf2539bc8f85335af4be","bdp_wmem","Wed Mar 15 2023 16:00:56 GMT-0400 (Eastern Daylight Time)","590557","Match,No Match","","1337","","","","","","<div class='trialBorder'><div class='targDiv'><div class='tc'><img class='introPic' src='trustrating_stim/white_mw038.bmp'><br><font color='red'><strong>Keep</strong></font></div></div><div class='respDiv'><div class='respDivL'>Match<br>(e)</div><div class='respDivR'>No Match<br>(i)</div></div></div>","i","TARGET","2","trustrating_stim/white_mw091.bmp,trustrating_stim/white_mw070.bmp","1,0","noMatchFace","i","3000","trustrating_stim/white_mw038.bmp","red","Keep","REAL","1"
"html-keyboard-response","134","312978","0.0-7.0-5.19","6144bf2539bc8f85335af4be","bdp_wmem","Wed Mar 15 2023 16:00:56 GMT-0400 (Eastern Daylight Time)","590557","Match,No Match","","null","","","","","","<div class='trialBorder'><div class='vertical-center'><img src='img/correct.jpg'></div><div class='respDiv'><div class='respDivL'>Match<br>(e)</div><div class='respDivR'><font style='color:orange'>No Match<br>(i)</font></div></div></div>","null","FEEDBACK","","","","","","","","","","",""
"html-keyboard-response","135","313482","0.0-7.0-1.20","6144bf2539bc8f85335af4be","bdp_wmem","Wed Mar 15 2023 16:00:56 GMT-0400 (Eastern Daylight Time)","590557","Match,No Match","","null","","","","","","<div class='trialBorder'><div class='vertical-center'><img src='img/fixation2_sml.jpg'</img></div></div>","null","FIX","","","","","","","","","","",""
"html-keyboard-response","136","316490","0.0-7.0-2.20","6144bf2539bc8f85335af4be","bdp_wmem","Wed Mar 15 2023 16:00:56 GMT-0400 (Eastern Daylight Time)","590557","Match,No Match","","null","","","","","","<div class='trialBorder'><div class='vertical-center'><img style='vertical-align:center; align:center' src='img/fixation2_sml.jpg'></div><div class='arrayDiv2'><div class='tl'><img class='introPic' src='trustrating_stim/white_mw013.bmp'><br><font color='green'><strong>Share</strong></font></div><div class='tr'><img class='introPic' src='trustrating_stim/white_mw078.bmp'><br><font color='red'><strong>Keep</strong></font></div></div></div>","null","ARRAY","2","trustrating_stim/white_mw013.bmp,trustrating_stim/white_mw078.bmp","1,0","noMatchOutcome","i","3000","","","","",""
"html-keyboard-response","137","320498","0.0-7.0-3.20","6144bf2539bc8f85335af4be","bdp_wmem","Wed Mar 15 2023 16:00:56 GMT-0400 (Eastern Daylight Time)","590557","Match,No Match","","null","","","","","","<div class='trialBorder'><div class='vertical-center'><img src='img/fixation2_sml.jpg'</img></div></div>","null","DELAY","","","","","","","","","","",""
"html-keyboard-response","138","322182","0.0-7.0-4.20","6144bf2539bc8f85335af4be","bdp_wmem","Wed Mar 15 2023 16:00:56 GMT-0400 (Eastern Daylight Time)","590557","Match,No Match","","1683","","","","","","<div class='trialBorder'><div class='targDiv'><div class='tc'><img class='introPic' src='trustrating_stim/white_mw078.bmp'><br><font color='green'><strong>Share</strong></font></div></div><div class='respDiv'><div class='respDivL'>Match<br>(e)</div><div class='respDivR'>No Match<br>(i)</div></div></div>","i","TARGET","2","trustrating_stim/white_mw013.bmp,trustrating_stim/white_mw078.bmp","1,0","noMatchOutcome","i","3000","trustrating_stim/white_mw078.bmp","green","Share","REAL","1"
"html-keyboard-response","139","322690","0.0-7.0-5.20","6144bf2539bc8f85335af4be","bdp_wmem","Wed Mar 15 2023 16:00:56 GMT-0400 (Eastern Daylight Time)","590557","Match,No Match","","null","","","","","","<div class='trialBorder'><div class='vertical-center'><img src='img/correct.jpg'></div><div class='respDiv'><div class='respDivL'>Match<br>(e)</div><div class='respDivR'><font style='color:orange'>No Match<br>(i)</font></div></div></div>","null","FEEDBACK","","","","","","","","","","",""
"html-keyboard-response","140","323193","0.0-7.0-1.21","6144bf2539bc8f85335af4be","bdp_wmem","Wed Mar 15 2023 16:00:56 GMT-0400 (Eastern Daylight Time)","590557","Match,No Match","","null","","","","","","<div class='trialBorder'><div class='vertical-center'><img src='img/fixation2_sml.jpg'</img></div></div>","null","FIX","","","","","","","","","","",""
"html-keyboard-response","141","324697","0.0-7.0-2.21","6144bf2539bc8f85335af4be","bdp_wmem","Wed Mar 15 2023 16:00:56 GMT-0400 (Eastern Daylight Time)","590557","Match,No Match","","null","","","","","","<div class='trialBorder'><div class='vertical-center'><img style='vertical-align:center; align:center' src='img/fixation2_sml.jpg'></div><div class='arrayDiv1'><div class='tc'><img class='introPic' src='trustrating_stim/white_mw091.bmp'><br><font color='red'><strong>Keep</strong></font></div></div></div>","null","ARRAY","1","trustrating_stim/white_mw091.bmp","0","Match","e","1500","","","","",""
"html-keyboard-response","142","328706","0.0-7.0-3.21","6144bf2539bc8f85335af4be","bdp_wmem","Wed Mar 15 2023 16:00:56 GMT-0400 (Eastern Daylight Time)","590557","Match,No Match","","null","","","","","","<div class='trialBorder'><div class='vertical-center'><img src='img/fixation2_sml.jpg'</img></div></div>","null","DELAY","","","","","","","","","","",""
"html-keyboard-response","143","331322","0.0-7.0-4.21","6144bf2539bc8f85335af4be","bdp_wmem","Wed Mar 15 2023 16:00:56 GMT-0400 (Eastern Daylight Time)","590557","Match,No Match","","2615","","","","","","<div class='trialBorder'><div class='targDiv'><div class='tc'><img class='introPic' src='trustrating_stim/white_mw091.bmp'><br><font color='red'><strong>Keep</strong></font></div></div><div class='respDiv'><div class='respDivL'>Match<br>(e)</div><div class='respDivR'>No Match<br>(i)</div></div></div>","e","TARGET","1","trustrating_stim/white_mw091.bmp","0","Match","e","1500","trustrating_stim/white_mw091.bmp","red","Keep","REAL","1"
"html-keyboard-response","144","331829","0.0-7.0-5.21","6144bf2539bc8f85335af4be","bdp_wmem","Wed Mar 15 2023 16:00:56 GMT-0400 (Eastern Daylight Time)","590557","Match,No Match","","null","","","","","","<div class='trialBorder'><div class='vertical-center'><img src='img/correct.jpg'></div><div class='respDiv'><div class='respDivL'><font style='color:orange'>Match<br>(e)</font></div><div class='respDivR'>No Match<br>(i)</div></div></div>","null","FEEDBACK","","","","","","","","","","",""
"html-keyboard-response","145","332338","0.0-7.0-1.22","6144bf2539bc8f85335af4be","bdp_wmem","Wed Mar 15 2023 16:00:56 GMT-0400 (Eastern Daylight Time)","590557","Match,No Match","","null","","","","","","<div class='trialBorder'><div class='vertical-center'><img src='img/fixation2_sml.jpg'</img></div></div>","null","FIX","","","","","","","","","","",""
"html-keyboard-response","146","336841","0.0-7.0-2.22","6144bf2539bc8f85335af4be","bdp_wmem","Wed Mar 15 2023 16:00:56 GMT-0400 (Eastern Daylight Time)","590557","Match,No Match","","null","","","","","","<div class='trialBorder'><div class='vertical-center'><img style='vertical-align:center; align:center' src='img/fixation2_sml.jpg'></div><div class='arrayDiv3'><div class='tl'><img class='introPic' src='trustrating_stim/white_mw010.bmp'><br><font color='green'><strong>Share</strong></font></div><div class='tc'><img class='introPic' src='trustrating_stim/white_mw091.bmp'><br><font color='red'><strong>Keep</strong></font></div><div class='tr'><img class='introPic' src='trustrating_stim/white_mw092.bmp'><br><font color='green'><strong>Share</strong></font></div></div></div>","null","ARRAY","3","trustrating_stim/white_mw010.bmp,trustrating_stim/white_mw091.bmp,trustrating_stim/white_mw092.bmp","1,0,1","Match","e","4500","","","","",""
"html-keyboard-response","147","340849","0.0-7.0-3.22","6144bf2539bc8f85335af4be","bdp_wmem","Wed Mar 15 2023 16:00:56 GMT-0400 (Eastern Daylight Time)","590557","Match,No Match","","null","","","","","","<div class='trialBorder'><div class='vertical-center'><img src='img/fixation2_sml.jpg'</img></div></div>","null","DELAY","","","","","","","","","","",""
"html-keyboard-response","148","341828","0.0-7.0-4.22","6144bf2539bc8f85335af4be","bdp_wmem","Wed Mar 15 2023 16:00:56 GMT-0400 (Eastern Daylight Time)","590557","Match,No Match","","976","","","","","","<div class='trialBorder'><div class='targDiv'><div class='tc'><img class='introPic' src='trustrating_stim/white_mw010.bmp'><br><font color='green'><strong>Share</strong></font></div></div><div class='respDiv'><div class='respDivL'>Match<br>(e)</div><div class='respDivR'>No Match<br>(i)</div></div></div>","e","TARGET","3","trustrating_stim/white_mw010.bmp,trustrating_stim/white_mw091.bmp,trustrating_stim/white_mw092.bmp","1,0,1","Match","e","4500","trustrating_stim/white_mw010.bmp","green","Share","REAL","1"
"html-keyboard-response","149","342337","0.0-7.0-5.22","6144bf2539bc8f85335af4be","bdp_wmem","Wed Mar 15 2023 16:00:56 GMT-0400 (Eastern Daylight Time)","590557","Match,No Match","","null","","","","","","<div class='trialBorder'><div class='vertical-center'><img src='img/correct.jpg'></div><div class='respDiv'><div class='respDivL'><font style='color:orange'>Match<br>(e)</font></div><div class='respDivR'>No Match<br>(i)</div></div></div>","null","FEEDBACK","","","","","","","","","","",""
"html-keyboard-response","150","342841","0.0-7.0-1.23","6144bf2539bc8f85335af4be","bdp_wmem","Wed Mar 15 2023 16:00:56 GMT-0400 (Eastern Daylight Time)","590557","Match,No Match","","null","","","","","","<div class='trialBorder'><div class='vertical-center'><img src='img/fixation2_sml.jpg'</img></div></div>","null","FIX","","","","","","","","","","",""
"html-keyboard-response","151","347345","0.0-7.0-2.23","6144bf2539bc8f85335af4be","bdp_wmem","Wed Mar 15 2023 16:00:56 GMT-0400 (Eastern Daylight Time)","590557","Match,No Match","","null","","","","","","<div class='trialBorder'><div class='vertical-center'><img style='vertical-align:center; align:center' src='img/fixation2_sml.jpg'></div><div class='arrayDiv3'><div class='tl'><img class='introPic' src='trustrating_stim/white_mw010.bmp'><br><font color='green'><strong>Share</strong></font></div><div class='tc'><img class='introPic' src='trustrating_stim/white_mw003.bmp'><br><font color='green'><strong>Share</strong></font></div><div class='tr'><img class='introPic' src='trustrating_stim/white_mw042.bmp'><br><font color='red'><strong>Keep</strong></font></div></div></div>","null","ARRAY","3","trustrating_stim/white_mw010.bmp,trustrating_stim/white_mw003.bmp,trustrating_stim/white_mw042.bmp","1,1,0","noMatchFace","i","4500","","","","",""
"html-keyboard-response","152","351356","0.0-7.0-3.23","6144bf2539bc8f85335af4be","bdp_wmem","Wed Mar 15 2023 16:00:56 GMT-0400 (Eastern Daylight Time)","590557","Match,No Match","","null","","","","","","<div class='trialBorder'><div class='vertical-center'><img src='img/fixation2_sml.jpg'</img></div></div>","null","DELAY","","","","","","","","","","",""
"html-keyboard-response","153","352714","0.0-7.0-4.23","6144bf2539bc8f85335af4be","bdp_wmem","Wed Mar 15 2023 16:00:56 GMT-0400 (Eastern Daylight Time)","590557","Match,No Match","","1356","","","","","","<div class='trialBorder'><div class='targDiv'><div class='tc'><img class='introPic' src='trustrating_stim/white_mw070.bmp'><br><font color='red'><strong>Keep</strong></font></div></div><div class='respDiv'><div class='respDivL'>Match<br>(e)</div><div class='respDivR'>No Match<br>(i)</div></div></div>","i","TARGET","3","trustrating_stim/white_mw010.bmp,trustrating_stim/white_mw003.bmp,trustrating_stim/white_mw042.bmp","1,1,0","noMatchFace","i","4500","trustrating_stim/white_mw070.bmp","red","Keep","REAL","1"
"html-keyboard-response","154","353219","0.0-7.0-5.23","6144bf2539bc8f85335af4be","bdp_wmem","Wed Mar 15 2023 16:00:56 GMT-0400 (Eastern Daylight Time)","590557","Match,No Match","","null","","","","","","<div class='trialBorder'><div class='vertical-center'><img src='img/correct.jpg'></div><div class='respDiv'><div class='respDivL'>Match<br>(e)</div><div class='respDivR'><font style='color:orange'>No Match<br>(i)</font></div></div></div>","null","FEEDBACK","","","","","","","","","","",""
"html-keyboard-response","155","353729","0.0-7.0-1.24","6144bf2539bc8f85335af4be","bdp_wmem","Wed Mar 15 2023 16:00:56 GMT-0400 (Eastern Daylight Time)","590557","Match,No Match","","null","","","","","","<div class='trialBorder'><div class='vertical-center'><img src='img/fixation2_sml.jpg'</img></div></div>","null","FIX","","","","","","","","","","",""
"html-keyboard-response","156","356737","0.0-7.0-2.24","6144bf2539bc8f85335af4be","bdp_wmem","Wed Mar 15 2023 16:00:56 GMT-0400 (Eastern Daylight Time)","590557","Match,No Match","","null","","","","","","<div class='trialBorder'><div class='vertical-center'><img style='vertical-align:center; align:center' src='img/fixation2_sml.jpg'></div><div class='arrayDiv2'><div class='tl'><img class='introPic' src='trustrating_stim/white_mw085.bmp'><br><font color='green'><strong>Share</strong></font></div><div class='tr'><img class='introPic' src='trustrating_stim/white_mw003.bmp'><br><font color='red'><strong>Keep</strong></font></div></div></div>","null","ARRAY","2","trustrating_stim/white_mw085.bmp,trustrating_stim/white_mw003.bmp","1,0","Match","e","3000","","","","",""
"html-keyboard-response","157","360744","0.0-7.0-3.24","6144bf2539bc8f85335af4be","bdp_wmem","Wed Mar 15 2023 16:00:56 GMT-0400 (Eastern Daylight Time)","590557","Match,No Match","","null","","","","","","<div class='trialBorder'><div class='vertical-center'><img src='img/fixation2_sml.jpg'</img></div></div>","null","DELAY","","","","","","","","","","",""
"html-keyboard-response","158","362700","0.0-7.0-4.24","6144bf2539bc8f85335af4be","bdp_wmem","Wed Mar 15 2023 16:00:56 GMT-0400 (Eastern Daylight Time)","590557","Match,No Match","","1953","","","","","","<div class='trialBorder'><div class='targDiv'><div class='tc'><img class='introPic' src='trustrating_stim/white_mw003.bmp'><br><font color='red'><strong>Keep</strong></font></div></div><div class='respDiv'><div class='respDivL'>Match<br>(e)</div><div class='respDivR'>No Match<br>(i)</div></div></div>","e","TARGET","2","trustrating_stim/white_mw085.bmp,trustrating_stim/white_mw003.bmp","1,0","Match","e","3000","trustrating_stim/white_mw003.bmp","red","Keep","REAL","1"
"html-keyboard-response","159","363208","0.0-7.0-5.24","6144bf2539bc8f85335af4be","bdp_wmem","Wed Mar 15 2023 16:00:56 GMT-0400 (Eastern Daylight Time)","590557","Match,No Match","","null","","","","","","<div class='trialBorder'><div class='vertical-center'><img src='img/correct.jpg'></div><div class='respDiv'><div class='respDivL'><font style='color:orange'>Match<br>(e)</font></div><div class='respDivR'>No Match<br>(i)</div></div></div>","null","FEEDBACK","","","","","","","","","","",""
"html-keyboard-response","160","363713","0.0-7.0-1.25","6144bf2539bc8f85335af4be","bdp_wmem","Wed Mar 15 2023 16:00:56 GMT-0400 (Eastern Daylight Time)","590557","Match,No Match","","null","","","","","","<div class='trialBorder'><div class='vertical-center'><img src='img/fixation2_sml.jpg'</img></div></div>","null","FIX","","","","","","","","","","",""
"html-keyboard-response","161","366721","0.0-7.0-2.25","6144bf2539bc8f85335af4be","bdp_wmem","Wed Mar 15 2023 16:00:56 GMT-0400 (Eastern Daylight Time)","590557","Match,No Match","","null","","","","","","<div class='trialBorder'><div class='vertical-center'><img style='vertical-align:center; align:center' src='img/fixation2_sml.jpg'></div><div class='arrayDiv2'><div class='tl'><img class='introPic' src='trustrating_stim/white_mw003.bmp'><br><font color='green'><strong>Share</strong></font></div><div class='tr'><img class='introPic' src='trustrating_stim/white_mw038.bmp'><br><font color='red'><strong>Keep</strong></font></div></div></div>","null","ARRAY","2","trustrating_stim/white_mw003.bmp,trustrating_stim/white_mw038.bmp","1,0","noMatchOutcome","i","3000","","","","",""
"html-keyboard-response","162","370731","0.0-7.0-3.25","6144bf2539bc8f85335af4be","bdp_wmem","Wed Mar 15 2023 16:00:56 GMT-0400 (Eastern Daylight Time)","590557","Match,No Match","","null","","","","","","<div class='trialBorder'><div class='vertical-center'><img src='img/fixation2_sml.jpg'</img></div></div>","null","DELAY","","","","","","","","","","",""
"html-keyboard-response","163","373091","0.0-7.0-4.25","6144bf2539bc8f85335af4be","bdp_wmem","Wed Mar 15 2023 16:00:56 GMT-0400 (Eastern Daylight Time)","590557","Match,No Match","","2359","","","","","","<div class='trialBorder'><div class='targDiv'><div class='tc'><img class='introPic' src='trustrating_stim/white_mw003.bmp'><br><font color='red'><strong>Keep</strong></font></div></div><div class='respDiv'><div class='respDivL'>Match<br>(e)</div><div class='respDivR'>No Match<br>(i)</div></div></div>","i","TARGET","2","trustrating_stim/white_mw003.bmp,trustrating_stim/white_mw038.bmp","1,0","noMatchOutcome","i","3000","trustrating_stim/white_mw003.bmp","red","Keep","REAL","1"
"html-keyboard-response","164","373600","0.0-7.0-5.25","6144bf2539bc8f85335af4be","bdp_wmem","Wed Mar 15 2023 16:00:56 GMT-0400 (Eastern Daylight Time)","590557","Match,No Match","","null","","","","","","<div class='trialBorder'><div class='vertical-center'><img src='img/correct.jpg'></div><div class='respDiv'><div class='respDivL'>Match<br>(e)</div><div class='respDivR'><font style='color:orange'>No Match<br>(i)</font></div></div></div>","null","FEEDBACK","","","","","","","","","","",""
"html-keyboard-response","165","374104","0.0-7.0-1.26","6144bf2539bc8f85335af4be","bdp_wmem","Wed Mar 15 2023 16:00:56 GMT-0400 (Eastern Daylight Time)","590557","Match,No Match","","null","","","","","","<div class='trialBorder'><div class='vertical-center'><img src='img/fixation2_sml.jpg'</img></div></div>","null","FIX","","","","","","","","","","",""
"html-keyboard-response","166","375608","0.0-7.0-2.26","6144bf2539bc8f85335af4be","bdp_wmem","Wed Mar 15 2023 16:00:56 GMT-0400 (Eastern Daylight Time)","590557","Match,No Match","","null","","","","","","<div class='trialBorder'><div class='vertical-center'><img style='vertical-align:center; align:center' src='img/fixation2_sml.jpg'></div><div class='arrayDiv1'><div class='tc'><img class='introPic' src='trustrating_stim/white_mw091.bmp'><br><font color='red'><strong>Keep</strong></font></div></div></div>","null","ARRAY","1","trustrating_stim/white_mw091.bmp","0","Match","e","1500","","","","",""
"html-keyboard-response","167","379616","0.0-7.0-3.26","6144bf2539bc8f85335af4be","bdp_wmem","Wed Mar 15 2023 16:00:56 GMT-0400 (Eastern Daylight Time)","590557","Match,No Match","","null","","","","","","<div class='trialBorder'><div class='vertical-center'><img src='img/fixation2_sml.jpg'</img></div></div>","null","DELAY","","","","","","","","","","",""
"html-keyboard-response","168","381046","0.0-7.0-4.26","6144bf2539bc8f85335af4be","bdp_wmem","Wed Mar 15 2023 16:00:56 GMT-0400 (Eastern Daylight Time)","590557","Match,No Match","","1428","","","","","","<div class='trialBorder'><div class='targDiv'><div class='tc'><img class='introPic' src='trustrating_stim/white_mw091.bmp'><br><font color='red'><strong>Keep</strong></font></div></div><div class='respDiv'><div class='respDivL'>Match<br>(e)</div><div class='respDivR'>No Match<br>(i)</div></div></div>","e","TARGET","1","trustrating_stim/white_mw091.bmp","0","Match","e","1500","trustrating_stim/white_mw091.bmp","red","Keep","REAL","1"
"html-keyboard-response","169","381552","0.0-7.0-5.26","6144bf2539bc8f85335af4be","bdp_wmem","Wed Mar 15 2023 16:00:56 GMT-0400 (Eastern Daylight Time)","590557","Match,No Match","","null","","","","","","<div class='trialBorder'><div class='vertical-center'><img src='img/correct.jpg'></div><div class='respDiv'><div class='respDivL'><font style='color:orange'>Match<br>(e)</font></div><div class='respDivR'>No Match<br>(i)</div></div></div>","null","FEEDBACK","","","","","","","","","","",""
"html-keyboard-response","170","382056","0.0-7.0-1.27","6144bf2539bc8f85335af4be","bdp_wmem","Wed Mar 15 2023 16:00:56 GMT-0400 (Eastern Daylight Time)","590557","Match,No Match","","null","","","","","","<div class='trialBorder'><div class='vertical-center'><img src='img/fixation2_sml.jpg'</img></div></div>","null","FIX","","","","","","","","","","",""
"html-keyboard-response","171","385064","0.0-7.0-2.27","6144bf2539bc8f85335af4be","bdp_wmem","Wed Mar 15 2023 16:00:56 GMT-0400 (Eastern Daylight Time)","590557","Match,No Match","","null","","","","","","<div class='trialBorder'><div class='vertical-center'><img style='vertical-align:center; align:center' src='img/fixation2_sml.jpg'></div><div class='arrayDiv2'><div class='tl'><img class='introPic' src='trustrating_stim/white_mw070.bmp'><br><font color='red'><strong>Keep</strong></font></div><div class='tr'><img class='introPic' src='trustrating_stim/white_mw012.bmp'><br><font color='green'><strong>Share</strong></font></div></div></div>","null","ARRAY","2","trustrating_stim/white_mw070.bmp,trustrating_stim/white_mw012.bmp","0,1","noMatchOutcome","i","3000","","","","",""
"html-keyboard-response","172","389072","0.0-7.0-3.27","6144bf2539bc8f85335af4be","bdp_wmem","Wed Mar 15 2023 16:00:56 GMT-0400 (Eastern Daylight Time)","590557","Match,No Match","","null","","","","","","<div class='trialBorder'><div class='vertical-center'><img src='img/fixation2_sml.jpg'</img></div></div>","null","DELAY","","","","","","","","","","",""
"html-keyboard-response","173","392178","0.0-7.0-4.27","6144bf2539bc8f85335af4be","bdp_wmem","Wed Mar 15 2023 16:00:56 GMT-0400 (Eastern Daylight Time)","590557","Match,No Match","","3104","","","","","","<div class='trialBorder'><div class='targDiv'><div class='tc'><img class='introPic' src='trustrating_stim/white_mw070.bmp'><br><font color='green'><strong>Share</strong></font></div></div><div class='respDiv'><div class='respDivL'>Match<br>(e)</div><div class='respDivR'>No Match<br>(i)</div></div></div>","i","TARGET","2","trustrating_stim/white_mw070.bmp,trustrating_stim/white_mw012.bmp","0,1","noMatchOutcome","i","3000","trustrating_stim/white_mw070.bmp","green","Share","REAL","1"
"html-keyboard-response","174","392680","0.0-7.0-5.27","6144bf2539bc8f85335af4be","bdp_wmem","Wed Mar 15 2023 16:00:56 GMT-0400 (Eastern Daylight Time)","590557","Match,No Match","","null","","","","","","<div class='trialBorder'><div class='vertical-center'><img src='img/correct.jpg'></div><div class='respDiv'><div class='respDivL'>Match<br>(e)</div><div class='respDivR'><font style='color:orange'>No Match<br>(i)</font></div></div></div>","null","FEEDBACK","","","","","","","","","","",""
"html-keyboard-response","175","393184","0.0-7.0-1.28","6144bf2539bc8f85335af4be","bdp_wmem","Wed Mar 15 2023 16:00:56 GMT-0400 (Eastern Daylight Time)","590557","Match,No Match","","null","","","","","","<div class='trialBorder'><div class='vertical-center'><img src='img/fixation2_sml.jpg'</img></div></div>","null","FIX","","","","","","","","","","",""
"html-keyboard-response","176","396192","0.0-7.0-2.28","6144bf2539bc8f85335af4be","bdp_wmem","Wed Mar 15 2023 16:00:56 GMT-0400 (Eastern Daylight Time)","590557","Match,No Match","","null","","","","","","<div class='trialBorder'><div class='vertical-center'><img style='vertical-align:center; align:center' src='img/fixation2_sml.jpg'></div><div class='arrayDiv2'><div class='tl'><img class='introPic' src='trustrating_stim/white_mw013.bmp'><br><font color='red'><strong>Keep</strong></font></div><div class='tr'><img class='introPic' src='trustrating_stim/white_mw003.bmp'><br><font color='green'><strong>Share</strong></font></div></div></div>","null","ARRAY","2","trustrating_stim/white_mw013.bmp,trustrating_stim/white_mw003.bmp","0,1","noMatchFace","i","3000","","","","",""
"html-keyboard-response","177","400203","0.0-7.0-3.28","6144bf2539bc8f85335af4be","bdp_wmem","Wed Mar 15 2023 16:00:56 GMT-0400 (Eastern Daylight Time)","590557","Match,No Match","","null","","","","","","<div class='trialBorder'><div class='vertical-center'><img src='img/fixation2_sml.jpg'</img></div></div>","null","DELAY","","","","","","","","","","",""
"html-keyboard-response","178","401483","0.0-7.0-4.28","6144bf2539bc8f85335af4be","bdp_wmem","Wed Mar 15 2023 16:00:56 GMT-0400 (Eastern Daylight Time)","590557","Match,No Match","","1277","","","","","","<div class='trialBorder'><div class='targDiv'><div class='tc'><img class='introPic' src='trustrating_stim/white_mw092.bmp'><br><font color='red'><strong>Keep</strong></font></div></div><div class='respDiv'><div class='respDivL'>Match<br>(e)</div><div class='respDivR'>No Match<br>(i)</div></div></div>","i","TARGET","2","trustrating_stim/white_mw013.bmp,trustrating_stim/white_mw003.bmp","0,1","noMatchFace","i","3000","trustrating_stim/white_mw092.bmp","red","Keep","REAL","1"
"html-keyboard-response","179","401991","0.0-7.0-5.28","6144bf2539bc8f85335af4be","bdp_wmem","Wed Mar 15 2023 16:00:56 GMT-0400 (Eastern Daylight Time)","590557","Match,No Match","","null","","","","","","<div class='trialBorder'><div class='vertical-center'><img src='img/correct.jpg'></div><div class='respDiv'><div class='respDivL'>Match<br>(e)</div><div class='respDivR'><font style='color:orange'>No Match<br>(i)</font></div></div></div>","null","FEEDBACK","","","","","","","","","","",""
"html-keyboard-response","180","402495","0.0-7.0-1.29","6144bf2539bc8f85335af4be","bdp_wmem","Wed Mar 15 2023 16:00:56 GMT-0400 (Eastern Daylight Time)","590557","Match,No Match","","null","","","","","","<div class='trialBorder'><div class='vertical-center'><img src='img/fixation2_sml.jpg'</img></div></div>","null","FIX","","","","","","","","","","",""
"html-keyboard-response","181","404002","0.0-7.0-2.29","6144bf2539bc8f85335af4be","bdp_wmem","Wed Mar 15 2023 16:00:56 GMT-0400 (Eastern Daylight Time)","590557","Match,No Match","","null","","","","","","<div class='trialBorder'><div class='vertical-center'><img style='vertical-align:center; align:center' src='img/fixation2_sml.jpg'></div><div class='arrayDiv1'><div class='tc'><img class='introPic' src='trustrating_stim/white_mw012.bmp'><br><font color='green'><strong>Share</strong></font></div></div></div>","null","ARRAY","1","trustrating_stim/white_mw012.bmp","1","Match","e","1500","","","","",""
"html-keyboard-response","182","408007","0.0-7.0-3.29","6144bf2539bc8f85335af4be","bdp_wmem","Wed Mar 15 2023 16:00:56 GMT-0400 (Eastern Daylight Time)","590557","Match,No Match","","null","","","","","","<div class='trialBorder'><div class='vertical-center'><img src='img/fixation2_sml.jpg'</img></div></div>","null","DELAY","","","","","","","","","","",""
"html-keyboard-response","183","409774","0.0-7.0-4.29","6144bf2539bc8f85335af4be","bdp_wmem","Wed Mar 15 2023 16:00:56 GMT-0400 (Eastern Daylight Time)","590557","Match,No Match","","1764","","","","","","<div class='trialBorder'><div class='targDiv'><div class='tc'><img class='introPic' src='trustrating_stim/white_mw012.bmp'><br><font color='green'><strong>Share</strong></font></div></div><div class='respDiv'><div class='respDivL'>Match<br>(e)</div><div class='respDivR'>No Match<br>(i)</div></div></div>","e","TARGET","1","trustrating_stim/white_mw012.bmp","1","Match","e","1500","trustrating_stim/white_mw012.bmp","green","Share","REAL","1"
"html-keyboard-response","184","410279","0.0-7.0-5.29","6144bf2539bc8f85335af4be","bdp_wmem","Wed Mar 15 2023 16:00:56 GMT-0400 (Eastern Daylight Time)","590557","Match,No Match","","null","","","","","","<div class='trialBorder'><div class='vertical-center'><img src='img/correct.jpg'></div><div class='respDiv'><div class='respDivL'><font style='color:orange'>Match<br>(e)</font></div><div class='respDivR'>No Match<br>(i)</div></div></div>","null","FEEDBACK","","","","","","","","","","",""
"html-keyboard-response","185","410783","0.0-7.0-1.30","6144bf2539bc8f85335af4be","bdp_wmem","Wed Mar 15 2023 16:00:56 GMT-0400 (Eastern Daylight Time)","590557","Match,No Match","","null","","","","","","<div class='trialBorder'><div class='vertical-center'><img src='img/fixation2_sml.jpg'</img></div></div>","null","FIX","","","","","","","","","","",""
"html-keyboard-response","186","413791","0.0-7.0-2.30","6144bf2539bc8f85335af4be","bdp_wmem","Wed Mar 15 2023 16:00:56 GMT-0400 (Eastern Daylight Time)","590557","Match,No Match","","null","","","","","","<div class='trialBorder'><div class='vertical-center'><img style='vertical-align:center; align:center' src='img/fixation2_sml.jpg'></div><div class='arrayDiv2'><div class='tl'><img class='introPic' src='trustrating_stim/white_mw040.bmp'><br><font color='red'><strong>Keep</strong></font></div><div class='tr'><img class='introPic' src='trustrating_stim/white_mw012.bmp'><br><font color='green'><strong>Share</strong></font></div></div></div>","null","ARRAY","2","trustrating_stim/white_mw040.bmp,trustrating_stim/white_mw012.bmp","0,1","noMatchOutcome","i","3000","","","","",""
"html-keyboard-response","187","417802","0.0-7.0-3.30","6144bf2539bc8f85335af4be","bdp_wmem","Wed Mar 15 2023 16:00:56 GMT-0400 (Eastern Daylight Time)","590557","Match,No Match","","null","","","","","","<div class='trialBorder'><div class='vertical-center'><img src='img/fixation2_sml.jpg'</img></div></div>","null","DELAY","","","","","","","","","","",""
