"trial_type","trial_index","time_elapsed","internal_node_id","subject_id","task","startTime","totalTime","labels","view_history","rt","event","trial","time","trialtype","success","stimulus","key_press","stimType","arraySize","arrayFaces","arrayOutcomes","matchType","corrResp","arrayDur","targFace","targCol","targOutcome","trialType","corr"
"pavlovia","0","7","0.0-0.0","63eafad399e87039254d1078","bdp_wmem","Tue Mar 14 2023 12:16:23 GMT-0600 (Central Standard Time)","1421940","Match,No Match","","","","","","","","","","","","","","","","","","","","",""
"instructions","1","259945","0.0-1.0","63eafad399e87039254d1078","bdp_wmem","Tue Mar 14 2023 12:16:23 GMT-0600 (Central Standard Time)","1421940","Match,No Match","[{""page_index"":0,""viewing_time"":259937}]","259937","","","","","","","","","","","","","","","","","","",""
"","","","","63eafad399e87039254d1078","bdp_wmem","Tue Mar 14 2023 12:16:23 GMT-0600 (Central Standard Time)","1421940","Match,No Match","","","fullscreenenter","2","264778","fullscreenenter","","","","","","","","","","","","","","",""
"fullscreen","2","265762","0.0-2.0","63eafad399e87039254d1078","bdp_wmem","Tue Mar 14 2023 12:16:23 GMT-0600 (Central Standard Time)","1421940","Match,No Match","","","","","","","true","","","","","","","","","","","","","",""
"instructions","3","296334","0.0-4.0","63eafad399e87039254d1078","bdp_wmem","Tue Mar 14 2023 12:16:23 GMT-0600 (Central Standard Time)","1421940","Match,No Match","[{""page_index"":0,""viewing_time"":14177},{""page_index"":1,""viewing_time"":8984},{""page_index"":2,""viewing_time"":3416},{""page_index"":3,""viewing_time"":2224},{""page_index"":4,""viewing_time"":1768}]","30570","","","","","","","","","","","","","","","","","","",""
"html-keyboard-response","4","296839","0.0-5.0-1.0","63eafad399e87039254d1078","bdp_wmem","Tue Mar 14 2023 12:16:23 GMT-0600 (Central Standard Time)","1421940","Match,No Match","","null","","","","","","<div class='trialBorder'><div class='vertical-center'><img src='img/fixation2_sml.jpg'</img></div></div>","null","FIX","","","","","","","","","","",""
"html-keyboard-response","5","299842","0.0-5.0-2.0","63eafad399e87039254d1078","bdp_wmem","Tue Mar 14 2023 12:16:23 GMT-0600 (Central Standard Time)","1421940","Match,No Match","","null","","","","","","<div class='trialBorder'><div class='vertical-center'><img style='vertical-align:center; align:center' src='img/fixation2_sml.jpg'></div><div class='arrayDiv2'><div class='tl'><img class='introPic' src='trustrating_stim/white_mw091.bmp'><br><font color='red'><strong>Keep</strong></font></div><div class='tr'><img class='introPic' src='trustrating_stim/white_mw085.bmp'><br><font color='green'><strong>Share</strong></font></div></div></div>","null","ARRAY","2","trustrating_stim/white_mw091.bmp,trustrating_stim/white_mw085.bmp","0,1","noMatchFace","i","3000","","","","",""
"html-keyboard-response","6","303845","0.0-5.0-3.0","63eafad399e87039254d1078","bdp_wmem","Tue Mar 14 2023 12:16:23 GMT-0600 (Central Standard Time)","1421940","Match,No Match","","null","","","","","","<div class='trialBorder'><div class='vertical-center'><img src='img/fixation2_sml.jpg'</img></div></div>","null","DELAY","","","","","","","","","","",""
"html-keyboard-response","7","305078","0.0-5.0-4.0","63eafad399e87039254d1078","bdp_wmem","Tue Mar 14 2023 12:16:23 GMT-0600 (Central Standard Time)","1421940","Match,No Match","","1230","","","","","","<div class='trialBorder'><div class='targDiv'><div class='tc'><img class='introPic' src='trustrating_stim/white_mw040.bmp'><br><font color='green'><strong>Share</strong></font></div></div><div class='respDiv'><div class='respDivL'>Match<br>(e)</div><div class='respDivR'>No Match<br>(i)</div></div></div>","i","TARGET","2","trustrating_stim/white_mw091.bmp,trustrating_stim/white_mw085.bmp","0,1","noMatchFace","i","3000","trustrating_stim/white_mw040.bmp","green","Share","PRACTICE","1"
"html-keyboard-response","8","305582","0.0-5.0-5.0","63eafad399e87039254d1078","bdp_wmem","Tue Mar 14 2023 12:16:23 GMT-0600 (Central Standard Time)","1421940","Match,No Match","","null","","","","","","<div class='trialBorder'><div class='vertical-center'><img src='img/correct.jpg'></div><div class='respDiv'><div class='respDivL'>Match<br>(e)</div><div class='respDivR'><font style='color:orange'>No Match<br>(i)</font></div></div></div>","null","FEEDBACK","","","","","","","","","","",""
"html-keyboard-response","9","306085","0.0-5.0-1.1","63eafad399e87039254d1078","bdp_wmem","Tue Mar 14 2023 12:16:23 GMT-0600 (Central Standard Time)","1421940","Match,No Match","","null","","","","","","<div class='trialBorder'><div class='vertical-center'><img src='img/fixation2_sml.jpg'</img></div></div>","null","FIX","","","","","","","","","","",""
"html-keyboard-response","10","310588","0.0-5.0-2.1","63eafad399e87039254d1078","bdp_wmem","Tue Mar 14 2023 12:16:23 GMT-0600 (Central Standard Time)","1421940","Match,No Match","","null","","","","","","<div class='trialBorder'><div class='vertical-center'><img style='vertical-align:center; align:center' src='img/fixation2_sml.jpg'></div><div class='arrayDiv3'><div class='tl'><img class='introPic' src='trustrating_stim/white_mw013.bmp'><br><font color='red'><strong>Keep</strong></font></div><div class='tc'><img class='introPic' src='trustrating_stim/white_mw038.bmp'><br><font color='green'><strong>Share</strong></font></div><div class='tr'><img class='introPic' src='trustrating_stim/white_mw012.bmp'><br><font color='green'><strong>Share</strong></font></div></div></div>","null","ARRAY","3","trustrating_stim/white_mw013.bmp,trustrating_stim/white_mw038.bmp,trustrating_stim/white_mw012.bmp","0,1,1","noMatchOutcome","i","4500","","","","",""
"html-keyboard-response","11","314590","0.0-5.0-3.1","63eafad399e87039254d1078","bdp_wmem","Tue Mar 14 2023 12:16:23 GMT-0600 (Central Standard Time)","1421940","Match,No Match","","null","","","","","","<div class='trialBorder'><div class='vertical-center'><img src='img/fixation2_sml.jpg'</img></div></div>","null","DELAY","","","","","","","","","","",""
"html-keyboard-response","12","317933","0.0-5.0-4.1","63eafad399e87039254d1078","bdp_wmem","Tue Mar 14 2023 12:16:23 GMT-0600 (Central Standard Time)","1421940","Match,No Match","","3341","","","","","","<div class='trialBorder'><div class='targDiv'><div class='tc'><img class='introPic' src='trustrating_stim/white_mw012.bmp'><br><font color='red'><strong>Keep</strong></font></div></div><div class='respDiv'><div class='respDivL'>Match<br>(e)</div><div class='respDivR'>No Match<br>(i)</div></div></div>","e","TARGET","3","trustrating_stim/white_mw013.bmp,trustrating_stim/white_mw038.bmp,trustrating_stim/white_mw012.bmp","0,1,1","noMatchOutcome","i","4500","trustrating_stim/white_mw012.bmp","red","Keep","PRACTICE","0"
"html-keyboard-response","13","318436","0.0-5.0-5.1","63eafad399e87039254d1078","bdp_wmem","Tue Mar 14 2023 12:16:23 GMT-0600 (Central Standard Time)","1421940","Match,No Match","","null","","","","","","<div class='trialBorder'><div class='vertical-center'><img src='img/error.jpg'></div><div class='respDiv'><div class='respDivL'><font style='color:orange'>Match<br>(e)</font></div><div class='respDivR'>No Match<br>(i)</div></div></div>","null","FEEDBACK","","","","","","","","","","",""
"html-keyboard-response","14","318938","0.0-5.0-1.2","63eafad399e87039254d1078","bdp_wmem","Tue Mar 14 2023 12:16:23 GMT-0600 (Central Standard Time)","1421940","Match,No Match","","null","","","","","","<div class='trialBorder'><div class='vertical-center'><img src='img/fixation2_sml.jpg'</img></div></div>","null","FIX","","","","","","","","","","",""
"html-keyboard-response","15","320441","0.0-5.0-2.2","63eafad399e87039254d1078","bdp_wmem","Tue Mar 14 2023 12:16:23 GMT-0600 (Central Standard Time)","1421940","Match,No Match","","null","","","","","","<div class='trialBorder'><div class='vertical-center'><img style='vertical-align:center; align:center' src='img/fixation2_sml.jpg'></div><div class='arrayDiv1'><div class='tc'><img class='introPic' src='trustrating_stim/white_mw010.bmp'><br><font color='green'><strong>Share</strong></font></div></div></div>","null","ARRAY","1","trustrating_stim/white_mw010.bmp","1","noMatchFace","i","1500","","","","",""
"html-keyboard-response","16","324444","0.0-5.0-3.2","63eafad399e87039254d1078","bdp_wmem","Tue Mar 14 2023 12:16:23 GMT-0600 (Central Standard Time)","1421940","Match,No Match","","null","","","","","","<div class='trialBorder'><div class='vertical-center'><img src='img/fixation2_sml.jpg'</img></div></div>","null","DELAY","","","","","","","","","","",""
"html-keyboard-response","17","325509","0.0-5.0-4.2","63eafad399e87039254d1078","bdp_wmem","Tue Mar 14 2023 12:16:23 GMT-0600 (Central Standard Time)","1421940","Match,No Match","","1063","","","","","","<div class='trialBorder'><div class='targDiv'><div class='tc'><img class='introPic' src='trustrating_stim/white_mw070.bmp'><br><font color='green'><strong>Share</strong></font></div></div><div class='respDiv'><div class='respDivL'>Match<br>(e)</div><div class='respDivR'>No Match<br>(i)</div></div></div>","i","TARGET","1","trustrating_stim/white_mw010.bmp","1","noMatchFace","i","1500","trustrating_stim/white_mw070.bmp","green","Share","PRACTICE","1"
"html-keyboard-response","18","326012","0.0-5.0-5.2","63eafad399e87039254d1078","bdp_wmem","Tue Mar 14 2023 12:16:23 GMT-0600 (Central Standard Time)","1421940","Match,No Match","","null","","","","","","<div class='trialBorder'><div class='vertical-center'><img src='img/correct.jpg'></div><div class='respDiv'><div class='respDivL'>Match<br>(e)</div><div class='respDivR'><font style='color:orange'>No Match<br>(i)</font></div></div></div>","null","FEEDBACK","","","","","","","","","","",""
"html-keyboard-response","19","326514","0.0-5.0-1.3","63eafad399e87039254d1078","bdp_wmem","Tue Mar 14 2023 12:16:23 GMT-0600 (Central Standard Time)","1421940","Match,No Match","","null","","","","","","<div class='trialBorder'><div class='vertical-center'><img src='img/fixation2_sml.jpg'</img></div></div>","null","FIX","","","","","","","","","","",""
"html-keyboard-response","20","331018","0.0-5.0-2.3","63eafad399e87039254d1078","bdp_wmem","Tue Mar 14 2023 12:16:23 GMT-0600 (Central Standard Time)","1421940","Match,No Match","","null","","","","","","<div class='trialBorder'><div class='vertical-center'><img style='vertical-align:center; align:center' src='img/fixation2_sml.jpg'></div><div class='arrayDiv3'><div class='tl'><img class='introPic' src='trustrating_stim/white_mw013.bmp'><br><font color='red'><strong>Keep</strong></font></div><div class='tc'><img class='introPic' src='trustrating_stim/white_mw012.bmp'><br><font color='green'><strong>Share</strong></font></div><div class='tr'><img class='introPic' src='trustrating_stim/white_mw010.bmp'><br><font color='green'><strong>Share</strong></font></div></div></div>","null","ARRAY","3","trustrating_stim/white_mw013.bmp,trustrating_stim/white_mw012.bmp,trustrating_stim/white_mw010.bmp","0,1,1","Match","e","4500","","","","",""
"html-keyboard-response","21","335019","0.0-5.0-3.3","63eafad399e87039254d1078","bdp_wmem","Tue Mar 14 2023 12:16:23 GMT-0600 (Central Standard Time)","1421940","Match,No Match","","null","","","","","","<div class='trialBorder'><div class='vertical-center'><img src='img/fixation2_sml.jpg'</img></div></div>","null","DELAY","","","","","","","","","","",""
"html-keyboard-response","22","337022","0.0-5.0-4.3","63eafad399e87039254d1078","bdp_wmem","Tue Mar 14 2023 12:16:23 GMT-0600 (Central Standard Time)","1421940","Match,No Match","","2000","","","","","","<div class='trialBorder'><div class='targDiv'><div class='tc'><img class='introPic' src='trustrating_stim/white_mw012.bmp'><br><font color='green'><strong>Share</strong></font></div></div><div class='respDiv'><div class='respDivL'>Match<br>(e)</div><div class='respDivR'>No Match<br>(i)</div></div></div>","e","TARGET","3","trustrating_stim/white_mw013.bmp,trustrating_stim/white_mw012.bmp,trustrating_stim/white_mw010.bmp","0,1,1","Match","e","4500","trustrating_stim/white_mw012.bmp","green","Share","PRACTICE","1"
"html-keyboard-response","23","337524","0.0-5.0-5.3","63eafad399e87039254d1078","bdp_wmem","Tue Mar 14 2023 12:16:23 GMT-0600 (Central Standard Time)","1421940","Match,No Match","","null","","","","","","<div class='trialBorder'><div class='vertical-center'><img src='img/correct.jpg'></div><div class='respDiv'><div class='respDivL'><font style='color:orange'>Match<br>(e)</font></div><div class='respDivR'>No Match<br>(i)</div></div></div>","null","FEEDBACK","","","","","","","","","","",""
"html-keyboard-response","24","338026","0.0-5.0-1.4","63eafad399e87039254d1078","bdp_wmem","Tue Mar 14 2023 12:16:23 GMT-0600 (Central Standard Time)","1421940","Match,No Match","","null","","","","","","<div class='trialBorder'><div class='vertical-center'><img src='img/fixation2_sml.jpg'</img></div></div>","null","FIX","","","","","","","","","","",""
"html-keyboard-response","25","339529","0.0-5.0-2.4","63eafad399e87039254d1078","bdp_wmem","Tue Mar 14 2023 12:16:23 GMT-0600 (Central Standard Time)","1421940","Match,No Match","","null","","","","","","<div class='trialBorder'><div class='vertical-center'><img style='vertical-align:center; align:center' src='img/fixation2_sml.jpg'></div><div class='arrayDiv1'><div class='tc'><img class='introPic' src='trustrating_stim/white_mw085.bmp'><br><font color='green'><strong>Share</strong></font></div></div></div>","null","ARRAY","1","trustrating_stim/white_mw085.bmp","1","Match","e","1500","","","","",""
"html-keyboard-response","26","343531","0.0-5.0-3.4","63eafad399e87039254d1078","bdp_wmem","Tue Mar 14 2023 12:16:23 GMT-0600 (Central Standard Time)","1421940","Match,No Match","","null","","","","","","<div class='trialBorder'><div class='vertical-center'><img src='img/fixation2_sml.jpg'</img></div></div>","null","DELAY","","","","","","","","","","",""
"html-keyboard-response","27","344669","0.0-5.0-4.4","63eafad399e87039254d1078","bdp_wmem","Tue Mar 14 2023 12:16:23 GMT-0600 (Central Standard Time)","1421940","Match,No Match","","1136","","","","","","<div class='trialBorder'><div class='targDiv'><div class='tc'><img class='introPic' src='trustrating_stim/white_mw085.bmp'><br><font color='green'><strong>Share</strong></font></div></div><div class='respDiv'><div class='respDivL'>Match<br>(e)</div><div class='respDivR'>No Match<br>(i)</div></div></div>","e","TARGET","1","trustrating_stim/white_mw085.bmp","1","Match","e","1500","trustrating_stim/white_mw085.bmp","green","Share","PRACTICE","1"
"html-keyboard-response","28","345171","0.0-5.0-5.4","63eafad399e87039254d1078","bdp_wmem","Tue Mar 14 2023 12:16:23 GMT-0600 (Central Standard Time)","1421940","Match,No Match","","null","","","","","","<div class='trialBorder'><div class='vertical-center'><img src='img/correct.jpg'></div><div class='respDiv'><div class='respDivL'><font style='color:orange'>Match<br>(e)</font></div><div class='respDivR'>No Match<br>(i)</div></div></div>","null","FEEDBACK","","","","","","","","","","",""
"html-keyboard-response","29","345673","0.0-5.0-1.5","63eafad399e87039254d1078","bdp_wmem","Tue Mar 14 2023 12:16:23 GMT-0600 (Central Standard Time)","1421940","Match,No Match","","null","","","","","","<div class='trialBorder'><div class='vertical-center'><img src='img/fixation2_sml.jpg'</img></div></div>","null","FIX","","","","","","","","","","",""
"html-keyboard-response","30","348675","0.0-5.0-2.5","63eafad399e87039254d1078","bdp_wmem","Tue Mar 14 2023 12:16:23 GMT-0600 (Central Standard Time)","1421940","Match,No Match","","null","","","","","","<div class='trialBorder'><div class='vertical-center'><img style='vertical-align:center; align:center' src='img/fixation2_sml.jpg'></div><div class='arrayDiv2'><div class='tl'><img class='introPic' src='trustrating_stim/white_mw003.bmp'><br><font color='green'><strong>Share</strong></font></div><div class='tr'><img class='introPic' src='trustrating_stim/white_mw040.bmp'><br><font color='red'><strong>Keep</strong></font></div></div></div>","null","ARRAY","2","trustrating_stim/white_mw003.bmp,trustrating_stim/white_mw040.bmp","1,0","Match","e","3000","","","","",""
"html-keyboard-response","31","352678","0.0-5.0-3.5","63eafad399e87039254d1078","bdp_wmem","Tue Mar 14 2023 12:16:23 GMT-0600 (Central Standard Time)","1421940","Match,No Match","","null","","","","","","<div class='trialBorder'><div class='vertical-center'><img src='img/fixation2_sml.jpg'</img></div></div>","null","DELAY","","","","","","","","","","",""
"html-keyboard-response","32","354566","0.0-5.0-4.5","63eafad399e87039254d1078","bdp_wmem","Tue Mar 14 2023 12:16:23 GMT-0600 (Central Standard Time)","1421940","Match,No Match","","1886","","","","","","<div class='trialBorder'><div class='targDiv'><div class='tc'><img class='introPic' src='trustrating_stim/white_mw040.bmp'><br><font color='red'><strong>Keep</strong></font></div></div><div class='respDiv'><div class='respDivL'>Match<br>(e)</div><div class='respDivR'>No Match<br>(i)</div></div></div>","e","TARGET","2","trustrating_stim/white_mw003.bmp,trustrating_stim/white_mw040.bmp","1,0","Match","e","3000","trustrating_stim/white_mw040.bmp","red","Keep","PRACTICE","1"
"html-keyboard-response","33","355068","0.0-5.0-5.5","63eafad399e87039254d1078","bdp_wmem","Tue Mar 14 2023 12:16:23 GMT-0600 (Central Standard Time)","1421940","Match,No Match","","null","","","","","","<div class='trialBorder'><div class='vertical-center'><img src='img/correct.jpg'></div><div class='respDiv'><div class='respDivL'><font style='color:orange'>Match<br>(e)</font></div><div class='respDivR'>No Match<br>(i)</div></div></div>","null","FEEDBACK","","","","","","","","","","",""
"instructions","34","967157","0.0-6.0","63eafad399e87039254d1078","bdp_wmem","Tue Mar 14 2023 12:16:23 GMT-0600 (Central Standard Time)","1421940","Match,No Match","[{""page_index"":0,""viewing_time"":612088}]","612088","","","","","","","","","","","","","","","","","","",""
"html-keyboard-response","35","967659","0.0-7.0-1.0","63eafad399e87039254d1078","bdp_wmem","Tue Mar 14 2023 12:16:23 GMT-0600 (Central Standard Time)","1421940","Match,No Match","","null","","","","","","<div class='trialBorder'><div class='vertical-center'><img src='img/fixation2_sml.jpg'</img></div></div>","null","FIX","","","","","","","","","","",""
"html-keyboard-response","36","969163","0.0-7.0-2.0","63eafad399e87039254d1078","bdp_wmem","Tue Mar 14 2023 12:16:23 GMT-0600 (Central Standard Time)","1421940","Match,No Match","","null","","","","","","<div class='trialBorder'><div class='vertical-center'><img style='vertical-align:center; align:center' src='img/fixation2_sml.jpg'></div><div class='arrayDiv1'><div class='tc'><img class='introPic' src='trustrating_stim/white_mw091.bmp'><br><font color='red'><strong>Keep</strong></font></div></div></div>","null","ARRAY","1","trustrating_stim/white_mw091.bmp","0","Match","e","1500","","","","",""
"html-keyboard-response","37","973165","0.0-7.0-3.0","63eafad399e87039254d1078","bdp_wmem","Tue Mar 14 2023 12:16:23 GMT-0600 (Central Standard Time)","1421940","Match,No Match","","null","","","","","","<div class='trialBorder'><div class='vertical-center'><img src='img/fixation2_sml.jpg'</img></div></div>","null","DELAY","","","","","","","","","","",""
"html-keyboard-response","38","974285","0.0-7.0-4.0","63eafad399e87039254d1078","bdp_wmem","Tue Mar 14 2023 12:16:23 GMT-0600 (Central Standard Time)","1421940","Match,No Match","","1118","","","","","","<div class='trialBorder'><div class='targDiv'><div class='tc'><img class='introPic' src='trustrating_stim/white_mw091.bmp'><br><font color='red'><strong>Keep</strong></font></div></div><div class='respDiv'><div class='respDivL'>Match<br>(e)</div><div class='respDivR'>No Match<br>(i)</div></div></div>","e","TARGET","1","trustrating_stim/white_mw091.bmp","0","Match","e","1500","trustrating_stim/white_mw091.bmp","red","Keep","REAL","1"
"html-keyboard-response","39","974788","0.0-7.0-5.0","63eafad399e87039254d1078","bdp_wmem","Tue Mar 14 2023 12:16:23 GMT-0600 (Central Standard Time)","1421940","Match,No Match","","null","","","","","","<div class='trialBorder'><div class='vertical-center'><img src='img/correct.jpg'></div><div class='respDiv'><div class='respDivL'><font style='color:orange'>Match<br>(e)</font></div><div class='respDivR'>No Match<br>(i)</div></div></div>","null","FEEDBACK","","","","","","","","","","",""
"html-keyboard-response","40","975290","0.0-7.0-1.1","63eafad399e87039254d1078","bdp_wmem","Tue Mar 14 2023 12:16:23 GMT-0600 (Central Standard Time)","1421940","Match,No Match","","null","","","","","","<div class='trialBorder'><div class='vertical-center'><img src='img/fixation2_sml.jpg'</img></div></div>","null","FIX","","","","","","","","","","",""
"html-keyboard-response","41","976792","0.0-7.0-2.1","63eafad399e87039254d1078","bdp_wmem","Tue Mar 14 2023 12:16:23 GMT-0600 (Central Standard Time)","1421940","Match,No Match","","null","","","","","","<div class='trialBorder'><div class='vertical-center'><img style='vertical-align:center; align:center' src='img/fixation2_sml.jpg'></div><div class='arrayDiv1'><div class='tc'><img class='introPic' src='trustrating_stim/white_mw078.bmp'><br><font color='red'><strong>Keep</strong></font></div></div></div>","null","ARRAY","1","trustrating_stim/white_mw078.bmp","0","Match","e","1500","","","","",""
"html-keyboard-response","42","980794","0.0-7.0-3.1","63eafad399e87039254d1078","bdp_wmem","Tue Mar 14 2023 12:16:23 GMT-0600 (Central Standard Time)","1421940","Match,No Match","","null","","","","","","<div class='trialBorder'><div class='vertical-center'><img src='img/fixation2_sml.jpg'</img></div></div>","null","DELAY","","","","","","","","","","",""
"html-keyboard-response","43","981862","0.0-7.0-4.1","63eafad399e87039254d1078","bdp_wmem","Tue Mar 14 2023 12:16:23 GMT-0600 (Central Standard Time)","1421940","Match,No Match","","1065","","","","","","<div class='trialBorder'><div class='targDiv'><div class='tc'><img class='introPic' src='trustrating_stim/white_mw078.bmp'><br><font color='red'><strong>Keep</strong></font></div></div><div class='respDiv'><div class='respDivL'>Match<br>(e)</div><div class='respDivR'>No Match<br>(i)</div></div></div>","e","TARGET","1","trustrating_stim/white_mw078.bmp","0","Match","e","1500","trustrating_stim/white_mw078.bmp","red","Keep","REAL","1"
"html-keyboard-response","44","982365","0.0-7.0-5.1","63eafad399e87039254d1078","bdp_wmem","Tue Mar 14 2023 12:16:23 GMT-0600 (Central Standard Time)","1421940","Match,No Match","","null","","","","","","<div class='trialBorder'><div class='vertical-center'><img src='img/correct.jpg'></div><div class='respDiv'><div class='respDivL'><font style='color:orange'>Match<br>(e)</font></div><div class='respDivR'>No Match<br>(i)</div></div></div>","null","FEEDBACK","","","","","","","","","","",""
"html-keyboard-response","45","982867","0.0-7.0-1.2","63eafad399e87039254d1078","bdp_wmem","Tue Mar 14 2023 12:16:23 GMT-0600 (Central Standard Time)","1421940","Match,No Match","","null","","","","","","<div class='trialBorder'><div class='vertical-center'><img src='img/fixation2_sml.jpg'</img></div></div>","null","FIX","","","","","","","","","","",""
"html-keyboard-response","46","984374","0.0-7.0-2.2","63eafad399e87039254d1078","bdp_wmem","Tue Mar 14 2023 12:16:23 GMT-0600 (Central Standard Time)","1421940","Match,No Match","","null","","","","","","<div class='trialBorder'><div class='vertical-center'><img style='vertical-align:center; align:center' src='img/fixation2_sml.jpg'></div><div class='arrayDiv1'><div class='tc'><img class='introPic' src='trustrating_stim/white_mw040.bmp'><br><font color='green'><strong>Share</strong></font></div></div></div>","null","ARRAY","1","trustrating_stim/white_mw040.bmp","1","Match","e","1500","","","","",""
"html-keyboard-response","47","988376","0.0-7.0-3.2","63eafad399e87039254d1078","bdp_wmem","Tue Mar 14 2023 12:16:23 GMT-0600 (Central Standard Time)","1421940","Match,No Match","","null","","","","","","<div class='trialBorder'><div class='vertical-center'><img src='img/fixation2_sml.jpg'</img></div></div>","null","DELAY","","","","","","","","","","",""
"html-keyboard-response","48","989685","0.0-7.0-4.2","63eafad399e87039254d1078","bdp_wmem","Tue Mar 14 2023 12:16:23 GMT-0600 (Central Standard Time)","1421940","Match,No Match","","1308","","","","","","<div class='trialBorder'><div class='targDiv'><div class='tc'><img class='introPic' src='trustrating_stim/white_mw040.bmp'><br><font color='green'><strong>Share</strong></font></div></div><div class='respDiv'><div class='respDivL'>Match<br>(e)</div><div class='respDivR'>No Match<br>(i)</div></div></div>","e","TARGET","1","trustrating_stim/white_mw040.bmp","1","Match","e","1500","trustrating_stim/white_mw040.bmp","green","Share","REAL","1"
"html-keyboard-response","49","990187","0.0-7.0-5.2","63eafad399e87039254d1078","bdp_wmem","Tue Mar 14 2023 12:16:23 GMT-0600 (Central Standard Time)","1421940","Match,No Match","","null","","","","","","<div class='trialBorder'><div class='vertical-center'><img src='img/correct.jpg'></div><div class='respDiv'><div class='respDivL'><font style='color:orange'>Match<br>(e)</font></div><div class='respDivR'>No Match<br>(i)</div></div></div>","null","FEEDBACK","","","","","","","","","","",""
"html-keyboard-response","50","990700","0.0-7.0-1.3","63eafad399e87039254d1078","bdp_wmem","Tue Mar 14 2023 12:16:23 GMT-0600 (Central Standard Time)","1421940","Match,No Match","","null","","","","","","<div class='trialBorder'><div class='vertical-center'><img src='img/fixation2_sml.jpg'</img></div></div>","null","FIX","","","","","","","","","","",""
"html-keyboard-response","51","993702","0.0-7.0-2.3","63eafad399e87039254d1078","bdp_wmem","Tue Mar 14 2023 12:16:23 GMT-0600 (Central Standard Time)","1421940","Match,No Match","","null","","","","","","<div class='trialBorder'><div class='vertical-center'><img style='vertical-align:center; align:center' src='img/fixation2_sml.jpg'></div><div class='arrayDiv2'><div class='tl'><img class='introPic' src='trustrating_stim/white_mw040.bmp'><br><font color='red'><strong>Keep</strong></font></div><div class='tr'><img class='introPic' src='trustrating_stim/white_mw085.bmp'><br><font color='green'><strong>Share</strong></font></div></div></div>","null","ARRAY","2","trustrating_stim/white_mw040.bmp,trustrating_stim/white_mw085.bmp","0,1","Match","e","3000","","","","",""
"html-keyboard-response","52","997705","0.0-7.0-3.3","63eafad399e87039254d1078","bdp_wmem","Tue Mar 14 2023 12:16:23 GMT-0600 (Central Standard Time)","1421940","Match,No Match","","null","","","","","","<div class='trialBorder'><div class='vertical-center'><img src='img/fixation2_sml.jpg'</img></div></div>","null","DELAY","","","","","","","","","","",""
"html-keyboard-response","53","999309","0.0-7.0-4.3","63eafad399e87039254d1078","bdp_wmem","Tue Mar 14 2023 12:16:23 GMT-0600 (Central Standard Time)","1421940","Match,No Match","","1603","","","","","","<div class='trialBorder'><div class='targDiv'><div class='tc'><img class='introPic' src='trustrating_stim/white_mw040.bmp'><br><font color='red'><strong>Keep</strong></font></div></div><div class='respDiv'><div class='respDivL'>Match<br>(e)</div><div class='respDivR'>No Match<br>(i)</div></div></div>","e","TARGET","2","trustrating_stim/white_mw040.bmp,trustrating_stim/white_mw085.bmp","0,1","Match","e","3000","trustrating_stim/white_mw040.bmp","red","Keep","REAL","1"
"html-keyboard-response","54","999812","0.0-7.0-5.3","63eafad399e87039254d1078","bdp_wmem","Tue Mar 14 2023 12:16:23 GMT-0600 (Central Standard Time)","1421940","Match,No Match","","null","","","","","","<div class='trialBorder'><div class='vertical-center'><img src='img/correct.jpg'></div><div class='respDiv'><div class='respDivL'><font style='color:orange'>Match<br>(e)</font></div><div class='respDivR'>No Match<br>(i)</div></div></div>","null","FEEDBACK","","","","","","","","","","",""
"html-keyboard-response","55","1000313","0.0-7.0-1.4","63eafad399e87039254d1078","bdp_wmem","Tue Mar 14 2023 12:16:23 GMT-0600 (Central Standard Time)","1421940","Match,No Match","","null","","","","","","<div class='trialBorder'><div class='vertical-center'><img src='img/fixation2_sml.jpg'</img></div></div>","null","FIX","","","","","","","","","","",""
"html-keyboard-response","56","1001814","0.0-7.0-2.4","63eafad399e87039254d1078","bdp_wmem","Tue Mar 14 2023 12:16:23 GMT-0600 (Central Standard Time)","1421940","Match,No Match","","null","","","","","","<div class='trialBorder'><div class='vertical-center'><img style='vertical-align:center; align:center' src='img/fixation2_sml.jpg'></div><div class='arrayDiv1'><div class='tc'><img class='introPic' src='trustrating_stim/white_mw092.bmp'><br><font color='green'><strong>Share</strong></font></div></div></div>","null","ARRAY","1","trustrating_stim/white_mw092.bmp","1","Match","e","1500","","","","",""
"html-keyboard-response","57","1005816","0.0-7.0-3.4","63eafad399e87039254d1078","bdp_wmem","Tue Mar 14 2023 12:16:23 GMT-0600 (Central Standard Time)","1421940","Match,No Match","","null","","","","","","<div class='trialBorder'><div class='vertical-center'><img src='img/fixation2_sml.jpg'</img></div></div>","null","DELAY","","","","","","","","","","",""
"html-keyboard-response","58","1007405","0.0-7.0-4.4","63eafad399e87039254d1078","bdp_wmem","Tue Mar 14 2023 12:16:23 GMT-0600 (Central Standard Time)","1421940","Match,No Match","","1587","","","","","","<div class='trialBorder'><div class='targDiv'><div class='tc'><img class='introPic' src='trustrating_stim/white_mw092.bmp'><br><font color='green'><strong>Share</strong></font></div></div><div class='respDiv'><div class='respDivL'>Match<br>(e)</div><div class='respDivR'>No Match<br>(i)</div></div></div>","e","TARGET","1","trustrating_stim/white_mw092.bmp","1","Match","e","1500","trustrating_stim/white_mw092.bmp","green","Share","REAL","1"
"html-keyboard-response","59","1007908","0.0-7.0-5.4","63eafad399e87039254d1078","bdp_wmem","Tue Mar 14 2023 12:16:23 GMT-0600 (Central Standard Time)","1421940","Match,No Match","","null","","","","","","<div class='trialBorder'><div class='vertical-center'><img src='img/correct.jpg'></div><div class='respDiv'><div class='respDivL'><font style='color:orange'>Match<br>(e)</font></div><div class='respDivR'>No Match<br>(i)</div></div></div>","null","FEEDBACK","","","","","","","","","","",""
"html-keyboard-response","60","1008409","0.0-7.0-1.5","63eafad399e87039254d1078","bdp_wmem","Tue Mar 14 2023 12:16:23 GMT-0600 (Central Standard Time)","1421940","Match,No Match","","null","","","","","","<div class='trialBorder'><div class='vertical-center'><img src='img/fixation2_sml.jpg'</img></div></div>","null","FIX","","","","","","","","","","",""
"html-keyboard-response","61","1009912","0.0-7.0-2.5","63eafad399e87039254d1078","bdp_wmem","Tue Mar 14 2023 12:16:23 GMT-0600 (Central Standard Time)","1421940","Match,No Match","","null","","","","","","<div class='trialBorder'><div class='vertical-center'><img style='vertical-align:center; align:center' src='img/fixation2_sml.jpg'></div><div class='arrayDiv1'><div class='tc'><img class='introPic' src='trustrating_stim/white_mw038.bmp'><br><font color='green'><strong>Share</strong></font></div></div></div>","null","ARRAY","1","trustrating_stim/white_mw038.bmp","1","Match","e","1500","","","","",""
"html-keyboard-response","62","1013914","0.0-7.0-3.5","63eafad399e87039254d1078","bdp_wmem","Tue Mar 14 2023 12:16:23 GMT-0600 (Central Standard Time)","1421940","Match,No Match","","null","","","","","","<div class='trialBorder'><div class='vertical-center'><img src='img/fixation2_sml.jpg'</img></div></div>","null","DELAY","","","","","","","","","","",""
"html-keyboard-response","63","1014894","0.0-7.0-4.5","63eafad399e87039254d1078","bdp_wmem","Tue Mar 14 2023 12:16:23 GMT-0600 (Central Standard Time)","1421940","Match,No Match","","977","","","","","","<div class='trialBorder'><div class='targDiv'><div class='tc'><img class='introPic' src='trustrating_stim/white_mw038.bmp'><br><font color='green'><strong>Share</strong></font></div></div><div class='respDiv'><div class='respDivL'>Match<br>(e)</div><div class='respDivR'>No Match<br>(i)</div></div></div>","e","TARGET","1","trustrating_stim/white_mw038.bmp","1","Match","e","1500","trustrating_stim/white_mw038.bmp","green","Share","REAL","1"
"html-keyboard-response","64","1015395","0.0-7.0-5.5","63eafad399e87039254d1078","bdp_wmem","Tue Mar 14 2023 12:16:23 GMT-0600 (Central Standard Time)","1421940","Match,No Match","","null","","","","","","<div class='trialBorder'><div class='vertical-center'><img src='img/correct.jpg'></div><div class='respDiv'><div class='respDivL'><font style='color:orange'>Match<br>(e)</font></div><div class='respDivR'>No Match<br>(i)</div></div></div>","null","FEEDBACK","","","","","","","","","","",""
"html-keyboard-response","65","1015897","0.0-7.0-1.6","63eafad399e87039254d1078","bdp_wmem","Tue Mar 14 2023 12:16:23 GMT-0600 (Central Standard Time)","1421940","Match,No Match","","null","","","","","","<div class='trialBorder'><div class='vertical-center'><img src='img/fixation2_sml.jpg'</img></div></div>","null","FIX","","","","","","","","","","",""
"html-keyboard-response","66","1018900","0.0-7.0-2.6","63eafad399e87039254d1078","bdp_wmem","Tue Mar 14 2023 12:16:23 GMT-0600 (Central Standard Time)","1421940","Match,No Match","","null","","","","","","<div class='trialBorder'><div class='vertical-center'><img style='vertical-align:center; align:center' src='img/fixation2_sml.jpg'></div><div class='arrayDiv2'><div class='tl'><img class='introPic' src='trustrating_stim/white_mw003.bmp'><br><font color='green'><strong>Share</strong></font></div><div class='tr'><img class='introPic' src='trustrating_stim/white_mw012.bmp'><br><font color='red'><strong>Keep</strong></font></div></div></div>","null","ARRAY","2","trustrating_stim/white_mw003.bmp,trustrating_stim/white_mw012.bmp","1,0","noMatchOutcome","i","3000","","","","",""
"html-keyboard-response","67","1022902","0.0-7.0-3.6","63eafad399e87039254d1078","bdp_wmem","Tue Mar 14 2023 12:16:23 GMT-0600 (Central Standard Time)","1421940","Match,No Match","","null","","","","","","<div class='trialBorder'><div class='vertical-center'><img src='img/fixation2_sml.jpg'</img></div></div>","null","DELAY","","","","","","","","","","",""
"html-keyboard-response","68","1025198","0.0-7.0-4.6","63eafad399e87039254d1078","bdp_wmem","Tue Mar 14 2023 12:16:23 GMT-0600 (Central Standard Time)","1421940","Match,No Match","","2294","","","","","","<div class='trialBorder'><div class='targDiv'><div class='tc'><img class='introPic' src='trustrating_stim/white_mw012.bmp'><br><font color='green'><strong>Share</strong></font></div></div><div class='respDiv'><div class='respDivL'>Match<br>(e)</div><div class='respDivR'>No Match<br>(i)</div></div></div>","i","TARGET","2","trustrating_stim/white_mw003.bmp,trustrating_stim/white_mw012.bmp","1,0","noMatchOutcome","i","3000","trustrating_stim/white_mw012.bmp","green","Share","REAL","1"
"html-keyboard-response","69","1025700","0.0-7.0-5.6","63eafad399e87039254d1078","bdp_wmem","Tue Mar 14 2023 12:16:23 GMT-0600 (Central Standard Time)","1421940","Match,No Match","","null","","","","","","<div class='trialBorder'><div class='vertical-center'><img src='img/correct.jpg'></div><div class='respDiv'><div class='respDivL'>Match<br>(e)</div><div class='respDivR'><font style='color:orange'>No Match<br>(i)</font></div></div></div>","null","FEEDBACK","","","","","","","","","","",""
"html-keyboard-response","70","1026202","0.0-7.0-1.7","63eafad399e87039254d1078","bdp_wmem","Tue Mar 14 2023 12:16:23 GMT-0600 (Central Standard Time)","1421940","Match,No Match","","null","","","","","","<div class='trialBorder'><div class='vertical-center'><img src='img/fixation2_sml.jpg'</img></div></div>","null","FIX","","","","","","","","","","",""
"html-keyboard-response","71","1030705","0.0-7.0-2.7","63eafad399e87039254d1078","bdp_wmem","Tue Mar 14 2023 12:16:23 GMT-0600 (Central Standard Time)","1421940","Match,No Match","","null","","","","","","<div class='trialBorder'><div class='vertical-center'><img style='vertical-align:center; align:center' src='img/fixation2_sml.jpg'></div><div class='arrayDiv3'><div class='tl'><img class='introPic' src='trustrating_stim/white_mw003.bmp'><br><font color='red'><strong>Keep</strong></font></div><div class='tc'><img class='introPic' src='trustrating_stim/white_mw012.bmp'><br><font color='red'><strong>Keep</strong></font></div><div class='tr'><img class='introPic' src='trustrating_stim/white_mw092.bmp'><br><font color='green'><strong>Share</strong></font></div></div></div>","null","ARRAY","3","trustrating_stim/white_mw003.bmp,trustrating_stim/white_mw012.bmp,trustrating_stim/white_mw092.bmp","0,0,1","noMatchFace","i","4500","","","","",""
"html-keyboard-response","72","1034707","0.0-7.0-3.7","63eafad399e87039254d1078","bdp_wmem","Tue Mar 14 2023 12:16:23 GMT-0600 (Central Standard Time)","1421940","Match,No Match","","null","","","","","","<div class='trialBorder'><div class='vertical-center'><img src='img/fixation2_sml.jpg'</img></div></div>","null","DELAY","","","","","","","","","","",""
"html-keyboard-response","73","1036158","0.0-7.0-4.7","63eafad399e87039254d1078","bdp_wmem","Tue Mar 14 2023 12:16:23 GMT-0600 (Central Standard Time)","1421940","Match,No Match","","1448","","","","","","<div class='trialBorder'><div class='targDiv'><div class='tc'><img class='introPic' src='trustrating_stim/white_mw070.bmp'><br><font color='green'><strong>Share</strong></font></div></div><div class='respDiv'><div class='respDivL'>Match<br>(e)</div><div class='respDivR'>No Match<br>(i)</div></div></div>","i","TARGET","3","trustrating_stim/white_mw003.bmp,trustrating_stim/white_mw012.bmp,trustrating_stim/white_mw092.bmp","0,0,1","noMatchFace","i","4500","trustrating_stim/white_mw070.bmp","green","Share","REAL","1"
"html-keyboard-response","74","1036660","0.0-7.0-5.7","63eafad399e87039254d1078","bdp_wmem","Tue Mar 14 2023 12:16:23 GMT-0600 (Central Standard Time)","1421940","Match,No Match","","null","","","","","","<div class='trialBorder'><div class='vertical-center'><img src='img/correct.jpg'></div><div class='respDiv'><div class='respDivL'>Match<br>(e)</div><div class='respDivR'><font style='color:orange'>No Match<br>(i)</font></div></div></div>","null","FEEDBACK","","","","","","","","","","",""
"html-keyboard-response","75","1037161","0.0-7.0-1.8","63eafad399e87039254d1078","bdp_wmem","Tue Mar 14 2023 12:16:23 GMT-0600 (Central Standard Time)","1421940","Match,No Match","","null","","","","","","<div class='trialBorder'><div class='vertical-center'><img src='img/fixation2_sml.jpg'</img></div></div>","null","FIX","","","","","","","","","","",""
"html-keyboard-response","76","1038663","0.0-7.0-2.8","63eafad399e87039254d1078","bdp_wmem","Tue Mar 14 2023 12:16:23 GMT-0600 (Central Standard Time)","1421940","Match,No Match","","null","","","","","","<div class='trialBorder'><div class='vertical-center'><img style='vertical-align:center; align:center' src='img/fixation2_sml.jpg'></div><div class='arrayDiv1'><div class='tc'><img class='introPic' src='trustrating_stim/white_mw070.bmp'><br><font color='red'><strong>Keep</strong></font></div></div></div>","null","ARRAY","1","trustrating_stim/white_mw070.bmp","0","noMatchOutcome","i","1500","","","","",""
"html-keyboard-response","77","1042665","0.0-7.0-3.8","63eafad399e87039254d1078","bdp_wmem","Tue Mar 14 2023 12:16:23 GMT-0600 (Central Standard Time)","1421940","Match,No Match","","null","","","","","","<div class='trialBorder'><div class='vertical-center'><img src='img/fixation2_sml.jpg'</img></div></div>","null","DELAY","","","","","","","","","","",""
"html-keyboard-response","78","1043565","0.0-7.0-4.8","63eafad399e87039254d1078","bdp_wmem","Tue Mar 14 2023 12:16:23 GMT-0600 (Central Standard Time)","1421940","Match,No Match","","898","","","","","","<div class='trialBorder'><div class='targDiv'><div class='tc'><img class='introPic' src='trustrating_stim/white_mw070.bmp'><br><font color='green'><strong>Share</strong></font></div></div><div class='respDiv'><div class='respDivL'>Match<br>(e)</div><div class='respDivR'>No Match<br>(i)</div></div></div>","i","TARGET","1","trustrating_stim/white_mw070.bmp","0","noMatchOutcome","i","1500","trustrating_stim/white_mw070.bmp","green","Share","REAL","1"
"html-keyboard-response","79","1044068","0.0-7.0-5.8","63eafad399e87039254d1078","bdp_wmem","Tue Mar 14 2023 12:16:23 GMT-0600 (Central Standard Time)","1421940","Match,No Match","","null","","","","","","<div class='trialBorder'><div class='vertical-center'><img src='img/correct.jpg'></div><div class='respDiv'><div class='respDivL'>Match<br>(e)</div><div class='respDivR'><font style='color:orange'>No Match<br>(i)</font></div></div></div>","null","FEEDBACK","","","","","","","","","","",""
"html-keyboard-response","80","1044569","0.0-7.0-1.9","63eafad399e87039254d1078","bdp_wmem","Tue Mar 14 2023 12:16:23 GMT-0600 (Central Standard Time)","1421940","Match,No Match","","null","","","","","","<div class='trialBorder'><div class='vertical-center'><img src='img/fixation2_sml.jpg'</img></div></div>","null","FIX","","","","","","","","","","",""
"html-keyboard-response","81","1049075","0.0-7.0-2.9","63eafad399e87039254d1078","bdp_wmem","Tue Mar 14 2023 12:16:23 GMT-0600 (Central Standard Time)","1421940","Match,No Match","","null","","","","","","<div class='trialBorder'><div class='vertical-center'><img style='vertical-align:center; align:center' src='img/fixation2_sml.jpg'></div><div class='arrayDiv3'><div class='tl'><img class='introPic' src='trustrating_stim/white_mw003.bmp'><br><font color='green'><strong>Share</strong></font></div><div class='tc'><img class='introPic' src='trustrating_stim/white_mw042.bmp'><br><font color='red'><strong>Keep</strong></font></div><div class='tr'><img class='introPic' src='trustrating_stim/white_mw013.bmp'><br><font color='red'><strong>Keep</strong></font></div></div></div>","null","ARRAY","3","trustrating_stim/white_mw003.bmp,trustrating_stim/white_mw042.bmp,trustrating_stim/white_mw013.bmp","1,0,0","noMatchOutcome","i","4500","","","","",""
"html-keyboard-response","82","1053077","0.0-7.0-3.9","63eafad399e87039254d1078","bdp_wmem","Tue Mar 14 2023 12:16:23 GMT-0600 (Central Standard Time)","1421940","Match,No Match","","null","","","","","","<div class='trialBorder'><div class='vertical-center'><img src='img/fixation2_sml.jpg'</img></div></div>","null","DELAY","","","","","","","","","","",""
"html-keyboard-response","83","1054870","0.0-7.0-4.9","63eafad399e87039254d1078","bdp_wmem","Tue Mar 14 2023 12:16:23 GMT-0600 (Central Standard Time)","1421940","Match,No Match","","1792","","","","","","<div class='trialBorder'><div class='targDiv'><div class='tc'><img class='introPic' src='trustrating_stim/white_mw013.bmp'><br><font color='green'><strong>Share</strong></font></div></div><div class='respDiv'><div class='respDivL'>Match<br>(e)</div><div class='respDivR'>No Match<br>(i)</div></div></div>","i","TARGET","3","trustrating_stim/white_mw003.bmp,trustrating_stim/white_mw042.bmp,trustrating_stim/white_mw013.bmp","1,0,0","noMatchOutcome","i","4500","trustrating_stim/white_mw013.bmp","green","Share","REAL","1"
"html-keyboard-response","84","1055372","0.0-7.0-5.9","63eafad399e87039254d1078","bdp_wmem","Tue Mar 14 2023 12:16:23 GMT-0600 (Central Standard Time)","1421940","Match,No Match","","null","","","","","","<div class='trialBorder'><div class='vertical-center'><img src='img/correct.jpg'></div><div class='respDiv'><div class='respDivL'>Match<br>(e)</div><div class='respDivR'><font style='color:orange'>No Match<br>(i)</font></div></div></div>","null","FEEDBACK","","","","","","","","","","",""
"html-keyboard-response","85","1055874","0.0-7.0-1.10","63eafad399e87039254d1078","bdp_wmem","Tue Mar 14 2023 12:16:23 GMT-0600 (Central Standard Time)","1421940","Match,No Match","","null","","","","","","<div class='trialBorder'><div class='vertical-center'><img src='img/fixation2_sml.jpg'</img></div></div>","null","FIX","","","","","","","","","","",""
"html-keyboard-response","86","1060387","0.0-7.0-2.10","63eafad399e87039254d1078","bdp_wmem","Tue Mar 14 2023 12:16:23 GMT-0600 (Central Standard Time)","1421940","Match,No Match","","null","","","","","","<div class='trialBorder'><div class='vertical-center'><img style='vertical-align:center; align:center' src='img/fixation2_sml.jpg'></div><div class='arrayDiv3'><div class='tl'><img class='introPic' src='trustrating_stim/white_mw013.bmp'><br><font color='green'><strong>Share</strong></font></div><div class='tc'><img class='introPic' src='trustrating_stim/white_mw012.bmp'><br><font color='red'><strong>Keep</strong></font></div><div class='tr'><img class='introPic' src='trustrating_stim/white_mw092.bmp'><br><font color='red'><strong>Keep</strong></font></div></div></div>","null","ARRAY","3","trustrating_stim/white_mw013.bmp,trustrating_stim/white_mw012.bmp,trustrating_stim/white_mw092.bmp","1,0,0","Match","e","4500","","","","",""
"html-keyboard-response","87","1064389","0.0-7.0-3.10","63eafad399e87039254d1078","bdp_wmem","Tue Mar 14 2023 12:16:23 GMT-0600 (Central Standard Time)","1421940","Match,No Match","","null","","","","","","<div class='trialBorder'><div class='vertical-center'><img src='img/fixation2_sml.jpg'</img></div></div>","null","DELAY","","","","","","","","","","",""
"html-keyboard-response","88","1066206","0.0-7.0-4.10","63eafad399e87039254d1078","bdp_wmem","Tue Mar 14 2023 12:16:23 GMT-0600 (Central Standard Time)","1421940","Match,No Match","","1816","","","","","","<div class='trialBorder'><div class='targDiv'><div class='tc'><img class='introPic' src='trustrating_stim/white_mw012.bmp'><br><font color='red'><strong>Keep</strong></font></div></div><div class='respDiv'><div class='respDivL'>Match<br>(e)</div><div class='respDivR'>No Match<br>(i)</div></div></div>","e","TARGET","3","trustrating_stim/white_mw013.bmp,trustrating_stim/white_mw012.bmp,trustrating_stim/white_mw092.bmp","1,0,0","Match","e","4500","trustrating_stim/white_mw012.bmp","red","Keep","REAL","1"
"html-keyboard-response","89","1066708","0.0-7.0-5.10","63eafad399e87039254d1078","bdp_wmem","Tue Mar 14 2023 12:16:23 GMT-0600 (Central Standard Time)","1421940","Match,No Match","","null","","","","","","<div class='trialBorder'><div class='vertical-center'><img src='img/correct.jpg'></div><div class='respDiv'><div class='respDivL'><font style='color:orange'>Match<br>(e)</font></div><div class='respDivR'>No Match<br>(i)</div></div></div>","null","FEEDBACK","","","","","","","","","","",""
"html-keyboard-response","90","1067210","0.0-7.0-1.11","63eafad399e87039254d1078","bdp_wmem","Tue Mar 14 2023 12:16:23 GMT-0600 (Central Standard Time)","1421940","Match,No Match","","null","","","","","","<div class='trialBorder'><div class='vertical-center'><img src='img/fixation2_sml.jpg'</img></div></div>","null","FIX","","","","","","","","","","",""
"html-keyboard-response","91","1068712","0.0-7.0-2.11","63eafad399e87039254d1078","bdp_wmem","Tue Mar 14 2023 12:16:23 GMT-0600 (Central Standard Time)","1421940","Match,No Match","","null","","","","","","<div class='trialBorder'><div class='vertical-center'><img style='vertical-align:center; align:center' src='img/fixation2_sml.jpg'></div><div class='arrayDiv1'><div class='tc'><img class='introPic' src='trustrating_stim/white_mw070.bmp'><br><font color='green'><strong>Share</strong></font></div></div></div>","null","ARRAY","1","trustrating_stim/white_mw070.bmp","1","noMatchOutcome","i","1500","","","","",""
"html-keyboard-response","92","1072714","0.0-7.0-3.11","63eafad399e87039254d1078","bdp_wmem","Tue Mar 14 2023 12:16:23 GMT-0600 (Central Standard Time)","1421940","Match,No Match","","null","","","","","","<div class='trialBorder'><div class='vertical-center'><img src='img/fixation2_sml.jpg'</img></div></div>","null","DELAY","","","","","","","","","","",""
"html-keyboard-response","93","1073685","0.0-7.0-4.11","63eafad399e87039254d1078","bdp_wmem","Tue Mar 14 2023 12:16:23 GMT-0600 (Central Standard Time)","1421940","Match,No Match","","970","","","","","","<div class='trialBorder'><div class='targDiv'><div class='tc'><img class='introPic' src='trustrating_stim/white_mw070.bmp'><br><font color='red'><strong>Keep</strong></font></div></div><div class='respDiv'><div class='respDivL'>Match<br>(e)</div><div class='respDivR'>No Match<br>(i)</div></div></div>","i","TARGET","1","trustrating_stim/white_mw070.bmp","1","noMatchOutcome","i","1500","trustrating_stim/white_mw070.bmp","red","Keep","REAL","1"
"html-keyboard-response","94","1074187","0.0-7.0-5.11","63eafad399e87039254d1078","bdp_wmem","Tue Mar 14 2023 12:16:23 GMT-0600 (Central Standard Time)","1421940","Match,No Match","","null","","","","","","<div class='trialBorder'><div class='vertical-center'><img src='img/correct.jpg'></div><div class='respDiv'><div class='respDivL'>Match<br>(e)</div><div class='respDivR'><font style='color:orange'>No Match<br>(i)</font></div></div></div>","null","FEEDBACK","","","","","","","","","","",""
"html-keyboard-response","95","1074689","0.0-7.0-1.12","63eafad399e87039254d1078","bdp_wmem","Tue Mar 14 2023 12:16:23 GMT-0600 (Central Standard Time)","1421940","Match,No Match","","null","","","","","","<div class='trialBorder'><div class='vertical-center'><img src='img/fixation2_sml.jpg'</img></div></div>","null","FIX","","","","","","","","","","",""
"html-keyboard-response","96","1077690","0.0-7.0-2.12","63eafad399e87039254d1078","bdp_wmem","Tue Mar 14 2023 12:16:23 GMT-0600 (Central Standard Time)","1421940","Match,No Match","","null","","","","","","<div class='trialBorder'><div class='vertical-center'><img style='vertical-align:center; align:center' src='img/fixation2_sml.jpg'></div><div class='arrayDiv2'><div class='tl'><img class='introPic' src='trustrating_stim/white_mw003.bmp'><br><font color='red'><strong>Keep</strong></font></div><div class='tr'><img class='introPic' src='trustrating_stim/white_mw091.bmp'><br><font color='green'><strong>Share</strong></font></div></div></div>","null","ARRAY","2","trustrating_stim/white_mw003.bmp,trustrating_stim/white_mw091.bmp","0,1","noMatchFace","i","3000","","","","",""
"html-keyboard-response","97","1081692","0.0-7.0-3.12","63eafad399e87039254d1078","bdp_wmem","Tue Mar 14 2023 12:16:23 GMT-0600 (Central Standard Time)","1421940","Match,No Match","","null","","","","","","<div class='trialBorder'><div class='vertical-center'><img src='img/fixation2_sml.jpg'</img></div></div>","null","DELAY","","","","","","","","","","",""
"html-keyboard-response","98","1084269","0.0-7.0-4.12","63eafad399e87039254d1078","bdp_wmem","Tue Mar 14 2023 12:16:23 GMT-0600 (Central Standard Time)","1421940","Match,No Match","","2575","","","","","","<div class='trialBorder'><div class='targDiv'><div class='tc'><img class='introPic' src='trustrating_stim/white_mw040.bmp'><br><font color='red'><strong>Keep</strong></font></div></div><div class='respDiv'><div class='respDivL'>Match<br>(e)</div><div class='respDivR'>No Match<br>(i)</div></div></div>","i","TARGET","2","trustrating_stim/white_mw003.bmp,trustrating_stim/white_mw091.bmp","0,1","noMatchFace","i","3000","trustrating_stim/white_mw040.bmp","red","Keep","REAL","1"
"html-keyboard-response","99","1084770","0.0-7.0-5.12","63eafad399e87039254d1078","bdp_wmem","Tue Mar 14 2023 12:16:23 GMT-0600 (Central Standard Time)","1421940","Match,No Match","","null","","","","","","<div class='trialBorder'><div class='vertical-center'><img src='img/correct.jpg'></div><div class='respDiv'><div class='respDivL'>Match<br>(e)</div><div class='respDivR'><font style='color:orange'>No Match<br>(i)</font></div></div></div>","null","FEEDBACK","","","","","","","","","","",""
"html-keyboard-response","100","1085273","0.0-7.0-1.13","63eafad399e87039254d1078","bdp_wmem","Tue Mar 14 2023 12:16:23 GMT-0600 (Central Standard Time)","1421940","Match,No Match","","null","","","","","","<div class='trialBorder'><div class='vertical-center'><img src='img/fixation2_sml.jpg'</img></div></div>","null","FIX","","","","","","","","","","",""
"html-keyboard-response","101","1086776","0.0-7.0-2.13","63eafad399e87039254d1078","bdp_wmem","Tue Mar 14 2023 12:16:23 GMT-0600 (Central Standard Time)","1421940","Match,No Match","","null","","","","","","<div class='trialBorder'><div class='vertical-center'><img style='vertical-align:center; align:center' src='img/fixation2_sml.jpg'></div><div class='arrayDiv1'><div class='tc'><img class='introPic' src='trustrating_stim/white_mw078.bmp'><br><font color='red'><strong>Keep</strong></font></div></div></div>","null","ARRAY","1","trustrating_stim/white_mw078.bmp","0","Match","e","1500","","","","",""
"html-keyboard-response","102","1090778","0.0-7.0-3.13","63eafad399e87039254d1078","bdp_wmem","Tue Mar 14 2023 12:16:23 GMT-0600 (Central Standard Time)","1421940","Match,No Match","","null","","","","","","<div class='trialBorder'><div class='vertical-center'><img src='img/fixation2_sml.jpg'</img></div></div>","null","DELAY","","","","","","","","","","",""
"html-keyboard-response","103","1092086","0.0-7.0-4.13","63eafad399e87039254d1078","bdp_wmem","Tue Mar 14 2023 12:16:23 GMT-0600 (Central Standard Time)","1421940","Match,No Match","","1306","","","","","","<div class='trialBorder'><div class='targDiv'><div class='tc'><img class='introPic' src='trustrating_stim/white_mw078.bmp'><br><font color='red'><strong>Keep</strong></font></div></div><div class='respDiv'><div class='respDivL'>Match<br>(e)</div><div class='respDivR'>No Match<br>(i)</div></div></div>","e","TARGET","1","trustrating_stim/white_mw078.bmp","0","Match","e","1500","trustrating_stim/white_mw078.bmp","red","Keep","REAL","1"
"html-keyboard-response","104","1092589","0.0-7.0-5.13","63eafad399e87039254d1078","bdp_wmem","Tue Mar 14 2023 12:16:23 GMT-0600 (Central Standard Time)","1421940","Match,No Match","","null","","","","","","<div class='trialBorder'><div class='vertical-center'><img src='img/correct.jpg'></div><div class='respDiv'><div class='respDivL'><font style='color:orange'>Match<br>(e)</font></div><div class='respDivR'>No Match<br>(i)</div></div></div>","null","FEEDBACK","","","","","","","","","","",""
"html-keyboard-response","105","1093110","0.0-7.0-1.14","63eafad399e87039254d1078","bdp_wmem","Tue Mar 14 2023 12:16:23 GMT-0600 (Central Standard Time)","1421940","Match,No Match","","null","","","","","","<div class='trialBorder'><div class='vertical-center'><img src='img/fixation2_sml.jpg'</img></div></div>","null","FIX","","","","","","","","","","",""
"html-keyboard-response","106","1096113","0.0-7.0-2.14","63eafad399e87039254d1078","bdp_wmem","Tue Mar 14 2023 12:16:23 GMT-0600 (Central Standard Time)","1421940","Match,No Match","","null","","","","","","<div class='trialBorder'><div class='vertical-center'><img style='vertical-align:center; align:center' src='img/fixation2_sml.jpg'></div><div class='arrayDiv2'><div class='tl'><img class='introPic' src='trustrating_stim/white_mw078.bmp'><br><font color='green'><strong>Share</strong></font></div><div class='tr'><img class='introPic' src='trustrating_stim/white_mw003.bmp'><br><font color='red'><strong>Keep</strong></font></div></div></div>","null","ARRAY","2","trustrating_stim/white_mw078.bmp,trustrating_stim/white_mw003.bmp","1,0","Match","e","3000","","","","",""
"html-keyboard-response","107","1100116","0.0-7.0-3.14","63eafad399e87039254d1078","bdp_wmem","Tue Mar 14 2023 12:16:23 GMT-0600 (Central Standard Time)","1421940","Match,No Match","","null","","","","","","<div class='trialBorder'><div class='vertical-center'><img src='img/fixation2_sml.jpg'</img></div></div>","null","DELAY","","","","","","","","","","",""
"html-keyboard-response","108","1101702","0.0-7.0-4.14","63eafad399e87039254d1078","bdp_wmem","Tue Mar 14 2023 12:16:23 GMT-0600 (Central Standard Time)","1421940","Match,No Match","","1584","","","","","","<div class='trialBorder'><div class='targDiv'><div class='tc'><img class='introPic' src='trustrating_stim/white_mw003.bmp'><br><font color='red'><strong>Keep</strong></font></div></div><div class='respDiv'><div class='respDivL'>Match<br>(e)</div><div class='respDivR'>No Match<br>(i)</div></div></div>","e","TARGET","2","trustrating_stim/white_mw078.bmp,trustrating_stim/white_mw003.bmp","1,0","Match","e","3000","trustrating_stim/white_mw003.bmp","red","Keep","REAL","1"
"html-keyboard-response","109","1102211","0.0-7.0-5.14","63eafad399e87039254d1078","bdp_wmem","Tue Mar 14 2023 12:16:23 GMT-0600 (Central Standard Time)","1421940","Match,No Match","","null","","","","","","<div class='trialBorder'><div class='vertical-center'><img src='img/correct.jpg'></div><div class='respDiv'><div class='respDivL'><font style='color:orange'>Match<br>(e)</font></div><div class='respDivR'>No Match<br>(i)</div></div></div>","null","FEEDBACK","","","","","","","","","","",""
"html-keyboard-response","110","1102712","0.0-7.0-1.15","63eafad399e87039254d1078","bdp_wmem","Tue Mar 14 2023 12:16:23 GMT-0600 (Central Standard Time)","1421940","Match,No Match","","null","","","","","","<div class='trialBorder'><div class='vertical-center'><img src='img/fixation2_sml.jpg'</img></div></div>","null","FIX","","","","","","","","","","",""
"html-keyboard-response","111","1105713","0.0-7.0-2.15","63eafad399e87039254d1078","bdp_wmem","Tue Mar 14 2023 12:16:23 GMT-0600 (Central Standard Time)","1421940","Match,No Match","","null","","","","","","<div class='trialBorder'><div class='vertical-center'><img style='vertical-align:center; align:center' src='img/fixation2_sml.jpg'></div><div class='arrayDiv2'><div class='tl'><img class='introPic' src='trustrating_stim/white_mw042.bmp'><br><font color='green'><strong>Share</strong></font></div><div class='tr'><img class='introPic' src='trustrating_stim/white_mw085.bmp'><br><font color='red'><strong>Keep</strong></font></div></div></div>","null","ARRAY","2","trustrating_stim/white_mw042.bmp,trustrating_stim/white_mw085.bmp","1,0","noMatchOutcome","i","3000","","","","",""
"html-keyboard-response","112","1109716","0.0-7.0-3.15","63eafad399e87039254d1078","bdp_wmem","Tue Mar 14 2023 12:16:23 GMT-0600 (Central Standard Time)","1421940","Match,No Match","","null","","","","","","<div class='trialBorder'><div class='vertical-center'><img src='img/fixation2_sml.jpg'</img></div></div>","null","DELAY","","","","","","","","","","",""
"html-keyboard-response","113","1111798","0.0-7.0-4.15","63eafad399e87039254d1078","bdp_wmem","Tue Mar 14 2023 12:16:23 GMT-0600 (Central Standard Time)","1421940","Match,No Match","","2081","","","","","","<div class='trialBorder'><div class='targDiv'><div class='tc'><img class='introPic' src='trustrating_stim/white_mw042.bmp'><br><font color='red'><strong>Keep</strong></font></div></div><div class='respDiv'><div class='respDivL'>Match<br>(e)</div><div class='respDivR'>No Match<br>(i)</div></div></div>","e","TARGET","2","trustrating_stim/white_mw042.bmp,trustrating_stim/white_mw085.bmp","1,0","noMatchOutcome","i","3000","trustrating_stim/white_mw042.bmp","red","Keep","REAL","0"
"html-keyboard-response","114","1112300","0.0-7.0-5.15","63eafad399e87039254d1078","bdp_wmem","Tue Mar 14 2023 12:16:23 GMT-0600 (Central Standard Time)","1421940","Match,No Match","","null","","","","","","<div class='trialBorder'><div class='vertical-center'><img src='img/error.jpg'></div><div class='respDiv'><div class='respDivL'><font style='color:orange'>Match<br>(e)</font></div><div class='respDivR'>No Match<br>(i)</div></div></div>","null","FEEDBACK","","","","","","","","","","",""
"html-keyboard-response","115","1112803","0.0-7.0-1.16","63eafad399e87039254d1078","bdp_wmem","Tue Mar 14 2023 12:16:23 GMT-0600 (Central Standard Time)","1421940","Match,No Match","","null","","","","","","<div class='trialBorder'><div class='vertical-center'><img src='img/fixation2_sml.jpg'</img></div></div>","null","FIX","","","","","","","","","","",""
"html-keyboard-response","116","1114306","0.0-7.0-2.16","63eafad399e87039254d1078","bdp_wmem","Tue Mar 14 2023 12:16:23 GMT-0600 (Central Standard Time)","1421940","Match,No Match","","null","","","","","","<div class='trialBorder'><div class='vertical-center'><img style='vertical-align:center; align:center' src='img/fixation2_sml.jpg'></div><div class='arrayDiv1'><div class='tc'><img class='introPic' src='trustrating_stim/white_mw070.bmp'><br><font color='green'><strong>Share</strong></font></div></div></div>","null","ARRAY","1","trustrating_stim/white_mw070.bmp","1","Match","e","1500","","","","",""
"html-keyboard-response","117","1118308","0.0-7.0-3.16","63eafad399e87039254d1078","bdp_wmem","Tue Mar 14 2023 12:16:23 GMT-0600 (Central Standard Time)","1421940","Match,No Match","","null","","","","","","<div class='trialBorder'><div class='vertical-center'><img src='img/fixation2_sml.jpg'</img></div></div>","null","DELAY","","","","","","","","","","",""
"html-keyboard-response","118","1119061","0.0-7.0-4.16","63eafad399e87039254d1078","bdp_wmem","Tue Mar 14 2023 12:16:23 GMT-0600 (Central Standard Time)","1421940","Match,No Match","","751","","","","","","<div class='trialBorder'><div class='targDiv'><div class='tc'><img class='introPic' src='trustrating_stim/white_mw070.bmp'><br><font color='green'><strong>Share</strong></font></div></div><div class='respDiv'><div class='respDivL'>Match<br>(e)</div><div class='respDivR'>No Match<br>(i)</div></div></div>","e","TARGET","1","trustrating_stim/white_mw070.bmp","1","Match","e","1500","trustrating_stim/white_mw070.bmp","green","Share","REAL","1"
"html-keyboard-response","119","1119563","0.0-7.0-5.16","63eafad399e87039254d1078","bdp_wmem","Tue Mar 14 2023 12:16:23 GMT-0600 (Central Standard Time)","1421940","Match,No Match","","null","","","","","","<div class='trialBorder'><div class='vertical-center'><img src='img/correct.jpg'></div><div class='respDiv'><div class='respDivL'><font style='color:orange'>Match<br>(e)</font></div><div class='respDivR'>No Match<br>(i)</div></div></div>","null","FEEDBACK","","","","","","","","","","",""
"html-keyboard-response","120","1120065","0.0-7.0-1.17","63eafad399e87039254d1078","bdp_wmem","Tue Mar 14 2023 12:16:23 GMT-0600 (Central Standard Time)","1421940","Match,No Match","","null","","","","","","<div class='trialBorder'><div class='vertical-center'><img src='img/fixation2_sml.jpg'</img></div></div>","null","FIX","","","","","","","","","","",""
"html-keyboard-response","121","1121568","0.0-7.0-2.17","63eafad399e87039254d1078","bdp_wmem","Tue Mar 14 2023 12:16:23 GMT-0600 (Central Standard Time)","1421940","Match,No Match","","null","","","","","","<div class='trialBorder'><div class='vertical-center'><img style='vertical-align:center; align:center' src='img/fixation2_sml.jpg'></div><div class='arrayDiv1'><div class='tc'><img class='introPic' src='trustrating_stim/white_mw092.bmp'><br><font color='red'><strong>Keep</strong></font></div></div></div>","null","ARRAY","1","trustrating_stim/white_mw092.bmp","0","noMatchOutcome","i","1500","","","","",""
"html-keyboard-response","122","1125570","0.0-7.0-3.17","63eafad399e87039254d1078","bdp_wmem","Tue Mar 14 2023 12:16:23 GMT-0600 (Central Standard Time)","1421940","Match,No Match","","null","","","","","","<div class='trialBorder'><div class='vertical-center'><img src='img/fixation2_sml.jpg'</img></div></div>","null","DELAY","","","","","","","","","","",""
"html-keyboard-response","123","1126710","0.0-7.0-4.17","63eafad399e87039254d1078","bdp_wmem","Tue Mar 14 2023 12:16:23 GMT-0600 (Central Standard Time)","1421940","Match,No Match","","1138","","","","","","<div class='trialBorder'><div class='targDiv'><div class='tc'><img class='introPic' src='trustrating_stim/white_mw092.bmp'><br><font color='green'><strong>Share</strong></font></div></div><div class='respDiv'><div class='respDivL'>Match<br>(e)</div><div class='respDivR'>No Match<br>(i)</div></div></div>","e","TARGET","1","trustrating_stim/white_mw092.bmp","0","noMatchOutcome","i","1500","trustrating_stim/white_mw092.bmp","green","Share","REAL","0"
"html-keyboard-response","124","1127211","0.0-7.0-5.17","63eafad399e87039254d1078","bdp_wmem","Tue Mar 14 2023 12:16:23 GMT-0600 (Central Standard Time)","1421940","Match,No Match","","null","","","","","","<div class='trialBorder'><div class='vertical-center'><img src='img/error.jpg'></div><div class='respDiv'><div class='respDivL'><font style='color:orange'>Match<br>(e)</font></div><div class='respDivR'>No Match<br>(i)</div></div></div>","null","FEEDBACK","","","","","","","","","","",""
"html-keyboard-response","125","1127713","0.0-7.0-1.18","63eafad399e87039254d1078","bdp_wmem","Tue Mar 14 2023 12:16:23 GMT-0600 (Central Standard Time)","1421940","Match,No Match","","null","","","","","","<div class='trialBorder'><div class='vertical-center'><img src='img/fixation2_sml.jpg'</img></div></div>","null","FIX","","","","","","","","","","",""
"html-keyboard-response","126","1130717","0.0-7.0-2.18","63eafad399e87039254d1078","bdp_wmem","Tue Mar 14 2023 12:16:23 GMT-0600 (Central Standard Time)","1421940","Match,No Match","","null","","","","","","<div class='trialBorder'><div class='vertical-center'><img style='vertical-align:center; align:center' src='img/fixation2_sml.jpg'></div><div class='arrayDiv2'><div class='tl'><img class='introPic' src='trustrating_stim/white_mw003.bmp'><br><font color='red'><strong>Keep</strong></font></div><div class='tr'><img class='introPic' src='trustrating_stim/white_mw091.bmp'><br><font color='green'><strong>Share</strong></font></div></div></div>","null","ARRAY","2","trustrating_stim/white_mw003.bmp,trustrating_stim/white_mw091.bmp","0,1","noMatchFace","i","3000","","","","",""
"html-keyboard-response","127","1134718","0.0-7.0-3.18","63eafad399e87039254d1078","bdp_wmem","Tue Mar 14 2023 12:16:23 GMT-0600 (Central Standard Time)","1421940","Match,No Match","","null","","","","","","<div class='trialBorder'><div class='vertical-center'><img src='img/fixation2_sml.jpg'</img></div></div>","null","DELAY","","","","","","","","","","",""
"html-keyboard-response","128","1135677","0.0-7.0-4.18","63eafad399e87039254d1078","bdp_wmem","Tue Mar 14 2023 12:16:23 GMT-0600 (Central Standard Time)","1421940","Match,No Match","","956","","","","","","<div class='trialBorder'><div class='targDiv'><div class='tc'><img class='introPic' src='trustrating_stim/white_mw010.bmp'><br><font color='red'><strong>Keep</strong></font></div></div><div class='respDiv'><div class='respDivL'>Match<br>(e)</div><div class='respDivR'>No Match<br>(i)</div></div></div>","i","TARGET","2","trustrating_stim/white_mw003.bmp,trustrating_stim/white_mw091.bmp","0,1","noMatchFace","i","3000","trustrating_stim/white_mw010.bmp","red","Keep","REAL","1"
"html-keyboard-response","129","1136180","0.0-7.0-5.18","63eafad399e87039254d1078","bdp_wmem","Tue Mar 14 2023 12:16:23 GMT-0600 (Central Standard Time)","1421940","Match,No Match","","null","","","","","","<div class='trialBorder'><div class='vertical-center'><img src='img/correct.jpg'></div><div class='respDiv'><div class='respDivL'>Match<br>(e)</div><div class='respDivR'><font style='color:orange'>No Match<br>(i)</font></div></div></div>","null","FEEDBACK","","","","","","","","","","",""
"html-keyboard-response","130","1136682","0.0-7.0-1.19","63eafad399e87039254d1078","bdp_wmem","Tue Mar 14 2023 12:16:23 GMT-0600 (Central Standard Time)","1421940","Match,No Match","","null","","","","","","<div class='trialBorder'><div class='vertical-center'><img src='img/fixation2_sml.jpg'</img></div></div>","null","FIX","","","","","","","","","","",""
"html-keyboard-response","131","1139685","0.0-7.0-2.19","63eafad399e87039254d1078","bdp_wmem","Tue Mar 14 2023 12:16:23 GMT-0600 (Central Standard Time)","1421940","Match,No Match","","null","","","","","","<div class='trialBorder'><div class='vertical-center'><img style='vertical-align:center; align:center' src='img/fixation2_sml.jpg'></div><div class='arrayDiv2'><div class='tl'><img class='introPic' src='trustrating_stim/white_mw091.bmp'><br><font color='red'><strong>Keep</strong></font></div><div class='tr'><img class='introPic' src='trustrating_stim/white_mw085.bmp'><br><font color='green'><strong>Share</strong></font></div></div></div>","null","ARRAY","2","trustrating_stim/white_mw091.bmp,trustrating_stim/white_mw085.bmp","0,1","noMatchOutcome","i","3000","","","","",""
"html-keyboard-response","132","1143686","0.0-7.0-3.19","63eafad399e87039254d1078","bdp_wmem","Tue Mar 14 2023 12:16:23 GMT-0600 (Central Standard Time)","1421940","Match,No Match","","null","","","","","","<div class='trialBorder'><div class='vertical-center'><img src='img/fixation2_sml.jpg'</img></div></div>","null","DELAY","","","","","","","","","","",""
"html-keyboard-response","133","1144837","0.0-7.0-4.19","63eafad399e87039254d1078","bdp_wmem","Tue Mar 14 2023 12:16:23 GMT-0600 (Central Standard Time)","1421940","Match,No Match","","1150","","","","","","<div class='trialBorder'><div class='targDiv'><div class='tc'><img class='introPic' src='trustrating_stim/white_mw091.bmp'><br><font color='green'><strong>Share</strong></font></div></div><div class='respDiv'><div class='respDivL'>Match<br>(e)</div><div class='respDivR'>No Match<br>(i)</div></div></div>","i","TARGET","2","trustrating_stim/white_mw091.bmp,trustrating_stim/white_mw085.bmp","0,1","noMatchOutcome","i","3000","trustrating_stim/white_mw091.bmp","green","Share","REAL","1"
"html-keyboard-response","134","1145339","0.0-7.0-5.19","63eafad399e87039254d1078","bdp_wmem","Tue Mar 14 2023 12:16:23 GMT-0600 (Central Standard Time)","1421940","Match,No Match","","null","","","","","","<div class='trialBorder'><div class='vertical-center'><img src='img/correct.jpg'></div><div class='respDiv'><div class='respDivL'>Match<br>(e)</div><div class='respDivR'><font style='color:orange'>No Match<br>(i)</font></div></div></div>","null","FEEDBACK","","","","","","","","","","",""
"html-keyboard-response","135","1145841","0.0-7.0-1.20","63eafad399e87039254d1078","bdp_wmem","Tue Mar 14 2023 12:16:23 GMT-0600 (Central Standard Time)","1421940","Match,No Match","","null","","","","","","<div class='trialBorder'><div class='vertical-center'><img src='img/fixation2_sml.jpg'</img></div></div>","null","FIX","","","","","","","","","","",""
"html-keyboard-response","136","1150343","0.0-7.0-2.20","63eafad399e87039254d1078","bdp_wmem","Tue Mar 14 2023 12:16:23 GMT-0600 (Central Standard Time)","1421940","Match,No Match","","null","","","","","","<div class='trialBorder'><div class='vertical-center'><img style='vertical-align:center; align:center' src='img/fixation2_sml.jpg'></div><div class='arrayDiv3'><div class='tl'><img class='introPic' src='trustrating_stim/white_mw042.bmp'><br><font color='red'><strong>Keep</strong></font></div><div class='tc'><img class='introPic' src='trustrating_stim/white_mw085.bmp'><br><font color='green'><strong>Share</strong></font></div><div class='tr'><img class='introPic' src='trustrating_stim/white_mw010.bmp'><br><font color='red'><strong>Keep</strong></font></div></div></div>","null","ARRAY","3","trustrating_stim/white_mw042.bmp,trustrating_stim/white_mw085.bmp,trustrating_stim/white_mw010.bmp","0,1,0","Match","e","4500","","","","",""
"html-keyboard-response","137","1154345","0.0-7.0-3.20","63eafad399e87039254d1078","bdp_wmem","Tue Mar 14 2023 12:16:23 GMT-0600 (Central Standard Time)","1421940","Match,No Match","","null","","","","","","<div class='trialBorder'><div class='vertical-center'><img src='img/fixation2_sml.jpg'</img></div></div>","null","DELAY","","","","","","","","","","",""
"html-keyboard-response","138","1155461","0.0-7.0-4.20","63eafad399e87039254d1078","bdp_wmem","Tue Mar 14 2023 12:16:23 GMT-0600 (Central Standard Time)","1421940","Match,No Match","","1114","","","","","","<div class='trialBorder'><div class='targDiv'><div class='tc'><img class='introPic' src='trustrating_stim/white_mw085.bmp'><br><font color='green'><strong>Share</strong></font></div></div><div class='respDiv'><div class='respDivL'>Match<br>(e)</div><div class='respDivR'>No Match<br>(i)</div></div></div>","e","TARGET","3","trustrating_stim/white_mw042.bmp,trustrating_stim/white_mw085.bmp,trustrating_stim/white_mw010.bmp","0,1,0","Match","e","4500","trustrating_stim/white_mw085.bmp","green","Share","REAL","1"
"html-keyboard-response","139","1155963","0.0-7.0-5.20","63eafad399e87039254d1078","bdp_wmem","Tue Mar 14 2023 12:16:23 GMT-0600 (Central Standard Time)","1421940","Match,No Match","","null","","","","","","<div class='trialBorder'><div class='vertical-center'><img src='img/correct.jpg'></div><div class='respDiv'><div class='respDivL'><font style='color:orange'>Match<br>(e)</font></div><div class='respDivR'>No Match<br>(i)</div></div></div>","null","FEEDBACK","","","","","","","","","","",""
"html-keyboard-response","140","1156465","0.0-7.0-1.21","63eafad399e87039254d1078","bdp_wmem","Tue Mar 14 2023 12:16:23 GMT-0600 (Central Standard Time)","1421940","Match,No Match","","null","","","","","","<div class='trialBorder'><div class='vertical-center'><img src='img/fixation2_sml.jpg'</img></div></div>","null","FIX","","","","","","","","","","",""
"html-keyboard-response","141","1157982","0.0-7.0-2.21","63eafad399e87039254d1078","bdp_wmem","Tue Mar 14 2023 12:16:23 GMT-0600 (Central Standard Time)","1421940","Match,No Match","","null","","","","","","<div class='trialBorder'><div class='vertical-center'><img style='vertical-align:center; align:center' src='img/fixation2_sml.jpg'></div><div class='arrayDiv1'><div class='tc'><img class='introPic' src='trustrating_stim/white_mw042.bmp'><br><font color='red'><strong>Keep</strong></font></div></div></div>","null","ARRAY","1","trustrating_stim/white_mw042.bmp","0","noMatchFace","i","1500","","","","",""
"html-keyboard-response","142","1161984","0.0-7.0-3.21","63eafad399e87039254d1078","bdp_wmem","Tue Mar 14 2023 12:16:23 GMT-0600 (Central Standard Time)","1421940","Match,No Match","","null","","","","","","<div class='trialBorder'><div class='vertical-center'><img src='img/fixation2_sml.jpg'</img></div></div>","null","DELAY","","","","","","","","","","",""
"html-keyboard-response","143","1162973","0.0-7.0-4.21","63eafad399e87039254d1078","bdp_wmem","Tue Mar 14 2023 12:16:23 GMT-0600 (Central Standard Time)","1421940","Match,No Match","","987","","","","","","<div class='trialBorder'><div class='targDiv'><div class='tc'><img class='introPic' src='trustrating_stim/white_mw091.bmp'><br><font color='red'><strong>Keep</strong></font></div></div><div class='respDiv'><div class='respDivL'>Match<br>(e)</div><div class='respDivR'>No Match<br>(i)</div></div></div>","i","TARGET","1","trustrating_stim/white_mw042.bmp","0","noMatchFace","i","1500","trustrating_stim/white_mw091.bmp","red","Keep","REAL","1"
"html-keyboard-response","144","1163475","0.0-7.0-5.21","63eafad399e87039254d1078","bdp_wmem","Tue Mar 14 2023 12:16:23 GMT-0600 (Central Standard Time)","1421940","Match,No Match","","null","","","","","","<div class='trialBorder'><div class='vertical-center'><img src='img/correct.jpg'></div><div class='respDiv'><div class='respDivL'>Match<br>(e)</div><div class='respDivR'><font style='color:orange'>No Match<br>(i)</font></div></div></div>","null","FEEDBACK","","","","","","","","","","",""
"html-keyboard-response","145","1163976","0.0-7.0-1.22","63eafad399e87039254d1078","bdp_wmem","Tue Mar 14 2023 12:16:23 GMT-0600 (Central Standard Time)","1421940","Match,No Match","","null","","","","","","<div class='trialBorder'><div class='vertical-center'><img src='img/fixation2_sml.jpg'</img></div></div>","null","FIX","","","","","","","","","","",""
"html-keyboard-response","146","1168480","0.0-7.0-2.22","63eafad399e87039254d1078","bdp_wmem","Tue Mar 14 2023 12:16:23 GMT-0600 (Central Standard Time)","1421940","Match,No Match","","null","","","","","","<div class='trialBorder'><div class='vertical-center'><img style='vertical-align:center; align:center' src='img/fixation2_sml.jpg'></div><div class='arrayDiv3'><div class='tl'><img class='introPic' src='trustrating_stim/white_mw085.bmp'><br><font color='red'><strong>Keep</strong></font></div><div class='tc'><img class='introPic' src='trustrating_stim/white_mw013.bmp'><br><font color='green'><strong>Share</strong></font></div><div class='tr'><img class='introPic' src='trustrating_stim/white_mw038.bmp'><br><font color='green'><strong>Share</strong></font></div></div></div>","null","ARRAY","3","trustrating_stim/white_mw085.bmp,trustrating_stim/white_mw013.bmp,trustrating_stim/white_mw038.bmp","0,1,1","noMatchOutcome","i","4500","","","","",""
"html-keyboard-response","147","1172482","0.0-7.0-3.22","63eafad399e87039254d1078","bdp_wmem","Tue Mar 14 2023 12:16:23 GMT-0600 (Central Standard Time)","1421940","Match,No Match","","null","","","","","","<div class='trialBorder'><div class='vertical-center'><img src='img/fixation2_sml.jpg'</img></div></div>","null","DELAY","","","","","","","","","","",""
"html-keyboard-response","148","1174093","0.0-7.0-4.22","63eafad399e87039254d1078","bdp_wmem","Tue Mar 14 2023 12:16:23 GMT-0600 (Central Standard Time)","1421940","Match,No Match","","1609","","","","","","<div class='trialBorder'><div class='targDiv'><div class='tc'><img class='introPic' src='trustrating_stim/white_mw038.bmp'><br><font color='red'><strong>Keep</strong></font></div></div><div class='respDiv'><div class='respDivL'>Match<br>(e)</div><div class='respDivR'>No Match<br>(i)</div></div></div>","i","TARGET","3","trustrating_stim/white_mw085.bmp,trustrating_stim/white_mw013.bmp,trustrating_stim/white_mw038.bmp","0,1,1","noMatchOutcome","i","4500","trustrating_stim/white_mw038.bmp","red","Keep","REAL","1"
"html-keyboard-response","149","1174594","0.0-7.0-5.22","63eafad399e87039254d1078","bdp_wmem","Tue Mar 14 2023 12:16:23 GMT-0600 (Central Standard Time)","1421940","Match,No Match","","null","","","","","","<div class='trialBorder'><div class='vertical-center'><img src='img/correct.jpg'></div><div class='respDiv'><div class='respDivL'>Match<br>(e)</div><div class='respDivR'><font style='color:orange'>No Match<br>(i)</font></div></div></div>","null","FEEDBACK","","","","","","","","","","",""
"html-keyboard-response","150","1175096","0.0-7.0-1.23","63eafad399e87039254d1078","bdp_wmem","Tue Mar 14 2023 12:16:23 GMT-0600 (Central Standard Time)","1421940","Match,No Match","","null","","","","","","<div class='trialBorder'><div class='vertical-center'><img src='img/fixation2_sml.jpg'</img></div></div>","null","FIX","","","","","","","","","","",""
"html-keyboard-response","151","1178098","0.0-7.0-2.23","63eafad399e87039254d1078","bdp_wmem","Tue Mar 14 2023 12:16:23 GMT-0600 (Central Standard Time)","1421940","Match,No Match","","null","","","","","","<div class='trialBorder'><div class='vertical-center'><img style='vertical-align:center; align:center' src='img/fixation2_sml.jpg'></div><div class='arrayDiv2'><div class='tl'><img class='introPic' src='trustrating_stim/white_mw040.bmp'><br><font color='green'><strong>Share</strong></font></div><div class='tr'><img class='introPic' src='trustrating_stim/white_mw085.bmp'><br><font color='red'><strong>Keep</strong></font></div></div></div>","null","ARRAY","2","trustrating_stim/white_mw040.bmp,trustrating_stim/white_mw085.bmp","1,0","Match","e","3000","","","","",""
"html-keyboard-response","152","1182099","0.0-7.0-3.23","63eafad399e87039254d1078","bdp_wmem","Tue Mar 14 2023 12:16:23 GMT-0600 (Central Standard Time)","1421940","Match,No Match","","null","","","","","","<div class='trialBorder'><div class='vertical-center'><img src='img/fixation2_sml.jpg'</img></div></div>","null","DELAY","","","","","","","","","","",""
"html-keyboard-response","153","1183709","0.0-7.0-4.23","63eafad399e87039254d1078","bdp_wmem","Tue Mar 14 2023 12:16:23 GMT-0600 (Central Standard Time)","1421940","Match,No Match","","1608","","","","","","<div class='trialBorder'><div class='targDiv'><div class='tc'><img class='introPic' src='trustrating_stim/white_mw085.bmp'><br><font color='red'><strong>Keep</strong></font></div></div><div class='respDiv'><div class='respDivL'>Match<br>(e)</div><div class='respDivR'>No Match<br>(i)</div></div></div>","e","TARGET","2","trustrating_stim/white_mw040.bmp,trustrating_stim/white_mw085.bmp","1,0","Match","e","3000","trustrating_stim/white_mw085.bmp","red","Keep","REAL","1"
"html-keyboard-response","154","1184210","0.0-7.0-5.23","63eafad399e87039254d1078","bdp_wmem","Tue Mar 14 2023 12:16:23 GMT-0600 (Central Standard Time)","1421940","Match,No Match","","null","","","","","","<div class='trialBorder'><div class='vertical-center'><img src='img/correct.jpg'></div><div class='respDiv'><div class='respDivL'><font style='color:orange'>Match<br>(e)</font></div><div class='respDivR'>No Match<br>(i)</div></div></div>","null","FEEDBACK","","","","","","","","","","",""
"html-keyboard-response","155","1184713","0.0-7.0-1.24","63eafad399e87039254d1078","bdp_wmem","Tue Mar 14 2023 12:16:23 GMT-0600 (Central Standard Time)","1421940","Match,No Match","","null","","","","","","<div class='trialBorder'><div class='vertical-center'><img src='img/fixation2_sml.jpg'</img></div></div>","null","FIX","","","","","","","","","","",""
"html-keyboard-response","156","1187714","0.0-7.0-2.24","63eafad399e87039254d1078","bdp_wmem","Tue Mar 14 2023 12:16:23 GMT-0600 (Central Standard Time)","1421940","Match,No Match","","null","","","","","","<div class='trialBorder'><div class='vertical-center'><img style='vertical-align:center; align:center' src='img/fixation2_sml.jpg'></div><div class='arrayDiv2'><div class='tl'><img class='introPic' src='trustrating_stim/white_mw042.bmp'><br><font color='green'><strong>Share</strong></font></div><div class='tr'><img class='introPic' src='trustrating_stim/white_mw070.bmp'><br><font color='red'><strong>Keep</strong></font></div></div></div>","null","ARRAY","2","trustrating_stim/white_mw042.bmp,trustrating_stim/white_mw070.bmp","1,0","Match","e","3000","","","","",""
"html-keyboard-response","157","1191717","0.0-7.0-3.24","63eafad399e87039254d1078","bdp_wmem","Tue Mar 14 2023 12:16:23 GMT-0600 (Central Standard Time)","1421940","Match,No Match","","null","","","","","","<div class='trialBorder'><div class='vertical-center'><img src='img/fixation2_sml.jpg'</img></div></div>","null","DELAY","","","","","","","","","","",""
"html-keyboard-response","158","1192917","0.0-7.0-4.24","63eafad399e87039254d1078","bdp_wmem","Tue Mar 14 2023 12:16:23 GMT-0600 (Central Standard Time)","1421940","Match,No Match","","1199","","","","","","<div class='trialBorder'><div class='targDiv'><div class='tc'><img class='introPic' src='trustrating_stim/white_mw042.bmp'><br><font color='green'><strong>Share</strong></font></div></div><div class='respDiv'><div class='respDivL'>Match<br>(e)</div><div class='respDivR'>No Match<br>(i)</div></div></div>","i","TARGET","2","trustrating_stim/white_mw042.bmp,trustrating_stim/white_mw070.bmp","1,0","Match","e","3000","trustrating_stim/white_mw042.bmp","green","Share","REAL","0"
"html-keyboard-response","159","1193418","0.0-7.0-5.24","63eafad399e87039254d1078","bdp_wmem","Tue Mar 14 2023 12:16:23 GMT-0600 (Central Standard Time)","1421940","Match,No Match","","null","","","","","","<div class='trialBorder'><div class='vertical-center'><img src='img/error.jpg'></div><div class='respDiv'><div class='respDivL'>Match<br>(e)</div><div class='respDivR'><font style='color:orange'>No Match<br>(i)</font></div></div></div>","null","FEEDBACK","","","","","","","","","","",""
"html-keyboard-response","160","1193920","0.0-7.0-1.25","63eafad399e87039254d1078","bdp_wmem","Tue Mar 14 2023 12:16:23 GMT-0600 (Central Standard Time)","1421940","Match,No Match","","null","","","","","","<div class='trialBorder'><div class='vertical-center'><img src='img/fixation2_sml.jpg'</img></div></div>","null","FIX","","","","","","","","","","",""
"html-keyboard-response","161","1198423","0.0-7.0-2.25","63eafad399e87039254d1078","bdp_wmem","Tue Mar 14 2023 12:16:23 GMT-0600 (Central Standard Time)","1421940","Match,No Match","","null","","","","","","<div class='trialBorder'><div class='vertical-center'><img style='vertical-align:center; align:center' src='img/fixation2_sml.jpg'></div><div class='arrayDiv3'><div class='tl'><img class='introPic' src='trustrating_stim/white_mw038.bmp'><br><font color='red'><strong>Keep</strong></font></div><div class='tc'><img class='introPic' src='trustrating_stim/white_mw092.bmp'><br><font color='red'><strong>Keep</strong></font></div><div class='tr'><img class='introPic' src='trustrating_stim/white_mw070.bmp'><br><font color='green'><strong>Share</strong></font></div></div></div>","null","ARRAY","3","trustrating_stim/white_mw038.bmp,trustrating_stim/white_mw092.bmp,trustrating_stim/white_mw070.bmp","0,0,1","Match","e","4500","","","","",""
"html-keyboard-response","162","1202425","0.0-7.0-3.25","63eafad399e87039254d1078","bdp_wmem","Tue Mar 14 2023 12:16:23 GMT-0600 (Central Standard Time)","1421940","Match,No Match","","null","","","","","","<div class='trialBorder'><div class='vertical-center'><img src='img/fixation2_sml.jpg'</img></div></div>","null","DELAY","","","","","","","","","","",""
"html-keyboard-response","163","1204125","0.0-7.0-4.25","63eafad399e87039254d1078","bdp_wmem","Tue Mar 14 2023 12:16:23 GMT-0600 (Central Standard Time)","1421940","Match,No Match","","1698","","","","","","<div class='trialBorder'><div class='targDiv'><div class='tc'><img class='introPic' src='trustrating_stim/white_mw070.bmp'><br><font color='green'><strong>Share</strong></font></div></div><div class='respDiv'><div class='respDivL'>Match<br>(e)</div><div class='respDivR'>No Match<br>(i)</div></div></div>","e","TARGET","3","trustrating_stim/white_mw038.bmp,trustrating_stim/white_mw092.bmp,trustrating_stim/white_mw070.bmp","0,0,1","Match","e","4500","trustrating_stim/white_mw070.bmp","green","Share","REAL","1"
"html-keyboard-response","164","1204626","0.0-7.0-5.25","63eafad399e87039254d1078","bdp_wmem","Tue Mar 14 2023 12:16:23 GMT-0600 (Central Standard Time)","1421940","Match,No Match","","null","","","","","","<div class='trialBorder'><div class='vertical-center'><img src='img/correct.jpg'></div><div class='respDiv'><div class='respDivL'><font style='color:orange'>Match<br>(e)</font></div><div class='respDivR'>No Match<br>(i)</div></div></div>","null","FEEDBACK","","","","","","","","","","",""
"html-keyboard-response","165","1205128","0.0-7.0-1.26","63eafad399e87039254d1078","bdp_wmem","Tue Mar 14 2023 12:16:23 GMT-0600 (Central Standard Time)","1421940","Match,No Match","","null","","","","","","<div class='trialBorder'><div class='vertical-center'><img src='img/fixation2_sml.jpg'</img></div></div>","null","FIX","","","","","","","","","","",""
"html-keyboard-response","166","1208130","0.0-7.0-2.26","63eafad399e87039254d1078","bdp_wmem","Tue Mar 14 2023 12:16:23 GMT-0600 (Central Standard Time)","1421940","Match,No Match","","null","","","","","","<div class='trialBorder'><div class='vertical-center'><img style='vertical-align:center; align:center' src='img/fixation2_sml.jpg'></div><div class='arrayDiv2'><div class='tl'><img class='introPic' src='trustrating_stim/white_mw091.bmp'><br><font color='green'><strong>Share</strong></font></div><div class='tr'><img class='introPic' src='trustrating_stim/white_mw070.bmp'><br><font color='red'><strong>Keep</strong></font></div></div></div>","null","ARRAY","2","trustrating_stim/white_mw091.bmp,trustrating_stim/white_mw070.bmp","1,0","noMatchFace","i","3000","","","","",""
"html-keyboard-response","167","1212132","0.0-7.0-3.26","63eafad399e87039254d1078","bdp_wmem","Tue Mar 14 2023 12:16:23 GMT-0600 (Central Standard Time)","1421940","Match,No Match","","null","","","","","","<div class='trialBorder'><div class='vertical-center'><img src='img/fixation2_sml.jpg'</img></div></div>","null","DELAY","","","","","","","","","","",""
"html-keyboard-response","168","1212837","0.0-7.0-4.26","63eafad399e87039254d1078","bdp_wmem","Tue Mar 14 2023 12:16:23 GMT-0600 (Central Standard Time)","1421940","Match,No Match","","703","","","","","","<div class='trialBorder'><div class='targDiv'><div class='tc'><img class='introPic' src='trustrating_stim/white_mw010.bmp'><br><font color='red'><strong>Keep</strong></font></div></div><div class='respDiv'><div class='respDivL'>Match<br>(e)</div><div class='respDivR'>No Match<br>(i)</div></div></div>","i","TARGET","2","trustrating_stim/white_mw091.bmp,trustrating_stim/white_mw070.bmp","1,0","noMatchFace","i","3000","trustrating_stim/white_mw010.bmp","red","Keep","REAL","1"
"html-keyboard-response","169","1213338","0.0-7.0-5.26","63eafad399e87039254d1078","bdp_wmem","Tue Mar 14 2023 12:16:23 GMT-0600 (Central Standard Time)","1421940","Match,No Match","","null","","","","","","<div class='trialBorder'><div class='vertical-center'><img src='img/correct.jpg'></div><div class='respDiv'><div class='respDivL'>Match<br>(e)</div><div class='respDivR'><font style='color:orange'>No Match<br>(i)</font></div></div></div>","null","FEEDBACK","","","","","","","","","","",""
"html-keyboard-response","170","1213839","0.0-7.0-1.27","63eafad399e87039254d1078","bdp_wmem","Tue Mar 14 2023 12:16:23 GMT-0600 (Central Standard Time)","1421940","Match,No Match","","null","","","","","","<div class='trialBorder'><div class='vertical-center'><img src='img/fixation2_sml.jpg'</img></div></div>","null","FIX","","","","","","","","","","",""
"html-keyboard-response","171","1218348","0.0-7.0-2.27","63eafad399e87039254d1078","bdp_wmem","Tue Mar 14 2023 12:16:23 GMT-0600 (Central Standard Time)","1421940","Match,No Match","","null","","","","","","<div class='trialBorder'><div class='vertical-center'><img style='vertical-align:center; align:center' src='img/fixation2_sml.jpg'></div><div class='arrayDiv3'><div class='tl'><img class='introPic' src='trustrating_stim/white_mw038.bmp'><br><font color='red'><strong>Keep</strong></font></div><div class='tc'><img class='introPic' src='trustrating_stim/white_mw012.bmp'><br><font color='green'><strong>Share</strong></font></div><div class='tr'><img class='introPic' src='trustrating_stim/white_mw010.bmp'><br><font color='green'><strong>Share</strong></font></div></div></div>","null","ARRAY","3","trustrating_stim/white_mw038.bmp,trustrating_stim/white_mw012.bmp,trustrating_stim/white_mw010.bmp","0,1,1","noMatchOutcome","i","4500","","","","",""
"html-keyboard-response","172","1222351","0.0-7.0-3.27","63eafad399e87039254d1078","bdp_wmem","Tue Mar 14 2023 12:16:23 GMT-0600 (Central Standard Time)","1421940","Match,No Match","","null","","","","","","<div class='trialBorder'><div class='vertical-center'><img src='img/fixation2_sml.jpg'</img></div></div>","null","DELAY","","","","","","","","","","",""
"html-keyboard-response","173","1224470","0.0-7.0-4.27","63eafad399e87039254d1078","bdp_wmem","Tue Mar 14 2023 12:16:23 GMT-0600 (Central Standard Time)","1421940","Match,No Match","","2115","","","","","","<div class='trialBorder'><div class='targDiv'><div class='tc'><img class='introPic' src='trustrating_stim/white_mw012.bmp'><br><font color='red'><strong>Keep</strong></font></div></div><div class='respDiv'><div class='respDivL'>Match<br>(e)</div><div class='respDivR'>No Match<br>(i)</div></div></div>","i","TARGET","3","trustrating_stim/white_mw038.bmp,trustrating_stim/white_mw012.bmp,trustrating_stim/white_mw010.bmp","0,1,1","noMatchOutcome","i","4500","trustrating_stim/white_mw012.bmp","red","Keep","REAL","1"
"html-keyboard-response","174","1224972","0.0-7.0-5.27","63eafad399e87039254d1078","bdp_wmem","Tue Mar 14 2023 12:16:23 GMT-0600 (Central Standard Time)","1421940","Match,No Match","","null","","","","","","<div class='trialBorder'><div class='vertical-center'><img src='img/correct.jpg'></div><div class='respDiv'><div class='respDivL'>Match<br>(e)</div><div class='respDivR'><font style='color:orange'>No Match<br>(i)</font></div></div></div>","null","FEEDBACK","","","","","","","","","","",""
"html-keyboard-response","175","1225474","0.0-7.0-1.28","63eafad399e87039254d1078","bdp_wmem","Tue Mar 14 2023 12:16:23 GMT-0600 (Central Standard Time)","1421940","Match,No Match","","null","","","","","","<div class='trialBorder'><div class='vertical-center'><img src='img/fixation2_sml.jpg'</img></div></div>","null","FIX","","","","","","","","","","",""
"html-keyboard-response","176","1226976","0.0-7.0-2.28","63eafad399e87039254d1078","bdp_wmem","Tue Mar 14 2023 12:16:23 GMT-0600 (Central Standard Time)","1421940","Match,No Match","","null","","","","","","<div class='trialBorder'><div class='vertical-center'><img style='vertical-align:center; align:center' src='img/fixation2_sml.jpg'></div><div class='arrayDiv1'><div class='tc'><img class='introPic' src='trustrating_stim/white_mw013.bmp'><br><font color='green'><strong>Share</strong></font></div></div></div>","null","ARRAY","1","trustrating_stim/white_mw013.bmp","1","noMatchOutcome","i","1500","","","","",""
"html-keyboard-response","177","1230978","0.0-7.0-3.28","63eafad399e87039254d1078","bdp_wmem","Tue Mar 14 2023 12:16:23 GMT-0600 (Central Standard Time)","1421940","Match,No Match","","null","","","","","","<div class='trialBorder'><div class='vertical-center'><img src='img/fixation2_sml.jpg'</img></div></div>","null","DELAY","","","","","","","","","","",""
"html-keyboard-response","178","1233141","0.0-7.0-4.28","63eafad399e87039254d1078","bdp_wmem","Tue Mar 14 2023 12:16:23 GMT-0600 (Central Standard Time)","1421940","Match,No Match","","2160","","","","","","<div class='trialBorder'><div class='targDiv'><div class='tc'><img class='introPic' src='trustrating_stim/white_mw013.bmp'><br><font color='red'><strong>Keep</strong></font></div></div><div class='respDiv'><div class='respDivL'>Match<br>(e)</div><div class='respDivR'>No Match<br>(i)</div></div></div>","i","TARGET","1","trustrating_stim/white_mw013.bmp","1","noMatchOutcome","i","1500","trustrating_stim/white_mw013.bmp","red","Keep","REAL","1"
"html-keyboard-response","179","1233642","0.0-7.0-5.28","63eafad399e87039254d1078","bdp_wmem","Tue Mar 14 2023 12:16:23 GMT-0600 (Central Standard Time)","1421940","Match,No Match","","null","","","","","","<div class='trialBorder'><div class='vertical-center'><img src='img/correct.jpg'></div><div class='respDiv'><div class='respDivL'>Match<br>(e)</div><div class='respDivR'><font style='color:orange'>No Match<br>(i)</font></div></div></div>","null","FEEDBACK","","","","","","","","","","",""
"html-keyboard-response","180","1234143","0.0-7.0-1.29","63eafad399e87039254d1078","bdp_wmem","Tue Mar 14 2023 12:16:23 GMT-0600 (Central Standard Time)","1421940","Match,No Match","","null","","","","","","<div class='trialBorder'><div class='vertical-center'><img src='img/fixation2_sml.jpg'</img></div></div>","null","FIX","","","","","","","","","","",""
"html-keyboard-response","181","1238646","0.0-7.0-2.29","63eafad399e87039254d1078","bdp_wmem","Tue Mar 14 2023 12:16:23 GMT-0600 (Central Standard Time)","1421940","Match,No Match","","null","","","","","","<div class='trialBorder'><div class='vertical-center'><img style='vertical-align:center; align:center' src='img/fixation2_sml.jpg'></div><div class='arrayDiv3'><div class='tl'><img class='introPic' src='trustrating_stim/white_mw092.bmp'><br><font color='green'><strong>Share</strong></font></div><div class='tc'><img class='introPic' src='trustrating_stim/white_mw078.bmp'><br><font color='red'><strong>Keep</strong></font></div><div class='tr'><img class='introPic' src='trustrating_stim/white_mw038.bmp'><br><font color='red'><strong>Keep</strong></font></div></div></div>","null","ARRAY","3","trustrating_stim/white_mw092.bmp,trustrating_stim/white_mw078.bmp,trustrating_stim/white_mw038.bmp","1,0,0","Match","e","4500","","","","",""
"html-keyboard-response","182","1242648","0.0-7.0-3.29","63eafad399e87039254d1078","bdp_wmem","Tue Mar 14 2023 12:16:23 GMT-0600 (Central Standard Time)","1421940","Match,No Match","","null","","","","","","<div class='trialBorder'><div class='vertical-center'><img src='img/fixation2_sml.jpg'</img></div></div>","null","DELAY","","","","","","","","","","",""
"html-keyboard-response","183","1244085","0.0-7.0-4.29","63eafad399e87039254d1078","bdp_wmem","Tue Mar 14 2023 12:16:23 GMT-0600 (Central Standard Time)","1421940","Match,No Match","","1435","","","","","","<div class='trialBorder'><div class='targDiv'><div class='tc'><img class='introPic' src='trustrating_stim/white_mw092.bmp'><br><font color='green'><strong>Share</strong></font></div></div><div class='respDiv'><div class='respDivL'>Match<br>(e)</div><div class='respDivR'>No Match<br>(i)</div></div></div>","e","TARGET","3","trustrating_stim/white_mw092.bmp,trustrating_stim/white_mw078.bmp,trustrating_stim/white_mw038.bmp","1,0,0","Match","e","4500","trustrating_stim/white_mw092.bmp","green","Share","REAL","1"
"html-keyboard-response","184","1244587","0.0-7.0-5.29","63eafad399e87039254d1078","bdp_wmem","Tue Mar 14 2023 12:16:23 GMT-0600 (Central Standard Time)","1421940","Match,No Match","","null","","","","","","<div class='trialBorder'><div class='vertical-center'><img src='img/correct.jpg'></div><div class='respDiv'><div class='respDivL'><font style='color:orange'>Match<br>(e)</font></div><div class='respDivR'>No Match<br>(i)</div></div></div>","null","FEEDBACK","","","","","","","","","","",""
"html-keyboard-response","185","1245089","0.0-7.0-1.30","63eafad399e87039254d1078","bdp_wmem","Tue Mar 14 2023 12:16:23 GMT-0600 (Central Standard Time)","1421940","Match,No Match","","null","","","","","","<div class='trialBorder'><div class='vertical-center'><img src='img/fixation2_sml.jpg'</img></div></div>","null","FIX","","","","","","","","","","",""
"html-keyboard-response","186","1249591","0.0-7.0-2.30","63eafad399e87039254d1078","bdp_wmem","Tue Mar 14 2023 12:16:23 GMT-0600 (Central Standard Time)","1421940","Match,No Match","","null","","","","","","<div class='trialBorder'><div class='vertical-center'><img style='vertical-align:center; align:center' src='img/fixation2_sml.jpg'></div><div class='arrayDiv3'><div class='tl'><img class='introPic' src='trustrating_stim/white_mw013.bmp'><br><font color='red'><strong>Keep</strong></font></div><div class='tc'><img class='introPic' src='trustrating_stim/white_mw091.bmp'><br><font color='green'><strong>Share</strong></font></div><div class='tr'><img class='introPic' src='trustrating_stim/white_mw070.bmp'><br><font color='red'><strong>Keep</strong></font></div></div></div>","null","ARRAY","3","trustrating_stim/white_mw013.bmp,trustrating_stim/white_mw091.bmp,trustrating_stim/white_mw070.bmp","0,1,0","Match","e","4500","","","","",""
"html-keyboard-response","187","1253593","0.0-7.0-3.30","63eafad399e87039254d1078","bdp_wmem","Tue Mar 14 2023 12:16:23 GMT-0600 (Central Standard Time)","1421940","Match,No Match","","null","","","","","","<div class='trialBorder'><div class='vertical-center'><img src='img/fixation2_sml.jpg'</img></div></div>","null","DELAY","","","","","","","","","","",""
"html-keyboard-response","188","1254629","0.0-7.0-4.30","63eafad399e87039254d1078","bdp_wmem","Tue Mar 14 2023 12:16:23 GMT-0600 (Central Standard Time)","1421940","Match,No Match","","1035","","","","","","<div class='trialBorder'><div class='targDiv'><div class='tc'><img class='introPic' src='trustrating_stim/white_mw091.bmp'><br><font color='green'><strong>Share</strong></font></div></div><div class='respDiv'><div class='respDivL'>Match<br>(e)</div><div class='respDivR'>No Match<br>(i)</div></div></div>","e","TARGET","3","trustrating_stim/white_mw013.bmp,trustrating_stim/white_mw091.bmp,trustrating_stim/white_mw070.bmp","0,1,0","Match","e","4500","trustrating_stim/white_mw091.bmp","green","Share","REAL","1"
