"trial_type","trial_index","time_elapsed","internal_node_id","subject_id","task","startTime","totalTime","labels","view_history","rt","event","trial","time","trialtype","success","stimulus","key_press","stimType","arraySize","arrayFaces","arrayOutcomes","matchType","corrResp","arrayDur","targFace","targCol","targOutcome","trialType","corr"
"pavlovia","0","5","0.0-0.0","610c736500a4b33398fef94f","bdp_wmem","Sat Apr 08 2023 11:59:40 GMT-0400 (Eastern Daylight Time)","565457","Match,No Match","","","","","","","","","","","","","","","","","","","","",""
"instructions","1","2322","0.0-1.0","610c736500a4b33398fef94f","bdp_wmem","Sat Apr 08 2023 11:59:40 GMT-0400 (Eastern Daylight Time)","565457","Match,No Match","[{""page_index"":0,""viewing_time"":2316}]","2316","","","","","","","","","","","","","","","","","","",""
"","","","","610c736500a4b33398fef94f","bdp_wmem","Sat Apr 08 2023 11:59:40 GMT-0400 (Eastern Daylight Time)","565457","Match,No Match","","","fullscreenenter","2","4377","fullscreenenter","","","","","","","","","","","","","","",""
"fullscreen","2","5365","0.0-2.0","610c736500a4b33398fef94f","bdp_wmem","Sat Apr 08 2023 11:59:40 GMT-0400 (Eastern Daylight Time)","565457","Match,No Match","","","","","","","true","","","","","","","","","","","","","",""
"instructions","3","55187","0.0-4.0","610c736500a4b33398fef94f","bdp_wmem","Sat Apr 08 2023 11:59:40 GMT-0400 (Eastern Daylight Time)","565457","Match,No Match","[{""page_index"":0,""viewing_time"":10978},{""page_index"":1,""viewing_time"":18808},{""page_index"":2,""viewing_time"":11644},{""page_index"":3,""viewing_time"":3990},{""page_index"":4,""viewing_time"":4400}]","49820","","","","","","","","","","","","","","","","","","",""
"html-keyboard-response","4","55691","0.0-5.0-1.0","610c736500a4b33398fef94f","bdp_wmem","Sat Apr 08 2023 11:59:40 GMT-0400 (Eastern Daylight Time)","565457","Match,No Match","","null","","","","","","<div class='trialBorder'><div class='vertical-center'><img src='img/fixation2_sml.jpg'</img></div></div>","null","FIX","","","","","","","","","","",""
"html-keyboard-response","5","58695","0.0-5.0-2.0","610c736500a4b33398fef94f","bdp_wmem","Sat Apr 08 2023 11:59:40 GMT-0400 (Eastern Daylight Time)","565457","Match,No Match","","null","","","","","","<div class='trialBorder'><div class='vertical-center'><img style='vertical-align:center; align:center' src='img/fixation2_sml.jpg'></div><div class='arrayDiv2'><div class='tl'><img class='introPic' src='trustrating_stim/white_mw013.bmp'><br><font color='green'><strong>Share</strong></font></div><div class='tr'><img class='introPic' src='trustrating_stim/white_mw070.bmp'><br><font color='red'><strong>Keep</strong></font></div></div></div>","null","ARRAY","2","trustrating_stim/white_mw013.bmp,trustrating_stim/white_mw070.bmp","1,0","noMatchFace","i","3000","","","","",""
"html-keyboard-response","6","62697","0.0-5.0-3.0","610c736500a4b33398fef94f","bdp_wmem","Sat Apr 08 2023 11:59:40 GMT-0400 (Eastern Daylight Time)","565457","Match,No Match","","null","","","","","","<div class='trialBorder'><div class='vertical-center'><img src='img/fixation2_sml.jpg'</img></div></div>","null","DELAY","","","","","","","","","","",""
"html-keyboard-response","7","66780","0.0-5.0-4.0","610c736500a4b33398fef94f","bdp_wmem","Sat Apr 08 2023 11:59:40 GMT-0400 (Eastern Daylight Time)","565457","Match,No Match","","4079","","","","","","<div class='trialBorder'><div class='targDiv'><div class='tc'><img class='introPic' src='trustrating_stim/white_mw042.bmp'><br><font color='red'><strong>Keep</strong></font></div></div><div class='respDiv'><div class='respDivL'>Match<br>(e)</div><div class='respDivR'>No Match<br>(i)</div></div></div>","e","TARGET","2","trustrating_stim/white_mw013.bmp,trustrating_stim/white_mw070.bmp","1,0","noMatchFace","i","3000","trustrating_stim/white_mw042.bmp","red","Keep","PRACTICE","0"
"html-keyboard-response","8","67282","0.0-5.0-5.0","610c736500a4b33398fef94f","bdp_wmem","Sat Apr 08 2023 11:59:40 GMT-0400 (Eastern Daylight Time)","565457","Match,No Match","","null","","","","","","<div class='trialBorder'><div class='vertical-center'><img src='img/error.jpg'></div><div class='respDiv'><div class='respDivL'><font style='color:orange'>Match<br>(e)</font></div><div class='respDivR'>No Match<br>(i)</div></div></div>","null","FEEDBACK","","","","","","","","","","",""
"html-keyboard-response","9","67786","0.0-5.0-1.1","610c736500a4b33398fef94f","bdp_wmem","Sat Apr 08 2023 11:59:40 GMT-0400 (Eastern Daylight Time)","565457","Match,No Match","","null","","","","","","<div class='trialBorder'><div class='vertical-center'><img src='img/fixation2_sml.jpg'</img></div></div>","null","FIX","","","","","","","","","","",""
"html-keyboard-response","10","69289","0.0-5.0-2.1","610c736500a4b33398fef94f","bdp_wmem","Sat Apr 08 2023 11:59:40 GMT-0400 (Eastern Daylight Time)","565457","Match,No Match","","null","","","","","","<div class='trialBorder'><div class='vertical-center'><img style='vertical-align:center; align:center' src='img/fixation2_sml.jpg'></div><div class='arrayDiv1'><div class='tc'><img class='introPic' src='trustrating_stim/white_mw013.bmp'><br><font color='green'><strong>Share</strong></font></div></div></div>","null","ARRAY","1","trustrating_stim/white_mw013.bmp","1","Match","e","1500","","","","",""
"html-keyboard-response","11","73291","0.0-5.0-3.1","610c736500a4b33398fef94f","bdp_wmem","Sat Apr 08 2023 11:59:40 GMT-0400 (Eastern Daylight Time)","565457","Match,No Match","","null","","","","","","<div class='trialBorder'><div class='vertical-center'><img src='img/fixation2_sml.jpg'</img></div></div>","null","DELAY","","","","","","","","","","",""
"html-keyboard-response","12","74927","0.0-5.0-4.1","610c736500a4b33398fef94f","bdp_wmem","Sat Apr 08 2023 11:59:40 GMT-0400 (Eastern Daylight Time)","565457","Match,No Match","","1634","","","","","","<div class='trialBorder'><div class='targDiv'><div class='tc'><img class='introPic' src='trustrating_stim/white_mw013.bmp'><br><font color='green'><strong>Share</strong></font></div></div><div class='respDiv'><div class='respDivL'>Match<br>(e)</div><div class='respDivR'>No Match<br>(i)</div></div></div>","e","TARGET","1","trustrating_stim/white_mw013.bmp","1","Match","e","1500","trustrating_stim/white_mw013.bmp","green","Share","PRACTICE","1"
"html-keyboard-response","13","75430","0.0-5.0-5.1","610c736500a4b33398fef94f","bdp_wmem","Sat Apr 08 2023 11:59:40 GMT-0400 (Eastern Daylight Time)","565457","Match,No Match","","null","","","","","","<div class='trialBorder'><div class='vertical-center'><img src='img/correct.jpg'></div><div class='respDiv'><div class='respDivL'><font style='color:orange'>Match<br>(e)</font></div><div class='respDivR'>No Match<br>(i)</div></div></div>","null","FEEDBACK","","","","","","","","","","",""
"html-keyboard-response","14","75932","0.0-5.0-1.2","610c736500a4b33398fef94f","bdp_wmem","Sat Apr 08 2023 11:59:40 GMT-0400 (Eastern Daylight Time)","565457","Match,No Match","","null","","","","","","<div class='trialBorder'><div class='vertical-center'><img src='img/fixation2_sml.jpg'</img></div></div>","null","FIX","","","","","","","","","","",""
"html-keyboard-response","15","78935","0.0-5.0-2.2","610c736500a4b33398fef94f","bdp_wmem","Sat Apr 08 2023 11:59:40 GMT-0400 (Eastern Daylight Time)","565457","Match,No Match","","null","","","","","","<div class='trialBorder'><div class='vertical-center'><img style='vertical-align:center; align:center' src='img/fixation2_sml.jpg'></div><div class='arrayDiv2'><div class='tl'><img class='introPic' src='trustrating_stim/white_mw070.bmp'><br><font color='green'><strong>Share</strong></font></div><div class='tr'><img class='introPic' src='trustrating_stim/white_mw010.bmp'><br><font color='red'><strong>Keep</strong></font></div></div></div>","null","ARRAY","2","trustrating_stim/white_mw070.bmp,trustrating_stim/white_mw010.bmp","1,0","Match","e","3000","","","","",""
"html-keyboard-response","16","82937","0.0-5.0-3.2","610c736500a4b33398fef94f","bdp_wmem","Sat Apr 08 2023 11:59:40 GMT-0400 (Eastern Daylight Time)","565457","Match,No Match","","null","","","","","","<div class='trialBorder'><div class='vertical-center'><img src='img/fixation2_sml.jpg'</img></div></div>","null","DELAY","","","","","","","","","","",""
"html-keyboard-response","17","85648","0.0-5.0-4.2","610c736500a4b33398fef94f","bdp_wmem","Sat Apr 08 2023 11:59:40 GMT-0400 (Eastern Daylight Time)","565457","Match,No Match","","2710","","","","","","<div class='trialBorder'><div class='targDiv'><div class='tc'><img class='introPic' src='trustrating_stim/white_mw070.bmp'><br><font color='green'><strong>Share</strong></font></div></div><div class='respDiv'><div class='respDivL'>Match<br>(e)</div><div class='respDivR'>No Match<br>(i)</div></div></div>","e","TARGET","2","trustrating_stim/white_mw070.bmp,trustrating_stim/white_mw010.bmp","1,0","Match","e","3000","trustrating_stim/white_mw070.bmp","green","Share","PRACTICE","1"
"html-keyboard-response","18","86150","0.0-5.0-5.2","610c736500a4b33398fef94f","bdp_wmem","Sat Apr 08 2023 11:59:40 GMT-0400 (Eastern Daylight Time)","565457","Match,No Match","","null","","","","","","<div class='trialBorder'><div class='vertical-center'><img src='img/correct.jpg'></div><div class='respDiv'><div class='respDivL'><font style='color:orange'>Match<br>(e)</font></div><div class='respDivR'>No Match<br>(i)</div></div></div>","null","FEEDBACK","","","","","","","","","","",""
"html-keyboard-response","19","86652","0.0-5.0-1.3","610c736500a4b33398fef94f","bdp_wmem","Sat Apr 08 2023 11:59:40 GMT-0400 (Eastern Daylight Time)","565457","Match,No Match","","null","","","","","","<div class='trialBorder'><div class='vertical-center'><img src='img/fixation2_sml.jpg'</img></div></div>","null","FIX","","","","","","","","","","",""
"html-keyboard-response","20","88155","0.0-5.0-2.3","610c736500a4b33398fef94f","bdp_wmem","Sat Apr 08 2023 11:59:40 GMT-0400 (Eastern Daylight Time)","565457","Match,No Match","","null","","","","","","<div class='trialBorder'><div class='vertical-center'><img style='vertical-align:center; align:center' src='img/fixation2_sml.jpg'></div><div class='arrayDiv1'><div class='tc'><img class='introPic' src='trustrating_stim/white_mw010.bmp'><br><font color='red'><strong>Keep</strong></font></div></div></div>","null","ARRAY","1","trustrating_stim/white_mw010.bmp","0","noMatchFace","i","1500","","","","",""
"html-keyboard-response","21","92156","0.0-5.0-3.3","610c736500a4b33398fef94f","bdp_wmem","Sat Apr 08 2023 11:59:40 GMT-0400 (Eastern Daylight Time)","565457","Match,No Match","","null","","","","","","<div class='trialBorder'><div class='vertical-center'><img src='img/fixation2_sml.jpg'</img></div></div>","null","DELAY","","","","","","","","","","",""
"html-keyboard-response","22","93269","0.0-5.0-4.3","610c736500a4b33398fef94f","bdp_wmem","Sat Apr 08 2023 11:59:40 GMT-0400 (Eastern Daylight Time)","565457","Match,No Match","","1111","","","","","","<div class='trialBorder'><div class='targDiv'><div class='tc'><img class='introPic' src='trustrating_stim/white_mw012.bmp'><br><font color='red'><strong>Keep</strong></font></div></div><div class='respDiv'><div class='respDivL'>Match<br>(e)</div><div class='respDivR'>No Match<br>(i)</div></div></div>","i","TARGET","1","trustrating_stim/white_mw010.bmp","0","noMatchFace","i","1500","trustrating_stim/white_mw012.bmp","red","Keep","PRACTICE","1"
"html-keyboard-response","23","93770","0.0-5.0-5.3","610c736500a4b33398fef94f","bdp_wmem","Sat Apr 08 2023 11:59:40 GMT-0400 (Eastern Daylight Time)","565457","Match,No Match","","null","","","","","","<div class='trialBorder'><div class='vertical-center'><img src='img/correct.jpg'></div><div class='respDiv'><div class='respDivL'>Match<br>(e)</div><div class='respDivR'><font style='color:orange'>No Match<br>(i)</font></div></div></div>","null","FEEDBACK","","","","","","","","","","",""
"html-keyboard-response","24","94272","0.0-5.0-1.4","610c736500a4b33398fef94f","bdp_wmem","Sat Apr 08 2023 11:59:40 GMT-0400 (Eastern Daylight Time)","565457","Match,No Match","","null","","","","","","<div class='trialBorder'><div class='vertical-center'><img src='img/fixation2_sml.jpg'</img></div></div>","null","FIX","","","","","","","","","","",""
"html-keyboard-response","25","98773","0.0-5.0-2.4","610c736500a4b33398fef94f","bdp_wmem","Sat Apr 08 2023 11:59:40 GMT-0400 (Eastern Daylight Time)","565457","Match,No Match","","null","","","","","","<div class='trialBorder'><div class='vertical-center'><img style='vertical-align:center; align:center' src='img/fixation2_sml.jpg'></div><div class='arrayDiv3'><div class='tl'><img class='introPic' src='trustrating_stim/white_mw092.bmp'><br><font color='red'><strong>Keep</strong></font></div><div class='tc'><img class='introPic' src='trustrating_stim/white_mw010.bmp'><br><font color='red'><strong>Keep</strong></font></div><div class='tr'><img class='introPic' src='trustrating_stim/white_mw085.bmp'><br><font color='green'><strong>Share</strong></font></div></div></div>","null","ARRAY","3","trustrating_stim/white_mw092.bmp,trustrating_stim/white_mw010.bmp,trustrating_stim/white_mw085.bmp","0,0,1","noMatchOutcome","i","4500","","","","",""
"html-keyboard-response","26","102775","0.0-5.0-3.4","610c736500a4b33398fef94f","bdp_wmem","Sat Apr 08 2023 11:59:40 GMT-0400 (Eastern Daylight Time)","565457","Match,No Match","","null","","","","","","<div class='trialBorder'><div class='vertical-center'><img src='img/fixation2_sml.jpg'</img></div></div>","null","DELAY","","","","","","","","","","",""
"html-keyboard-response","27","105292","0.0-5.0-4.4","610c736500a4b33398fef94f","bdp_wmem","Sat Apr 08 2023 11:59:40 GMT-0400 (Eastern Daylight Time)","565457","Match,No Match","","2515","","","","","","<div class='trialBorder'><div class='targDiv'><div class='tc'><img class='introPic' src='trustrating_stim/white_mw092.bmp'><br><font color='green'><strong>Share</strong></font></div></div><div class='respDiv'><div class='respDivL'>Match<br>(e)</div><div class='respDivR'>No Match<br>(i)</div></div></div>","i","TARGET","3","trustrating_stim/white_mw092.bmp,trustrating_stim/white_mw010.bmp,trustrating_stim/white_mw085.bmp","0,0,1","noMatchOutcome","i","4500","trustrating_stim/white_mw092.bmp","green","Share","PRACTICE","1"
"html-keyboard-response","28","105794","0.0-5.0-5.4","610c736500a4b33398fef94f","bdp_wmem","Sat Apr 08 2023 11:59:40 GMT-0400 (Eastern Daylight Time)","565457","Match,No Match","","null","","","","","","<div class='trialBorder'><div class='vertical-center'><img src='img/correct.jpg'></div><div class='respDiv'><div class='respDivL'>Match<br>(e)</div><div class='respDivR'><font style='color:orange'>No Match<br>(i)</font></div></div></div>","null","FEEDBACK","","","","","","","","","","",""
"html-keyboard-response","29","106295","0.0-5.0-1.5","610c736500a4b33398fef94f","bdp_wmem","Sat Apr 08 2023 11:59:40 GMT-0400 (Eastern Daylight Time)","565457","Match,No Match","","null","","","","","","<div class='trialBorder'><div class='vertical-center'><img src='img/fixation2_sml.jpg'</img></div></div>","null","FIX","","","","","","","","","","",""
"html-keyboard-response","30","110798","0.0-5.0-2.5","610c736500a4b33398fef94f","bdp_wmem","Sat Apr 08 2023 11:59:40 GMT-0400 (Eastern Daylight Time)","565457","Match,No Match","","null","","","","","","<div class='trialBorder'><div class='vertical-center'><img style='vertical-align:center; align:center' src='img/fixation2_sml.jpg'></div><div class='arrayDiv3'><div class='tl'><img class='introPic' src='trustrating_stim/white_mw092.bmp'><br><font color='green'><strong>Share</strong></font></div><div class='tc'><img class='introPic' src='trustrating_stim/white_mw042.bmp'><br><font color='red'><strong>Keep</strong></font></div><div class='tr'><img class='introPic' src='trustrating_stim/white_mw003.bmp'><br><font color='green'><strong>Share</strong></font></div></div></div>","null","ARRAY","3","trustrating_stim/white_mw092.bmp,trustrating_stim/white_mw042.bmp,trustrating_stim/white_mw003.bmp","1,0,1","Match","e","4500","","","","",""
"html-keyboard-response","31","114800","0.0-5.0-3.5","610c736500a4b33398fef94f","bdp_wmem","Sat Apr 08 2023 11:59:40 GMT-0400 (Eastern Daylight Time)","565457","Match,No Match","","null","","","","","","<div class='trialBorder'><div class='vertical-center'><img src='img/fixation2_sml.jpg'</img></div></div>","null","DELAY","","","","","","","","","","",""
"html-keyboard-response","32","116380","0.0-5.0-4.5","610c736500a4b33398fef94f","bdp_wmem","Sat Apr 08 2023 11:59:40 GMT-0400 (Eastern Daylight Time)","565457","Match,No Match","","1579","","","","","","<div class='trialBorder'><div class='targDiv'><div class='tc'><img class='introPic' src='trustrating_stim/white_mw092.bmp'><br><font color='green'><strong>Share</strong></font></div></div><div class='respDiv'><div class='respDivL'>Match<br>(e)</div><div class='respDivR'>No Match<br>(i)</div></div></div>","i","TARGET","3","trustrating_stim/white_mw092.bmp,trustrating_stim/white_mw042.bmp,trustrating_stim/white_mw003.bmp","1,0,1","Match","e","4500","trustrating_stim/white_mw092.bmp","green","Share","PRACTICE","0"
"html-keyboard-response","33","116882","0.0-5.0-5.5","610c736500a4b33398fef94f","bdp_wmem","Sat Apr 08 2023 11:59:40 GMT-0400 (Eastern Daylight Time)","565457","Match,No Match","","null","","","","","","<div class='trialBorder'><div class='vertical-center'><img src='img/error.jpg'></div><div class='respDiv'><div class='respDivL'>Match<br>(e)</div><div class='respDivR'><font style='color:orange'>No Match<br>(i)</font></div></div></div>","null","FEEDBACK","","","","","","","","","","",""
"instructions","34","119400","0.0-6.0","610c736500a4b33398fef94f","bdp_wmem","Sat Apr 08 2023 11:59:40 GMT-0400 (Eastern Daylight Time)","565457","Match,No Match","[{""page_index"":0,""viewing_time"":2518}]","2518","","","","","","","","","","","","","","","","","","",""
"html-keyboard-response","35","119903","0.0-7.0-1.0","610c736500a4b33398fef94f","bdp_wmem","Sat Apr 08 2023 11:59:40 GMT-0400 (Eastern Daylight Time)","565457","Match,No Match","","null","","","","","","<div class='trialBorder'><div class='vertical-center'><img src='img/fixation2_sml.jpg'</img></div></div>","null","FIX","","","","","","","","","","",""
"html-keyboard-response","36","122907","0.0-7.0-2.0","610c736500a4b33398fef94f","bdp_wmem","Sat Apr 08 2023 11:59:40 GMT-0400 (Eastern Daylight Time)","565457","Match,No Match","","null","","","","","","<div class='trialBorder'><div class='vertical-center'><img style='vertical-align:center; align:center' src='img/fixation2_sml.jpg'></div><div class='arrayDiv2'><div class='tl'><img class='introPic' src='trustrating_stim/white_mw013.bmp'><br><font color='green'><strong>Share</strong></font></div><div class='tr'><img class='introPic' src='trustrating_stim/white_mw092.bmp'><br><font color='red'><strong>Keep</strong></font></div></div></div>","null","ARRAY","2","trustrating_stim/white_mw013.bmp,trustrating_stim/white_mw092.bmp","1,0","Match","e","3000","","","","",""
"html-keyboard-response","37","126908","0.0-7.0-3.0","610c736500a4b33398fef94f","bdp_wmem","Sat Apr 08 2023 11:59:40 GMT-0400 (Eastern Daylight Time)","565457","Match,No Match","","null","","","","","","<div class='trialBorder'><div class='vertical-center'><img src='img/fixation2_sml.jpg'</img></div></div>","null","DELAY","","","","","","","","","","",""
"html-keyboard-response","38","128173","0.0-7.0-4.0","610c736500a4b33398fef94f","bdp_wmem","Sat Apr 08 2023 11:59:40 GMT-0400 (Eastern Daylight Time)","565457","Match,No Match","","1262","","","","","","<div class='trialBorder'><div class='targDiv'><div class='tc'><img class='introPic' src='trustrating_stim/white_mw092.bmp'><br><font color='red'><strong>Keep</strong></font></div></div><div class='respDiv'><div class='respDivL'>Match<br>(e)</div><div class='respDivR'>No Match<br>(i)</div></div></div>","i","TARGET","2","trustrating_stim/white_mw013.bmp,trustrating_stim/white_mw092.bmp","1,0","Match","e","3000","trustrating_stim/white_mw092.bmp","red","Keep","REAL","0"
"html-keyboard-response","39","128675","0.0-7.0-5.0","610c736500a4b33398fef94f","bdp_wmem","Sat Apr 08 2023 11:59:40 GMT-0400 (Eastern Daylight Time)","565457","Match,No Match","","null","","","","","","<div class='trialBorder'><div class='vertical-center'><img src='img/error.jpg'></div><div class='respDiv'><div class='respDivL'>Match<br>(e)</div><div class='respDivR'><font style='color:orange'>No Match<br>(i)</font></div></div></div>","null","FEEDBACK","","","","","","","","","","",""
"html-keyboard-response","40","129177","0.0-7.0-1.1","610c736500a4b33398fef94f","bdp_wmem","Sat Apr 08 2023 11:59:40 GMT-0400 (Eastern Daylight Time)","565457","Match,No Match","","null","","","","","","<div class='trialBorder'><div class='vertical-center'><img src='img/fixation2_sml.jpg'</img></div></div>","null","FIX","","","","","","","","","","",""
"html-keyboard-response","41","133680","0.0-7.0-2.1","610c736500a4b33398fef94f","bdp_wmem","Sat Apr 08 2023 11:59:40 GMT-0400 (Eastern Daylight Time)","565457","Match,No Match","","null","","","","","","<div class='trialBorder'><div class='vertical-center'><img style='vertical-align:center; align:center' src='img/fixation2_sml.jpg'></div><div class='arrayDiv3'><div class='tl'><img class='introPic' src='trustrating_stim/white_mw038.bmp'><br><font color='green'><strong>Share</strong></font></div><div class='tc'><img class='introPic' src='trustrating_stim/white_mw042.bmp'><br><font color='red'><strong>Keep</strong></font></div><div class='tr'><img class='introPic' src='trustrating_stim/white_mw092.bmp'><br><font color='red'><strong>Keep</strong></font></div></div></div>","null","ARRAY","3","trustrating_stim/white_mw038.bmp,trustrating_stim/white_mw042.bmp,trustrating_stim/white_mw092.bmp","1,0,0","Match","e","4500","","","","",""
"html-keyboard-response","42","137682","0.0-7.0-3.1","610c736500a4b33398fef94f","bdp_wmem","Sat Apr 08 2023 11:59:40 GMT-0400 (Eastern Daylight Time)","565457","Match,No Match","","null","","","","","","<div class='trialBorder'><div class='vertical-center'><img src='img/fixation2_sml.jpg'</img></div></div>","null","DELAY","","","","","","","","","","",""
"html-keyboard-response","43","139153","0.0-7.0-4.1","610c736500a4b33398fef94f","bdp_wmem","Sat Apr 08 2023 11:59:40 GMT-0400 (Eastern Daylight Time)","565457","Match,No Match","","1469","","","","","","<div class='trialBorder'><div class='targDiv'><div class='tc'><img class='introPic' src='trustrating_stim/white_mw092.bmp'><br><font color='red'><strong>Keep</strong></font></div></div><div class='respDiv'><div class='respDivL'>Match<br>(e)</div><div class='respDivR'>No Match<br>(i)</div></div></div>","e","TARGET","3","trustrating_stim/white_mw038.bmp,trustrating_stim/white_mw042.bmp,trustrating_stim/white_mw092.bmp","1,0,0","Match","e","4500","trustrating_stim/white_mw092.bmp","red","Keep","REAL","1"
"html-keyboard-response","44","139655","0.0-7.0-5.1","610c736500a4b33398fef94f","bdp_wmem","Sat Apr 08 2023 11:59:40 GMT-0400 (Eastern Daylight Time)","565457","Match,No Match","","null","","","","","","<div class='trialBorder'><div class='vertical-center'><img src='img/correct.jpg'></div><div class='respDiv'><div class='respDivL'><font style='color:orange'>Match<br>(e)</font></div><div class='respDivR'>No Match<br>(i)</div></div></div>","null","FEEDBACK","","","","","","","","","","",""
"html-keyboard-response","45","140156","0.0-7.0-1.2","610c736500a4b33398fef94f","bdp_wmem","Sat Apr 08 2023 11:59:40 GMT-0400 (Eastern Daylight Time)","565457","Match,No Match","","null","","","","","","<div class='trialBorder'><div class='vertical-center'><img src='img/fixation2_sml.jpg'</img></div></div>","null","FIX","","","","","","","","","","",""
"html-keyboard-response","46","143158","0.0-7.0-2.2","610c736500a4b33398fef94f","bdp_wmem","Sat Apr 08 2023 11:59:40 GMT-0400 (Eastern Daylight Time)","565457","Match,No Match","","null","","","","","","<div class='trialBorder'><div class='vertical-center'><img style='vertical-align:center; align:center' src='img/fixation2_sml.jpg'></div><div class='arrayDiv2'><div class='tl'><img class='introPic' src='trustrating_stim/white_mw003.bmp'><br><font color='green'><strong>Share</strong></font></div><div class='tr'><img class='introPic' src='trustrating_stim/white_mw038.bmp'><br><font color='red'><strong>Keep</strong></font></div></div></div>","null","ARRAY","2","trustrating_stim/white_mw003.bmp,trustrating_stim/white_mw038.bmp","1,0","Match","e","3000","","","","",""
"html-keyboard-response","47","147159","0.0-7.0-3.2","610c736500a4b33398fef94f","bdp_wmem","Sat Apr 08 2023 11:59:40 GMT-0400 (Eastern Daylight Time)","565457","Match,No Match","","null","","","","","","<div class='trialBorder'><div class='vertical-center'><img src='img/fixation2_sml.jpg'</img></div></div>","null","DELAY","","","","","","","","","","",""
"html-keyboard-response","48","150313","0.0-7.0-4.2","610c736500a4b33398fef94f","bdp_wmem","Sat Apr 08 2023 11:59:40 GMT-0400 (Eastern Daylight Time)","565457","Match,No Match","","3153","","","","","","<div class='trialBorder'><div class='targDiv'><div class='tc'><img class='introPic' src='trustrating_stim/white_mw003.bmp'><br><font color='green'><strong>Share</strong></font></div></div><div class='respDiv'><div class='respDivL'>Match<br>(e)</div><div class='respDivR'>No Match<br>(i)</div></div></div>","i","TARGET","2","trustrating_stim/white_mw003.bmp,trustrating_stim/white_mw038.bmp","1,0","Match","e","3000","trustrating_stim/white_mw003.bmp","green","Share","REAL","0"
"html-keyboard-response","49","150815","0.0-7.0-5.2","610c736500a4b33398fef94f","bdp_wmem","Sat Apr 08 2023 11:59:40 GMT-0400 (Eastern Daylight Time)","565457","Match,No Match","","null","","","","","","<div class='trialBorder'><div class='vertical-center'><img src='img/error.jpg'></div><div class='respDiv'><div class='respDivL'>Match<br>(e)</div><div class='respDivR'><font style='color:orange'>No Match<br>(i)</font></div></div></div>","null","FEEDBACK","","","","","","","","","","",""
"html-keyboard-response","50","151316","0.0-7.0-1.3","610c736500a4b33398fef94f","bdp_wmem","Sat Apr 08 2023 11:59:40 GMT-0400 (Eastern Daylight Time)","565457","Match,No Match","","null","","","","","","<div class='trialBorder'><div class='vertical-center'><img src='img/fixation2_sml.jpg'</img></div></div>","null","FIX","","","","","","","","","","",""
"html-keyboard-response","51","154319","0.0-7.0-2.3","610c736500a4b33398fef94f","bdp_wmem","Sat Apr 08 2023 11:59:40 GMT-0400 (Eastern Daylight Time)","565457","Match,No Match","","null","","","","","","<div class='trialBorder'><div class='vertical-center'><img style='vertical-align:center; align:center' src='img/fixation2_sml.jpg'></div><div class='arrayDiv2'><div class='tl'><img class='introPic' src='trustrating_stim/white_mw078.bmp'><br><font color='green'><strong>Share</strong></font></div><div class='tr'><img class='introPic' src='trustrating_stim/white_mw040.bmp'><br><font color='red'><strong>Keep</strong></font></div></div></div>","null","ARRAY","2","trustrating_stim/white_mw078.bmp,trustrating_stim/white_mw040.bmp","1,0","Match","e","3000","","","","",""
"html-keyboard-response","52","158321","0.0-7.0-3.3","610c736500a4b33398fef94f","bdp_wmem","Sat Apr 08 2023 11:59:40 GMT-0400 (Eastern Daylight Time)","565457","Match,No Match","","null","","","","","","<div class='trialBorder'><div class='vertical-center'><img src='img/fixation2_sml.jpg'</img></div></div>","null","DELAY","","","","","","","","","","",""
"html-keyboard-response","53","159403","0.0-7.0-4.3","610c736500a4b33398fef94f","bdp_wmem","Sat Apr 08 2023 11:59:40 GMT-0400 (Eastern Daylight Time)","565457","Match,No Match","","1079","","","","","","<div class='trialBorder'><div class='targDiv'><div class='tc'><img class='introPic' src='trustrating_stim/white_mw040.bmp'><br><font color='red'><strong>Keep</strong></font></div></div><div class='respDiv'><div class='respDivL'>Match<br>(e)</div><div class='respDivR'>No Match<br>(i)</div></div></div>","e","TARGET","2","trustrating_stim/white_mw078.bmp,trustrating_stim/white_mw040.bmp","1,0","Match","e","3000","trustrating_stim/white_mw040.bmp","red","Keep","REAL","1"
"html-keyboard-response","54","159905","0.0-7.0-5.3","610c736500a4b33398fef94f","bdp_wmem","Sat Apr 08 2023 11:59:40 GMT-0400 (Eastern Daylight Time)","565457","Match,No Match","","null","","","","","","<div class='trialBorder'><div class='vertical-center'><img src='img/correct.jpg'></div><div class='respDiv'><div class='respDivL'><font style='color:orange'>Match<br>(e)</font></div><div class='respDivR'>No Match<br>(i)</div></div></div>","null","FEEDBACK","","","","","","","","","","",""
"html-keyboard-response","55","160406","0.0-7.0-1.4","610c736500a4b33398fef94f","bdp_wmem","Sat Apr 08 2023 11:59:40 GMT-0400 (Eastern Daylight Time)","565457","Match,No Match","","null","","","","","","<div class='trialBorder'><div class='vertical-center'><img src='img/fixation2_sml.jpg'</img></div></div>","null","FIX","","","","","","","","","","",""
"html-keyboard-response","56","164910","0.0-7.0-2.4","610c736500a4b33398fef94f","bdp_wmem","Sat Apr 08 2023 11:59:40 GMT-0400 (Eastern Daylight Time)","565457","Match,No Match","","null","","","","","","<div class='trialBorder'><div class='vertical-center'><img style='vertical-align:center; align:center' src='img/fixation2_sml.jpg'></div><div class='arrayDiv3'><div class='tl'><img class='introPic' src='trustrating_stim/white_mw085.bmp'><br><font color='green'><strong>Share</strong></font></div><div class='tc'><img class='introPic' src='trustrating_stim/white_mw040.bmp'><br><font color='red'><strong>Keep</strong></font></div><div class='tr'><img class='introPic' src='trustrating_stim/white_mw013.bmp'><br><font color='green'><strong>Share</strong></font></div></div></div>","null","ARRAY","3","trustrating_stim/white_mw085.bmp,trustrating_stim/white_mw040.bmp,trustrating_stim/white_mw013.bmp","1,0,1","Match","e","4500","","","","",""
"html-keyboard-response","57","168911","0.0-7.0-3.4","610c736500a4b33398fef94f","bdp_wmem","Sat Apr 08 2023 11:59:40 GMT-0400 (Eastern Daylight Time)","565457","Match,No Match","","null","","","","","","<div class='trialBorder'><div class='vertical-center'><img src='img/fixation2_sml.jpg'</img></div></div>","null","DELAY","","","","","","","","","","",""
"html-keyboard-response","58","169875","0.0-7.0-4.4","610c736500a4b33398fef94f","bdp_wmem","Sat Apr 08 2023 11:59:40 GMT-0400 (Eastern Daylight Time)","565457","Match,No Match","","963","","","","","","<div class='trialBorder'><div class='targDiv'><div class='tc'><img class='introPic' src='trustrating_stim/white_mw013.bmp'><br><font color='green'><strong>Share</strong></font></div></div><div class='respDiv'><div class='respDivL'>Match<br>(e)</div><div class='respDivR'>No Match<br>(i)</div></div></div>","e","TARGET","3","trustrating_stim/white_mw085.bmp,trustrating_stim/white_mw040.bmp,trustrating_stim/white_mw013.bmp","1,0,1","Match","e","4500","trustrating_stim/white_mw013.bmp","green","Share","REAL","1"
"html-keyboard-response","59","170376","0.0-7.0-5.4","610c736500a4b33398fef94f","bdp_wmem","Sat Apr 08 2023 11:59:40 GMT-0400 (Eastern Daylight Time)","565457","Match,No Match","","null","","","","","","<div class='trialBorder'><div class='vertical-center'><img src='img/correct.jpg'></div><div class='respDiv'><div class='respDivL'><font style='color:orange'>Match<br>(e)</font></div><div class='respDivR'>No Match<br>(i)</div></div></div>","null","FEEDBACK","","","","","","","","","","",""
"html-keyboard-response","60","170877","0.0-7.0-1.5","610c736500a4b33398fef94f","bdp_wmem","Sat Apr 08 2023 11:59:40 GMT-0400 (Eastern Daylight Time)","565457","Match,No Match","","null","","","","","","<div class='trialBorder'><div class='vertical-center'><img src='img/fixation2_sml.jpg'</img></div></div>","null","FIX","","","","","","","","","","",""
"html-keyboard-response","61","173879","0.0-7.0-2.5","610c736500a4b33398fef94f","bdp_wmem","Sat Apr 08 2023 11:59:40 GMT-0400 (Eastern Daylight Time)","565457","Match,No Match","","null","","","","","","<div class='trialBorder'><div class='vertical-center'><img style='vertical-align:center; align:center' src='img/fixation2_sml.jpg'></div><div class='arrayDiv2'><div class='tl'><img class='introPic' src='trustrating_stim/white_mw013.bmp'><br><font color='green'><strong>Share</strong></font></div><div class='tr'><img class='introPic' src='trustrating_stim/white_mw085.bmp'><br><font color='red'><strong>Keep</strong></font></div></div></div>","null","ARRAY","2","trustrating_stim/white_mw013.bmp,trustrating_stim/white_mw085.bmp","1,0","Match","e","3000","","","","",""
"html-keyboard-response","62","177880","0.0-7.0-3.5","610c736500a4b33398fef94f","bdp_wmem","Sat Apr 08 2023 11:59:40 GMT-0400 (Eastern Daylight Time)","565457","Match,No Match","","null","","","","","","<div class='trialBorder'><div class='vertical-center'><img src='img/fixation2_sml.jpg'</img></div></div>","null","DELAY","","","","","","","","","","",""
"html-keyboard-response","63","179364","0.0-7.0-4.5","610c736500a4b33398fef94f","bdp_wmem","Sat Apr 08 2023 11:59:40 GMT-0400 (Eastern Daylight Time)","565457","Match,No Match","","1483","","","","","","<div class='trialBorder'><div class='targDiv'><div class='tc'><img class='introPic' src='trustrating_stim/white_mw013.bmp'><br><font color='green'><strong>Share</strong></font></div></div><div class='respDiv'><div class='respDivL'>Match<br>(e)</div><div class='respDivR'>No Match<br>(i)</div></div></div>","i","TARGET","2","trustrating_stim/white_mw013.bmp,trustrating_stim/white_mw085.bmp","1,0","Match","e","3000","trustrating_stim/white_mw013.bmp","green","Share","REAL","0"
"html-keyboard-response","64","179865","0.0-7.0-5.5","610c736500a4b33398fef94f","bdp_wmem","Sat Apr 08 2023 11:59:40 GMT-0400 (Eastern Daylight Time)","565457","Match,No Match","","null","","","","","","<div class='trialBorder'><div class='vertical-center'><img src='img/error.jpg'></div><div class='respDiv'><div class='respDivL'>Match<br>(e)</div><div class='respDivR'><font style='color:orange'>No Match<br>(i)</font></div></div></div>","null","FEEDBACK","","","","","","","","","","",""
"html-keyboard-response","65","180367","0.0-7.0-1.6","610c736500a4b33398fef94f","bdp_wmem","Sat Apr 08 2023 11:59:40 GMT-0400 (Eastern Daylight Time)","565457","Match,No Match","","null","","","","","","<div class='trialBorder'><div class='vertical-center'><img src='img/fixation2_sml.jpg'</img></div></div>","null","FIX","","","","","","","","","","",""
"html-keyboard-response","66","183369","0.0-7.0-2.6","610c736500a4b33398fef94f","bdp_wmem","Sat Apr 08 2023 11:59:40 GMT-0400 (Eastern Daylight Time)","565457","Match,No Match","","null","","","","","","<div class='trialBorder'><div class='vertical-center'><img style='vertical-align:center; align:center' src='img/fixation2_sml.jpg'></div><div class='arrayDiv2'><div class='tl'><img class='introPic' src='trustrating_stim/white_mw042.bmp'><br><font color='green'><strong>Share</strong></font></div><div class='tr'><img class='introPic' src='trustrating_stim/white_mw012.bmp'><br><font color='red'><strong>Keep</strong></font></div></div></div>","null","ARRAY","2","trustrating_stim/white_mw042.bmp,trustrating_stim/white_mw012.bmp","1,0","noMatchFace","i","3000","","","","",""
"html-keyboard-response","67","187371","0.0-7.0-3.6","610c736500a4b33398fef94f","bdp_wmem","Sat Apr 08 2023 11:59:40 GMT-0400 (Eastern Daylight Time)","565457","Match,No Match","","null","","","","","","<div class='trialBorder'><div class='vertical-center'><img src='img/fixation2_sml.jpg'</img></div></div>","null","DELAY","","","","","","","","","","",""
"html-keyboard-response","68","188894","0.0-7.0-4.6","610c736500a4b33398fef94f","bdp_wmem","Sat Apr 08 2023 11:59:40 GMT-0400 (Eastern Daylight Time)","565457","Match,No Match","","1522","","","","","","<div class='trialBorder'><div class='targDiv'><div class='tc'><img class='introPic' src='trustrating_stim/white_mw092.bmp'><br><font color='red'><strong>Keep</strong></font></div></div><div class='respDiv'><div class='respDivL'>Match<br>(e)</div><div class='respDivR'>No Match<br>(i)</div></div></div>","i","TARGET","2","trustrating_stim/white_mw042.bmp,trustrating_stim/white_mw012.bmp","1,0","noMatchFace","i","3000","trustrating_stim/white_mw092.bmp","red","Keep","REAL","1"
"html-keyboard-response","69","189396","0.0-7.0-5.6","610c736500a4b33398fef94f","bdp_wmem","Sat Apr 08 2023 11:59:40 GMT-0400 (Eastern Daylight Time)","565457","Match,No Match","","null","","","","","","<div class='trialBorder'><div class='vertical-center'><img src='img/correct.jpg'></div><div class='respDiv'><div class='respDivL'>Match<br>(e)</div><div class='respDivR'><font style='color:orange'>No Match<br>(i)</font></div></div></div>","null","FEEDBACK","","","","","","","","","","",""
"html-keyboard-response","70","189898","0.0-7.0-1.7","610c736500a4b33398fef94f","bdp_wmem","Sat Apr 08 2023 11:59:40 GMT-0400 (Eastern Daylight Time)","565457","Match,No Match","","null","","","","","","<div class='trialBorder'><div class='vertical-center'><img src='img/fixation2_sml.jpg'</img></div></div>","null","FIX","","","","","","","","","","",""
"html-keyboard-response","71","191400","0.0-7.0-2.7","610c736500a4b33398fef94f","bdp_wmem","Sat Apr 08 2023 11:59:40 GMT-0400 (Eastern Daylight Time)","565457","Match,No Match","","null","","","","","","<div class='trialBorder'><div class='vertical-center'><img style='vertical-align:center; align:center' src='img/fixation2_sml.jpg'></div><div class='arrayDiv1'><div class='tc'><img class='introPic' src='trustrating_stim/white_mw012.bmp'><br><font color='green'><strong>Share</strong></font></div></div></div>","null","ARRAY","1","trustrating_stim/white_mw012.bmp","1","noMatchOutcome","i","1500","","","","",""
"html-keyboard-response","72","195402","0.0-7.0-3.7","610c736500a4b33398fef94f","bdp_wmem","Sat Apr 08 2023 11:59:40 GMT-0400 (Eastern Daylight Time)","565457","Match,No Match","","null","","","","","","<div class='trialBorder'><div class='vertical-center'><img src='img/fixation2_sml.jpg'</img></div></div>","null","DELAY","","","","","","","","","","",""
"html-keyboard-response","73","196417","0.0-7.0-4.7","610c736500a4b33398fef94f","bdp_wmem","Sat Apr 08 2023 11:59:40 GMT-0400 (Eastern Daylight Time)","565457","Match,No Match","","1015","","","","","","<div class='trialBorder'><div class='targDiv'><div class='tc'><img class='introPic' src='trustrating_stim/white_mw012.bmp'><br><font color='red'><strong>Keep</strong></font></div></div><div class='respDiv'><div class='respDivL'>Match<br>(e)</div><div class='respDivR'>No Match<br>(i)</div></div></div>","e","TARGET","1","trustrating_stim/white_mw012.bmp","1","noMatchOutcome","i","1500","trustrating_stim/white_mw012.bmp","red","Keep","REAL","0"
"html-keyboard-response","74","196918","0.0-7.0-5.7","610c736500a4b33398fef94f","bdp_wmem","Sat Apr 08 2023 11:59:40 GMT-0400 (Eastern Daylight Time)","565457","Match,No Match","","null","","","","","","<div class='trialBorder'><div class='vertical-center'><img src='img/error.jpg'></div><div class='respDiv'><div class='respDivL'><font style='color:orange'>Match<br>(e)</font></div><div class='respDivR'>No Match<br>(i)</div></div></div>","null","FEEDBACK","","","","","","","","","","",""
"html-keyboard-response","75","197420","0.0-7.0-1.8","610c736500a4b33398fef94f","bdp_wmem","Sat Apr 08 2023 11:59:40 GMT-0400 (Eastern Daylight Time)","565457","Match,No Match","","null","","","","","","<div class='trialBorder'><div class='vertical-center'><img src='img/fixation2_sml.jpg'</img></div></div>","null","FIX","","","","","","","","","","",""
"html-keyboard-response","76","198921","0.0-7.0-2.8","610c736500a4b33398fef94f","bdp_wmem","Sat Apr 08 2023 11:59:40 GMT-0400 (Eastern Daylight Time)","565457","Match,No Match","","null","","","","","","<div class='trialBorder'><div class='vertical-center'><img style='vertical-align:center; align:center' src='img/fixation2_sml.jpg'></div><div class='arrayDiv1'><div class='tc'><img class='introPic' src='trustrating_stim/white_mw010.bmp'><br><font color='red'><strong>Keep</strong></font></div></div></div>","null","ARRAY","1","trustrating_stim/white_mw010.bmp","0","Match","e","1500","","","","",""
"html-keyboard-response","77","202922","0.0-7.0-3.8","610c736500a4b33398fef94f","bdp_wmem","Sat Apr 08 2023 11:59:40 GMT-0400 (Eastern Daylight Time)","565457","Match,No Match","","null","","","","","","<div class='trialBorder'><div class='vertical-center'><img src='img/fixation2_sml.jpg'</img></div></div>","null","DELAY","","","","","","","","","","",""
"html-keyboard-response","78","203941","0.0-7.0-4.8","610c736500a4b33398fef94f","bdp_wmem","Sat Apr 08 2023 11:59:40 GMT-0400 (Eastern Daylight Time)","565457","Match,No Match","","1016","","","","","","<div class='trialBorder'><div class='targDiv'><div class='tc'><img class='introPic' src='trustrating_stim/white_mw010.bmp'><br><font color='red'><strong>Keep</strong></font></div></div><div class='respDiv'><div class='respDivL'>Match<br>(e)</div><div class='respDivR'>No Match<br>(i)</div></div></div>","e","TARGET","1","trustrating_stim/white_mw010.bmp","0","Match","e","1500","trustrating_stim/white_mw010.bmp","red","Keep","REAL","1"
"html-keyboard-response","79","204442","0.0-7.0-5.8","610c736500a4b33398fef94f","bdp_wmem","Sat Apr 08 2023 11:59:40 GMT-0400 (Eastern Daylight Time)","565457","Match,No Match","","null","","","","","","<div class='trialBorder'><div class='vertical-center'><img src='img/correct.jpg'></div><div class='respDiv'><div class='respDivL'><font style='color:orange'>Match<br>(e)</font></div><div class='respDivR'>No Match<br>(i)</div></div></div>","null","FEEDBACK","","","","","","","","","","",""
"html-keyboard-response","80","204944","0.0-7.0-1.9","610c736500a4b33398fef94f","bdp_wmem","Sat Apr 08 2023 11:59:40 GMT-0400 (Eastern Daylight Time)","565457","Match,No Match","","null","","","","","","<div class='trialBorder'><div class='vertical-center'><img src='img/fixation2_sml.jpg'</img></div></div>","null","FIX","","","","","","","","","","",""
"html-keyboard-response","81","206446","0.0-7.0-2.9","610c736500a4b33398fef94f","bdp_wmem","Sat Apr 08 2023 11:59:40 GMT-0400 (Eastern Daylight Time)","565457","Match,No Match","","null","","","","","","<div class='trialBorder'><div class='vertical-center'><img style='vertical-align:center; align:center' src='img/fixation2_sml.jpg'></div><div class='arrayDiv1'><div class='tc'><img class='introPic' src='trustrating_stim/white_mw085.bmp'><br><font color='green'><strong>Share</strong></font></div></div></div>","null","ARRAY","1","trustrating_stim/white_mw085.bmp","1","noMatchOutcome","i","1500","","","","",""
"html-keyboard-response","82","210449","0.0-7.0-3.9","610c736500a4b33398fef94f","bdp_wmem","Sat Apr 08 2023 11:59:40 GMT-0400 (Eastern Daylight Time)","565457","Match,No Match","","null","","","","","","<div class='trialBorder'><div class='vertical-center'><img src='img/fixation2_sml.jpg'</img></div></div>","null","DELAY","","","","","","","","","","",""
"html-keyboard-response","83","211486","0.0-7.0-4.9","610c736500a4b33398fef94f","bdp_wmem","Sat Apr 08 2023 11:59:40 GMT-0400 (Eastern Daylight Time)","565457","Match,No Match","","1035","","","","","","<div class='trialBorder'><div class='targDiv'><div class='tc'><img class='introPic' src='trustrating_stim/white_mw085.bmp'><br><font color='red'><strong>Keep</strong></font></div></div><div class='respDiv'><div class='respDivL'>Match<br>(e)</div><div class='respDivR'>No Match<br>(i)</div></div></div>","e","TARGET","1","trustrating_stim/white_mw085.bmp","1","noMatchOutcome","i","1500","trustrating_stim/white_mw085.bmp","red","Keep","REAL","0"
"html-keyboard-response","84","211988","0.0-7.0-5.9","610c736500a4b33398fef94f","bdp_wmem","Sat Apr 08 2023 11:59:40 GMT-0400 (Eastern Daylight Time)","565457","Match,No Match","","null","","","","","","<div class='trialBorder'><div class='vertical-center'><img src='img/error.jpg'></div><div class='respDiv'><div class='respDivL'><font style='color:orange'>Match<br>(e)</font></div><div class='respDivR'>No Match<br>(i)</div></div></div>","null","FEEDBACK","","","","","","","","","","",""
"html-keyboard-response","85","212490","0.0-7.0-1.10","610c736500a4b33398fef94f","bdp_wmem","Sat Apr 08 2023 11:59:40 GMT-0400 (Eastern Daylight Time)","565457","Match,No Match","","null","","","","","","<div class='trialBorder'><div class='vertical-center'><img src='img/fixation2_sml.jpg'</img></div></div>","null","FIX","","","","","","","","","","",""
"html-keyboard-response","86","213992","0.0-7.0-2.10","610c736500a4b33398fef94f","bdp_wmem","Sat Apr 08 2023 11:59:40 GMT-0400 (Eastern Daylight Time)","565457","Match,No Match","","null","","","","","","<div class='trialBorder'><div class='vertical-center'><img style='vertical-align:center; align:center' src='img/fixation2_sml.jpg'></div><div class='arrayDiv1'><div class='tc'><img class='introPic' src='trustrating_stim/white_mw070.bmp'><br><font color='green'><strong>Share</strong></font></div></div></div>","null","ARRAY","1","trustrating_stim/white_mw070.bmp","1","Match","e","1500","","","","",""
"html-keyboard-response","87","217994","0.0-7.0-3.10","610c736500a4b33398fef94f","bdp_wmem","Sat Apr 08 2023 11:59:40 GMT-0400 (Eastern Daylight Time)","565457","Match,No Match","","null","","","","","","<div class='trialBorder'><div class='vertical-center'><img src='img/fixation2_sml.jpg'</img></div></div>","null","DELAY","","","","","","","","","","",""
"html-keyboard-response","88","219189","0.0-7.0-4.10","610c736500a4b33398fef94f","bdp_wmem","Sat Apr 08 2023 11:59:40 GMT-0400 (Eastern Daylight Time)","565457","Match,No Match","","1192","","","","","","<div class='trialBorder'><div class='targDiv'><div class='tc'><img class='introPic' src='trustrating_stim/white_mw070.bmp'><br><font color='green'><strong>Share</strong></font></div></div><div class='respDiv'><div class='respDivL'>Match<br>(e)</div><div class='respDivR'>No Match<br>(i)</div></div></div>","e","TARGET","1","trustrating_stim/white_mw070.bmp","1","Match","e","1500","trustrating_stim/white_mw070.bmp","green","Share","REAL","1"
"html-keyboard-response","89","219691","0.0-7.0-5.10","610c736500a4b33398fef94f","bdp_wmem","Sat Apr 08 2023 11:59:40 GMT-0400 (Eastern Daylight Time)","565457","Match,No Match","","null","","","","","","<div class='trialBorder'><div class='vertical-center'><img src='img/correct.jpg'></div><div class='respDiv'><div class='respDivL'><font style='color:orange'>Match<br>(e)</font></div><div class='respDivR'>No Match<br>(i)</div></div></div>","null","FEEDBACK","","","","","","","","","","",""
"html-keyboard-response","90","220193","0.0-7.0-1.11","610c736500a4b33398fef94f","bdp_wmem","Sat Apr 08 2023 11:59:40 GMT-0400 (Eastern Daylight Time)","565457","Match,No Match","","null","","","","","","<div class='trialBorder'><div class='vertical-center'><img src='img/fixation2_sml.jpg'</img></div></div>","null","FIX","","","","","","","","","","",""
"html-keyboard-response","91","224695","0.0-7.0-2.11","610c736500a4b33398fef94f","bdp_wmem","Sat Apr 08 2023 11:59:40 GMT-0400 (Eastern Daylight Time)","565457","Match,No Match","","null","","","","","","<div class='trialBorder'><div class='vertical-center'><img style='vertical-align:center; align:center' src='img/fixation2_sml.jpg'></div><div class='arrayDiv3'><div class='tl'><img class='introPic' src='trustrating_stim/white_mw010.bmp'><br><font color='red'><strong>Keep</strong></font></div><div class='tc'><img class='introPic' src='trustrating_stim/white_mw085.bmp'><br><font color='green'><strong>Share</strong></font></div><div class='tr'><img class='introPic' src='trustrating_stim/white_mw012.bmp'><br><font color='green'><strong>Share</strong></font></div></div></div>","null","ARRAY","3","trustrating_stim/white_mw010.bmp,trustrating_stim/white_mw085.bmp,trustrating_stim/white_mw012.bmp","0,1,1","Match","e","4500","","","","",""
"html-keyboard-response","92","228696","0.0-7.0-3.11","610c736500a4b33398fef94f","bdp_wmem","Sat Apr 08 2023 11:59:40 GMT-0400 (Eastern Daylight Time)","565457","Match,No Match","","null","","","","","","<div class='trialBorder'><div class='vertical-center'><img src='img/fixation2_sml.jpg'</img></div></div>","null","DELAY","","","","","","","","","","",""
"html-keyboard-response","93","229373","0.0-7.0-4.11","610c736500a4b33398fef94f","bdp_wmem","Sat Apr 08 2023 11:59:40 GMT-0400 (Eastern Daylight Time)","565457","Match,No Match","","675","","","","","","<div class='trialBorder'><div class='targDiv'><div class='tc'><img class='introPic' src='trustrating_stim/white_mw012.bmp'><br><font color='green'><strong>Share</strong></font></div></div><div class='respDiv'><div class='respDivL'>Match<br>(e)</div><div class='respDivR'>No Match<br>(i)</div></div></div>","e","TARGET","3","trustrating_stim/white_mw010.bmp,trustrating_stim/white_mw085.bmp,trustrating_stim/white_mw012.bmp","0,1,1","Match","e","4500","trustrating_stim/white_mw012.bmp","green","Share","REAL","1"
"html-keyboard-response","94","229875","0.0-7.0-5.11","610c736500a4b33398fef94f","bdp_wmem","Sat Apr 08 2023 11:59:40 GMT-0400 (Eastern Daylight Time)","565457","Match,No Match","","null","","","","","","<div class='trialBorder'><div class='vertical-center'><img src='img/correct.jpg'></div><div class='respDiv'><div class='respDivL'><font style='color:orange'>Match<br>(e)</font></div><div class='respDivR'>No Match<br>(i)</div></div></div>","null","FEEDBACK","","","","","","","","","","",""
"html-keyboard-response","95","230377","0.0-7.0-1.12","610c736500a4b33398fef94f","bdp_wmem","Sat Apr 08 2023 11:59:40 GMT-0400 (Eastern Daylight Time)","565457","Match,No Match","","null","","","","","","<div class='trialBorder'><div class='vertical-center'><img src='img/fixation2_sml.jpg'</img></div></div>","null","FIX","","","","","","","","","","",""
"html-keyboard-response","96","233379","0.0-7.0-2.12","610c736500a4b33398fef94f","bdp_wmem","Sat Apr 08 2023 11:59:40 GMT-0400 (Eastern Daylight Time)","565457","Match,No Match","","null","","","","","","<div class='trialBorder'><div class='vertical-center'><img style='vertical-align:center; align:center' src='img/fixation2_sml.jpg'></div><div class='arrayDiv2'><div class='tl'><img class='introPic' src='trustrating_stim/white_mw070.bmp'><br><font color='red'><strong>Keep</strong></font></div><div class='tr'><img class='introPic' src='trustrating_stim/white_mw012.bmp'><br><font color='green'><strong>Share</strong></font></div></div></div>","null","ARRAY","2","trustrating_stim/white_mw070.bmp,trustrating_stim/white_mw012.bmp","0,1","Match","e","3000","","","","",""
"html-keyboard-response","97","237381","0.0-7.0-3.12","610c736500a4b33398fef94f","bdp_wmem","Sat Apr 08 2023 11:59:40 GMT-0400 (Eastern Daylight Time)","565457","Match,No Match","","null","","","","","","<div class='trialBorder'><div class='vertical-center'><img src='img/fixation2_sml.jpg'</img></div></div>","null","DELAY","","","","","","","","","","",""
"html-keyboard-response","98","238219","0.0-7.0-4.12","610c736500a4b33398fef94f","bdp_wmem","Sat Apr 08 2023 11:59:40 GMT-0400 (Eastern Daylight Time)","565457","Match,No Match","","836","","","","","","<div class='trialBorder'><div class='targDiv'><div class='tc'><img class='introPic' src='trustrating_stim/white_mw070.bmp'><br><font color='red'><strong>Keep</strong></font></div></div><div class='respDiv'><div class='respDivL'>Match<br>(e)</div><div class='respDivR'>No Match<br>(i)</div></div></div>","e","TARGET","2","trustrating_stim/white_mw070.bmp,trustrating_stim/white_mw012.bmp","0,1","Match","e","3000","trustrating_stim/white_mw070.bmp","red","Keep","REAL","1"
"html-keyboard-response","99","238721","0.0-7.0-5.12","610c736500a4b33398fef94f","bdp_wmem","Sat Apr 08 2023 11:59:40 GMT-0400 (Eastern Daylight Time)","565457","Match,No Match","","null","","","","","","<div class='trialBorder'><div class='vertical-center'><img src='img/correct.jpg'></div><div class='respDiv'><div class='respDivL'><font style='color:orange'>Match<br>(e)</font></div><div class='respDivR'>No Match<br>(i)</div></div></div>","null","FEEDBACK","","","","","","","","","","",""
"html-keyboard-response","100","239222","0.0-7.0-1.13","610c736500a4b33398fef94f","bdp_wmem","Sat Apr 08 2023 11:59:40 GMT-0400 (Eastern Daylight Time)","565457","Match,No Match","","null","","","","","","<div class='trialBorder'><div class='vertical-center'><img src='img/fixation2_sml.jpg'</img></div></div>","null","FIX","","","","","","","","","","",""
"html-keyboard-response","101","240725","0.0-7.0-2.13","610c736500a4b33398fef94f","bdp_wmem","Sat Apr 08 2023 11:59:40 GMT-0400 (Eastern Daylight Time)","565457","Match,No Match","","null","","","","","","<div class='trialBorder'><div class='vertical-center'><img style='vertical-align:center; align:center' src='img/fixation2_sml.jpg'></div><div class='arrayDiv1'><div class='tc'><img class='introPic' src='trustrating_stim/white_mw040.bmp'><br><font color='red'><strong>Keep</strong></font></div></div></div>","null","ARRAY","1","trustrating_stim/white_mw040.bmp","0","Match","e","1500","","","","",""
"html-keyboard-response","102","244726","0.0-7.0-3.13","610c736500a4b33398fef94f","bdp_wmem","Sat Apr 08 2023 11:59:40 GMT-0400 (Eastern Daylight Time)","565457","Match,No Match","","null","","","","","","<div class='trialBorder'><div class='vertical-center'><img src='img/fixation2_sml.jpg'</img></div></div>","null","DELAY","","","","","","","","","","",""
"html-keyboard-response","103","245806","0.0-7.0-4.13","610c736500a4b33398fef94f","bdp_wmem","Sat Apr 08 2023 11:59:40 GMT-0400 (Eastern Daylight Time)","565457","Match,No Match","","1077","","","","","","<div class='trialBorder'><div class='targDiv'><div class='tc'><img class='introPic' src='trustrating_stim/white_mw040.bmp'><br><font color='red'><strong>Keep</strong></font></div></div><div class='respDiv'><div class='respDivL'>Match<br>(e)</div><div class='respDivR'>No Match<br>(i)</div></div></div>","e","TARGET","1","trustrating_stim/white_mw040.bmp","0","Match","e","1500","trustrating_stim/white_mw040.bmp","red","Keep","REAL","1"
"html-keyboard-response","104","246307","0.0-7.0-5.13","610c736500a4b33398fef94f","bdp_wmem","Sat Apr 08 2023 11:59:40 GMT-0400 (Eastern Daylight Time)","565457","Match,No Match","","null","","","","","","<div class='trialBorder'><div class='vertical-center'><img src='img/correct.jpg'></div><div class='respDiv'><div class='respDivL'><font style='color:orange'>Match<br>(e)</font></div><div class='respDivR'>No Match<br>(i)</div></div></div>","null","FEEDBACK","","","","","","","","","","",""
"html-keyboard-response","105","246810","0.0-7.0-1.14","610c736500a4b33398fef94f","bdp_wmem","Sat Apr 08 2023 11:59:40 GMT-0400 (Eastern Daylight Time)","565457","Match,No Match","","null","","","","","","<div class='trialBorder'><div class='vertical-center'><img src='img/fixation2_sml.jpg'</img></div></div>","null","FIX","","","","","","","","","","",""
"html-keyboard-response","106","251310","0.0-7.0-2.14","610c736500a4b33398fef94f","bdp_wmem","Sat Apr 08 2023 11:59:40 GMT-0400 (Eastern Daylight Time)","565457","Match,No Match","","null","","","","","","<div class='trialBorder'><div class='vertical-center'><img style='vertical-align:center; align:center' src='img/fixation2_sml.jpg'></div><div class='arrayDiv3'><div class='tl'><img class='introPic' src='trustrating_stim/white_mw091.bmp'><br><font color='green'><strong>Share</strong></font></div><div class='tc'><img class='introPic' src='trustrating_stim/white_mw092.bmp'><br><font color='red'><strong>Keep</strong></font></div><div class='tr'><img class='introPic' src='trustrating_stim/white_mw012.bmp'><br><font color='red'><strong>Keep</strong></font></div></div></div>","null","ARRAY","3","trustrating_stim/white_mw091.bmp,trustrating_stim/white_mw092.bmp,trustrating_stim/white_mw012.bmp","1,0,0","noMatchOutcome","i","4500","","","","",""
"html-keyboard-response","107","255311","0.0-7.0-3.14","610c736500a4b33398fef94f","bdp_wmem","Sat Apr 08 2023 11:59:40 GMT-0400 (Eastern Daylight Time)","565457","Match,No Match","","null","","","","","","<div class='trialBorder'><div class='vertical-center'><img src='img/fixation2_sml.jpg'</img></div></div>","null","DELAY","","","","","","","","","","",""
"html-keyboard-response","108","256603","0.0-7.0-4.14","610c736500a4b33398fef94f","bdp_wmem","Sat Apr 08 2023 11:59:40 GMT-0400 (Eastern Daylight Time)","565457","Match,No Match","","1290","","","","","","<div class='trialBorder'><div class='targDiv'><div class='tc'><img class='introPic' src='trustrating_stim/white_mw092.bmp'><br><font color='green'><strong>Share</strong></font></div></div><div class='respDiv'><div class='respDivL'>Match<br>(e)</div><div class='respDivR'>No Match<br>(i)</div></div></div>","i","TARGET","3","trustrating_stim/white_mw091.bmp,trustrating_stim/white_mw092.bmp,trustrating_stim/white_mw012.bmp","1,0,0","noMatchOutcome","i","4500","trustrating_stim/white_mw092.bmp","green","Share","REAL","1"
"html-keyboard-response","109","257105","0.0-7.0-5.14","610c736500a4b33398fef94f","bdp_wmem","Sat Apr 08 2023 11:59:40 GMT-0400 (Eastern Daylight Time)","565457","Match,No Match","","null","","","","","","<div class='trialBorder'><div class='vertical-center'><img src='img/correct.jpg'></div><div class='respDiv'><div class='respDivL'>Match<br>(e)</div><div class='respDivR'><font style='color:orange'>No Match<br>(i)</font></div></div></div>","null","FEEDBACK","","","","","","","","","","",""
"html-keyboard-response","110","257607","0.0-7.0-1.15","610c736500a4b33398fef94f","bdp_wmem","Sat Apr 08 2023 11:59:40 GMT-0400 (Eastern Daylight Time)","565457","Match,No Match","","null","","","","","","<div class='trialBorder'><div class='vertical-center'><img src='img/fixation2_sml.jpg'</img></div></div>","null","FIX","","","","","","","","","","",""
"html-keyboard-response","111","259109","0.0-7.0-2.15","610c736500a4b33398fef94f","bdp_wmem","Sat Apr 08 2023 11:59:40 GMT-0400 (Eastern Daylight Time)","565457","Match,No Match","","null","","","","","","<div class='trialBorder'><div class='vertical-center'><img style='vertical-align:center; align:center' src='img/fixation2_sml.jpg'></div><div class='arrayDiv1'><div class='tc'><img class='introPic' src='trustrating_stim/white_mw070.bmp'><br><font color='green'><strong>Share</strong></font></div></div></div>","null","ARRAY","1","trustrating_stim/white_mw070.bmp","1","Match","e","1500","","","","",""
"html-keyboard-response","112","263111","0.0-7.0-3.15","610c736500a4b33398fef94f","bdp_wmem","Sat Apr 08 2023 11:59:40 GMT-0400 (Eastern Daylight Time)","565457","Match,No Match","","null","","","","","","<div class='trialBorder'><div class='vertical-center'><img src='img/fixation2_sml.jpg'</img></div></div>","null","DELAY","","","","","","","","","","",""
"html-keyboard-response","113","264188","0.0-7.0-4.15","610c736500a4b33398fef94f","bdp_wmem","Sat Apr 08 2023 11:59:40 GMT-0400 (Eastern Daylight Time)","565457","Match,No Match","","1075","","","","","","<div class='trialBorder'><div class='targDiv'><div class='tc'><img class='introPic' src='trustrating_stim/white_mw070.bmp'><br><font color='green'><strong>Share</strong></font></div></div><div class='respDiv'><div class='respDivL'>Match<br>(e)</div><div class='respDivR'>No Match<br>(i)</div></div></div>","e","TARGET","1","trustrating_stim/white_mw070.bmp","1","Match","e","1500","trustrating_stim/white_mw070.bmp","green","Share","REAL","1"
"html-keyboard-response","114","264690","0.0-7.0-5.15","610c736500a4b33398fef94f","bdp_wmem","Sat Apr 08 2023 11:59:40 GMT-0400 (Eastern Daylight Time)","565457","Match,No Match","","null","","","","","","<div class='trialBorder'><div class='vertical-center'><img src='img/correct.jpg'></div><div class='respDiv'><div class='respDivL'><font style='color:orange'>Match<br>(e)</font></div><div class='respDivR'>No Match<br>(i)</div></div></div>","null","FEEDBACK","","","","","","","","","","",""
"html-keyboard-response","115","265191","0.0-7.0-1.16","610c736500a4b33398fef94f","bdp_wmem","Sat Apr 08 2023 11:59:40 GMT-0400 (Eastern Daylight Time)","565457","Match,No Match","","null","","","","","","<div class='trialBorder'><div class='vertical-center'><img src='img/fixation2_sml.jpg'</img></div></div>","null","FIX","","","","","","","","","","",""
"html-keyboard-response","116","269693","0.0-7.0-2.16","610c736500a4b33398fef94f","bdp_wmem","Sat Apr 08 2023 11:59:40 GMT-0400 (Eastern Daylight Time)","565457","Match,No Match","","null","","","","","","<div class='trialBorder'><div class='vertical-center'><img style='vertical-align:center; align:center' src='img/fixation2_sml.jpg'></div><div class='arrayDiv3'><div class='tl'><img class='introPic' src='trustrating_stim/white_mw078.bmp'><br><font color='red'><strong>Keep</strong></font></div><div class='tc'><img class='introPic' src='trustrating_stim/white_mw085.bmp'><br><font color='green'><strong>Share</strong></font></div><div class='tr'><img class='introPic' src='trustrating_stim/white_mw038.bmp'><br><font color='red'><strong>Keep</strong></font></div></div></div>","null","ARRAY","3","trustrating_stim/white_mw078.bmp,trustrating_stim/white_mw085.bmp,trustrating_stim/white_mw038.bmp","0,1,0","noMatchFace","i","4500","","","","",""
"html-keyboard-response","117","273695","0.0-7.0-3.16","610c736500a4b33398fef94f","bdp_wmem","Sat Apr 08 2023 11:59:40 GMT-0400 (Eastern Daylight Time)","565457","Match,No Match","","null","","","","","","<div class='trialBorder'><div class='vertical-center'><img src='img/fixation2_sml.jpg'</img></div></div>","null","DELAY","","","","","","","","","","",""
"html-keyboard-response","118","274878","0.0-7.0-4.16","610c736500a4b33398fef94f","bdp_wmem","Sat Apr 08 2023 11:59:40 GMT-0400 (Eastern Daylight Time)","565457","Match,No Match","","1181","","","","","","<div class='trialBorder'><div class='targDiv'><div class='tc'><img class='introPic' src='trustrating_stim/white_mw003.bmp'><br><font color='red'><strong>Keep</strong></font></div></div><div class='respDiv'><div class='respDivL'>Match<br>(e)</div><div class='respDivR'>No Match<br>(i)</div></div></div>","i","TARGET","3","trustrating_stim/white_mw078.bmp,trustrating_stim/white_mw085.bmp,trustrating_stim/white_mw038.bmp","0,1,0","noMatchFace","i","4500","trustrating_stim/white_mw003.bmp","red","Keep","REAL","1"
"html-keyboard-response","119","275380","0.0-7.0-5.16","610c736500a4b33398fef94f","bdp_wmem","Sat Apr 08 2023 11:59:40 GMT-0400 (Eastern Daylight Time)","565457","Match,No Match","","null","","","","","","<div class='trialBorder'><div class='vertical-center'><img src='img/correct.jpg'></div><div class='respDiv'><div class='respDivL'>Match<br>(e)</div><div class='respDivR'><font style='color:orange'>No Match<br>(i)</font></div></div></div>","null","FEEDBACK","","","","","","","","","","",""
"html-keyboard-response","120","275881","0.0-7.0-1.17","610c736500a4b33398fef94f","bdp_wmem","Sat Apr 08 2023 11:59:40 GMT-0400 (Eastern Daylight Time)","565457","Match,No Match","","null","","","","","","<div class='trialBorder'><div class='vertical-center'><img src='img/fixation2_sml.jpg'</img></div></div>","null","FIX","","","","","","","","","","",""
"html-keyboard-response","121","278883","0.0-7.0-2.17","610c736500a4b33398fef94f","bdp_wmem","Sat Apr 08 2023 11:59:40 GMT-0400 (Eastern Daylight Time)","565457","Match,No Match","","null","","","","","","<div class='trialBorder'><div class='vertical-center'><img style='vertical-align:center; align:center' src='img/fixation2_sml.jpg'></div><div class='arrayDiv2'><div class='tl'><img class='introPic' src='trustrating_stim/white_mw078.bmp'><br><font color='green'><strong>Share</strong></font></div><div class='tr'><img class='introPic' src='trustrating_stim/white_mw042.bmp'><br><font color='red'><strong>Keep</strong></font></div></div></div>","null","ARRAY","2","trustrating_stim/white_mw078.bmp,trustrating_stim/white_mw042.bmp","1,0","Match","e","3000","","","","",""
"html-keyboard-response","122","282884","0.0-7.0-3.17","610c736500a4b33398fef94f","bdp_wmem","Sat Apr 08 2023 11:59:40 GMT-0400 (Eastern Daylight Time)","565457","Match,No Match","","null","","","","","","<div class='trialBorder'><div class='vertical-center'><img src='img/fixation2_sml.jpg'</img></div></div>","null","DELAY","","","","","","","","","","",""
"html-keyboard-response","123","283842","0.0-7.0-4.17","610c736500a4b33398fef94f","bdp_wmem","Sat Apr 08 2023 11:59:40 GMT-0400 (Eastern Daylight Time)","565457","Match,No Match","","955","","","","","","<div class='trialBorder'><div class='targDiv'><div class='tc'><img class='introPic' src='trustrating_stim/white_mw042.bmp'><br><font color='red'><strong>Keep</strong></font></div></div><div class='respDiv'><div class='respDivL'>Match<br>(e)</div><div class='respDivR'>No Match<br>(i)</div></div></div>","e","TARGET","2","trustrating_stim/white_mw078.bmp,trustrating_stim/white_mw042.bmp","1,0","Match","e","3000","trustrating_stim/white_mw042.bmp","red","Keep","REAL","1"
"html-keyboard-response","124","284344","0.0-7.0-5.17","610c736500a4b33398fef94f","bdp_wmem","Sat Apr 08 2023 11:59:40 GMT-0400 (Eastern Daylight Time)","565457","Match,No Match","","null","","","","","","<div class='trialBorder'><div class='vertical-center'><img src='img/correct.jpg'></div><div class='respDiv'><div class='respDivL'><font style='color:orange'>Match<br>(e)</font></div><div class='respDivR'>No Match<br>(i)</div></div></div>","null","FEEDBACK","","","","","","","","","","",""
"html-keyboard-response","125","284845","0.0-7.0-1.18","610c736500a4b33398fef94f","bdp_wmem","Sat Apr 08 2023 11:59:40 GMT-0400 (Eastern Daylight Time)","565457","Match,No Match","","null","","","","","","<div class='trialBorder'><div class='vertical-center'><img src='img/fixation2_sml.jpg'</img></div></div>","null","FIX","","","","","","","","","","",""
"html-keyboard-response","126","289348","0.0-7.0-2.18","610c736500a4b33398fef94f","bdp_wmem","Sat Apr 08 2023 11:59:40 GMT-0400 (Eastern Daylight Time)","565457","Match,No Match","","null","","","","","","<div class='trialBorder'><div class='vertical-center'><img style='vertical-align:center; align:center' src='img/fixation2_sml.jpg'></div><div class='arrayDiv3'><div class='tl'><img class='introPic' src='trustrating_stim/white_mw091.bmp'><br><font color='red'><strong>Keep</strong></font></div><div class='tc'><img class='introPic' src='trustrating_stim/white_mw040.bmp'><br><font color='green'><strong>Share</strong></font></div><div class='tr'><img class='introPic' src='trustrating_stim/white_mw078.bmp'><br><font color='green'><strong>Share</strong></font></div></div></div>","null","ARRAY","3","trustrating_stim/white_mw091.bmp,trustrating_stim/white_mw040.bmp,trustrating_stim/white_mw078.bmp","0,1,1","noMatchOutcome","i","4500","","","","",""
"html-keyboard-response","127","293349","0.0-7.0-3.18","610c736500a4b33398fef94f","bdp_wmem","Sat Apr 08 2023 11:59:40 GMT-0400 (Eastern Daylight Time)","565457","Match,No Match","","null","","","","","","<div class='trialBorder'><div class='vertical-center'><img src='img/fixation2_sml.jpg'</img></div></div>","null","DELAY","","","","","","","","","","",""
"html-keyboard-response","128","294660","0.0-7.0-4.18","610c736500a4b33398fef94f","bdp_wmem","Sat Apr 08 2023 11:59:40 GMT-0400 (Eastern Daylight Time)","565457","Match,No Match","","1310","","","","","","<div class='trialBorder'><div class='targDiv'><div class='tc'><img class='introPic' src='trustrating_stim/white_mw091.bmp'><br><font color='green'><strong>Share</strong></font></div></div><div class='respDiv'><div class='respDivL'>Match<br>(e)</div><div class='respDivR'>No Match<br>(i)</div></div></div>","e","TARGET","3","trustrating_stim/white_mw091.bmp,trustrating_stim/white_mw040.bmp,trustrating_stim/white_mw078.bmp","0,1,1","noMatchOutcome","i","4500","trustrating_stim/white_mw091.bmp","green","Share","REAL","0"
"html-keyboard-response","129","295162","0.0-7.0-5.18","610c736500a4b33398fef94f","bdp_wmem","Sat Apr 08 2023 11:59:40 GMT-0400 (Eastern Daylight Time)","565457","Match,No Match","","null","","","","","","<div class='trialBorder'><div class='vertical-center'><img src='img/error.jpg'></div><div class='respDiv'><div class='respDivL'><font style='color:orange'>Match<br>(e)</font></div><div class='respDivR'>No Match<br>(i)</div></div></div>","null","FEEDBACK","","","","","","","","","","",""
"html-keyboard-response","130","295664","0.0-7.0-1.19","610c736500a4b33398fef94f","bdp_wmem","Sat Apr 08 2023 11:59:40 GMT-0400 (Eastern Daylight Time)","565457","Match,No Match","","null","","","","","","<div class='trialBorder'><div class='vertical-center'><img src='img/fixation2_sml.jpg'</img></div></div>","null","FIX","","","","","","","","","","",""
"html-keyboard-response","131","300166","0.0-7.0-2.19","610c736500a4b33398fef94f","bdp_wmem","Sat Apr 08 2023 11:59:40 GMT-0400 (Eastern Daylight Time)","565457","Match,No Match","","null","","","","","","<div class='trialBorder'><div class='vertical-center'><img style='vertical-align:center; align:center' src='img/fixation2_sml.jpg'></div><div class='arrayDiv3'><div class='tl'><img class='introPic' src='trustrating_stim/white_mw013.bmp'><br><font color='red'><strong>Keep</strong></font></div><div class='tc'><img class='introPic' src='trustrating_stim/white_mw040.bmp'><br><font color='green'><strong>Share</strong></font></div><div class='tr'><img class='introPic' src='trustrating_stim/white_mw038.bmp'><br><font color='green'><strong>Share</strong></font></div></div></div>","null","ARRAY","3","trustrating_stim/white_mw013.bmp,trustrating_stim/white_mw040.bmp,trustrating_stim/white_mw038.bmp","0,1,1","Match","e","4500","","","","",""
"html-keyboard-response","132","304168","0.0-7.0-3.19","610c736500a4b33398fef94f","bdp_wmem","Sat Apr 08 2023 11:59:40 GMT-0400 (Eastern Daylight Time)","565457","Match,No Match","","null","","","","","","<div class='trialBorder'><div class='vertical-center'><img src='img/fixation2_sml.jpg'</img></div></div>","null","DELAY","","","","","","","","","","",""
"html-keyboard-response","133","305579","0.0-7.0-4.19","610c736500a4b33398fef94f","bdp_wmem","Sat Apr 08 2023 11:59:40 GMT-0400 (Eastern Daylight Time)","565457","Match,No Match","","1409","","","","","","<div class='trialBorder'><div class='targDiv'><div class='tc'><img class='introPic' src='trustrating_stim/white_mw013.bmp'><br><font color='red'><strong>Keep</strong></font></div></div><div class='respDiv'><div class='respDivL'>Match<br>(e)</div><div class='respDivR'>No Match<br>(i)</div></div></div>","e","TARGET","3","trustrating_stim/white_mw013.bmp,trustrating_stim/white_mw040.bmp,trustrating_stim/white_mw038.bmp","0,1,1","Match","e","4500","trustrating_stim/white_mw013.bmp","red","Keep","REAL","1"
"html-keyboard-response","134","306081","0.0-7.0-5.19","610c736500a4b33398fef94f","bdp_wmem","Sat Apr 08 2023 11:59:40 GMT-0400 (Eastern Daylight Time)","565457","Match,No Match","","null","","","","","","<div class='trialBorder'><div class='vertical-center'><img src='img/correct.jpg'></div><div class='respDiv'><div class='respDivL'><font style='color:orange'>Match<br>(e)</font></div><div class='respDivR'>No Match<br>(i)</div></div></div>","null","FEEDBACK","","","","","","","","","","",""
"html-keyboard-response","135","306582","0.0-7.0-1.20","610c736500a4b33398fef94f","bdp_wmem","Sat Apr 08 2023 11:59:40 GMT-0400 (Eastern Daylight Time)","565457","Match,No Match","","null","","","","","","<div class='trialBorder'><div class='vertical-center'><img src='img/fixation2_sml.jpg'</img></div></div>","null","FIX","","","","","","","","","","",""
"html-keyboard-response","136","308085","0.0-7.0-2.20","610c736500a4b33398fef94f","bdp_wmem","Sat Apr 08 2023 11:59:40 GMT-0400 (Eastern Daylight Time)","565457","Match,No Match","","null","","","","","","<div class='trialBorder'><div class='vertical-center'><img style='vertical-align:center; align:center' src='img/fixation2_sml.jpg'></div><div class='arrayDiv1'><div class='tc'><img class='introPic' src='trustrating_stim/white_mw003.bmp'><br><font color='green'><strong>Share</strong></font></div></div></div>","null","ARRAY","1","trustrating_stim/white_mw003.bmp","1","noMatchOutcome","i","1500","","","","",""
"html-keyboard-response","137","312087","0.0-7.0-3.20","610c736500a4b33398fef94f","bdp_wmem","Sat Apr 08 2023 11:59:40 GMT-0400 (Eastern Daylight Time)","565457","Match,No Match","","null","","","","","","<div class='trialBorder'><div class='vertical-center'><img src='img/fixation2_sml.jpg'</img></div></div>","null","DELAY","","","","","","","","","","",""
"html-keyboard-response","138","313128","0.0-7.0-4.20","610c736500a4b33398fef94f","bdp_wmem","Sat Apr 08 2023 11:59:40 GMT-0400 (Eastern Daylight Time)","565457","Match,No Match","","1039","","","","","","<div class='trialBorder'><div class='targDiv'><div class='tc'><img class='introPic' src='trustrating_stim/white_mw003.bmp'><br><font color='red'><strong>Keep</strong></font></div></div><div class='respDiv'><div class='respDivL'>Match<br>(e)</div><div class='respDivR'>No Match<br>(i)</div></div></div>","i","TARGET","1","trustrating_stim/white_mw003.bmp","1","noMatchOutcome","i","1500","trustrating_stim/white_mw003.bmp","red","Keep","REAL","1"
"html-keyboard-response","139","313629","0.0-7.0-5.20","610c736500a4b33398fef94f","bdp_wmem","Sat Apr 08 2023 11:59:40 GMT-0400 (Eastern Daylight Time)","565457","Match,No Match","","null","","","","","","<div class='trialBorder'><div class='vertical-center'><img src='img/correct.jpg'></div><div class='respDiv'><div class='respDivL'>Match<br>(e)</div><div class='respDivR'><font style='color:orange'>No Match<br>(i)</font></div></div></div>","null","FEEDBACK","","","","","","","","","","",""
"html-keyboard-response","140","314132","0.0-7.0-1.21","610c736500a4b33398fef94f","bdp_wmem","Sat Apr 08 2023 11:59:40 GMT-0400 (Eastern Daylight Time)","565457","Match,No Match","","null","","","","","","<div class='trialBorder'><div class='vertical-center'><img src='img/fixation2_sml.jpg'</img></div></div>","null","FIX","","","","","","","","","","",""
"html-keyboard-response","141","315633","0.0-7.0-2.21","610c736500a4b33398fef94f","bdp_wmem","Sat Apr 08 2023 11:59:40 GMT-0400 (Eastern Daylight Time)","565457","Match,No Match","","null","","","","","","<div class='trialBorder'><div class='vertical-center'><img style='vertical-align:center; align:center' src='img/fixation2_sml.jpg'></div><div class='arrayDiv1'><div class='tc'><img class='introPic' src='trustrating_stim/white_mw003.bmp'><br><font color='green'><strong>Share</strong></font></div></div></div>","null","ARRAY","1","trustrating_stim/white_mw003.bmp","1","noMatchFace","i","1500","","","","",""
"html-keyboard-response","142","319635","0.0-7.0-3.21","610c736500a4b33398fef94f","bdp_wmem","Sat Apr 08 2023 11:59:40 GMT-0400 (Eastern Daylight Time)","565457","Match,No Match","","null","","","","","","<div class='trialBorder'><div class='vertical-center'><img src='img/fixation2_sml.jpg'</img></div></div>","null","DELAY","","","","","","","","","","",""
"html-keyboard-response","143","320949","0.0-7.0-4.21","610c736500a4b33398fef94f","bdp_wmem","Sat Apr 08 2023 11:59:40 GMT-0400 (Eastern Daylight Time)","565457","Match,No Match","","1313","","","","","","<div class='trialBorder'><div class='targDiv'><div class='tc'><img class='introPic' src='trustrating_stim/white_mw091.bmp'><br><font color='green'><strong>Share</strong></font></div></div><div class='respDiv'><div class='respDivL'>Match<br>(e)</div><div class='respDivR'>No Match<br>(i)</div></div></div>","i","TARGET","1","trustrating_stim/white_mw003.bmp","1","noMatchFace","i","1500","trustrating_stim/white_mw091.bmp","green","Share","REAL","1"
"html-keyboard-response","144","321451","0.0-7.0-5.21","610c736500a4b33398fef94f","bdp_wmem","Sat Apr 08 2023 11:59:40 GMT-0400 (Eastern Daylight Time)","565457","Match,No Match","","null","","","","","","<div class='trialBorder'><div class='vertical-center'><img src='img/correct.jpg'></div><div class='respDiv'><div class='respDivL'>Match<br>(e)</div><div class='respDivR'><font style='color:orange'>No Match<br>(i)</font></div></div></div>","null","FEEDBACK","","","","","","","","","","",""
"html-keyboard-response","145","321952","0.0-7.0-1.22","610c736500a4b33398fef94f","bdp_wmem","Sat Apr 08 2023 11:59:40 GMT-0400 (Eastern Daylight Time)","565457","Match,No Match","","null","","","","","","<div class='trialBorder'><div class='vertical-center'><img src='img/fixation2_sml.jpg'</img></div></div>","null","FIX","","","","","","","","","","",""
"html-keyboard-response","146","326455","0.0-7.0-2.22","610c736500a4b33398fef94f","bdp_wmem","Sat Apr 08 2023 11:59:40 GMT-0400 (Eastern Daylight Time)","565457","Match,No Match","","null","","","","","","<div class='trialBorder'><div class='vertical-center'><img style='vertical-align:center; align:center' src='img/fixation2_sml.jpg'></div><div class='arrayDiv3'><div class='tl'><img class='introPic' src='trustrating_stim/white_mw003.bmp'><br><font color='green'><strong>Share</strong></font></div><div class='tc'><img class='introPic' src='trustrating_stim/white_mw085.bmp'><br><font color='red'><strong>Keep</strong></font></div><div class='tr'><img class='introPic' src='trustrating_stim/white_mw040.bmp'><br><font color='green'><strong>Share</strong></font></div></div></div>","null","ARRAY","3","trustrating_stim/white_mw003.bmp,trustrating_stim/white_mw085.bmp,trustrating_stim/white_mw040.bmp","1,0,1","Match","e","4500","","","","",""
"html-keyboard-response","147","330456","0.0-7.0-3.22","610c736500a4b33398fef94f","bdp_wmem","Sat Apr 08 2023 11:59:40 GMT-0400 (Eastern Daylight Time)","565457","Match,No Match","","null","","","","","","<div class='trialBorder'><div class='vertical-center'><img src='img/fixation2_sml.jpg'</img></div></div>","null","DELAY","","","","","","","","","","",""
"html-keyboard-response","148","331681","0.0-7.0-4.22","610c736500a4b33398fef94f","bdp_wmem","Sat Apr 08 2023 11:59:40 GMT-0400 (Eastern Daylight Time)","565457","Match,No Match","","1222","","","","","","<div class='trialBorder'><div class='targDiv'><div class='tc'><img class='introPic' src='trustrating_stim/white_mw003.bmp'><br><font color='green'><strong>Share</strong></font></div></div><div class='respDiv'><div class='respDivL'>Match<br>(e)</div><div class='respDivR'>No Match<br>(i)</div></div></div>","e","TARGET","3","trustrating_stim/white_mw003.bmp,trustrating_stim/white_mw085.bmp,trustrating_stim/white_mw040.bmp","1,0,1","Match","e","4500","trustrating_stim/white_mw003.bmp","green","Share","REAL","1"
"html-keyboard-response","149","332183","0.0-7.0-5.22","610c736500a4b33398fef94f","bdp_wmem","Sat Apr 08 2023 11:59:40 GMT-0400 (Eastern Daylight Time)","565457","Match,No Match","","null","","","","","","<div class='trialBorder'><div class='vertical-center'><img src='img/correct.jpg'></div><div class='respDiv'><div class='respDivL'><font style='color:orange'>Match<br>(e)</font></div><div class='respDivR'>No Match<br>(i)</div></div></div>","null","FEEDBACK","","","","","","","","","","",""
"html-keyboard-response","150","332686","0.0-7.0-1.23","610c736500a4b33398fef94f","bdp_wmem","Sat Apr 08 2023 11:59:40 GMT-0400 (Eastern Daylight Time)","565457","Match,No Match","","null","","","","","","<div class='trialBorder'><div class='vertical-center'><img src='img/fixation2_sml.jpg'</img></div></div>","null","FIX","","","","","","","","","","",""
"html-keyboard-response","151","337188","0.0-7.0-2.23","610c736500a4b33398fef94f","bdp_wmem","Sat Apr 08 2023 11:59:40 GMT-0400 (Eastern Daylight Time)","565457","Match,No Match","","null","","","","","","<div class='trialBorder'><div class='vertical-center'><img style='vertical-align:center; align:center' src='img/fixation2_sml.jpg'></div><div class='arrayDiv3'><div class='tl'><img class='introPic' src='trustrating_stim/white_mw078.bmp'><br><font color='green'><strong>Share</strong></font></div><div class='tc'><img class='introPic' src='trustrating_stim/white_mw040.bmp'><br><font color='red'><strong>Keep</strong></font></div><div class='tr'><img class='introPic' src='trustrating_stim/white_mw042.bmp'><br><font color='green'><strong>Share</strong></font></div></div></div>","null","ARRAY","3","trustrating_stim/white_mw078.bmp,trustrating_stim/white_mw040.bmp,trustrating_stim/white_mw042.bmp","1,0,1","noMatchOutcome","i","4500","","","","",""
"html-keyboard-response","152","341189","0.0-7.0-3.23","610c736500a4b33398fef94f","bdp_wmem","Sat Apr 08 2023 11:59:40 GMT-0400 (Eastern Daylight Time)","565457","Match,No Match","","null","","","","","","<div class='trialBorder'><div class='vertical-center'><img src='img/fixation2_sml.jpg'</img></div></div>","null","DELAY","","","","","","","","","","",""
"html-keyboard-response","153","342491","0.0-7.0-4.23","610c736500a4b33398fef94f","bdp_wmem","Sat Apr 08 2023 11:59:40 GMT-0400 (Eastern Daylight Time)","565457","Match,No Match","","1300","","","","","","<div class='trialBorder'><div class='targDiv'><div class='tc'><img class='introPic' src='trustrating_stim/white_mw078.bmp'><br><font color='red'><strong>Keep</strong></font></div></div><div class='respDiv'><div class='respDivL'>Match<br>(e)</div><div class='respDivR'>No Match<br>(i)</div></div></div>","e","TARGET","3","trustrating_stim/white_mw078.bmp,trustrating_stim/white_mw040.bmp,trustrating_stim/white_mw042.bmp","1,0,1","noMatchOutcome","i","4500","trustrating_stim/white_mw078.bmp","red","Keep","REAL","0"
"html-keyboard-response","154","342992","0.0-7.0-5.23","610c736500a4b33398fef94f","bdp_wmem","Sat Apr 08 2023 11:59:40 GMT-0400 (Eastern Daylight Time)","565457","Match,No Match","","null","","","","","","<div class='trialBorder'><div class='vertical-center'><img src='img/error.jpg'></div><div class='respDiv'><div class='respDivL'><font style='color:orange'>Match<br>(e)</font></div><div class='respDivR'>No Match<br>(i)</div></div></div>","null","FEEDBACK","","","","","","","","","","",""
"html-keyboard-response","155","343494","0.0-7.0-1.24","610c736500a4b33398fef94f","bdp_wmem","Sat Apr 08 2023 11:59:40 GMT-0400 (Eastern Daylight Time)","565457","Match,No Match","","null","","","","","","<div class='trialBorder'><div class='vertical-center'><img src='img/fixation2_sml.jpg'</img></div></div>","null","FIX","","","","","","","","","","",""
"html-keyboard-response","156","346496","0.0-7.0-2.24","610c736500a4b33398fef94f","bdp_wmem","Sat Apr 08 2023 11:59:40 GMT-0400 (Eastern Daylight Time)","565457","Match,No Match","","null","","","","","","<div class='trialBorder'><div class='vertical-center'><img style='vertical-align:center; align:center' src='img/fixation2_sml.jpg'></div><div class='arrayDiv2'><div class='tl'><img class='introPic' src='trustrating_stim/white_mw003.bmp'><br><font color='green'><strong>Share</strong></font></div><div class='tr'><img class='introPic' src='trustrating_stim/white_mw078.bmp'><br><font color='red'><strong>Keep</strong></font></div></div></div>","null","ARRAY","2","trustrating_stim/white_mw003.bmp,trustrating_stim/white_mw078.bmp","1,0","Match","e","3000","","","","",""
"html-keyboard-response","157","350498","0.0-7.0-3.24","610c736500a4b33398fef94f","bdp_wmem","Sat Apr 08 2023 11:59:40 GMT-0400 (Eastern Daylight Time)","565457","Match,No Match","","null","","","","","","<div class='trialBorder'><div class='vertical-center'><img src='img/fixation2_sml.jpg'</img></div></div>","null","DELAY","","","","","","","","","","",""
"html-keyboard-response","158","352070","0.0-7.0-4.24","610c736500a4b33398fef94f","bdp_wmem","Sat Apr 08 2023 11:59:40 GMT-0400 (Eastern Daylight Time)","565457","Match,No Match","","1570","","","","","","<div class='trialBorder'><div class='targDiv'><div class='tc'><img class='introPic' src='trustrating_stim/white_mw078.bmp'><br><font color='red'><strong>Keep</strong></font></div></div><div class='respDiv'><div class='respDivL'>Match<br>(e)</div><div class='respDivR'>No Match<br>(i)</div></div></div>","e","TARGET","2","trustrating_stim/white_mw003.bmp,trustrating_stim/white_mw078.bmp","1,0","Match","e","3000","trustrating_stim/white_mw078.bmp","red","Keep","REAL","1"
"html-keyboard-response","159","352572","0.0-7.0-5.24","610c736500a4b33398fef94f","bdp_wmem","Sat Apr 08 2023 11:59:40 GMT-0400 (Eastern Daylight Time)","565457","Match,No Match","","null","","","","","","<div class='trialBorder'><div class='vertical-center'><img src='img/correct.jpg'></div><div class='respDiv'><div class='respDivL'><font style='color:orange'>Match<br>(e)</font></div><div class='respDivR'>No Match<br>(i)</div></div></div>","null","FEEDBACK","","","","","","","","","","",""
"html-keyboard-response","160","353073","0.0-7.0-1.25","610c736500a4b33398fef94f","bdp_wmem","Sat Apr 08 2023 11:59:40 GMT-0400 (Eastern Daylight Time)","565457","Match,No Match","","null","","","","","","<div class='trialBorder'><div class='vertical-center'><img src='img/fixation2_sml.jpg'</img></div></div>","null","FIX","","","","","","","","","","",""
"html-keyboard-response","161","356076","0.0-7.0-2.25","610c736500a4b33398fef94f","bdp_wmem","Sat Apr 08 2023 11:59:40 GMT-0400 (Eastern Daylight Time)","565457","Match,No Match","","null","","","","","","<div class='trialBorder'><div class='vertical-center'><img style='vertical-align:center; align:center' src='img/fixation2_sml.jpg'></div><div class='arrayDiv2'><div class='tl'><img class='introPic' src='trustrating_stim/white_mw012.bmp'><br><font color='green'><strong>Share</strong></font></div><div class='tr'><img class='introPic' src='trustrating_stim/white_mw013.bmp'><br><font color='red'><strong>Keep</strong></font></div></div></div>","null","ARRAY","2","trustrating_stim/white_mw012.bmp,trustrating_stim/white_mw013.bmp","1,0","noMatchOutcome","i","3000","","","","",""
"html-keyboard-response","162","360077","0.0-7.0-3.25","610c736500a4b33398fef94f","bdp_wmem","Sat Apr 08 2023 11:59:40 GMT-0400 (Eastern Daylight Time)","565457","Match,No Match","","null","","","","","","<div class='trialBorder'><div class='vertical-center'><img src='img/fixation2_sml.jpg'</img></div></div>","null","DELAY","","","","","","","","","","",""
"html-keyboard-response","163","361947","0.0-7.0-4.25","610c736500a4b33398fef94f","bdp_wmem","Sat Apr 08 2023 11:59:40 GMT-0400 (Eastern Daylight Time)","565457","Match,No Match","","1867","","","","","","<div class='trialBorder'><div class='targDiv'><div class='tc'><img class='introPic' src='trustrating_stim/white_mw013.bmp'><br><font color='green'><strong>Share</strong></font></div></div><div class='respDiv'><div class='respDivL'>Match<br>(e)</div><div class='respDivR'>No Match<br>(i)</div></div></div>","i","TARGET","2","trustrating_stim/white_mw012.bmp,trustrating_stim/white_mw013.bmp","1,0","noMatchOutcome","i","3000","trustrating_stim/white_mw013.bmp","green","Share","REAL","1"
"html-keyboard-response","164","362449","0.0-7.0-5.25","610c736500a4b33398fef94f","bdp_wmem","Sat Apr 08 2023 11:59:40 GMT-0400 (Eastern Daylight Time)","565457","Match,No Match","","null","","","","","","<div class='trialBorder'><div class='vertical-center'><img src='img/correct.jpg'></div><div class='respDiv'><div class='respDivL'>Match<br>(e)</div><div class='respDivR'><font style='color:orange'>No Match<br>(i)</font></div></div></div>","null","FEEDBACK","","","","","","","","","","",""
"html-keyboard-response","165","362951","0.0-7.0-1.26","610c736500a4b33398fef94f","bdp_wmem","Sat Apr 08 2023 11:59:40 GMT-0400 (Eastern Daylight Time)","565457","Match,No Match","","null","","","","","","<div class='trialBorder'><div class='vertical-center'><img src='img/fixation2_sml.jpg'</img></div></div>","null","FIX","","","","","","","","","","",""
"html-keyboard-response","166","364454","0.0-7.0-2.26","610c736500a4b33398fef94f","bdp_wmem","Sat Apr 08 2023 11:59:40 GMT-0400 (Eastern Daylight Time)","565457","Match,No Match","","null","","","","","","<div class='trialBorder'><div class='vertical-center'><img style='vertical-align:center; align:center' src='img/fixation2_sml.jpg'></div><div class='arrayDiv1'><div class='tc'><img class='introPic' src='trustrating_stim/white_mw040.bmp'><br><font color='red'><strong>Keep</strong></font></div></div></div>","null","ARRAY","1","trustrating_stim/white_mw040.bmp","0","Match","e","1500","","","","",""
"html-keyboard-response","167","368456","0.0-7.0-3.26","610c736500a4b33398fef94f","bdp_wmem","Sat Apr 08 2023 11:59:40 GMT-0400 (Eastern Daylight Time)","565457","Match,No Match","","null","","","","","","<div class='trialBorder'><div class='vertical-center'><img src='img/fixation2_sml.jpg'</img></div></div>","null","DELAY","","","","","","","","","","",""
"html-keyboard-response","168","369386","0.0-7.0-4.26","610c736500a4b33398fef94f","bdp_wmem","Sat Apr 08 2023 11:59:40 GMT-0400 (Eastern Daylight Time)","565457","Match,No Match","","928","","","","","","<div class='trialBorder'><div class='targDiv'><div class='tc'><img class='introPic' src='trustrating_stim/white_mw040.bmp'><br><font color='red'><strong>Keep</strong></font></div></div><div class='respDiv'><div class='respDivL'>Match<br>(e)</div><div class='respDivR'>No Match<br>(i)</div></div></div>","e","TARGET","1","trustrating_stim/white_mw040.bmp","0","Match","e","1500","trustrating_stim/white_mw040.bmp","red","Keep","REAL","1"
"html-keyboard-response","169","369888","0.0-7.0-5.26","610c736500a4b33398fef94f","bdp_wmem","Sat Apr 08 2023 11:59:40 GMT-0400 (Eastern Daylight Time)","565457","Match,No Match","","null","","","","","","<div class='trialBorder'><div class='vertical-center'><img src='img/correct.jpg'></div><div class='respDiv'><div class='respDivL'><font style='color:orange'>Match<br>(e)</font></div><div class='respDivR'>No Match<br>(i)</div></div></div>","null","FEEDBACK","","","","","","","","","","",""
"html-keyboard-response","170","370390","0.0-7.0-1.27","610c736500a4b33398fef94f","bdp_wmem","Sat Apr 08 2023 11:59:40 GMT-0400 (Eastern Daylight Time)","565457","Match,No Match","","null","","","","","","<div class='trialBorder'><div class='vertical-center'><img src='img/fixation2_sml.jpg'</img></div></div>","null","FIX","","","","","","","","","","",""
"html-keyboard-response","171","373393","0.0-7.0-2.27","610c736500a4b33398fef94f","bdp_wmem","Sat Apr 08 2023 11:59:40 GMT-0400 (Eastern Daylight Time)","565457","Match,No Match","","null","","","","","","<div class='trialBorder'><div class='vertical-center'><img style='vertical-align:center; align:center' src='img/fixation2_sml.jpg'></div><div class='arrayDiv2'><div class='tl'><img class='introPic' src='trustrating_stim/white_mw042.bmp'><br><font color='green'><strong>Share</strong></font></div><div class='tr'><img class='introPic' src='trustrating_stim/white_mw078.bmp'><br><font color='red'><strong>Keep</strong></font></div></div></div>","null","ARRAY","2","trustrating_stim/white_mw042.bmp,trustrating_stim/white_mw078.bmp","1,0","noMatchFace","i","3000","","","","",""
"html-keyboard-response","172","377395","0.0-7.0-3.27","610c736500a4b33398fef94f","bdp_wmem","Sat Apr 08 2023 11:59:40 GMT-0400 (Eastern Daylight Time)","565457","Match,No Match","","null","","","","","","<div class='trialBorder'><div class='vertical-center'><img src='img/fixation2_sml.jpg'</img></div></div>","null","DELAY","","","","","","","","","","",""
"html-keyboard-response","173","378515","0.0-7.0-4.27","610c736500a4b33398fef94f","bdp_wmem","Sat Apr 08 2023 11:59:40 GMT-0400 (Eastern Daylight Time)","565457","Match,No Match","","1120","","","","","","<div class='trialBorder'><div class='targDiv'><div class='tc'><img class='introPic' src='trustrating_stim/white_mw003.bmp'><br><font color='green'><strong>Share</strong></font></div></div><div class='respDiv'><div class='respDivL'>Match<br>(e)</div><div class='respDivR'>No Match<br>(i)</div></div></div>","e","TARGET","2","trustrating_stim/white_mw042.bmp,trustrating_stim/white_mw078.bmp","1,0","noMatchFace","i","3000","trustrating_stim/white_mw003.bmp","green","Share","REAL","0"
"html-keyboard-response","174","379018","0.0-7.0-5.27","610c736500a4b33398fef94f","bdp_wmem","Sat Apr 08 2023 11:59:40 GMT-0400 (Eastern Daylight Time)","565457","Match,No Match","","null","","","","","","<div class='trialBorder'><div class='vertical-center'><img src='img/error.jpg'></div><div class='respDiv'><div class='respDivL'><font style='color:orange'>Match<br>(e)</font></div><div class='respDivR'>No Match<br>(i)</div></div></div>","null","FEEDBACK","","","","","","","","","","",""
"html-keyboard-response","175","379520","0.0-7.0-1.28","610c736500a4b33398fef94f","bdp_wmem","Sat Apr 08 2023 11:59:40 GMT-0400 (Eastern Daylight Time)","565457","Match,No Match","","null","","","","","","<div class='trialBorder'><div class='vertical-center'><img src='img/fixation2_sml.jpg'</img></div></div>","null","FIX","","","","","","","","","","",""
"html-keyboard-response","176","384022","0.0-7.0-2.28","610c736500a4b33398fef94f","bdp_wmem","Sat Apr 08 2023 11:59:40 GMT-0400 (Eastern Daylight Time)","565457","Match,No Match","","null","","","","","","<div class='trialBorder'><div class='vertical-center'><img style='vertical-align:center; align:center' src='img/fixation2_sml.jpg'></div><div class='arrayDiv3'><div class='tl'><img class='introPic' src='trustrating_stim/white_mw091.bmp'><br><font color='red'><strong>Keep</strong></font></div><div class='tc'><img class='introPic' src='trustrating_stim/white_mw070.bmp'><br><font color='red'><strong>Keep</strong></font></div><div class='tr'><img class='introPic' src='trustrating_stim/white_mw038.bmp'><br><font color='green'><strong>Share</strong></font></div></div></div>","null","ARRAY","3","trustrating_stim/white_mw091.bmp,trustrating_stim/white_mw070.bmp,trustrating_stim/white_mw038.bmp","0,0,1","Match","e","4500","","","","",""
"html-keyboard-response","177","388023","0.0-7.0-3.28","610c736500a4b33398fef94f","bdp_wmem","Sat Apr 08 2023 11:59:40 GMT-0400 (Eastern Daylight Time)","565457","Match,No Match","","null","","","","","","<div class='trialBorder'><div class='vertical-center'><img src='img/fixation2_sml.jpg'</img></div></div>","null","DELAY","","","","","","","","","","",""
"html-keyboard-response","178","388940","0.0-7.0-4.28","610c736500a4b33398fef94f","bdp_wmem","Sat Apr 08 2023 11:59:40 GMT-0400 (Eastern Daylight Time)","565457","Match,No Match","","913","","","","","","<div class='trialBorder'><div class='targDiv'><div class='tc'><img class='introPic' src='trustrating_stim/white_mw091.bmp'><br><font color='red'><strong>Keep</strong></font></div></div><div class='respDiv'><div class='respDivL'>Match<br>(e)</div><div class='respDivR'>No Match<br>(i)</div></div></div>","e","TARGET","3","trustrating_stim/white_mw091.bmp,trustrating_stim/white_mw070.bmp,trustrating_stim/white_mw038.bmp","0,0,1","Match","e","4500","trustrating_stim/white_mw091.bmp","red","Keep","REAL","1"
"html-keyboard-response","179","389441","0.0-7.0-5.28","610c736500a4b33398fef94f","bdp_wmem","Sat Apr 08 2023 11:59:40 GMT-0400 (Eastern Daylight Time)","565457","Match,No Match","","null","","","","","","<div class='trialBorder'><div class='vertical-center'><img src='img/correct.jpg'></div><div class='respDiv'><div class='respDivL'><font style='color:orange'>Match<br>(e)</font></div><div class='respDivR'>No Match<br>(i)</div></div></div>","null","FEEDBACK","","","","","","","","","","",""
"html-keyboard-response","180","389943","0.0-7.0-1.29","610c736500a4b33398fef94f","bdp_wmem","Sat Apr 08 2023 11:59:40 GMT-0400 (Eastern Daylight Time)","565457","Match,No Match","","null","","","","","","<div class='trialBorder'><div class='vertical-center'><img src='img/fixation2_sml.jpg'</img></div></div>","null","FIX","","","","","","","","","","",""
"html-keyboard-response","181","394446","0.0-7.0-2.29","610c736500a4b33398fef94f","bdp_wmem","Sat Apr 08 2023 11:59:40 GMT-0400 (Eastern Daylight Time)","565457","Match,No Match","","null","","","","","","<div class='trialBorder'><div class='vertical-center'><img style='vertical-align:center; align:center' src='img/fixation2_sml.jpg'></div><div class='arrayDiv3'><div class='tl'><img class='introPic' src='trustrating_stim/white_mw012.bmp'><br><font color='red'><strong>Keep</strong></font></div><div class='tc'><img class='introPic' src='trustrating_stim/white_mw078.bmp'><br><font color='red'><strong>Keep</strong></font></div><div class='tr'><img class='introPic' src='trustrating_stim/white_mw091.bmp'><br><font color='green'><strong>Share</strong></font></div></div></div>","null","ARRAY","3","trustrating_stim/white_mw012.bmp,trustrating_stim/white_mw078.bmp,trustrating_stim/white_mw091.bmp","0,0,1","Match","e","4500","","","","",""
"html-keyboard-response","182","398448","0.0-7.0-3.29","610c736500a4b33398fef94f","bdp_wmem","Sat Apr 08 2023 11:59:40 GMT-0400 (Eastern Daylight Time)","565457","Match,No Match","","null","","","","","","<div class='trialBorder'><div class='vertical-center'><img src='img/fixation2_sml.jpg'</img></div></div>","null","DELAY","","","","","","","","","","",""
"html-keyboard-response","183","399275","0.0-7.0-4.29","610c736500a4b33398fef94f","bdp_wmem","Sat Apr 08 2023 11:59:40 GMT-0400 (Eastern Daylight Time)","565457","Match,No Match","","825","","","","","","<div class='trialBorder'><div class='targDiv'><div class='tc'><img class='introPic' src='trustrating_stim/white_mw091.bmp'><br><font color='green'><strong>Share</strong></font></div></div><div class='respDiv'><div class='respDivL'>Match<br>(e)</div><div class='respDivR'>No Match<br>(i)</div></div></div>","e","TARGET","3","trustrating_stim/white_mw012.bmp,trustrating_stim/white_mw078.bmp,trustrating_stim/white_mw091.bmp","0,0,1","Match","e","4500","trustrating_stim/white_mw091.bmp","green","Share","REAL","1"
"html-keyboard-response","184","399777","0.0-7.0-5.29","610c736500a4b33398fef94f","bdp_wmem","Sat Apr 08 2023 11:59:40 GMT-0400 (Eastern Daylight Time)","565457","Match,No Match","","null","","","","","","<div class='trialBorder'><div class='vertical-center'><img src='img/correct.jpg'></div><div class='respDiv'><div class='respDivL'><font style='color:orange'>Match<br>(e)</font></div><div class='respDivR'>No Match<br>(i)</div></div></div>","null","FEEDBACK","","","","","","","","","","",""
"html-keyboard-response","185","400279","0.0-7.0-1.30","610c736500a4b33398fef94f","bdp_wmem","Sat Apr 08 2023 11:59:40 GMT-0400 (Eastern Daylight Time)","565457","Match,No Match","","null","","","","","","<div class='trialBorder'><div class='vertical-center'><img src='img/fixation2_sml.jpg'</img></div></div>","null","FIX","","","","","","","","","","",""
"html-keyboard-response","186","403282","0.0-7.0-2.30","610c736500a4b33398fef94f","bdp_wmem","Sat Apr 08 2023 11:59:40 GMT-0400 (Eastern Daylight Time)","565457","Match,No Match","","null","","","","","","<div class='trialBorder'><div class='vertical-center'><img style='vertical-align:center; align:center' src='img/fixation2_sml.jpg'></div><div class='arrayDiv2'><div class='tl'><img class='introPic' src='trustrating_stim/white_mw013.bmp'><br><font color='red'><strong>Keep</strong></font></div><div class='tr'><img class='introPic' src='trustrating_stim/white_mw040.bmp'><br><font color='green'><strong>Share</strong></font></div></div></div>","null","ARRAY","2","trustrating_stim/white_mw013.bmp,trustrating_stim/white_mw040.bmp","0,1","noMatchOutcome","i","3000","","","","",""
"html-keyboard-response","187","407283","0.0-7.0-3.30","610c736500a4b33398fef94f","bdp_wmem","Sat Apr 08 2023 11:59:40 GMT-0400 (Eastern Daylight Time)","565457","Match,No Match","","null","","","","","","<div class='trialBorder'><div class='vertical-center'><img src='img/fixation2_sml.jpg'</img></div></div>","null","DELAY","","","","","","","","","","",""
