"event","trial","time","trialtype","subject_id","task","startTime","totalTime","labels","trial_type","trial_index","time_elapsed","internal_node_id","view_history","rt","success","stimulus","key_press","stimType","arraySize","arrayFaces","arrayOutcomes","matchType","corrResp","arrayDur","targFace","targCol","targOutcome","trialType","corr"
"focus","0","0","focusevent","60fd80b85dd6b22f66d16822","bdp_wmem","Wed Mar 15 2023 15:04:15 GMT-0500 (Central Daylight Time)","611787","Match,No Match","","","","","","","","","","","","","","","","","","","","",""
"","","","","60fd80b85dd6b22f66d16822","bdp_wmem","Wed Mar 15 2023 15:04:15 GMT-0500 (Central Daylight Time)","611787","Match,No Match","pavlovia","0","7","0.0-0.0","","","","","","","","","","","","","","","","",""
"","","","","60fd80b85dd6b22f66d16822","bdp_wmem","Wed Mar 15 2023 15:04:15 GMT-0500 (Central Daylight Time)","611787","Match,No Match","instructions","1","5318","0.0-1.0","[{""page_index"":0,""viewing_time"":5311}]","5311","","","","","","","","","","","","","","",""
"fullscreenexit","2","7675","fullscreenexit","60fd80b85dd6b22f66d16822","bdp_wmem","Wed Mar 15 2023 15:04:15 GMT-0500 (Central Daylight Time)","611787","Match,No Match","","","","","","","","","","","","","","","","","","","","",""
"","","","","60fd80b85dd6b22f66d16822","bdp_wmem","Wed Mar 15 2023 15:04:15 GMT-0500 (Central Daylight Time)","611787","Match,No Match","fullscreen","2","8645","0.0-2.0","","","true","","","","","","","","","","","","","",""
"","","","fullscreenfail","60fd80b85dd6b22f66d16822","bdp_wmem","Wed Mar 15 2023 15:04:15 GMT-0500 (Central Daylight Time)","611787","Match,No Match","image-keyboard-response","3","9343","0.0-3.0-0.0","","694","","","32","","","","","","","","","","","",""
"","","","","60fd80b85dd6b22f66d16822","bdp_wmem","Wed Mar 15 2023 15:04:15 GMT-0500 (Central Daylight Time)","611787","Match,No Match","instructions","4","96135","0.0-4.0","[{""page_index"":0,""viewing_time"":19368},{""page_index"":1,""viewing_time"":33342},{""page_index"":2,""viewing_time"":6438},{""page_index"":3,""viewing_time"":16796},{""page_index"":4,""viewing_time"":10591}]","86535","","","","","","","","","","","","","","",""
"","","","","60fd80b85dd6b22f66d16822","bdp_wmem","Wed Mar 15 2023 15:04:15 GMT-0500 (Central Daylight Time)","611787","Match,No Match","html-keyboard-response","5","96642","0.0-5.0-1.0","","null","","<div class='trialBorder'><div class='vertical-center'><img src='img/fixation2_sml.jpg'</img></div></div>","null","FIX","","","","","","","","","","",""
"","","","","60fd80b85dd6b22f66d16822","bdp_wmem","Wed Mar 15 2023 15:04:15 GMT-0500 (Central Daylight Time)","611787","Match,No Match","html-keyboard-response","6","99661","0.0-5.0-2.0","","null","","<div class='trialBorder'><div class='vertical-center'><img style='vertical-align:center; align:center' src='img/fixation2_sml.jpg'></div><div class='arrayDiv2'><div class='tl'><img class='introPic' src='trustrating_stim/white_mw085.bmp'><br><font color='green'><strong>Share</strong></font></div><div class='tr'><img class='introPic' src='trustrating_stim/white_mw013.bmp'><br><font color='red'><strong>Keep</strong></font></div></div></div>","null","ARRAY","2","trustrating_stim/white_mw085.bmp,trustrating_stim/white_mw013.bmp","1,0","noMatchOutcome","i","3000","","","","",""
"","","","","60fd80b85dd6b22f66d16822","bdp_wmem","Wed Mar 15 2023 15:04:15 GMT-0500 (Central Daylight Time)","611787","Match,No Match","html-keyboard-response","7","103667","0.0-5.0-3.0","","null","","<div class='trialBorder'><div class='vertical-center'><img src='img/fixation2_sml.jpg'</img></div></div>","null","DELAY","","","","","","","","","","",""
"","","","","60fd80b85dd6b22f66d16822","bdp_wmem","Wed Mar 15 2023 15:04:15 GMT-0500 (Central Daylight Time)","611787","Match,No Match","html-keyboard-response","8","106149","0.0-5.0-4.0","","2480","","<div class='trialBorder'><div class='targDiv'><div class='tc'><img class='introPic' src='trustrating_stim/white_mw085.bmp'><br><font color='red'><strong>Keep</strong></font></div></div><div class='respDiv'><div class='respDivL'>Match<br>(e)</div><div class='respDivR'>No Match<br>(i)</div></div></div>","i","TARGET","2","trustrating_stim/white_mw085.bmp,trustrating_stim/white_mw013.bmp","1,0","noMatchOutcome","i","3000","trustrating_stim/white_mw085.bmp","red","Keep","PRACTICE","1"
"","","","","60fd80b85dd6b22f66d16822","bdp_wmem","Wed Mar 15 2023 15:04:15 GMT-0500 (Central Daylight Time)","611787","Match,No Match","html-keyboard-response","9","106665","0.0-5.0-5.0","","null","","<div class='trialBorder'><div class='vertical-center'><img src='img/correct.jpg'></div><div class='respDiv'><div class='respDivL'>Match<br>(e)</div><div class='respDivR'><font style='color:orange'>No Match<br>(i)</font></div></div></div>","null","FEEDBACK","","","","","","","","","","",""
"","","","","60fd80b85dd6b22f66d16822","bdp_wmem","Wed Mar 15 2023 15:04:15 GMT-0500 (Central Daylight Time)","611787","Match,No Match","html-keyboard-response","10","107170","0.0-5.0-1.1","","null","","<div class='trialBorder'><div class='vertical-center'><img src='img/fixation2_sml.jpg'</img></div></div>","null","FIX","","","","","","","","","","",""
"","","","","60fd80b85dd6b22f66d16822","bdp_wmem","Wed Mar 15 2023 15:04:15 GMT-0500 (Central Daylight Time)","611787","Match,No Match","html-keyboard-response","11","110172","0.0-5.0-2.1","","null","","<div class='trialBorder'><div class='vertical-center'><img style='vertical-align:center; align:center' src='img/fixation2_sml.jpg'></div><div class='arrayDiv2'><div class='tl'><img class='introPic' src='trustrating_stim/white_mw070.bmp'><br><font color='green'><strong>Share</strong></font></div><div class='tr'><img class='introPic' src='trustrating_stim/white_mw091.bmp'><br><font color='red'><strong>Keep</strong></font></div></div></div>","null","ARRAY","2","trustrating_stim/white_mw070.bmp,trustrating_stim/white_mw091.bmp","1,0","Match","e","3000","","","","",""
"","","","","60fd80b85dd6b22f66d16822","bdp_wmem","Wed Mar 15 2023 15:04:15 GMT-0500 (Central Daylight Time)","611787","Match,No Match","html-keyboard-response","12","114176","0.0-5.0-3.1","","null","","<div class='trialBorder'><div class='vertical-center'><img src='img/fixation2_sml.jpg'</img></div></div>","null","DELAY","","","","","","","","","","",""
"","","","","60fd80b85dd6b22f66d16822","bdp_wmem","Wed Mar 15 2023 15:04:15 GMT-0500 (Central Daylight Time)","611787","Match,No Match","html-keyboard-response","13","115836","0.0-5.0-4.1","","1658","","<div class='trialBorder'><div class='targDiv'><div class='tc'><img class='introPic' src='trustrating_stim/white_mw091.bmp'><br><font color='red'><strong>Keep</strong></font></div></div><div class='respDiv'><div class='respDivL'>Match<br>(e)</div><div class='respDivR'>No Match<br>(i)</div></div></div>","i","TARGET","2","trustrating_stim/white_mw070.bmp,trustrating_stim/white_mw091.bmp","1,0","Match","e","3000","trustrating_stim/white_mw091.bmp","red","Keep","PRACTICE","0"
"","","","","60fd80b85dd6b22f66d16822","bdp_wmem","Wed Mar 15 2023 15:04:15 GMT-0500 (Central Daylight Time)","611787","Match,No Match","html-keyboard-response","14","116342","0.0-5.0-5.1","","null","","<div class='trialBorder'><div class='vertical-center'><img src='img/error.jpg'></div><div class='respDiv'><div class='respDivL'>Match<br>(e)</div><div class='respDivR'><font style='color:orange'>No Match<br>(i)</font></div></div></div>","null","FEEDBACK","","","","","","","","","","",""
"","","","","60fd80b85dd6b22f66d16822","bdp_wmem","Wed Mar 15 2023 15:04:15 GMT-0500 (Central Daylight Time)","611787","Match,No Match","html-keyboard-response","15","116843","0.0-5.0-1.2","","null","","<div class='trialBorder'><div class='vertical-center'><img src='img/fixation2_sml.jpg'</img></div></div>","null","FIX","","","","","","","","","","",""
"","","","","60fd80b85dd6b22f66d16822","bdp_wmem","Wed Mar 15 2023 15:04:15 GMT-0500 (Central Daylight Time)","611787","Match,No Match","html-keyboard-response","16","121348","0.0-5.0-2.2","","null","","<div class='trialBorder'><div class='vertical-center'><img style='vertical-align:center; align:center' src='img/fixation2_sml.jpg'></div><div class='arrayDiv3'><div class='tl'><img class='introPic' src='trustrating_stim/white_mw085.bmp'><br><font color='red'><strong>Keep</strong></font></div><div class='tc'><img class='introPic' src='trustrating_stim/white_mw038.bmp'><br><font color='green'><strong>Share</strong></font></div><div class='tr'><img class='introPic' src='trustrating_stim/white_mw013.bmp'><br><font color='green'><strong>Share</strong></font></div></div></div>","null","ARRAY","3","trustrating_stim/white_mw085.bmp,trustrating_stim/white_mw038.bmp,trustrating_stim/white_mw013.bmp","0,1,1","Match","e","4500","","","","",""
"","","","","60fd80b85dd6b22f66d16822","bdp_wmem","Wed Mar 15 2023 15:04:15 GMT-0500 (Central Daylight Time)","611787","Match,No Match","html-keyboard-response","17","125355","0.0-5.0-3.2","","null","","<div class='trialBorder'><div class='vertical-center'><img src='img/fixation2_sml.jpg'</img></div></div>","null","DELAY","","","","","","","","","","",""
"","","","","60fd80b85dd6b22f66d16822","bdp_wmem","Wed Mar 15 2023 15:04:15 GMT-0500 (Central Daylight Time)","611787","Match,No Match","html-keyboard-response","18","126808","0.0-5.0-4.2","","1451","","<div class='trialBorder'><div class='targDiv'><div class='tc'><img class='introPic' src='trustrating_stim/white_mw013.bmp'><br><font color='green'><strong>Share</strong></font></div></div><div class='respDiv'><div class='respDivL'>Match<br>(e)</div><div class='respDivR'>No Match<br>(i)</div></div></div>","e","TARGET","3","trustrating_stim/white_mw085.bmp,trustrating_stim/white_mw038.bmp,trustrating_stim/white_mw013.bmp","0,1,1","Match","e","4500","trustrating_stim/white_mw013.bmp","green","Share","PRACTICE","1"
"","","","","60fd80b85dd6b22f66d16822","bdp_wmem","Wed Mar 15 2023 15:04:15 GMT-0500 (Central Daylight Time)","611787","Match,No Match","html-keyboard-response","19","127314","0.0-5.0-5.2","","null","","<div class='trialBorder'><div class='vertical-center'><img src='img/correct.jpg'></div><div class='respDiv'><div class='respDivL'><font style='color:orange'>Match<br>(e)</font></div><div class='respDivR'>No Match<br>(i)</div></div></div>","null","FEEDBACK","","","","","","","","","","",""
"","","","","60fd80b85dd6b22f66d16822","bdp_wmem","Wed Mar 15 2023 15:04:15 GMT-0500 (Central Daylight Time)","611787","Match,No Match","html-keyboard-response","20","127820","0.0-5.0-1.3","","null","","<div class='trialBorder'><div class='vertical-center'><img src='img/fixation2_sml.jpg'</img></div></div>","null","FIX","","","","","","","","","","",""
"","","","","60fd80b85dd6b22f66d16822","bdp_wmem","Wed Mar 15 2023 15:04:15 GMT-0500 (Central Daylight Time)","611787","Match,No Match","html-keyboard-response","21","129327","0.0-5.0-2.3","","null","","<div class='trialBorder'><div class='vertical-center'><img style='vertical-align:center; align:center' src='img/fixation2_sml.jpg'></div><div class='arrayDiv1'><div class='tc'><img class='introPic' src='trustrating_stim/white_mw003.bmp'><br><font color='red'><strong>Keep</strong></font></div></div></div>","null","ARRAY","1","trustrating_stim/white_mw003.bmp","0","Match","e","1500","","","","",""
"","","","","60fd80b85dd6b22f66d16822","bdp_wmem","Wed Mar 15 2023 15:04:15 GMT-0500 (Central Daylight Time)","611787","Match,No Match","html-keyboard-response","22","133328","0.0-5.0-3.3","","null","","<div class='trialBorder'><div class='vertical-center'><img src='img/fixation2_sml.jpg'</img></div></div>","null","DELAY","","","","","","","","","","",""
"","","","","60fd80b85dd6b22f66d16822","bdp_wmem","Wed Mar 15 2023 15:04:15 GMT-0500 (Central Daylight Time)","611787","Match,No Match","html-keyboard-response","23","134931","0.0-5.0-4.3","","1601","","<div class='trialBorder'><div class='targDiv'><div class='tc'><img class='introPic' src='trustrating_stim/white_mw003.bmp'><br><font color='red'><strong>Keep</strong></font></div></div><div class='respDiv'><div class='respDivL'>Match<br>(e)</div><div class='respDivR'>No Match<br>(i)</div></div></div>","e","TARGET","1","trustrating_stim/white_mw003.bmp","0","Match","e","1500","trustrating_stim/white_mw003.bmp","red","Keep","PRACTICE","1"
"","","","","60fd80b85dd6b22f66d16822","bdp_wmem","Wed Mar 15 2023 15:04:15 GMT-0500 (Central Daylight Time)","611787","Match,No Match","html-keyboard-response","24","135434","0.0-5.0-5.3","","null","","<div class='trialBorder'><div class='vertical-center'><img src='img/correct.jpg'></div><div class='respDiv'><div class='respDivL'><font style='color:orange'>Match<br>(e)</font></div><div class='respDivR'>No Match<br>(i)</div></div></div>","null","FEEDBACK","","","","","","","","","","",""
"","","","","60fd80b85dd6b22f66d16822","bdp_wmem","Wed Mar 15 2023 15:04:15 GMT-0500 (Central Daylight Time)","611787","Match,No Match","html-keyboard-response","25","135941","0.0-5.0-1.4","","null","","<div class='trialBorder'><div class='vertical-center'><img src='img/fixation2_sml.jpg'</img></div></div>","null","FIX","","","","","","","","","","",""
"","","","","60fd80b85dd6b22f66d16822","bdp_wmem","Wed Mar 15 2023 15:04:15 GMT-0500 (Central Daylight Time)","611787","Match,No Match","html-keyboard-response","26","137442","0.0-5.0-2.4","","null","","<div class='trialBorder'><div class='vertical-center'><img style='vertical-align:center; align:center' src='img/fixation2_sml.jpg'></div><div class='arrayDiv1'><div class='tc'><img class='introPic' src='trustrating_stim/white_mw085.bmp'><br><font color='red'><strong>Keep</strong></font></div></div></div>","null","ARRAY","1","trustrating_stim/white_mw085.bmp","0","noMatchFace","i","1500","","","","",""
"","","","","60fd80b85dd6b22f66d16822","bdp_wmem","Wed Mar 15 2023 15:04:15 GMT-0500 (Central Daylight Time)","611787","Match,No Match","html-keyboard-response","27","141444","0.0-5.0-3.4","","null","","<div class='trialBorder'><div class='vertical-center'><img src='img/fixation2_sml.jpg'</img></div></div>","null","DELAY","","","","","","","","","","",""
"","","","","60fd80b85dd6b22f66d16822","bdp_wmem","Wed Mar 15 2023 15:04:15 GMT-0500 (Central Daylight Time)","611787","Match,No Match","html-keyboard-response","28","142683","0.0-5.0-4.4","","1237","","<div class='trialBorder'><div class='targDiv'><div class='tc'><img class='introPic' src='trustrating_stim/white_mw070.bmp'><br><font color='red'><strong>Keep</strong></font></div></div><div class='respDiv'><div class='respDivL'>Match<br>(e)</div><div class='respDivR'>No Match<br>(i)</div></div></div>","i","TARGET","1","trustrating_stim/white_mw085.bmp","0","noMatchFace","i","1500","trustrating_stim/white_mw070.bmp","red","Keep","PRACTICE","1"
"","","","","60fd80b85dd6b22f66d16822","bdp_wmem","Wed Mar 15 2023 15:04:15 GMT-0500 (Central Daylight Time)","611787","Match,No Match","html-keyboard-response","29","143186","0.0-5.0-5.4","","null","","<div class='trialBorder'><div class='vertical-center'><img src='img/correct.jpg'></div><div class='respDiv'><div class='respDivL'>Match<br>(e)</div><div class='respDivR'><font style='color:orange'>No Match<br>(i)</font></div></div></div>","null","FEEDBACK","","","","","","","","","","",""
"","","","","60fd80b85dd6b22f66d16822","bdp_wmem","Wed Mar 15 2023 15:04:15 GMT-0500 (Central Daylight Time)","611787","Match,No Match","html-keyboard-response","30","143688","0.0-5.0-1.5","","null","","<div class='trialBorder'><div class='vertical-center'><img src='img/fixation2_sml.jpg'</img></div></div>","null","FIX","","","","","","","","","","",""
"","","","","60fd80b85dd6b22f66d16822","bdp_wmem","Wed Mar 15 2023 15:04:15 GMT-0500 (Central Daylight Time)","611787","Match,No Match","html-keyboard-response","31","148195","0.0-5.0-2.5","","null","","<div class='trialBorder'><div class='vertical-center'><img style='vertical-align:center; align:center' src='img/fixation2_sml.jpg'></div><div class='arrayDiv3'><div class='tl'><img class='introPic' src='trustrating_stim/white_mw003.bmp'><br><font color='green'><strong>Share</strong></font></div><div class='tc'><img class='introPic' src='trustrating_stim/white_mw010.bmp'><br><font color='green'><strong>Share</strong></font></div><div class='tr'><img class='introPic' src='trustrating_stim/white_mw013.bmp'><br><font color='red'><strong>Keep</strong></font></div></div></div>","null","ARRAY","3","trustrating_stim/white_mw003.bmp,trustrating_stim/white_mw010.bmp,trustrating_stim/white_mw013.bmp","1,1,0","noMatchOutcome","i","4500","","","","",""
"","","","","60fd80b85dd6b22f66d16822","bdp_wmem","Wed Mar 15 2023 15:04:15 GMT-0500 (Central Daylight Time)","611787","Match,No Match","html-keyboard-response","32","152204","0.0-5.0-3.5","","null","","<div class='trialBorder'><div class='vertical-center'><img src='img/fixation2_sml.jpg'</img></div></div>","null","DELAY","","","","","","","","","","",""
"","","","","60fd80b85dd6b22f66d16822","bdp_wmem","Wed Mar 15 2023 15:04:15 GMT-0500 (Central Daylight Time)","611787","Match,No Match","html-keyboard-response","33","155098","0.0-5.0-4.5","","2892","","<div class='trialBorder'><div class='targDiv'><div class='tc'><img class='introPic' src='trustrating_stim/white_mw010.bmp'><br><font color='red'><strong>Keep</strong></font></div></div><div class='respDiv'><div class='respDivL'>Match<br>(e)</div><div class='respDivR'>No Match<br>(i)</div></div></div>","i","TARGET","3","trustrating_stim/white_mw003.bmp,trustrating_stim/white_mw010.bmp,trustrating_stim/white_mw013.bmp","1,1,0","noMatchOutcome","i","4500","trustrating_stim/white_mw010.bmp","red","Keep","PRACTICE","1"
"","","","","60fd80b85dd6b22f66d16822","bdp_wmem","Wed Mar 15 2023 15:04:15 GMT-0500 (Central Daylight Time)","611787","Match,No Match","html-keyboard-response","34","155601","0.0-5.0-5.5","","null","","<div class='trialBorder'><div class='vertical-center'><img src='img/correct.jpg'></div><div class='respDiv'><div class='respDivL'>Match<br>(e)</div><div class='respDivR'><font style='color:orange'>No Match<br>(i)</font></div></div></div>","null","FEEDBACK","","","","","","","","","","",""
"","","","","60fd80b85dd6b22f66d16822","bdp_wmem","Wed Mar 15 2023 15:04:15 GMT-0500 (Central Daylight Time)","611787","Match,No Match","instructions","35","159979","0.0-6.0","[{""page_index"":0,""viewing_time"":4376}]","4377","","","","","","","","","","","","","","",""
"","","","","60fd80b85dd6b22f66d16822","bdp_wmem","Wed Mar 15 2023 15:04:15 GMT-0500 (Central Daylight Time)","611787","Match,No Match","html-keyboard-response","36","160486","0.0-7.0-1.0","","null","","<div class='trialBorder'><div class='vertical-center'><img src='img/fixation2_sml.jpg'</img></div></div>","null","FIX","","","","","","","","","","",""
"","","","","60fd80b85dd6b22f66d16822","bdp_wmem","Wed Mar 15 2023 15:04:15 GMT-0500 (Central Daylight Time)","611787","Match,No Match","html-keyboard-response","37","164995","0.0-7.0-2.0","","null","","<div class='trialBorder'><div class='vertical-center'><img style='vertical-align:center; align:center' src='img/fixation2_sml.jpg'></div><div class='arrayDiv3'><div class='tl'><img class='introPic' src='trustrating_stim/white_mw085.bmp'><br><font color='red'><strong>Keep</strong></font></div><div class='tc'><img class='introPic' src='trustrating_stim/white_mw040.bmp'><br><font color='green'><strong>Share</strong></font></div><div class='tr'><img class='introPic' src='trustrating_stim/white_mw010.bmp'><br><font color='red'><strong>Keep</strong></font></div></div></div>","null","ARRAY","3","trustrating_stim/white_mw085.bmp,trustrating_stim/white_mw040.bmp,trustrating_stim/white_mw010.bmp","0,1,0","noMatchFace","i","4500","","","","",""
"","","","","60fd80b85dd6b22f66d16822","bdp_wmem","Wed Mar 15 2023 15:04:15 GMT-0500 (Central Daylight Time)","611787","Match,No Match","html-keyboard-response","38","169004","0.0-7.0-3.0","","null","","<div class='trialBorder'><div class='vertical-center'><img src='img/fixation2_sml.jpg'</img></div></div>","null","DELAY","","","","","","","","","","",""
"","","","","60fd80b85dd6b22f66d16822","bdp_wmem","Wed Mar 15 2023 15:04:15 GMT-0500 (Central Daylight Time)","611787","Match,No Match","html-keyboard-response","39","171858","0.0-7.0-4.0","","2852","","<div class='trialBorder'><div class='targDiv'><div class='tc'><img class='introPic' src='trustrating_stim/white_mw003.bmp'><br><font color='red'><strong>Keep</strong></font></div></div><div class='respDiv'><div class='respDivL'>Match<br>(e)</div><div class='respDivR'>No Match<br>(i)</div></div></div>","e","TARGET","3","trustrating_stim/white_mw085.bmp,trustrating_stim/white_mw040.bmp,trustrating_stim/white_mw010.bmp","0,1,0","noMatchFace","i","4500","trustrating_stim/white_mw003.bmp","red","Keep","REAL","0"
"","","","","60fd80b85dd6b22f66d16822","bdp_wmem","Wed Mar 15 2023 15:04:15 GMT-0500 (Central Daylight Time)","611787","Match,No Match","html-keyboard-response","40","172363","0.0-7.0-5.0","","null","","<div class='trialBorder'><div class='vertical-center'><img src='img/error.jpg'></div><div class='respDiv'><div class='respDivL'><font style='color:orange'>Match<br>(e)</font></div><div class='respDivR'>No Match<br>(i)</div></div></div>","null","FEEDBACK","","","","","","","","","","",""
"","","","","60fd80b85dd6b22f66d16822","bdp_wmem","Wed Mar 15 2023 15:04:15 GMT-0500 (Central Daylight Time)","611787","Match,No Match","html-keyboard-response","41","172863","0.0-7.0-1.1","","null","","<div class='trialBorder'><div class='vertical-center'><img src='img/fixation2_sml.jpg'</img></div></div>","null","FIX","","","","","","","","","","",""
"","","","","60fd80b85dd6b22f66d16822","bdp_wmem","Wed Mar 15 2023 15:04:15 GMT-0500 (Central Daylight Time)","611787","Match,No Match","html-keyboard-response","42","175868","0.0-7.0-2.1","","null","","<div class='trialBorder'><div class='vertical-center'><img style='vertical-align:center; align:center' src='img/fixation2_sml.jpg'></div><div class='arrayDiv2'><div class='tl'><img class='introPic' src='trustrating_stim/white_mw003.bmp'><br><font color='red'><strong>Keep</strong></font></div><div class='tr'><img class='introPic' src='trustrating_stim/white_mw078.bmp'><br><font color='green'><strong>Share</strong></font></div></div></div>","null","ARRAY","2","trustrating_stim/white_mw003.bmp,trustrating_stim/white_mw078.bmp","0,1","Match","e","3000","","","","",""
"","","","","60fd80b85dd6b22f66d16822","bdp_wmem","Wed Mar 15 2023 15:04:15 GMT-0500 (Central Daylight Time)","611787","Match,No Match","html-keyboard-response","43","179876","0.0-7.0-3.1","","null","","<div class='trialBorder'><div class='vertical-center'><img src='img/fixation2_sml.jpg'</img></div></div>","null","DELAY","","","","","","","","","","",""
"","","","","60fd80b85dd6b22f66d16822","bdp_wmem","Wed Mar 15 2023 15:04:15 GMT-0500 (Central Daylight Time)","611787","Match,No Match","html-keyboard-response","44","181624","0.0-7.0-4.1","","1746","","<div class='trialBorder'><div class='targDiv'><div class='tc'><img class='introPic' src='trustrating_stim/white_mw003.bmp'><br><font color='red'><strong>Keep</strong></font></div></div><div class='respDiv'><div class='respDivL'>Match<br>(e)</div><div class='respDivR'>No Match<br>(i)</div></div></div>","i","TARGET","2","trustrating_stim/white_mw003.bmp,trustrating_stim/white_mw078.bmp","0,1","Match","e","3000","trustrating_stim/white_mw003.bmp","red","Keep","REAL","0"
"","","","","60fd80b85dd6b22f66d16822","bdp_wmem","Wed Mar 15 2023 15:04:15 GMT-0500 (Central Daylight Time)","611787","Match,No Match","html-keyboard-response","45","182128","0.0-7.0-5.1","","null","","<div class='trialBorder'><div class='vertical-center'><img src='img/error.jpg'></div><div class='respDiv'><div class='respDivL'>Match<br>(e)</div><div class='respDivR'><font style='color:orange'>No Match<br>(i)</font></div></div></div>","null","FEEDBACK","","","","","","","","","","",""
"","","","","60fd80b85dd6b22f66d16822","bdp_wmem","Wed Mar 15 2023 15:04:15 GMT-0500 (Central Daylight Time)","611787","Match,No Match","html-keyboard-response","46","182630","0.0-7.0-1.2","","null","","<div class='trialBorder'><div class='vertical-center'><img src='img/fixation2_sml.jpg'</img></div></div>","null","FIX","","","","","","","","","","",""
"","","","","60fd80b85dd6b22f66d16822","bdp_wmem","Wed Mar 15 2023 15:04:15 GMT-0500 (Central Daylight Time)","611787","Match,No Match","html-keyboard-response","47","184134","0.0-7.0-2.2","","null","","<div class='trialBorder'><div class='vertical-center'><img style='vertical-align:center; align:center' src='img/fixation2_sml.jpg'></div><div class='arrayDiv1'><div class='tc'><img class='introPic' src='trustrating_stim/white_mw038.bmp'><br><font color='green'><strong>Share</strong></font></div></div></div>","null","ARRAY","1","trustrating_stim/white_mw038.bmp","1","noMatchFace","i","1500","","","","",""
"","","","","60fd80b85dd6b22f66d16822","bdp_wmem","Wed Mar 15 2023 15:04:15 GMT-0500 (Central Daylight Time)","611787","Match,No Match","html-keyboard-response","48","188141","0.0-7.0-3.2","","null","","<div class='trialBorder'><div class='vertical-center'><img src='img/fixation2_sml.jpg'</img></div></div>","null","DELAY","","","","","","","","","","",""
"","","","","60fd80b85dd6b22f66d16822","bdp_wmem","Wed Mar 15 2023 15:04:15 GMT-0500 (Central Daylight Time)","611787","Match,No Match","html-keyboard-response","49","189468","0.0-7.0-4.2","","1326","","<div class='trialBorder'><div class='targDiv'><div class='tc'><img class='introPic' src='trustrating_stim/white_mw042.bmp'><br><font color='green'><strong>Share</strong></font></div></div><div class='respDiv'><div class='respDivL'>Match<br>(e)</div><div class='respDivR'>No Match<br>(i)</div></div></div>","i","TARGET","1","trustrating_stim/white_mw038.bmp","1","noMatchFace","i","1500","trustrating_stim/white_mw042.bmp","green","Share","REAL","1"
"","","","","60fd80b85dd6b22f66d16822","bdp_wmem","Wed Mar 15 2023 15:04:15 GMT-0500 (Central Daylight Time)","611787","Match,No Match","html-keyboard-response","50","189975","0.0-7.0-5.2","","null","","<div class='trialBorder'><div class='vertical-center'><img src='img/correct.jpg'></div><div class='respDiv'><div class='respDivL'>Match<br>(e)</div><div class='respDivR'><font style='color:orange'>No Match<br>(i)</font></div></div></div>","null","FEEDBACK","","","","","","","","","","",""
"","","","","60fd80b85dd6b22f66d16822","bdp_wmem","Wed Mar 15 2023 15:04:15 GMT-0500 (Central Daylight Time)","611787","Match,No Match","html-keyboard-response","51","190477","0.0-7.0-1.3","","null","","<div class='trialBorder'><div class='vertical-center'><img src='img/fixation2_sml.jpg'</img></div></div>","null","FIX","","","","","","","","","","",""
"","","","","60fd80b85dd6b22f66d16822","bdp_wmem","Wed Mar 15 2023 15:04:15 GMT-0500 (Central Daylight Time)","611787","Match,No Match","html-keyboard-response","52","191984","0.0-7.0-2.3","","null","","<div class='trialBorder'><div class='vertical-center'><img style='vertical-align:center; align:center' src='img/fixation2_sml.jpg'></div><div class='arrayDiv1'><div class='tc'><img class='introPic' src='trustrating_stim/white_mw040.bmp'><br><font color='green'><strong>Share</strong></font></div></div></div>","null","ARRAY","1","trustrating_stim/white_mw040.bmp","1","noMatchFace","i","1500","","","","",""
"","","","","60fd80b85dd6b22f66d16822","bdp_wmem","Wed Mar 15 2023 15:04:15 GMT-0500 (Central Daylight Time)","611787","Match,No Match","html-keyboard-response","53","195989","0.0-7.0-3.3","","null","","<div class='trialBorder'><div class='vertical-center'><img src='img/fixation2_sml.jpg'</img></div></div>","null","DELAY","","","","","","","","","","",""
"","","","","60fd80b85dd6b22f66d16822","bdp_wmem","Wed Mar 15 2023 15:04:15 GMT-0500 (Central Daylight Time)","611787","Match,No Match","html-keyboard-response","54","197107","0.0-7.0-4.3","","1118","","<div class='trialBorder'><div class='targDiv'><div class='tc'><img class='introPic' src='trustrating_stim/white_mw092.bmp'><br><font color='green'><strong>Share</strong></font></div></div><div class='respDiv'><div class='respDivL'>Match<br>(e)</div><div class='respDivR'>No Match<br>(i)</div></div></div>","i","TARGET","1","trustrating_stim/white_mw040.bmp","1","noMatchFace","i","1500","trustrating_stim/white_mw092.bmp","green","Share","REAL","1"
"","","","","60fd80b85dd6b22f66d16822","bdp_wmem","Wed Mar 15 2023 15:04:15 GMT-0500 (Central Daylight Time)","611787","Match,No Match","html-keyboard-response","55","197613","0.0-7.0-5.3","","null","","<div class='trialBorder'><div class='vertical-center'><img src='img/correct.jpg'></div><div class='respDiv'><div class='respDivL'>Match<br>(e)</div><div class='respDivR'><font style='color:orange'>No Match<br>(i)</font></div></div></div>","null","FEEDBACK","","","","","","","","","","",""
"","","","","60fd80b85dd6b22f66d16822","bdp_wmem","Wed Mar 15 2023 15:04:15 GMT-0500 (Central Daylight Time)","611787","Match,No Match","html-keyboard-response","56","198118","0.0-7.0-1.4","","null","","<div class='trialBorder'><div class='vertical-center'><img src='img/fixation2_sml.jpg'</img></div></div>","null","FIX","","","","","","","","","","",""
"","","","","60fd80b85dd6b22f66d16822","bdp_wmem","Wed Mar 15 2023 15:04:15 GMT-0500 (Central Daylight Time)","611787","Match,No Match","html-keyboard-response","57","199621","0.0-7.0-2.4","","null","","<div class='trialBorder'><div class='vertical-center'><img style='vertical-align:center; align:center' src='img/fixation2_sml.jpg'></div><div class='arrayDiv1'><div class='tc'><img class='introPic' src='trustrating_stim/white_mw078.bmp'><br><font color='green'><strong>Share</strong></font></div></div></div>","null","ARRAY","1","trustrating_stim/white_mw078.bmp","1","Match","e","1500","","","","",""
"","","","","60fd80b85dd6b22f66d16822","bdp_wmem","Wed Mar 15 2023 15:04:15 GMT-0500 (Central Daylight Time)","611787","Match,No Match","html-keyboard-response","58","203628","0.0-7.0-3.4","","null","","<div class='trialBorder'><div class='vertical-center'><img src='img/fixation2_sml.jpg'</img></div></div>","null","DELAY","","","","","","","","","","",""
"","","","","60fd80b85dd6b22f66d16822","bdp_wmem","Wed Mar 15 2023 15:04:15 GMT-0500 (Central Daylight Time)","611787","Match,No Match","html-keyboard-response","59","204765","0.0-7.0-4.4","","1136","","<div class='trialBorder'><div class='targDiv'><div class='tc'><img class='introPic' src='trustrating_stim/white_mw078.bmp'><br><font color='green'><strong>Share</strong></font></div></div><div class='respDiv'><div class='respDivL'>Match<br>(e)</div><div class='respDivR'>No Match<br>(i)</div></div></div>","i","TARGET","1","trustrating_stim/white_mw078.bmp","1","Match","e","1500","trustrating_stim/white_mw078.bmp","green","Share","REAL","0"
"","","","","60fd80b85dd6b22f66d16822","bdp_wmem","Wed Mar 15 2023 15:04:15 GMT-0500 (Central Daylight Time)","611787","Match,No Match","html-keyboard-response","60","205272","0.0-7.0-5.4","","null","","<div class='trialBorder'><div class='vertical-center'><img src='img/error.jpg'></div><div class='respDiv'><div class='respDivL'>Match<br>(e)</div><div class='respDivR'><font style='color:orange'>No Match<br>(i)</font></div></div></div>","null","FEEDBACK","","","","","","","","","","",""
"","","","","60fd80b85dd6b22f66d16822","bdp_wmem","Wed Mar 15 2023 15:04:15 GMT-0500 (Central Daylight Time)","611787","Match,No Match","html-keyboard-response","61","205773","0.0-7.0-1.5","","null","","<div class='trialBorder'><div class='vertical-center'><img src='img/fixation2_sml.jpg'</img></div></div>","null","FIX","","","","","","","","","","",""
"","","","","60fd80b85dd6b22f66d16822","bdp_wmem","Wed Mar 15 2023 15:04:15 GMT-0500 (Central Daylight Time)","611787","Match,No Match","html-keyboard-response","62","210276","0.0-7.0-2.5","","null","","<div class='trialBorder'><div class='vertical-center'><img style='vertical-align:center; align:center' src='img/fixation2_sml.jpg'></div><div class='arrayDiv3'><div class='tl'><img class='introPic' src='trustrating_stim/white_mw013.bmp'><br><font color='green'><strong>Share</strong></font></div><div class='tc'><img class='introPic' src='trustrating_stim/white_mw070.bmp'><br><font color='green'><strong>Share</strong></font></div><div class='tr'><img class='introPic' src='trustrating_stim/white_mw092.bmp'><br><font color='red'><strong>Keep</strong></font></div></div></div>","null","ARRAY","3","trustrating_stim/white_mw013.bmp,trustrating_stim/white_mw070.bmp,trustrating_stim/white_mw092.bmp","1,1,0","noMatchOutcome","i","4500","","","","",""
"","","","","60fd80b85dd6b22f66d16822","bdp_wmem","Wed Mar 15 2023 15:04:15 GMT-0500 (Central Daylight Time)","611787","Match,No Match","html-keyboard-response","63","214279","0.0-7.0-3.5","","null","","<div class='trialBorder'><div class='vertical-center'><img src='img/fixation2_sml.jpg'</img></div></div>","null","DELAY","","","","","","","","","","",""
"","","","","60fd80b85dd6b22f66d16822","bdp_wmem","Wed Mar 15 2023 15:04:15 GMT-0500 (Central Daylight Time)","611787","Match,No Match","html-keyboard-response","64","215814","0.0-7.0-4.5","","1533","","<div class='trialBorder'><div class='targDiv'><div class='tc'><img class='introPic' src='trustrating_stim/white_mw070.bmp'><br><font color='red'><strong>Keep</strong></font></div></div><div class='respDiv'><div class='respDivL'>Match<br>(e)</div><div class='respDivR'>No Match<br>(i)</div></div></div>","i","TARGET","3","trustrating_stim/white_mw013.bmp,trustrating_stim/white_mw070.bmp,trustrating_stim/white_mw092.bmp","1,1,0","noMatchOutcome","i","4500","trustrating_stim/white_mw070.bmp","red","Keep","REAL","1"
"","","","","60fd80b85dd6b22f66d16822","bdp_wmem","Wed Mar 15 2023 15:04:15 GMT-0500 (Central Daylight Time)","611787","Match,No Match","html-keyboard-response","65","216319","0.0-7.0-5.5","","null","","<div class='trialBorder'><div class='vertical-center'><img src='img/correct.jpg'></div><div class='respDiv'><div class='respDivL'>Match<br>(e)</div><div class='respDivR'><font style='color:orange'>No Match<br>(i)</font></div></div></div>","null","FEEDBACK","","","","","","","","","","",""
"","","","","60fd80b85dd6b22f66d16822","bdp_wmem","Wed Mar 15 2023 15:04:15 GMT-0500 (Central Daylight Time)","611787","Match,No Match","html-keyboard-response","66","216826","0.0-7.0-1.6","","null","","<div class='trialBorder'><div class='vertical-center'><img src='img/fixation2_sml.jpg'</img></div></div>","null","FIX","","","","","","","","","","",""
"","","","","60fd80b85dd6b22f66d16822","bdp_wmem","Wed Mar 15 2023 15:04:15 GMT-0500 (Central Daylight Time)","611787","Match,No Match","html-keyboard-response","67","218328","0.0-7.0-2.6","","null","","<div class='trialBorder'><div class='vertical-center'><img style='vertical-align:center; align:center' src='img/fixation2_sml.jpg'></div><div class='arrayDiv1'><div class='tc'><img class='introPic' src='trustrating_stim/white_mw012.bmp'><br><font color='red'><strong>Keep</strong></font></div></div></div>","null","ARRAY","1","trustrating_stim/white_mw012.bmp","0","Match","e","1500","","","","",""
"","","","","60fd80b85dd6b22f66d16822","bdp_wmem","Wed Mar 15 2023 15:04:15 GMT-0500 (Central Daylight Time)","611787","Match,No Match","html-keyboard-response","68","222329","0.0-7.0-3.6","","null","","<div class='trialBorder'><div class='vertical-center'><img src='img/fixation2_sml.jpg'</img></div></div>","null","DELAY","","","","","","","","","","",""
"","","","","60fd80b85dd6b22f66d16822","bdp_wmem","Wed Mar 15 2023 15:04:15 GMT-0500 (Central Daylight Time)","611787","Match,No Match","html-keyboard-response","69","223091","0.0-7.0-4.6","","760","","<div class='trialBorder'><div class='targDiv'><div class='tc'><img class='introPic' src='trustrating_stim/white_mw012.bmp'><br><font color='red'><strong>Keep</strong></font></div></div><div class='respDiv'><div class='respDivL'>Match<br>(e)</div><div class='respDivR'>No Match<br>(i)</div></div></div>","e","TARGET","1","trustrating_stim/white_mw012.bmp","0","Match","e","1500","trustrating_stim/white_mw012.bmp","red","Keep","REAL","1"
"","","","","60fd80b85dd6b22f66d16822","bdp_wmem","Wed Mar 15 2023 15:04:15 GMT-0500 (Central Daylight Time)","611787","Match,No Match","html-keyboard-response","70","223597","0.0-7.0-5.6","","null","","<div class='trialBorder'><div class='vertical-center'><img src='img/correct.jpg'></div><div class='respDiv'><div class='respDivL'><font style='color:orange'>Match<br>(e)</font></div><div class='respDivR'>No Match<br>(i)</div></div></div>","null","FEEDBACK","","","","","","","","","","",""
"","","","","60fd80b85dd6b22f66d16822","bdp_wmem","Wed Mar 15 2023 15:04:15 GMT-0500 (Central Daylight Time)","611787","Match,No Match","html-keyboard-response","71","224104","0.0-7.0-1.7","","null","","<div class='trialBorder'><div class='vertical-center'><img src='img/fixation2_sml.jpg'</img></div></div>","null","FIX","","","","","","","","","","",""
"","","","","60fd80b85dd6b22f66d16822","bdp_wmem","Wed Mar 15 2023 15:04:15 GMT-0500 (Central Daylight Time)","611787","Match,No Match","html-keyboard-response","72","228610","0.0-7.0-2.7","","null","","<div class='trialBorder'><div class='vertical-center'><img style='vertical-align:center; align:center' src='img/fixation2_sml.jpg'></div><div class='arrayDiv3'><div class='tl'><img class='introPic' src='trustrating_stim/white_mw078.bmp'><br><font color='green'><strong>Share</strong></font></div><div class='tc'><img class='introPic' src='trustrating_stim/white_mw013.bmp'><br><font color='red'><strong>Keep</strong></font></div><div class='tr'><img class='introPic' src='trustrating_stim/white_mw040.bmp'><br><font color='red'><strong>Keep</strong></font></div></div></div>","null","ARRAY","3","trustrating_stim/white_mw078.bmp,trustrating_stim/white_mw013.bmp,trustrating_stim/white_mw040.bmp","1,0,0","noMatchOutcome","i","4500","","","","",""
"","","","","60fd80b85dd6b22f66d16822","bdp_wmem","Wed Mar 15 2023 15:04:15 GMT-0500 (Central Daylight Time)","611787","Match,No Match","html-keyboard-response","73","232613","0.0-7.0-3.7","","null","","<div class='trialBorder'><div class='vertical-center'><img src='img/fixation2_sml.jpg'</img></div></div>","null","DELAY","","","","","","","","","","",""
"","","","","60fd80b85dd6b22f66d16822","bdp_wmem","Wed Mar 15 2023 15:04:15 GMT-0500 (Central Daylight Time)","611787","Match,No Match","html-keyboard-response","74","234099","0.0-7.0-4.7","","1485","","<div class='trialBorder'><div class='targDiv'><div class='tc'><img class='introPic' src='trustrating_stim/white_mw013.bmp'><br><font color='green'><strong>Share</strong></font></div></div><div class='respDiv'><div class='respDivL'>Match<br>(e)</div><div class='respDivR'>No Match<br>(i)</div></div></div>","i","TARGET","3","trustrating_stim/white_mw078.bmp,trustrating_stim/white_mw013.bmp,trustrating_stim/white_mw040.bmp","1,0,0","noMatchOutcome","i","4500","trustrating_stim/white_mw013.bmp","green","Share","REAL","1"
"","","","","60fd80b85dd6b22f66d16822","bdp_wmem","Wed Mar 15 2023 15:04:15 GMT-0500 (Central Daylight Time)","611787","Match,No Match","html-keyboard-response","75","234607","0.0-7.0-5.7","","null","","<div class='trialBorder'><div class='vertical-center'><img src='img/correct.jpg'></div><div class='respDiv'><div class='respDivL'>Match<br>(e)</div><div class='respDivR'><font style='color:orange'>No Match<br>(i)</font></div></div></div>","null","FEEDBACK","","","","","","","","","","",""
"","","","","60fd80b85dd6b22f66d16822","bdp_wmem","Wed Mar 15 2023 15:04:15 GMT-0500 (Central Daylight Time)","611787","Match,No Match","html-keyboard-response","76","235113","0.0-7.0-1.8","","null","","<div class='trialBorder'><div class='vertical-center'><img src='img/fixation2_sml.jpg'</img></div></div>","null","FIX","","","","","","","","","","",""
"","","","","60fd80b85dd6b22f66d16822","bdp_wmem","Wed Mar 15 2023 15:04:15 GMT-0500 (Central Daylight Time)","611787","Match,No Match","html-keyboard-response","77","239618","0.0-7.0-2.8","","null","","<div class='trialBorder'><div class='vertical-center'><img style='vertical-align:center; align:center' src='img/fixation2_sml.jpg'></div><div class='arrayDiv3'><div class='tl'><img class='introPic' src='trustrating_stim/white_mw038.bmp'><br><font color='red'><strong>Keep</strong></font></div><div class='tc'><img class='introPic' src='trustrating_stim/white_mw042.bmp'><br><font color='green'><strong>Share</strong></font></div><div class='tr'><img class='introPic' src='trustrating_stim/white_mw012.bmp'><br><font color='green'><strong>Share</strong></font></div></div></div>","null","ARRAY","3","trustrating_stim/white_mw038.bmp,trustrating_stim/white_mw042.bmp,trustrating_stim/white_mw012.bmp","0,1,1","Match","e","4500","","","","",""
"","","","","60fd80b85dd6b22f66d16822","bdp_wmem","Wed Mar 15 2023 15:04:15 GMT-0500 (Central Daylight Time)","611787","Match,No Match","html-keyboard-response","78","243621","0.0-7.0-3.8","","null","","<div class='trialBorder'><div class='vertical-center'><img src='img/fixation2_sml.jpg'</img></div></div>","null","DELAY","","","","","","","","","","",""
"","","","","60fd80b85dd6b22f66d16822","bdp_wmem","Wed Mar 15 2023 15:04:15 GMT-0500 (Central Daylight Time)","611787","Match,No Match","html-keyboard-response","79","245090","0.0-7.0-4.8","","1468","","<div class='trialBorder'><div class='targDiv'><div class='tc'><img class='introPic' src='trustrating_stim/white_mw038.bmp'><br><font color='red'><strong>Keep</strong></font></div></div><div class='respDiv'><div class='respDivL'>Match<br>(e)</div><div class='respDivR'>No Match<br>(i)</div></div></div>","e","TARGET","3","trustrating_stim/white_mw038.bmp,trustrating_stim/white_mw042.bmp,trustrating_stim/white_mw012.bmp","0,1,1","Match","e","4500","trustrating_stim/white_mw038.bmp","red","Keep","REAL","1"
"","","","","60fd80b85dd6b22f66d16822","bdp_wmem","Wed Mar 15 2023 15:04:15 GMT-0500 (Central Daylight Time)","611787","Match,No Match","html-keyboard-response","80","245597","0.0-7.0-5.8","","null","","<div class='trialBorder'><div class='vertical-center'><img src='img/correct.jpg'></div><div class='respDiv'><div class='respDivL'><font style='color:orange'>Match<br>(e)</font></div><div class='respDivR'>No Match<br>(i)</div></div></div>","null","FEEDBACK","","","","","","","","","","",""
"","","","","60fd80b85dd6b22f66d16822","bdp_wmem","Wed Mar 15 2023 15:04:15 GMT-0500 (Central Daylight Time)","611787","Match,No Match","html-keyboard-response","81","246102","0.0-7.0-1.9","","null","","<div class='trialBorder'><div class='vertical-center'><img src='img/fixation2_sml.jpg'</img></div></div>","null","FIX","","","","","","","","","","",""
"","","","","60fd80b85dd6b22f66d16822","bdp_wmem","Wed Mar 15 2023 15:04:15 GMT-0500 (Central Daylight Time)","611787","Match,No Match","html-keyboard-response","82","249109","0.0-7.0-2.9","","null","","<div class='trialBorder'><div class='vertical-center'><img style='vertical-align:center; align:center' src='img/fixation2_sml.jpg'></div><div class='arrayDiv2'><div class='tl'><img class='introPic' src='trustrating_stim/white_mw042.bmp'><br><font color='green'><strong>Share</strong></font></div><div class='tr'><img class='introPic' src='trustrating_stim/white_mw085.bmp'><br><font color='red'><strong>Keep</strong></font></div></div></div>","null","ARRAY","2","trustrating_stim/white_mw042.bmp,trustrating_stim/white_mw085.bmp","1,0","Match","e","3000","","","","",""
"","","","","60fd80b85dd6b22f66d16822","bdp_wmem","Wed Mar 15 2023 15:04:15 GMT-0500 (Central Daylight Time)","611787","Match,No Match","html-keyboard-response","83","253115","0.0-7.0-3.9","","null","","<div class='trialBorder'><div class='vertical-center'><img src='img/fixation2_sml.jpg'</img></div></div>","null","DELAY","","","","","","","","","","",""
"","","","","60fd80b85dd6b22f66d16822","bdp_wmem","Wed Mar 15 2023 15:04:15 GMT-0500 (Central Daylight Time)","611787","Match,No Match","html-keyboard-response","84","255135","0.0-7.0-4.9","","2020","","<div class='trialBorder'><div class='targDiv'><div class='tc'><img class='introPic' src='trustrating_stim/white_mw042.bmp'><br><font color='green'><strong>Share</strong></font></div></div><div class='respDiv'><div class='respDivL'>Match<br>(e)</div><div class='respDivR'>No Match<br>(i)</div></div></div>","i","TARGET","2","trustrating_stim/white_mw042.bmp,trustrating_stim/white_mw085.bmp","1,0","Match","e","3000","trustrating_stim/white_mw042.bmp","green","Share","REAL","0"
"","","","","60fd80b85dd6b22f66d16822","bdp_wmem","Wed Mar 15 2023 15:04:15 GMT-0500 (Central Daylight Time)","611787","Match,No Match","html-keyboard-response","85","255638","0.0-7.0-5.9","","null","","<div class='trialBorder'><div class='vertical-center'><img src='img/error.jpg'></div><div class='respDiv'><div class='respDivL'>Match<br>(e)</div><div class='respDivR'><font style='color:orange'>No Match<br>(i)</font></div></div></div>","null","FEEDBACK","","","","","","","","","","",""
"","","","","60fd80b85dd6b22f66d16822","bdp_wmem","Wed Mar 15 2023 15:04:15 GMT-0500 (Central Daylight Time)","611787","Match,No Match","html-keyboard-response","86","256142","0.0-7.0-1.10","","null","","<div class='trialBorder'><div class='vertical-center'><img src='img/fixation2_sml.jpg'</img></div></div>","null","FIX","","","","","","","","","","",""
"","","","","60fd80b85dd6b22f66d16822","bdp_wmem","Wed Mar 15 2023 15:04:15 GMT-0500 (Central Daylight Time)","611787","Match,No Match","html-keyboard-response","87","260648","0.0-7.0-2.10","","null","","<div class='trialBorder'><div class='vertical-center'><img style='vertical-align:center; align:center' src='img/fixation2_sml.jpg'></div><div class='arrayDiv3'><div class='tl'><img class='introPic' src='trustrating_stim/white_mw012.bmp'><br><font color='green'><strong>Share</strong></font></div><div class='tc'><img class='introPic' src='trustrating_stim/white_mw013.bmp'><br><font color='red'><strong>Keep</strong></font></div><div class='tr'><img class='introPic' src='trustrating_stim/white_mw042.bmp'><br><font color='green'><strong>Share</strong></font></div></div></div>","null","ARRAY","3","trustrating_stim/white_mw012.bmp,trustrating_stim/white_mw013.bmp,trustrating_stim/white_mw042.bmp","1,0,1","Match","e","4500","","","","",""
"","","","","60fd80b85dd6b22f66d16822","bdp_wmem","Wed Mar 15 2023 15:04:15 GMT-0500 (Central Daylight Time)","611787","Match,No Match","html-keyboard-response","88","264651","0.0-7.0-3.10","","null","","<div class='trialBorder'><div class='vertical-center'><img src='img/fixation2_sml.jpg'</img></div></div>","null","DELAY","","","","","","","","","","",""
"","","","","60fd80b85dd6b22f66d16822","bdp_wmem","Wed Mar 15 2023 15:04:15 GMT-0500 (Central Daylight Time)","611787","Match,No Match","html-keyboard-response","89","266869","0.0-7.0-4.10","","2218","","<div class='trialBorder'><div class='targDiv'><div class='tc'><img class='introPic' src='trustrating_stim/white_mw042.bmp'><br><font color='green'><strong>Share</strong></font></div></div><div class='respDiv'><div class='respDivL'>Match<br>(e)</div><div class='respDivR'>No Match<br>(i)</div></div></div>","e","TARGET","3","trustrating_stim/white_mw012.bmp,trustrating_stim/white_mw013.bmp,trustrating_stim/white_mw042.bmp","1,0,1","Match","e","4500","trustrating_stim/white_mw042.bmp","green","Share","REAL","1"
"","","","","60fd80b85dd6b22f66d16822","bdp_wmem","Wed Mar 15 2023 15:04:15 GMT-0500 (Central Daylight Time)","611787","Match,No Match","html-keyboard-response","90","267375","0.0-7.0-5.10","","null","","<div class='trialBorder'><div class='vertical-center'><img src='img/correct.jpg'></div><div class='respDiv'><div class='respDivL'><font style='color:orange'>Match<br>(e)</font></div><div class='respDivR'>No Match<br>(i)</div></div></div>","null","FEEDBACK","","","","","","","","","","",""
"","","","","60fd80b85dd6b22f66d16822","bdp_wmem","Wed Mar 15 2023 15:04:15 GMT-0500 (Central Daylight Time)","611787","Match,No Match","html-keyboard-response","91","267881","0.0-7.0-1.11","","null","","<div class='trialBorder'><div class='vertical-center'><img src='img/fixation2_sml.jpg'</img></div></div>","null","FIX","","","","","","","","","","",""
"","","","","60fd80b85dd6b22f66d16822","bdp_wmem","Wed Mar 15 2023 15:04:15 GMT-0500 (Central Daylight Time)","611787","Match,No Match","html-keyboard-response","92","269384","0.0-7.0-2.11","","null","","<div class='trialBorder'><div class='vertical-center'><img style='vertical-align:center; align:center' src='img/fixation2_sml.jpg'></div><div class='arrayDiv1'><div class='tc'><img class='introPic' src='trustrating_stim/white_mw013.bmp'><br><font color='red'><strong>Keep</strong></font></div></div></div>","null","ARRAY","1","trustrating_stim/white_mw013.bmp","0","noMatchOutcome","i","1500","","","","",""
"","","","","60fd80b85dd6b22f66d16822","bdp_wmem","Wed Mar 15 2023 15:04:15 GMT-0500 (Central Daylight Time)","611787","Match,No Match","html-keyboard-response","93","273389","0.0-7.0-3.11","","null","","<div class='trialBorder'><div class='vertical-center'><img src='img/fixation2_sml.jpg'</img></div></div>","null","DELAY","","","","","","","","","","",""
"","","","","60fd80b85dd6b22f66d16822","bdp_wmem","Wed Mar 15 2023 15:04:15 GMT-0500 (Central Daylight Time)","611787","Match,No Match","html-keyboard-response","94","274307","0.0-7.0-4.11","","916","","<div class='trialBorder'><div class='targDiv'><div class='tc'><img class='introPic' src='trustrating_stim/white_mw013.bmp'><br><font color='green'><strong>Share</strong></font></div></div><div class='respDiv'><div class='respDivL'>Match<br>(e)</div><div class='respDivR'>No Match<br>(i)</div></div></div>","i","TARGET","1","trustrating_stim/white_mw013.bmp","0","noMatchOutcome","i","1500","trustrating_stim/white_mw013.bmp","green","Share","REAL","1"
"","","","","60fd80b85dd6b22f66d16822","bdp_wmem","Wed Mar 15 2023 15:04:15 GMT-0500 (Central Daylight Time)","611787","Match,No Match","html-keyboard-response","95","274814","0.0-7.0-5.11","","null","","<div class='trialBorder'><div class='vertical-center'><img src='img/correct.jpg'></div><div class='respDiv'><div class='respDivL'>Match<br>(e)</div><div class='respDivR'><font style='color:orange'>No Match<br>(i)</font></div></div></div>","null","FEEDBACK","","","","","","","","","","",""
"","","","","60fd80b85dd6b22f66d16822","bdp_wmem","Wed Mar 15 2023 15:04:15 GMT-0500 (Central Daylight Time)","611787","Match,No Match","html-keyboard-response","96","275318","0.0-7.0-1.12","","null","","<div class='trialBorder'><div class='vertical-center'><img src='img/fixation2_sml.jpg'</img></div></div>","null","FIX","","","","","","","","","","",""
"","","","","60fd80b85dd6b22f66d16822","bdp_wmem","Wed Mar 15 2023 15:04:15 GMT-0500 (Central Daylight Time)","611787","Match,No Match","html-keyboard-response","97","279819","0.0-7.0-2.12","","null","","<div class='trialBorder'><div class='vertical-center'><img style='vertical-align:center; align:center' src='img/fixation2_sml.jpg'></div><div class='arrayDiv3'><div class='tl'><img class='introPic' src='trustrating_stim/white_mw003.bmp'><br><font color='green'><strong>Share</strong></font></div><div class='tc'><img class='introPic' src='trustrating_stim/white_mw013.bmp'><br><font color='green'><strong>Share</strong></font></div><div class='tr'><img class='introPic' src='trustrating_stim/white_mw070.bmp'><br><font color='red'><strong>Keep</strong></font></div></div></div>","null","ARRAY","3","trustrating_stim/white_mw003.bmp,trustrating_stim/white_mw013.bmp,trustrating_stim/white_mw070.bmp","1,1,0","noMatchOutcome","i","4500","","","","",""
"","","","","60fd80b85dd6b22f66d16822","bdp_wmem","Wed Mar 15 2023 15:04:15 GMT-0500 (Central Daylight Time)","611787","Match,No Match","html-keyboard-response","98","283825","0.0-7.0-3.12","","null","","<div class='trialBorder'><div class='vertical-center'><img src='img/fixation2_sml.jpg'</img></div></div>","null","DELAY","","","","","","","","","","",""
"","","","","60fd80b85dd6b22f66d16822","bdp_wmem","Wed Mar 15 2023 15:04:15 GMT-0500 (Central Daylight Time)","611787","Match,No Match","html-keyboard-response","99","285261","0.0-7.0-4.12","","1434","","<div class='trialBorder'><div class='targDiv'><div class='tc'><img class='introPic' src='trustrating_stim/white_mw013.bmp'><br><font color='red'><strong>Keep</strong></font></div></div><div class='respDiv'><div class='respDivL'>Match<br>(e)</div><div class='respDivR'>No Match<br>(i)</div></div></div>","i","TARGET","3","trustrating_stim/white_mw003.bmp,trustrating_stim/white_mw013.bmp,trustrating_stim/white_mw070.bmp","1,1,0","noMatchOutcome","i","4500","trustrating_stim/white_mw013.bmp","red","Keep","REAL","1"
"","","","","60fd80b85dd6b22f66d16822","bdp_wmem","Wed Mar 15 2023 15:04:15 GMT-0500 (Central Daylight Time)","611787","Match,No Match","html-keyboard-response","100","285767","0.0-7.0-5.12","","null","","<div class='trialBorder'><div class='vertical-center'><img src='img/correct.jpg'></div><div class='respDiv'><div class='respDivL'>Match<br>(e)</div><div class='respDivR'><font style='color:orange'>No Match<br>(i)</font></div></div></div>","null","FEEDBACK","","","","","","","","","","",""
"","","","","60fd80b85dd6b22f66d16822","bdp_wmem","Wed Mar 15 2023 15:04:15 GMT-0500 (Central Daylight Time)","611787","Match,No Match","html-keyboard-response","101","286269","0.0-7.0-1.13","","null","","<div class='trialBorder'><div class='vertical-center'><img src='img/fixation2_sml.jpg'</img></div></div>","null","FIX","","","","","","","","","","",""
"","","","","60fd80b85dd6b22f66d16822","bdp_wmem","Wed Mar 15 2023 15:04:15 GMT-0500 (Central Daylight Time)","611787","Match,No Match","html-keyboard-response","102","290775","0.0-7.0-2.13","","null","","<div class='trialBorder'><div class='vertical-center'><img style='vertical-align:center; align:center' src='img/fixation2_sml.jpg'></div><div class='arrayDiv3'><div class='tl'><img class='introPic' src='trustrating_stim/white_mw040.bmp'><br><font color='red'><strong>Keep</strong></font></div><div class='tc'><img class='introPic' src='trustrating_stim/white_mw003.bmp'><br><font color='green'><strong>Share</strong></font></div><div class='tr'><img class='introPic' src='trustrating_stim/white_mw038.bmp'><br><font color='red'><strong>Keep</strong></font></div></div></div>","null","ARRAY","3","trustrating_stim/white_mw040.bmp,trustrating_stim/white_mw003.bmp,trustrating_stim/white_mw038.bmp","0,1,0","Match","e","4500","","","","",""
"","","","","60fd80b85dd6b22f66d16822","bdp_wmem","Wed Mar 15 2023 15:04:15 GMT-0500 (Central Daylight Time)","611787","Match,No Match","html-keyboard-response","103","294781","0.0-7.0-3.13","","null","","<div class='trialBorder'><div class='vertical-center'><img src='img/fixation2_sml.jpg'</img></div></div>","null","DELAY","","","","","","","","","","",""
"","","","","60fd80b85dd6b22f66d16822","bdp_wmem","Wed Mar 15 2023 15:04:15 GMT-0500 (Central Daylight Time)","611787","Match,No Match","html-keyboard-response","104","297698","0.0-7.0-4.13","","2917","","<div class='trialBorder'><div class='targDiv'><div class='tc'><img class='introPic' src='trustrating_stim/white_mw038.bmp'><br><font color='red'><strong>Keep</strong></font></div></div><div class='respDiv'><div class='respDivL'>Match<br>(e)</div><div class='respDivR'>No Match<br>(i)</div></div></div>","i","TARGET","3","trustrating_stim/white_mw040.bmp,trustrating_stim/white_mw003.bmp,trustrating_stim/white_mw038.bmp","0,1,0","Match","e","4500","trustrating_stim/white_mw038.bmp","red","Keep","REAL","0"
"","","","","60fd80b85dd6b22f66d16822","bdp_wmem","Wed Mar 15 2023 15:04:15 GMT-0500 (Central Daylight Time)","611787","Match,No Match","html-keyboard-response","105","298205","0.0-7.0-5.13","","null","","<div class='trialBorder'><div class='vertical-center'><img src='img/error.jpg'></div><div class='respDiv'><div class='respDivL'>Match<br>(e)</div><div class='respDivR'><font style='color:orange'>No Match<br>(i)</font></div></div></div>","null","FEEDBACK","","","","","","","","","","",""
"","","","","60fd80b85dd6b22f66d16822","bdp_wmem","Wed Mar 15 2023 15:04:15 GMT-0500 (Central Daylight Time)","611787","Match,No Match","html-keyboard-response","106","298710","0.0-7.0-1.14","","null","","<div class='trialBorder'><div class='vertical-center'><img src='img/fixation2_sml.jpg'</img></div></div>","null","FIX","","","","","","","","","","",""
"","","","","60fd80b85dd6b22f66d16822","bdp_wmem","Wed Mar 15 2023 15:04:15 GMT-0500 (Central Daylight Time)","611787","Match,No Match","html-keyboard-response","107","301713","0.0-7.0-2.14","","null","","<div class='trialBorder'><div class='vertical-center'><img style='vertical-align:center; align:center' src='img/fixation2_sml.jpg'></div><div class='arrayDiv2'><div class='tl'><img class='introPic' src='trustrating_stim/white_mw003.bmp'><br><font color='red'><strong>Keep</strong></font></div><div class='tr'><img class='introPic' src='trustrating_stim/white_mw085.bmp'><br><font color='green'><strong>Share</strong></font></div></div></div>","null","ARRAY","2","trustrating_stim/white_mw003.bmp,trustrating_stim/white_mw085.bmp","0,1","Match","e","3000","","","","",""
"","","","","60fd80b85dd6b22f66d16822","bdp_wmem","Wed Mar 15 2023 15:04:15 GMT-0500 (Central Daylight Time)","611787","Match,No Match","html-keyboard-response","108","305714","0.0-7.0-3.14","","null","","<div class='trialBorder'><div class='vertical-center'><img src='img/fixation2_sml.jpg'</img></div></div>","null","DELAY","","","","","","","","","","",""
"","","","","60fd80b85dd6b22f66d16822","bdp_wmem","Wed Mar 15 2023 15:04:15 GMT-0500 (Central Daylight Time)","611787","Match,No Match","html-keyboard-response","109","306116","0.0-7.0-4.14","","401","","<div class='trialBorder'><div class='targDiv'><div class='tc'><img class='introPic' src='trustrating_stim/white_mw085.bmp'><br><font color='green'><strong>Share</strong></font></div></div><div class='respDiv'><div class='respDivL'>Match<br>(e)</div><div class='respDivR'>No Match<br>(i)</div></div></div>","e","TARGET","2","trustrating_stim/white_mw003.bmp,trustrating_stim/white_mw085.bmp","0,1","Match","e","3000","trustrating_stim/white_mw085.bmp","green","Share","REAL","1"
"","","","","60fd80b85dd6b22f66d16822","bdp_wmem","Wed Mar 15 2023 15:04:15 GMT-0500 (Central Daylight Time)","611787","Match,No Match","html-keyboard-response","110","306617","0.0-7.0-5.14","","null","","<div class='trialBorder'><div class='vertical-center'><img src='img/correct.jpg'></div><div class='respDiv'><div class='respDivL'><font style='color:orange'>Match<br>(e)</font></div><div class='respDivR'>No Match<br>(i)</div></div></div>","null","FEEDBACK","","","","","","","","","","",""
"","","","","60fd80b85dd6b22f66d16822","bdp_wmem","Wed Mar 15 2023 15:04:15 GMT-0500 (Central Daylight Time)","611787","Match,No Match","html-keyboard-response","111","307120","0.0-7.0-1.15","","null","","<div class='trialBorder'><div class='vertical-center'><img src='img/fixation2_sml.jpg'</img></div></div>","null","FIX","","","","","","","","","","",""
"","","","","60fd80b85dd6b22f66d16822","bdp_wmem","Wed Mar 15 2023 15:04:15 GMT-0500 (Central Daylight Time)","611787","Match,No Match","html-keyboard-response","112","308625","0.0-7.0-2.15","","null","","<div class='trialBorder'><div class='vertical-center'><img style='vertical-align:center; align:center' src='img/fixation2_sml.jpg'></div><div class='arrayDiv1'><div class='tc'><img class='introPic' src='trustrating_stim/white_mw078.bmp'><br><font color='red'><strong>Keep</strong></font></div></div></div>","null","ARRAY","1","trustrating_stim/white_mw078.bmp","0","Match","e","1500","","","","",""
"","","","","60fd80b85dd6b22f66d16822","bdp_wmem","Wed Mar 15 2023 15:04:15 GMT-0500 (Central Daylight Time)","611787","Match,No Match","html-keyboard-response","113","312630","0.0-7.0-3.15","","null","","<div class='trialBorder'><div class='vertical-center'><img src='img/fixation2_sml.jpg'</img></div></div>","null","DELAY","","","","","","","","","","",""
"","","","","60fd80b85dd6b22f66d16822","bdp_wmem","Wed Mar 15 2023 15:04:15 GMT-0500 (Central Daylight Time)","611787","Match,No Match","html-keyboard-response","114","313593","0.0-7.0-4.15","","963","","<div class='trialBorder'><div class='targDiv'><div class='tc'><img class='introPic' src='trustrating_stim/white_mw078.bmp'><br><font color='red'><strong>Keep</strong></font></div></div><div class='respDiv'><div class='respDivL'>Match<br>(e)</div><div class='respDivR'>No Match<br>(i)</div></div></div>","e","TARGET","1","trustrating_stim/white_mw078.bmp","0","Match","e","1500","trustrating_stim/white_mw078.bmp","red","Keep","REAL","1"
"","","","","60fd80b85dd6b22f66d16822","bdp_wmem","Wed Mar 15 2023 15:04:15 GMT-0500 (Central Daylight Time)","611787","Match,No Match","html-keyboard-response","115","314100","0.0-7.0-5.15","","null","","<div class='trialBorder'><div class='vertical-center'><img src='img/correct.jpg'></div><div class='respDiv'><div class='respDivL'><font style='color:orange'>Match<br>(e)</font></div><div class='respDivR'>No Match<br>(i)</div></div></div>","null","FEEDBACK","","","","","","","","","","",""
"","","","","60fd80b85dd6b22f66d16822","bdp_wmem","Wed Mar 15 2023 15:04:15 GMT-0500 (Central Daylight Time)","611787","Match,No Match","html-keyboard-response","116","314606","0.0-7.0-1.16","","null","","<div class='trialBorder'><div class='vertical-center'><img src='img/fixation2_sml.jpg'</img></div></div>","null","FIX","","","","","","","","","","",""
"","","","","60fd80b85dd6b22f66d16822","bdp_wmem","Wed Mar 15 2023 15:04:15 GMT-0500 (Central Daylight Time)","611787","Match,No Match","html-keyboard-response","117","319112","0.0-7.0-2.16","","null","","<div class='trialBorder'><div class='vertical-center'><img style='vertical-align:center; align:center' src='img/fixation2_sml.jpg'></div><div class='arrayDiv3'><div class='tl'><img class='introPic' src='trustrating_stim/white_mw085.bmp'><br><font color='green'><strong>Share</strong></font></div><div class='tc'><img class='introPic' src='trustrating_stim/white_mw013.bmp'><br><font color='red'><strong>Keep</strong></font></div><div class='tr'><img class='introPic' src='trustrating_stim/white_mw042.bmp'><br><font color='red'><strong>Keep</strong></font></div></div></div>","null","ARRAY","3","trustrating_stim/white_mw085.bmp,trustrating_stim/white_mw013.bmp,trustrating_stim/white_mw042.bmp","1,0,0","Match","e","4500","","","","",""
"","","","","60fd80b85dd6b22f66d16822","bdp_wmem","Wed Mar 15 2023 15:04:15 GMT-0500 (Central Daylight Time)","611787","Match,No Match","html-keyboard-response","118","323119","0.0-7.0-3.16","","null","","<div class='trialBorder'><div class='vertical-center'><img src='img/fixation2_sml.jpg'</img></div></div>","null","DELAY","","","","","","","","","","",""
"","","","","60fd80b85dd6b22f66d16822","bdp_wmem","Wed Mar 15 2023 15:04:15 GMT-0500 (Central Daylight Time)","611787","Match,No Match","html-keyboard-response","119","323181","0.0-7.0-4.16","","61","","<div class='trialBorder'><div class='targDiv'><div class='tc'><img class='introPic' src='trustrating_stim/white_mw013.bmp'><br><font color='red'><strong>Keep</strong></font></div></div><div class='respDiv'><div class='respDivL'>Match<br>(e)</div><div class='respDivR'>No Match<br>(i)</div></div></div>","e","TARGET","3","trustrating_stim/white_mw085.bmp,trustrating_stim/white_mw013.bmp,trustrating_stim/white_mw042.bmp","1,0,0","Match","e","4500","trustrating_stim/white_mw013.bmp","red","Keep","REAL","1"
"","","","","60fd80b85dd6b22f66d16822","bdp_wmem","Wed Mar 15 2023 15:04:15 GMT-0500 (Central Daylight Time)","611787","Match,No Match","html-keyboard-response","120","323683","0.0-7.0-5.16","","null","","<div class='trialBorder'><div class='vertical-center'><img src='img/correct.jpg'></div><div class='respDiv'><div class='respDivL'><font style='color:orange'>Match<br>(e)</font></div><div class='respDivR'>No Match<br>(i)</div></div></div>","null","FEEDBACK","","","","","","","","","","",""
"","","","","60fd80b85dd6b22f66d16822","bdp_wmem","Wed Mar 15 2023 15:04:15 GMT-0500 (Central Daylight Time)","611787","Match,No Match","html-keyboard-response","121","324184","0.0-7.0-1.17","","null","","<div class='trialBorder'><div class='vertical-center'><img src='img/fixation2_sml.jpg'</img></div></div>","null","FIX","","","","","","","","","","",""
"","","","","60fd80b85dd6b22f66d16822","bdp_wmem","Wed Mar 15 2023 15:04:15 GMT-0500 (Central Daylight Time)","611787","Match,No Match","html-keyboard-response","122","328691","0.0-7.0-2.17","","null","","<div class='trialBorder'><div class='vertical-center'><img style='vertical-align:center; align:center' src='img/fixation2_sml.jpg'></div><div class='arrayDiv3'><div class='tl'><img class='introPic' src='trustrating_stim/white_mw078.bmp'><br><font color='green'><strong>Share</strong></font></div><div class='tc'><img class='introPic' src='trustrating_stim/white_mw092.bmp'><br><font color='red'><strong>Keep</strong></font></div><div class='tr'><img class='introPic' src='trustrating_stim/white_mw012.bmp'><br><font color='red'><strong>Keep</strong></font></div></div></div>","null","ARRAY","3","trustrating_stim/white_mw078.bmp,trustrating_stim/white_mw092.bmp,trustrating_stim/white_mw012.bmp","1,0,0","Match","e","4500","","","","",""
"","","","","60fd80b85dd6b22f66d16822","bdp_wmem","Wed Mar 15 2023 15:04:15 GMT-0500 (Central Daylight Time)","611787","Match,No Match","html-keyboard-response","123","332694","0.0-7.0-3.17","","null","","<div class='trialBorder'><div class='vertical-center'><img src='img/fixation2_sml.jpg'</img></div></div>","null","DELAY","","","","","","","","","","",""
"","","","","60fd80b85dd6b22f66d16822","bdp_wmem","Wed Mar 15 2023 15:04:15 GMT-0500 (Central Daylight Time)","611787","Match,No Match","html-keyboard-response","124","334045","0.0-7.0-4.17","","1351","","<div class='trialBorder'><div class='targDiv'><div class='tc'><img class='introPic' src='trustrating_stim/white_mw012.bmp'><br><font color='red'><strong>Keep</strong></font></div></div><div class='respDiv'><div class='respDivL'>Match<br>(e)</div><div class='respDivR'>No Match<br>(i)</div></div></div>","i","TARGET","3","trustrating_stim/white_mw078.bmp,trustrating_stim/white_mw092.bmp,trustrating_stim/white_mw012.bmp","1,0,0","Match","e","4500","trustrating_stim/white_mw012.bmp","red","Keep","REAL","0"
"","","","","60fd80b85dd6b22f66d16822","bdp_wmem","Wed Mar 15 2023 15:04:15 GMT-0500 (Central Daylight Time)","611787","Match,No Match","html-keyboard-response","125","334552","0.0-7.0-5.17","","null","","<div class='trialBorder'><div class='vertical-center'><img src='img/error.jpg'></div><div class='respDiv'><div class='respDivL'>Match<br>(e)</div><div class='respDivR'><font style='color:orange'>No Match<br>(i)</font></div></div></div>","null","FEEDBACK","","","","","","","","","","",""
"","","","","60fd80b85dd6b22f66d16822","bdp_wmem","Wed Mar 15 2023 15:04:15 GMT-0500 (Central Daylight Time)","611787","Match,No Match","html-keyboard-response","126","335057","0.0-7.0-1.18","","null","","<div class='trialBorder'><div class='vertical-center'><img src='img/fixation2_sml.jpg'</img></div></div>","null","FIX","","","","","","","","","","",""
"","","","","60fd80b85dd6b22f66d16822","bdp_wmem","Wed Mar 15 2023 15:04:15 GMT-0500 (Central Daylight Time)","611787","Match,No Match","html-keyboard-response","127","338063","0.0-7.0-2.18","","null","","<div class='trialBorder'><div class='vertical-center'><img style='vertical-align:center; align:center' src='img/fixation2_sml.jpg'></div><div class='arrayDiv2'><div class='tl'><img class='introPic' src='trustrating_stim/white_mw038.bmp'><br><font color='red'><strong>Keep</strong></font></div><div class='tr'><img class='introPic' src='trustrating_stim/white_mw003.bmp'><br><font color='green'><strong>Share</strong></font></div></div></div>","null","ARRAY","2","trustrating_stim/white_mw038.bmp,trustrating_stim/white_mw003.bmp","0,1","noMatchOutcome","i","3000","","","","",""
"","","","","60fd80b85dd6b22f66d16822","bdp_wmem","Wed Mar 15 2023 15:04:15 GMT-0500 (Central Daylight Time)","611787","Match,No Match","html-keyboard-response","128","342069","0.0-7.0-3.18","","null","","<div class='trialBorder'><div class='vertical-center'><img src='img/fixation2_sml.jpg'</img></div></div>","null","DELAY","","","","","","","","","","",""
"","","","","60fd80b85dd6b22f66d16822","bdp_wmem","Wed Mar 15 2023 15:04:15 GMT-0500 (Central Daylight Time)","611787","Match,No Match","html-keyboard-response","129","344050","0.0-7.0-4.18","","1981","","<div class='trialBorder'><div class='targDiv'><div class='tc'><img class='introPic' src='trustrating_stim/white_mw038.bmp'><br><font color='green'><strong>Share</strong></font></div></div><div class='respDiv'><div class='respDivL'>Match<br>(e)</div><div class='respDivR'>No Match<br>(i)</div></div></div>","i","TARGET","2","trustrating_stim/white_mw038.bmp,trustrating_stim/white_mw003.bmp","0,1","noMatchOutcome","i","3000","trustrating_stim/white_mw038.bmp","green","Share","REAL","1"
"","","","","60fd80b85dd6b22f66d16822","bdp_wmem","Wed Mar 15 2023 15:04:15 GMT-0500 (Central Daylight Time)","611787","Match,No Match","html-keyboard-response","130","344553","0.0-7.0-5.18","","null","","<div class='trialBorder'><div class='vertical-center'><img src='img/correct.jpg'></div><div class='respDiv'><div class='respDivL'>Match<br>(e)</div><div class='respDivR'><font style='color:orange'>No Match<br>(i)</font></div></div></div>","null","FEEDBACK","","","","","","","","","","",""
"","","","","60fd80b85dd6b22f66d16822","bdp_wmem","Wed Mar 15 2023 15:04:15 GMT-0500 (Central Daylight Time)","611787","Match,No Match","html-keyboard-response","131","345055","0.0-7.0-1.19","","null","","<div class='trialBorder'><div class='vertical-center'><img src='img/fixation2_sml.jpg'</img></div></div>","null","FIX","","","","","","","","","","",""
"","","","","60fd80b85dd6b22f66d16822","bdp_wmem","Wed Mar 15 2023 15:04:15 GMT-0500 (Central Daylight Time)","611787","Match,No Match","html-keyboard-response","132","348058","0.0-7.0-2.19","","null","","<div class='trialBorder'><div class='vertical-center'><img style='vertical-align:center; align:center' src='img/fixation2_sml.jpg'></div><div class='arrayDiv2'><div class='tl'><img class='introPic' src='trustrating_stim/white_mw042.bmp'><br><font color='red'><strong>Keep</strong></font></div><div class='tr'><img class='introPic' src='trustrating_stim/white_mw092.bmp'><br><font color='green'><strong>Share</strong></font></div></div></div>","null","ARRAY","2","trustrating_stim/white_mw042.bmp,trustrating_stim/white_mw092.bmp","0,1","noMatchFace","i","3000","","","","",""
"","","","","60fd80b85dd6b22f66d16822","bdp_wmem","Wed Mar 15 2023 15:04:15 GMT-0500 (Central Daylight Time)","611787","Match,No Match","html-keyboard-response","133","352065","0.0-7.0-3.19","","null","","<div class='trialBorder'><div class='vertical-center'><img src='img/fixation2_sml.jpg'</img></div></div>","null","DELAY","","","","","","","","","","",""
"","","","","60fd80b85dd6b22f66d16822","bdp_wmem","Wed Mar 15 2023 15:04:15 GMT-0500 (Central Daylight Time)","611787","Match,No Match","html-keyboard-response","134","353286","0.0-7.0-4.19","","1220","","<div class='trialBorder'><div class='targDiv'><div class='tc'><img class='introPic' src='trustrating_stim/white_mw010.bmp'><br><font color='green'><strong>Share</strong></font></div></div><div class='respDiv'><div class='respDivL'>Match<br>(e)</div><div class='respDivR'>No Match<br>(i)</div></div></div>","i","TARGET","2","trustrating_stim/white_mw042.bmp,trustrating_stim/white_mw092.bmp","0,1","noMatchFace","i","3000","trustrating_stim/white_mw010.bmp","green","Share","REAL","1"
"","","","","60fd80b85dd6b22f66d16822","bdp_wmem","Wed Mar 15 2023 15:04:15 GMT-0500 (Central Daylight Time)","611787","Match,No Match","html-keyboard-response","135","353789","0.0-7.0-5.19","","null","","<div class='trialBorder'><div class='vertical-center'><img src='img/correct.jpg'></div><div class='respDiv'><div class='respDivL'>Match<br>(e)</div><div class='respDivR'><font style='color:orange'>No Match<br>(i)</font></div></div></div>","null","FEEDBACK","","","","","","","","","","",""
"","","","","60fd80b85dd6b22f66d16822","bdp_wmem","Wed Mar 15 2023 15:04:15 GMT-0500 (Central Daylight Time)","611787","Match,No Match","html-keyboard-response","136","354291","0.0-7.0-1.20","","null","","<div class='trialBorder'><div class='vertical-center'><img src='img/fixation2_sml.jpg'</img></div></div>","null","FIX","","","","","","","","","","",""
"","","","","60fd80b85dd6b22f66d16822","bdp_wmem","Wed Mar 15 2023 15:04:15 GMT-0500 (Central Daylight Time)","611787","Match,No Match","html-keyboard-response","137","355797","0.0-7.0-2.20","","null","","<div class='trialBorder'><div class='vertical-center'><img style='vertical-align:center; align:center' src='img/fixation2_sml.jpg'></div><div class='arrayDiv1'><div class='tc'><img class='introPic' src='trustrating_stim/white_mw038.bmp'><br><font color='green'><strong>Share</strong></font></div></div></div>","null","ARRAY","1","trustrating_stim/white_mw038.bmp","1","noMatchOutcome","i","1500","","","","",""
"","","","","60fd80b85dd6b22f66d16822","bdp_wmem","Wed Mar 15 2023 15:04:15 GMT-0500 (Central Daylight Time)","611787","Match,No Match","html-keyboard-response","138","359802","0.0-7.0-3.20","","null","","<div class='trialBorder'><div class='vertical-center'><img src='img/fixation2_sml.jpg'</img></div></div>","null","DELAY","","","","","","","","","","",""
"","","","","60fd80b85dd6b22f66d16822","bdp_wmem","Wed Mar 15 2023 15:04:15 GMT-0500 (Central Daylight Time)","611787","Match,No Match","html-keyboard-response","139","360461","0.0-7.0-4.20","","659","","<div class='trialBorder'><div class='targDiv'><div class='tc'><img class='introPic' src='trustrating_stim/white_mw038.bmp'><br><font color='red'><strong>Keep</strong></font></div></div><div class='respDiv'><div class='respDivL'>Match<br>(e)</div><div class='respDivR'>No Match<br>(i)</div></div></div>","i","TARGET","1","trustrating_stim/white_mw038.bmp","1","noMatchOutcome","i","1500","trustrating_stim/white_mw038.bmp","red","Keep","REAL","1"
"","","","","60fd80b85dd6b22f66d16822","bdp_wmem","Wed Mar 15 2023 15:04:15 GMT-0500 (Central Daylight Time)","611787","Match,No Match","html-keyboard-response","140","360968","0.0-7.0-5.20","","null","","<div class='trialBorder'><div class='vertical-center'><img src='img/correct.jpg'></div><div class='respDiv'><div class='respDivL'>Match<br>(e)</div><div class='respDivR'><font style='color:orange'>No Match<br>(i)</font></div></div></div>","null","FEEDBACK","","","","","","","","","","",""
"","","","","60fd80b85dd6b22f66d16822","bdp_wmem","Wed Mar 15 2023 15:04:15 GMT-0500 (Central Daylight Time)","611787","Match,No Match","html-keyboard-response","141","361469","0.0-7.0-1.21","","null","","<div class='trialBorder'><div class='vertical-center'><img src='img/fixation2_sml.jpg'</img></div></div>","null","FIX","","","","","","","","","","",""
"","","","","60fd80b85dd6b22f66d16822","bdp_wmem","Wed Mar 15 2023 15:04:15 GMT-0500 (Central Daylight Time)","611787","Match,No Match","html-keyboard-response","142","364470","0.0-7.0-2.21","","null","","<div class='trialBorder'><div class='vertical-center'><img style='vertical-align:center; align:center' src='img/fixation2_sml.jpg'></div><div class='arrayDiv2'><div class='tl'><img class='introPic' src='trustrating_stim/white_mw042.bmp'><br><font color='red'><strong>Keep</strong></font></div><div class='tr'><img class='introPic' src='trustrating_stim/white_mw038.bmp'><br><font color='green'><strong>Share</strong></font></div></div></div>","null","ARRAY","2","trustrating_stim/white_mw042.bmp,trustrating_stim/white_mw038.bmp","0,1","Match","e","3000","","","","",""
"","","","","60fd80b85dd6b22f66d16822","bdp_wmem","Wed Mar 15 2023 15:04:15 GMT-0500 (Central Daylight Time)","611787","Match,No Match","html-keyboard-response","143","368475","0.0-7.0-3.21","","null","","<div class='trialBorder'><div class='vertical-center'><img src='img/fixation2_sml.jpg'</img></div></div>","null","DELAY","","","","","","","","","","",""
"","","","","60fd80b85dd6b22f66d16822","bdp_wmem","Wed Mar 15 2023 15:04:15 GMT-0500 (Central Daylight Time)","611787","Match,No Match","html-keyboard-response","144","369869","0.0-7.0-4.21","","1393","","<div class='trialBorder'><div class='targDiv'><div class='tc'><img class='introPic' src='trustrating_stim/white_mw038.bmp'><br><font color='green'><strong>Share</strong></font></div></div><div class='respDiv'><div class='respDivL'>Match<br>(e)</div><div class='respDivR'>No Match<br>(i)</div></div></div>","e","TARGET","2","trustrating_stim/white_mw042.bmp,trustrating_stim/white_mw038.bmp","0,1","Match","e","3000","trustrating_stim/white_mw038.bmp","green","Share","REAL","1"
"","","","","60fd80b85dd6b22f66d16822","bdp_wmem","Wed Mar 15 2023 15:04:15 GMT-0500 (Central Daylight Time)","611787","Match,No Match","html-keyboard-response","145","370376","0.0-7.0-5.21","","null","","<div class='trialBorder'><div class='vertical-center'><img src='img/correct.jpg'></div><div class='respDiv'><div class='respDivL'><font style='color:orange'>Match<br>(e)</font></div><div class='respDivR'>No Match<br>(i)</div></div></div>","null","FEEDBACK","","","","","","","","","","",""
"","","","","60fd80b85dd6b22f66d16822","bdp_wmem","Wed Mar 15 2023 15:04:15 GMT-0500 (Central Daylight Time)","611787","Match,No Match","html-keyboard-response","146","370882","0.0-7.0-1.22","","null","","<div class='trialBorder'><div class='vertical-center'><img src='img/fixation2_sml.jpg'</img></div></div>","null","FIX","","","","","","","","","","",""
"","","","","60fd80b85dd6b22f66d16822","bdp_wmem","Wed Mar 15 2023 15:04:15 GMT-0500 (Central Daylight Time)","611787","Match,No Match","html-keyboard-response","147","373886","0.0-7.0-2.22","","null","","<div class='trialBorder'><div class='vertical-center'><img style='vertical-align:center; align:center' src='img/fixation2_sml.jpg'></div><div class='arrayDiv2'><div class='tl'><img class='introPic' src='trustrating_stim/white_mw070.bmp'><br><font color='green'><strong>Share</strong></font></div><div class='tr'><img class='introPic' src='trustrating_stim/white_mw012.bmp'><br><font color='red'><strong>Keep</strong></font></div></div></div>","null","ARRAY","2","trustrating_stim/white_mw070.bmp,trustrating_stim/white_mw012.bmp","1,0","noMatchOutcome","i","3000","","","","",""
"","","","","60fd80b85dd6b22f66d16822","bdp_wmem","Wed Mar 15 2023 15:04:15 GMT-0500 (Central Daylight Time)","611787","Match,No Match","html-keyboard-response","148","377892","0.0-7.0-3.22","","null","","<div class='trialBorder'><div class='vertical-center'><img src='img/fixation2_sml.jpg'</img></div></div>","null","DELAY","","","","","","","","","","",""
"","","","","60fd80b85dd6b22f66d16822","bdp_wmem","Wed Mar 15 2023 15:04:15 GMT-0500 (Central Daylight Time)","611787","Match,No Match","html-keyboard-response","149","379719","0.0-7.0-4.22","","1827","","<div class='trialBorder'><div class='targDiv'><div class='tc'><img class='introPic' src='trustrating_stim/white_mw012.bmp'><br><font color='green'><strong>Share</strong></font></div></div><div class='respDiv'><div class='respDivL'>Match<br>(e)</div><div class='respDivR'>No Match<br>(i)</div></div></div>","e","TARGET","2","trustrating_stim/white_mw070.bmp,trustrating_stim/white_mw012.bmp","1,0","noMatchOutcome","i","3000","trustrating_stim/white_mw012.bmp","green","Share","REAL","0"
"","","","","60fd80b85dd6b22f66d16822","bdp_wmem","Wed Mar 15 2023 15:04:15 GMT-0500 (Central Daylight Time)","611787","Match,No Match","html-keyboard-response","150","380223","0.0-7.0-5.22","","null","","<div class='trialBorder'><div class='vertical-center'><img src='img/error.jpg'></div><div class='respDiv'><div class='respDivL'><font style='color:orange'>Match<br>(e)</font></div><div class='respDivR'>No Match<br>(i)</div></div></div>","null","FEEDBACK","","","","","","","","","","",""
"","","","","60fd80b85dd6b22f66d16822","bdp_wmem","Wed Mar 15 2023 15:04:15 GMT-0500 (Central Daylight Time)","611787","Match,No Match","html-keyboard-response","151","380726","0.0-7.0-1.23","","null","","<div class='trialBorder'><div class='vertical-center'><img src='img/fixation2_sml.jpg'</img></div></div>","null","FIX","","","","","","","","","","",""
"","","","","60fd80b85dd6b22f66d16822","bdp_wmem","Wed Mar 15 2023 15:04:15 GMT-0500 (Central Daylight Time)","611787","Match,No Match","html-keyboard-response","152","382229","0.0-7.0-2.23","","null","","<div class='trialBorder'><div class='vertical-center'><img style='vertical-align:center; align:center' src='img/fixation2_sml.jpg'></div><div class='arrayDiv1'><div class='tc'><img class='introPic' src='trustrating_stim/white_mw003.bmp'><br><font color='red'><strong>Keep</strong></font></div></div></div>","null","ARRAY","1","trustrating_stim/white_mw003.bmp","0","Match","e","1500","","","","",""
"","","","","60fd80b85dd6b22f66d16822","bdp_wmem","Wed Mar 15 2023 15:04:15 GMT-0500 (Central Daylight Time)","611787","Match,No Match","html-keyboard-response","153","386235","0.0-7.0-3.23","","null","","<div class='trialBorder'><div class='vertical-center'><img src='img/fixation2_sml.jpg'</img></div></div>","null","DELAY","","","","","","","","","","",""
"","","","","60fd80b85dd6b22f66d16822","bdp_wmem","Wed Mar 15 2023 15:04:15 GMT-0500 (Central Daylight Time)","611787","Match,No Match","html-keyboard-response","154","387311","0.0-7.0-4.23","","1075","","<div class='trialBorder'><div class='targDiv'><div class='tc'><img class='introPic' src='trustrating_stim/white_mw003.bmp'><br><font color='red'><strong>Keep</strong></font></div></div><div class='respDiv'><div class='respDivL'>Match<br>(e)</div><div class='respDivR'>No Match<br>(i)</div></div></div>","e","TARGET","1","trustrating_stim/white_mw003.bmp","0","Match","e","1500","trustrating_stim/white_mw003.bmp","red","Keep","REAL","1"
"","","","","60fd80b85dd6b22f66d16822","bdp_wmem","Wed Mar 15 2023 15:04:15 GMT-0500 (Central Daylight Time)","611787","Match,No Match","html-keyboard-response","155","387816","0.0-7.0-5.23","","null","","<div class='trialBorder'><div class='vertical-center'><img src='img/correct.jpg'></div><div class='respDiv'><div class='respDivL'><font style='color:orange'>Match<br>(e)</font></div><div class='respDivR'>No Match<br>(i)</div></div></div>","null","FEEDBACK","","","","","","","","","","",""
"","","","","60fd80b85dd6b22f66d16822","bdp_wmem","Wed Mar 15 2023 15:04:15 GMT-0500 (Central Daylight Time)","611787","Match,No Match","html-keyboard-response","156","388322","0.0-7.0-1.24","","null","","<div class='trialBorder'><div class='vertical-center'><img src='img/fixation2_sml.jpg'</img></div></div>","null","FIX","","","","","","","","","","",""
"","","","","60fd80b85dd6b22f66d16822","bdp_wmem","Wed Mar 15 2023 15:04:15 GMT-0500 (Central Daylight Time)","611787","Match,No Match","html-keyboard-response","157","391324","0.0-7.0-2.24","","null","","<div class='trialBorder'><div class='vertical-center'><img style='vertical-align:center; align:center' src='img/fixation2_sml.jpg'></div><div class='arrayDiv2'><div class='tl'><img class='introPic' src='trustrating_stim/white_mw092.bmp'><br><font color='green'><strong>Share</strong></font></div><div class='tr'><img class='introPic' src='trustrating_stim/white_mw010.bmp'><br><font color='red'><strong>Keep</strong></font></div></div></div>","null","ARRAY","2","trustrating_stim/white_mw092.bmp,trustrating_stim/white_mw010.bmp","1,0","Match","e","3000","","","","",""
"","","","","60fd80b85dd6b22f66d16822","bdp_wmem","Wed Mar 15 2023 15:04:15 GMT-0500 (Central Daylight Time)","611787","Match,No Match","html-keyboard-response","158","395330","0.0-7.0-3.24","","null","","<div class='trialBorder'><div class='vertical-center'><img src='img/fixation2_sml.jpg'</img></div></div>","null","DELAY","","","","","","","","","","",""
"","","","","60fd80b85dd6b22f66d16822","bdp_wmem","Wed Mar 15 2023 15:04:15 GMT-0500 (Central Daylight Time)","611787","Match,No Match","html-keyboard-response","159","398538","0.0-7.0-4.24","","3207","","<div class='trialBorder'><div class='targDiv'><div class='tc'><img class='introPic' src='trustrating_stim/white_mw010.bmp'><br><font color='red'><strong>Keep</strong></font></div></div><div class='respDiv'><div class='respDivL'>Match<br>(e)</div><div class='respDivR'>No Match<br>(i)</div></div></div>","e","TARGET","2","trustrating_stim/white_mw092.bmp,trustrating_stim/white_mw010.bmp","1,0","Match","e","3000","trustrating_stim/white_mw010.bmp","red","Keep","REAL","1"
"","","","","60fd80b85dd6b22f66d16822","bdp_wmem","Wed Mar 15 2023 15:04:15 GMT-0500 (Central Daylight Time)","611787","Match,No Match","html-keyboard-response","160","399044","0.0-7.0-5.24","","null","","<div class='trialBorder'><div class='vertical-center'><img src='img/correct.jpg'></div><div class='respDiv'><div class='respDivL'><font style='color:orange'>Match<br>(e)</font></div><div class='respDivR'>No Match<br>(i)</div></div></div>","null","FEEDBACK","","","","","","","","","","",""
"","","","","60fd80b85dd6b22f66d16822","bdp_wmem","Wed Mar 15 2023 15:04:15 GMT-0500 (Central Daylight Time)","611787","Match,No Match","html-keyboard-response","161","399549","0.0-7.0-1.25","","null","","<div class='trialBorder'><div class='vertical-center'><img src='img/fixation2_sml.jpg'</img></div></div>","null","FIX","","","","","","","","","","",""
"","","","","60fd80b85dd6b22f66d16822","bdp_wmem","Wed Mar 15 2023 15:04:15 GMT-0500 (Central Daylight Time)","611787","Match,No Match","html-keyboard-response","162","401050","0.0-7.0-2.25","","null","","<div class='trialBorder'><div class='vertical-center'><img style='vertical-align:center; align:center' src='img/fixation2_sml.jpg'></div><div class='arrayDiv1'><div class='tc'><img class='introPic' src='trustrating_stim/white_mw013.bmp'><br><font color='red'><strong>Keep</strong></font></div></div></div>","null","ARRAY","1","trustrating_stim/white_mw013.bmp","0","noMatchOutcome","i","1500","","","","",""
"","","","","60fd80b85dd6b22f66d16822","bdp_wmem","Wed Mar 15 2023 15:04:15 GMT-0500 (Central Daylight Time)","611787","Match,No Match","html-keyboard-response","163","405056","0.0-7.0-3.25","","null","","<div class='trialBorder'><div class='vertical-center'><img src='img/fixation2_sml.jpg'</img></div></div>","null","DELAY","","","","","","","","","","",""
"","","","","60fd80b85dd6b22f66d16822","bdp_wmem","Wed Mar 15 2023 15:04:15 GMT-0500 (Central Daylight Time)","611787","Match,No Match","html-keyboard-response","164","406220","0.0-7.0-4.25","","1164","","<div class='trialBorder'><div class='targDiv'><div class='tc'><img class='introPic' src='trustrating_stim/white_mw013.bmp'><br><font color='green'><strong>Share</strong></font></div></div><div class='respDiv'><div class='respDivL'>Match<br>(e)</div><div class='respDivR'>No Match<br>(i)</div></div></div>","i","TARGET","1","trustrating_stim/white_mw013.bmp","0","noMatchOutcome","i","1500","trustrating_stim/white_mw013.bmp","green","Share","REAL","1"
"","","","","60fd80b85dd6b22f66d16822","bdp_wmem","Wed Mar 15 2023 15:04:15 GMT-0500 (Central Daylight Time)","611787","Match,No Match","html-keyboard-response","165","406724","0.0-7.0-5.25","","null","","<div class='trialBorder'><div class='vertical-center'><img src='img/correct.jpg'></div><div class='respDiv'><div class='respDivL'>Match<br>(e)</div><div class='respDivR'><font style='color:orange'>No Match<br>(i)</font></div></div></div>","null","FEEDBACK","","","","","","","","","","",""
"","","","","60fd80b85dd6b22f66d16822","bdp_wmem","Wed Mar 15 2023 15:04:15 GMT-0500 (Central Daylight Time)","611787","Match,No Match","html-keyboard-response","166","407225","0.0-7.0-1.26","","null","","<div class='trialBorder'><div class='vertical-center'><img src='img/fixation2_sml.jpg'</img></div></div>","null","FIX","","","","","","","","","","",""
"","","","","60fd80b85dd6b22f66d16822","bdp_wmem","Wed Mar 15 2023 15:04:15 GMT-0500 (Central Daylight Time)","611787","Match,No Match","html-keyboard-response","167","410231","0.0-7.0-2.26","","null","","<div class='trialBorder'><div class='vertical-center'><img style='vertical-align:center; align:center' src='img/fixation2_sml.jpg'></div><div class='arrayDiv2'><div class='tl'><img class='introPic' src='trustrating_stim/white_mw013.bmp'><br><font color='red'><strong>Keep</strong></font></div><div class='tr'><img class='introPic' src='trustrating_stim/white_mw038.bmp'><br><font color='green'><strong>Share</strong></font></div></div></div>","null","ARRAY","2","trustrating_stim/white_mw013.bmp,trustrating_stim/white_mw038.bmp","0,1","noMatchOutcome","i","3000","","","","",""
"","","","","60fd80b85dd6b22f66d16822","bdp_wmem","Wed Mar 15 2023 15:04:15 GMT-0500 (Central Daylight Time)","611787","Match,No Match","html-keyboard-response","168","414238","0.0-7.0-3.26","","null","","<div class='trialBorder'><div class='vertical-center'><img src='img/fixation2_sml.jpg'</img></div></div>","null","DELAY","","","","","","","","","","",""
"","","","","60fd80b85dd6b22f66d16822","bdp_wmem","Wed Mar 15 2023 15:04:15 GMT-0500 (Central Daylight Time)","611787","Match,No Match","html-keyboard-response","169","416046","0.0-7.0-4.26","","1807","","<div class='trialBorder'><div class='targDiv'><div class='tc'><img class='introPic' src='trustrating_stim/white_mw038.bmp'><br><font color='red'><strong>Keep</strong></font></div></div><div class='respDiv'><div class='respDivL'>Match<br>(e)</div><div class='respDivR'>No Match<br>(i)</div></div></div>","i","TARGET","2","trustrating_stim/white_mw013.bmp,trustrating_stim/white_mw038.bmp","0,1","noMatchOutcome","i","3000","trustrating_stim/white_mw038.bmp","red","Keep","REAL","1"
"","","","","60fd80b85dd6b22f66d16822","bdp_wmem","Wed Mar 15 2023 15:04:15 GMT-0500 (Central Daylight Time)","611787","Match,No Match","html-keyboard-response","170","416552","0.0-7.0-5.26","","null","","<div class='trialBorder'><div class='vertical-center'><img src='img/correct.jpg'></div><div class='respDiv'><div class='respDivL'>Match<br>(e)</div><div class='respDivR'><font style='color:orange'>No Match<br>(i)</font></div></div></div>","null","FEEDBACK","","","","","","","","","","",""
"","","","","60fd80b85dd6b22f66d16822","bdp_wmem","Wed Mar 15 2023 15:04:15 GMT-0500 (Central Daylight Time)","611787","Match,No Match","html-keyboard-response","171","417054","0.0-7.0-1.27","","null","","<div class='trialBorder'><div class='vertical-center'><img src='img/fixation2_sml.jpg'</img></div></div>","null","FIX","","","","","","","","","","",""
"","","","","60fd80b85dd6b22f66d16822","bdp_wmem","Wed Mar 15 2023 15:04:15 GMT-0500 (Central Daylight Time)","611787","Match,No Match","html-keyboard-response","172","418556","0.0-7.0-2.27","","null","","<div class='trialBorder'><div class='vertical-center'><img style='vertical-align:center; align:center' src='img/fixation2_sml.jpg'></div><div class='arrayDiv1'><div class='tc'><img class='introPic' src='trustrating_stim/white_mw040.bmp'><br><font color='green'><strong>Share</strong></font></div></div></div>","null","ARRAY","1","trustrating_stim/white_mw040.bmp","1","noMatchOutcome","i","1500","","","","",""
"","","","","60fd80b85dd6b22f66d16822","bdp_wmem","Wed Mar 15 2023 15:04:15 GMT-0500 (Central Daylight Time)","611787","Match,No Match","html-keyboard-response","173","422559","0.0-7.0-3.27","","null","","<div class='trialBorder'><div class='vertical-center'><img src='img/fixation2_sml.jpg'</img></div></div>","null","DELAY","","","","","","","","","","",""
"","","","","60fd80b85dd6b22f66d16822","bdp_wmem","Wed Mar 15 2023 15:04:15 GMT-0500 (Central Daylight Time)","611787","Match,No Match","html-keyboard-response","174","425278","0.0-7.0-4.27","","2718","","<div class='trialBorder'><div class='targDiv'><div class='tc'><img class='introPic' src='trustrating_stim/white_mw040.bmp'><br><font color='red'><strong>Keep</strong></font></div></div><div class='respDiv'><div class='respDivL'>Match<br>(e)</div><div class='respDivR'>No Match<br>(i)</div></div></div>","i","TARGET","1","trustrating_stim/white_mw040.bmp","1","noMatchOutcome","i","1500","trustrating_stim/white_mw040.bmp","red","Keep","REAL","1"
"","","","","60fd80b85dd6b22f66d16822","bdp_wmem","Wed Mar 15 2023 15:04:15 GMT-0500 (Central Daylight Time)","611787","Match,No Match","html-keyboard-response","175","425785","0.0-7.0-5.27","","null","","<div class='trialBorder'><div class='vertical-center'><img src='img/correct.jpg'></div><div class='respDiv'><div class='respDivL'>Match<br>(e)</div><div class='respDivR'><font style='color:orange'>No Match<br>(i)</font></div></div></div>","null","FEEDBACK","","","","","","","","","","",""
"","","","","60fd80b85dd6b22f66d16822","bdp_wmem","Wed Mar 15 2023 15:04:15 GMT-0500 (Central Daylight Time)","611787","Match,No Match","html-keyboard-response","176","426287","0.0-7.0-1.28","","null","","<div class='trialBorder'><div class='vertical-center'><img src='img/fixation2_sml.jpg'</img></div></div>","null","FIX","","","","","","","","","","",""
"","","","","60fd80b85dd6b22f66d16822","bdp_wmem","Wed Mar 15 2023 15:04:15 GMT-0500 (Central Daylight Time)","611787","Match,No Match","html-keyboard-response","177","429294","0.0-7.0-2.28","","null","","<div class='trialBorder'><div class='vertical-center'><img style='vertical-align:center; align:center' src='img/fixation2_sml.jpg'></div><div class='arrayDiv2'><div class='tl'><img class='introPic' src='trustrating_stim/white_mw078.bmp'><br><font color='red'><strong>Keep</strong></font></div><div class='tr'><img class='introPic' src='trustrating_stim/white_mw070.bmp'><br><font color='green'><strong>Share</strong></font></div></div></div>","null","ARRAY","2","trustrating_stim/white_mw078.bmp,trustrating_stim/white_mw070.bmp","0,1","Match","e","3000","","","","",""
"","","","","60fd80b85dd6b22f66d16822","bdp_wmem","Wed Mar 15 2023 15:04:15 GMT-0500 (Central Daylight Time)","611787","Match,No Match","html-keyboard-response","178","433300","0.0-7.0-3.28","","null","","<div class='trialBorder'><div class='vertical-center'><img src='img/fixation2_sml.jpg'</img></div></div>","null","DELAY","","","","","","","","","","",""
"","","","","60fd80b85dd6b22f66d16822","bdp_wmem","Wed Mar 15 2023 15:04:15 GMT-0500 (Central Daylight Time)","611787","Match,No Match","html-keyboard-response","179","434792","0.0-7.0-4.28","","1492","","<div class='trialBorder'><div class='targDiv'><div class='tc'><img class='introPic' src='trustrating_stim/white_mw078.bmp'><br><font color='red'><strong>Keep</strong></font></div></div><div class='respDiv'><div class='respDivL'>Match<br>(e)</div><div class='respDivR'>No Match<br>(i)</div></div></div>","e","TARGET","2","trustrating_stim/white_mw078.bmp,trustrating_stim/white_mw070.bmp","0,1","Match","e","3000","trustrating_stim/white_mw078.bmp","red","Keep","REAL","1"
"","","","","60fd80b85dd6b22f66d16822","bdp_wmem","Wed Mar 15 2023 15:04:15 GMT-0500 (Central Daylight Time)","611787","Match,No Match","html-keyboard-response","180","435294","0.0-7.0-5.28","","null","","<div class='trialBorder'><div class='vertical-center'><img src='img/correct.jpg'></div><div class='respDiv'><div class='respDivL'><font style='color:orange'>Match<br>(e)</font></div><div class='respDivR'>No Match<br>(i)</div></div></div>","null","FEEDBACK","","","","","","","","","","",""
"","","","","60fd80b85dd6b22f66d16822","bdp_wmem","Wed Mar 15 2023 15:04:15 GMT-0500 (Central Daylight Time)","611787","Match,No Match","html-keyboard-response","181","435798","0.0-7.0-1.29","","null","","<div class='trialBorder'><div class='vertical-center'><img src='img/fixation2_sml.jpg'</img></div></div>","null","FIX","","","","","","","","","","",""
"","","","","60fd80b85dd6b22f66d16822","bdp_wmem","Wed Mar 15 2023 15:04:15 GMT-0500 (Central Daylight Time)","611787","Match,No Match","html-keyboard-response","182","437300","0.0-7.0-2.29","","null","","<div class='trialBorder'><div class='vertical-center'><img style='vertical-align:center; align:center' src='img/fixation2_sml.jpg'></div><div class='arrayDiv1'><div class='tc'><img class='introPic' src='trustrating_stim/white_mw091.bmp'><br><font color='red'><strong>Keep</strong></font></div></div></div>","null","ARRAY","1","trustrating_stim/white_mw091.bmp","0","noMatchFace","i","1500","","","","",""
"","","","","60fd80b85dd6b22f66d16822","bdp_wmem","Wed Mar 15 2023 15:04:15 GMT-0500 (Central Daylight Time)","611787","Match,No Match","html-keyboard-response","183","441306","0.0-7.0-3.29","","null","","<div class='trialBorder'><div class='vertical-center'><img src='img/fixation2_sml.jpg'</img></div></div>","null","DELAY","","","","","","","","","","",""
"","","","","60fd80b85dd6b22f66d16822","bdp_wmem","Wed Mar 15 2023 15:04:15 GMT-0500 (Central Daylight Time)","611787","Match,No Match","html-keyboard-response","184","442276","0.0-7.0-4.29","","969","","<div class='trialBorder'><div class='targDiv'><div class='tc'><img class='introPic' src='trustrating_stim/white_mw085.bmp'><br><font color='red'><strong>Keep</strong></font></div></div><div class='respDiv'><div class='respDivL'>Match<br>(e)</div><div class='respDivR'>No Match<br>(i)</div></div></div>","i","TARGET","1","trustrating_stim/white_mw091.bmp","0","noMatchFace","i","1500","trustrating_stim/white_mw085.bmp","red","Keep","REAL","1"
"","","","","60fd80b85dd6b22f66d16822","bdp_wmem","Wed Mar 15 2023 15:04:15 GMT-0500 (Central Daylight Time)","611787","Match,No Match","html-keyboard-response","185","442777","0.0-7.0-5.29","","null","","<div class='trialBorder'><div class='vertical-center'><img src='img/correct.jpg'></div><div class='respDiv'><div class='respDivL'>Match<br>(e)</div><div class='respDivR'><font style='color:orange'>No Match<br>(i)</font></div></div></div>","null","FEEDBACK","","","","","","","","","","",""
"","","","","60fd80b85dd6b22f66d16822","bdp_wmem","Wed Mar 15 2023 15:04:15 GMT-0500 (Central Daylight Time)","611787","Match,No Match","html-keyboard-response","186","443279","0.0-7.0-1.30","","null","","<div class='trialBorder'><div class='vertical-center'><img src='img/fixation2_sml.jpg'</img></div></div>","null","FIX","","","","","","","","","","",""
"","","","","60fd80b85dd6b22f66d16822","bdp_wmem","Wed Mar 15 2023 15:04:15 GMT-0500 (Central Daylight Time)","611787","Match,No Match","html-keyboard-response","187","444785","0.0-7.0-2.30","","null","","<div class='trialBorder'><div class='vertical-center'><img style='vertical-align:center; align:center' src='img/fixation2_sml.jpg'></div><div class='arrayDiv1'><div class='tc'><img class='introPic' src='trustrating_stim/white_mw012.bmp'><br><font color='red'><strong>Keep</strong></font></div></div></div>","null","ARRAY","1","trustrating_stim/white_mw012.bmp","0","Match","e","1500","","","","",""
"","","","","60fd80b85dd6b22f66d16822","bdp_wmem","Wed Mar 15 2023 15:04:15 GMT-0500 (Central Daylight Time)","611787","Match,No Match","html-keyboard-response","188","448791","0.0-7.0-3.30","","null","","<div class='trialBorder'><div class='vertical-center'><img src='img/fixation2_sml.jpg'</img></div></div>","null","DELAY","","","","","","","","","","",""
