"trial_type","trial_index","time_elapsed","internal_node_id","subject_id","task","startTime","totalTime","labels","view_history","rt","event","trial","time","trialtype","success","stimulus","key_press","stimType","arraySize","arrayFaces","arrayOutcomes","matchType","corrResp","arrayDur","targFace","targCol","targOutcome","trialType","corr","numBlurs"
"pavlovia","0","2","0.0-0.0","61006f43a84b82fb439d7cba","bdp_wmem","Wed Mar 15 2023 13:32:32 GMT-0600 (Mountain Daylight Time)","590885","Match,No Match","","","","","","","","","","","","","","","","","","","","","",""
"instructions","1","2237","0.0-1.0","61006f43a84b82fb439d7cba","bdp_wmem","Wed Mar 15 2023 13:32:32 GMT-0600 (Mountain Daylight Time)","590885","Match,No Match","[{""page_index"":0,""viewing_time"":2235}]","2235","","","","","","","","","","","","","","","","","","","",""
"","","","","61006f43a84b82fb439d7cba","bdp_wmem","Wed Mar 15 2023 13:32:32 GMT-0600 (Mountain Daylight Time)","590885","Match,No Match","","","fullscreenenter","2","4468","fullscreenenter","","","","","","","","","","","","","","","",""
"fullscreen","2","5372","0.0-2.0","61006f43a84b82fb439d7cba","bdp_wmem","Wed Mar 15 2023 13:32:32 GMT-0600 (Mountain Daylight Time)","590885","Match,No Match","","","","","","","true","","","","","","","","","","","","","","",""
"instructions","3","60949","0.0-4.0","61006f43a84b82fb439d7cba","bdp_wmem","Wed Mar 15 2023 13:32:32 GMT-0600 (Mountain Daylight Time)","590885","Match,No Match","[{""page_index"":0,""viewing_time"":28972},{""page_index"":1,""viewing_time"":14849},{""page_index"":2,""viewing_time"":5062},{""page_index"":3,""viewing_time"":2720},{""page_index"":4,""viewing_time"":3972}]","55575","","","","","","","","","","","","","","","","","","","",""
"html-keyboard-response","4","61451","0.0-5.0-1.0","61006f43a84b82fb439d7cba","bdp_wmem","Wed Mar 15 2023 13:32:32 GMT-0600 (Mountain Daylight Time)","590885","Match,No Match","","null","","","","","","<div class='trialBorder'><div class='vertical-center'><img src='img/fixation2_sml.jpg'</img></div></div>","null","FIX","","","","","","","","","","","",""
"html-keyboard-response","5","65953","0.0-5.0-2.0","61006f43a84b82fb439d7cba","bdp_wmem","Wed Mar 15 2023 13:32:32 GMT-0600 (Mountain Daylight Time)","590885","Match,No Match","","null","","","","","","<div class='trialBorder'><div class='vertical-center'><img style='vertical-align:center; align:center' src='img/fixation2_sml.jpg'></div><div class='arrayDiv3'><div class='tl'><img class='introPic' src='trustrating_stim/white_mw003.bmp'><br><font color='red'><strong>Keep</strong></font></div><div class='tc'><img class='introPic' src='trustrating_stim/white_mw012.bmp'><br><font color='green'><strong>Share</strong></font></div><div class='tr'><img class='introPic' src='trustrating_stim/white_mw010.bmp'><br><font color='green'><strong>Share</strong></font></div></div></div>","null","ARRAY","3","trustrating_stim/white_mw003.bmp,trustrating_stim/white_mw012.bmp,trustrating_stim/white_mw010.bmp","0,1,1","Match","e","4500","","","","","",""
"html-keyboard-response","6","69954","0.0-5.0-3.0","61006f43a84b82fb439d7cba","bdp_wmem","Wed Mar 15 2023 13:32:32 GMT-0600 (Mountain Daylight Time)","590885","Match,No Match","","null","","","","","","<div class='trialBorder'><div class='vertical-center'><img src='img/fixation2_sml.jpg'</img></div></div>","null","DELAY","","","","","","","","","","","",""
"html-keyboard-response","7","71380","0.0-5.0-4.0","61006f43a84b82fb439d7cba","bdp_wmem","Wed Mar 15 2023 13:32:32 GMT-0600 (Mountain Daylight Time)","590885","Match,No Match","","1425","","","","","","<div class='trialBorder'><div class='targDiv'><div class='tc'><img class='introPic' src='trustrating_stim/white_mw012.bmp'><br><font color='green'><strong>Share</strong></font></div></div><div class='respDiv'><div class='respDivL'>Match<br>(e)</div><div class='respDivR'>No Match<br>(i)</div></div></div>","i","TARGET","3","trustrating_stim/white_mw003.bmp,trustrating_stim/white_mw012.bmp,trustrating_stim/white_mw010.bmp","0,1,1","Match","e","4500","trustrating_stim/white_mw012.bmp","green","Share","PRACTICE","0",""
"html-keyboard-response","8","71882","0.0-5.0-5.0","61006f43a84b82fb439d7cba","bdp_wmem","Wed Mar 15 2023 13:32:32 GMT-0600 (Mountain Daylight Time)","590885","Match,No Match","","null","","","","","","<div class='trialBorder'><div class='vertical-center'><img src='img/error.jpg'></div><div class='respDiv'><div class='respDivL'>Match<br>(e)</div><div class='respDivR'><font style='color:orange'>No Match<br>(i)</font></div></div></div>","null","FEEDBACK","","","","","","","","","","","",""
"html-keyboard-response","9","72384","0.0-5.0-1.1","61006f43a84b82fb439d7cba","bdp_wmem","Wed Mar 15 2023 13:32:32 GMT-0600 (Mountain Daylight Time)","590885","Match,No Match","","null","","","","","","<div class='trialBorder'><div class='vertical-center'><img src='img/fixation2_sml.jpg'</img></div></div>","null","FIX","","","","","","","","","","","",""
"html-keyboard-response","10","76884","0.0-5.0-2.1","61006f43a84b82fb439d7cba","bdp_wmem","Wed Mar 15 2023 13:32:32 GMT-0600 (Mountain Daylight Time)","590885","Match,No Match","","null","","","","","","<div class='trialBorder'><div class='vertical-center'><img style='vertical-align:center; align:center' src='img/fixation2_sml.jpg'></div><div class='arrayDiv3'><div class='tl'><img class='introPic' src='trustrating_stim/white_mw042.bmp'><br><font color='red'><strong>Keep</strong></font></div><div class='tc'><img class='introPic' src='trustrating_stim/white_mw091.bmp'><br><font color='red'><strong>Keep</strong></font></div><div class='tr'><img class='introPic' src='trustrating_stim/white_mw003.bmp'><br><font color='green'><strong>Share</strong></font></div></div></div>","null","ARRAY","3","trustrating_stim/white_mw042.bmp,trustrating_stim/white_mw091.bmp,trustrating_stim/white_mw003.bmp","0,0,1","noMatchOutcome","i","4500","","","","","",""
"html-keyboard-response","11","80886","0.0-5.0-3.1","61006f43a84b82fb439d7cba","bdp_wmem","Wed Mar 15 2023 13:32:32 GMT-0600 (Mountain Daylight Time)","590885","Match,No Match","","null","","","","","","<div class='trialBorder'><div class='vertical-center'><img src='img/fixation2_sml.jpg'</img></div></div>","null","DELAY","","","","","","","","","","","",""
"html-keyboard-response","12","82810","0.0-5.0-4.1","61006f43a84b82fb439d7cba","bdp_wmem","Wed Mar 15 2023 13:32:32 GMT-0600 (Mountain Daylight Time)","590885","Match,No Match","","1923","","","","","","<div class='trialBorder'><div class='targDiv'><div class='tc'><img class='introPic' src='trustrating_stim/white_mw091.bmp'><br><font color='green'><strong>Share</strong></font></div></div><div class='respDiv'><div class='respDivL'>Match<br>(e)</div><div class='respDivR'>No Match<br>(i)</div></div></div>","e","TARGET","3","trustrating_stim/white_mw042.bmp,trustrating_stim/white_mw091.bmp,trustrating_stim/white_mw003.bmp","0,0,1","noMatchOutcome","i","4500","trustrating_stim/white_mw091.bmp","green","Share","PRACTICE","0",""
"html-keyboard-response","13","83311","0.0-5.0-5.1","61006f43a84b82fb439d7cba","bdp_wmem","Wed Mar 15 2023 13:32:32 GMT-0600 (Mountain Daylight Time)","590885","Match,No Match","","null","","","","","","<div class='trialBorder'><div class='vertical-center'><img src='img/error.jpg'></div><div class='respDiv'><div class='respDivL'><font style='color:orange'>Match<br>(e)</font></div><div class='respDivR'>No Match<br>(i)</div></div></div>","null","FEEDBACK","","","","","","","","","","","",""
"html-keyboard-response","14","83813","0.0-5.0-1.2","61006f43a84b82fb439d7cba","bdp_wmem","Wed Mar 15 2023 13:32:32 GMT-0600 (Mountain Daylight Time)","590885","Match,No Match","","null","","","","","","<div class='trialBorder'><div class='vertical-center'><img src='img/fixation2_sml.jpg'</img></div></div>","null","FIX","","","","","","","","","","","",""
"html-keyboard-response","15","86813","0.0-5.0-2.2","61006f43a84b82fb439d7cba","bdp_wmem","Wed Mar 15 2023 13:32:32 GMT-0600 (Mountain Daylight Time)","590885","Match,No Match","","null","","","","","","<div class='trialBorder'><div class='vertical-center'><img style='vertical-align:center; align:center' src='img/fixation2_sml.jpg'></div><div class='arrayDiv2'><div class='tl'><img class='introPic' src='trustrating_stim/white_mw092.bmp'><br><font color='red'><strong>Keep</strong></font></div><div class='tr'><img class='introPic' src='trustrating_stim/white_mw085.bmp'><br><font color='green'><strong>Share</strong></font></div></div></div>","null","ARRAY","2","trustrating_stim/white_mw092.bmp,trustrating_stim/white_mw085.bmp","0,1","Match","e","3000","","","","","",""
"html-keyboard-response","16","90814","0.0-5.0-3.2","61006f43a84b82fb439d7cba","bdp_wmem","Wed Mar 15 2023 13:32:32 GMT-0600 (Mountain Daylight Time)","590885","Match,No Match","","null","","","","","","<div class='trialBorder'><div class='vertical-center'><img src='img/fixation2_sml.jpg'</img></div></div>","null","DELAY","","","","","","","","","","","",""
"html-keyboard-response","17","92714","0.0-5.0-4.2","61006f43a84b82fb439d7cba","bdp_wmem","Wed Mar 15 2023 13:32:32 GMT-0600 (Mountain Daylight Time)","590885","Match,No Match","","1899","","","","","","<div class='trialBorder'><div class='targDiv'><div class='tc'><img class='introPic' src='trustrating_stim/white_mw085.bmp'><br><font color='green'><strong>Share</strong></font></div></div><div class='respDiv'><div class='respDivL'>Match<br>(e)</div><div class='respDivR'>No Match<br>(i)</div></div></div>","i","TARGET","2","trustrating_stim/white_mw092.bmp,trustrating_stim/white_mw085.bmp","0,1","Match","e","3000","trustrating_stim/white_mw085.bmp","green","Share","PRACTICE","0",""
"html-keyboard-response","18","93216","0.0-5.0-5.2","61006f43a84b82fb439d7cba","bdp_wmem","Wed Mar 15 2023 13:32:32 GMT-0600 (Mountain Daylight Time)","590885","Match,No Match","","null","","","","","","<div class='trialBorder'><div class='vertical-center'><img src='img/error.jpg'></div><div class='respDiv'><div class='respDivL'>Match<br>(e)</div><div class='respDivR'><font style='color:orange'>No Match<br>(i)</font></div></div></div>","null","FEEDBACK","","","","","","","","","","","",""
"html-keyboard-response","19","93717","0.0-5.0-1.3","61006f43a84b82fb439d7cba","bdp_wmem","Wed Mar 15 2023 13:32:32 GMT-0600 (Mountain Daylight Time)","590885","Match,No Match","","null","","","","","","<div class='trialBorder'><div class='vertical-center'><img src='img/fixation2_sml.jpg'</img></div></div>","null","FIX","","","","","","","","","","","",""
"html-keyboard-response","20","95218","0.0-5.0-2.3","61006f43a84b82fb439d7cba","bdp_wmem","Wed Mar 15 2023 13:32:32 GMT-0600 (Mountain Daylight Time)","590885","Match,No Match","","null","","","","","","<div class='trialBorder'><div class='vertical-center'><img style='vertical-align:center; align:center' src='img/fixation2_sml.jpg'></div><div class='arrayDiv1'><div class='tc'><img class='introPic' src='trustrating_stim/white_mw092.bmp'><br><font color='green'><strong>Share</strong></font></div></div></div>","null","ARRAY","1","trustrating_stim/white_mw092.bmp","1","noMatchFace","i","1500","","","","","",""
"html-keyboard-response","21","99219","0.0-5.0-3.3","61006f43a84b82fb439d7cba","bdp_wmem","Wed Mar 15 2023 13:32:32 GMT-0600 (Mountain Daylight Time)","590885","Match,No Match","","null","","","","","","<div class='trialBorder'><div class='vertical-center'><img src='img/fixation2_sml.jpg'</img></div></div>","null","DELAY","","","","","","","","","","","",""
"html-keyboard-response","22","101383","0.0-5.0-4.3","61006f43a84b82fb439d7cba","bdp_wmem","Wed Mar 15 2023 13:32:32 GMT-0600 (Mountain Daylight Time)","590885","Match,No Match","","2162","","","","","","<div class='trialBorder'><div class='targDiv'><div class='tc'><img class='introPic' src='trustrating_stim/white_mw091.bmp'><br><font color='green'><strong>Share</strong></font></div></div><div class='respDiv'><div class='respDivL'>Match<br>(e)</div><div class='respDivR'>No Match<br>(i)</div></div></div>","i","TARGET","1","trustrating_stim/white_mw092.bmp","1","noMatchFace","i","1500","trustrating_stim/white_mw091.bmp","green","Share","PRACTICE","1",""
"html-keyboard-response","23","101885","0.0-5.0-5.3","61006f43a84b82fb439d7cba","bdp_wmem","Wed Mar 15 2023 13:32:32 GMT-0600 (Mountain Daylight Time)","590885","Match,No Match","","null","","","","","","<div class='trialBorder'><div class='vertical-center'><img src='img/correct.jpg'></div><div class='respDiv'><div class='respDivL'>Match<br>(e)</div><div class='respDivR'><font style='color:orange'>No Match<br>(i)</font></div></div></div>","null","FEEDBACK","","","","","","","","","","","",""
"html-keyboard-response","24","102385","0.0-5.0-1.4","61006f43a84b82fb439d7cba","bdp_wmem","Wed Mar 15 2023 13:32:32 GMT-0600 (Mountain Daylight Time)","590885","Match,No Match","","null","","","","","","<div class='trialBorder'><div class='vertical-center'><img src='img/fixation2_sml.jpg'</img></div></div>","null","FIX","","","","","","","","","","","",""
"html-keyboard-response","25","105386","0.0-5.0-2.4","61006f43a84b82fb439d7cba","bdp_wmem","Wed Mar 15 2023 13:32:32 GMT-0600 (Mountain Daylight Time)","590885","Match,No Match","","null","","","","","","<div class='trialBorder'><div class='vertical-center'><img style='vertical-align:center; align:center' src='img/fixation2_sml.jpg'></div><div class='arrayDiv2'><div class='tl'><img class='introPic' src='trustrating_stim/white_mw003.bmp'><br><font color='green'><strong>Share</strong></font></div><div class='tr'><img class='introPic' src='trustrating_stim/white_mw013.bmp'><br><font color='red'><strong>Keep</strong></font></div></div></div>","null","ARRAY","2","trustrating_stim/white_mw003.bmp,trustrating_stim/white_mw013.bmp","1,0","noMatchOutcome","i","3000","","","","","",""
"html-keyboard-response","26","109387","0.0-5.0-3.4","61006f43a84b82fb439d7cba","bdp_wmem","Wed Mar 15 2023 13:32:32 GMT-0600 (Mountain Daylight Time)","590885","Match,No Match","","null","","","","","","<div class='trialBorder'><div class='vertical-center'><img src='img/fixation2_sml.jpg'</img></div></div>","null","DELAY","","","","","","","","","","","",""
"html-keyboard-response","27","110726","0.0-5.0-4.4","61006f43a84b82fb439d7cba","bdp_wmem","Wed Mar 15 2023 13:32:32 GMT-0600 (Mountain Daylight Time)","590885","Match,No Match","","1339","","","","","","<div class='trialBorder'><div class='targDiv'><div class='tc'><img class='introPic' src='trustrating_stim/white_mw003.bmp'><br><font color='red'><strong>Keep</strong></font></div></div><div class='respDiv'><div class='respDivL'>Match<br>(e)</div><div class='respDivR'>No Match<br>(i)</div></div></div>","e","TARGET","2","trustrating_stim/white_mw003.bmp,trustrating_stim/white_mw013.bmp","1,0","noMatchOutcome","i","3000","trustrating_stim/white_mw003.bmp","red","Keep","PRACTICE","0",""
"html-keyboard-response","28","111227","0.0-5.0-5.4","61006f43a84b82fb439d7cba","bdp_wmem","Wed Mar 15 2023 13:32:32 GMT-0600 (Mountain Daylight Time)","590885","Match,No Match","","null","","","","","","<div class='trialBorder'><div class='vertical-center'><img src='img/error.jpg'></div><div class='respDiv'><div class='respDivL'><font style='color:orange'>Match<br>(e)</font></div><div class='respDivR'>No Match<br>(i)</div></div></div>","null","FEEDBACK","","","","","","","","","","","",""
"html-keyboard-response","29","111729","0.0-5.0-1.5","61006f43a84b82fb439d7cba","bdp_wmem","Wed Mar 15 2023 13:32:32 GMT-0600 (Mountain Daylight Time)","590885","Match,No Match","","null","","","","","","<div class='trialBorder'><div class='vertical-center'><img src='img/fixation2_sml.jpg'</img></div></div>","null","FIX","","","","","","","","","","","",""
"html-keyboard-response","30","113230","0.0-5.0-2.5","61006f43a84b82fb439d7cba","bdp_wmem","Wed Mar 15 2023 13:32:32 GMT-0600 (Mountain Daylight Time)","590885","Match,No Match","","null","","","","","","<div class='trialBorder'><div class='vertical-center'><img style='vertical-align:center; align:center' src='img/fixation2_sml.jpg'></div><div class='arrayDiv1'><div class='tc'><img class='introPic' src='trustrating_stim/white_mw003.bmp'><br><font color='green'><strong>Share</strong></font></div></div></div>","null","ARRAY","1","trustrating_stim/white_mw003.bmp","1","Match","e","1500","","","","","",""
"html-keyboard-response","31","117231","0.0-5.0-3.5","61006f43a84b82fb439d7cba","bdp_wmem","Wed Mar 15 2023 13:32:32 GMT-0600 (Mountain Daylight Time)","590885","Match,No Match","","null","","","","","","<div class='trialBorder'><div class='vertical-center'><img src='img/fixation2_sml.jpg'</img></div></div>","null","DELAY","","","","","","","","","","","",""
"html-keyboard-response","32","118779","0.0-5.0-4.5","61006f43a84b82fb439d7cba","bdp_wmem","Wed Mar 15 2023 13:32:32 GMT-0600 (Mountain Daylight Time)","590885","Match,No Match","","1548","","","","","","<div class='trialBorder'><div class='targDiv'><div class='tc'><img class='introPic' src='trustrating_stim/white_mw003.bmp'><br><font color='green'><strong>Share</strong></font></div></div><div class='respDiv'><div class='respDivL'>Match<br>(e)</div><div class='respDivR'>No Match<br>(i)</div></div></div>","e","TARGET","1","trustrating_stim/white_mw003.bmp","1","Match","e","1500","trustrating_stim/white_mw003.bmp","green","Share","PRACTICE","1",""
"html-keyboard-response","33","119280","0.0-5.0-5.5","61006f43a84b82fb439d7cba","bdp_wmem","Wed Mar 15 2023 13:32:32 GMT-0600 (Mountain Daylight Time)","590885","Match,No Match","","null","","","","","","<div class='trialBorder'><div class='vertical-center'><img src='img/correct.jpg'></div><div class='respDiv'><div class='respDivL'><font style='color:orange'>Match<br>(e)</font></div><div class='respDivR'>No Match<br>(i)</div></div></div>","null","FEEDBACK","","","","","","","","","","","",""
"instructions","34","128700","0.0-6.0","61006f43a84b82fb439d7cba","bdp_wmem","Wed Mar 15 2023 13:32:32 GMT-0600 (Mountain Daylight Time)","590885","Match,No Match","[{""page_index"":0,""viewing_time"":9420}]","9420","","","","","","","","","","","","","","","","","","","",""
"html-keyboard-response","35","129201","0.0-7.0-1.0","61006f43a84b82fb439d7cba","bdp_wmem","Wed Mar 15 2023 13:32:32 GMT-0600 (Mountain Daylight Time)","590885","Match,No Match","","null","","","","","","<div class='trialBorder'><div class='vertical-center'><img src='img/fixation2_sml.jpg'</img></div></div>","null","FIX","","","","","","","","","","","",""
"html-keyboard-response","36","133703","0.0-7.0-2.0","61006f43a84b82fb439d7cba","bdp_wmem","Wed Mar 15 2023 13:32:32 GMT-0600 (Mountain Daylight Time)","590885","Match,No Match","","null","","","","","","<div class='trialBorder'><div class='vertical-center'><img style='vertical-align:center; align:center' src='img/fixation2_sml.jpg'></div><div class='arrayDiv3'><div class='tl'><img class='introPic' src='trustrating_stim/white_mw003.bmp'><br><font color='red'><strong>Keep</strong></font></div><div class='tc'><img class='introPic' src='trustrating_stim/white_mw012.bmp'><br><font color='green'><strong>Share</strong></font></div><div class='tr'><img class='introPic' src='trustrating_stim/white_mw038.bmp'><br><font color='red'><strong>Keep</strong></font></div></div></div>","null","ARRAY","3","trustrating_stim/white_mw003.bmp,trustrating_stim/white_mw012.bmp,trustrating_stim/white_mw038.bmp","0,1,0","Match","e","4500","","","","","",""
"html-keyboard-response","37","137704","0.0-7.0-3.0","61006f43a84b82fb439d7cba","bdp_wmem","Wed Mar 15 2023 13:32:32 GMT-0600 (Mountain Daylight Time)","590885","Match,No Match","","null","","","","","","<div class='trialBorder'><div class='vertical-center'><img src='img/fixation2_sml.jpg'</img></div></div>","null","DELAY","","","","","","","","","","","",""
"html-keyboard-response","38","140052","0.0-7.0-4.0","61006f43a84b82fb439d7cba","bdp_wmem","Wed Mar 15 2023 13:32:32 GMT-0600 (Mountain Daylight Time)","590885","Match,No Match","","2348","","","","","","<div class='trialBorder'><div class='targDiv'><div class='tc'><img class='introPic' src='trustrating_stim/white_mw003.bmp'><br><font color='red'><strong>Keep</strong></font></div></div><div class='respDiv'><div class='respDivL'>Match<br>(e)</div><div class='respDivR'>No Match<br>(i)</div></div></div>","e","TARGET","3","trustrating_stim/white_mw003.bmp,trustrating_stim/white_mw012.bmp,trustrating_stim/white_mw038.bmp","0,1,0","Match","e","4500","trustrating_stim/white_mw003.bmp","red","Keep","REAL","1",""
"html-keyboard-response","39","140553","0.0-7.0-5.0","61006f43a84b82fb439d7cba","bdp_wmem","Wed Mar 15 2023 13:32:32 GMT-0600 (Mountain Daylight Time)","590885","Match,No Match","","null","","","","","","<div class='trialBorder'><div class='vertical-center'><img src='img/correct.jpg'></div><div class='respDiv'><div class='respDivL'><font style='color:orange'>Match<br>(e)</font></div><div class='respDivR'>No Match<br>(i)</div></div></div>","null","FEEDBACK","","","","","","","","","","","",""
"html-keyboard-response","40","141054","0.0-7.0-1.1","61006f43a84b82fb439d7cba","bdp_wmem","Wed Mar 15 2023 13:32:32 GMT-0600 (Mountain Daylight Time)","590885","Match,No Match","","null","","","","","","<div class='trialBorder'><div class='vertical-center'><img src='img/fixation2_sml.jpg'</img></div></div>","null","FIX","","","","","","","","","","","",""
"html-keyboard-response","41","144055","0.0-7.0-2.1","61006f43a84b82fb439d7cba","bdp_wmem","Wed Mar 15 2023 13:32:32 GMT-0600 (Mountain Daylight Time)","590885","Match,No Match","","null","","","","","","<div class='trialBorder'><div class='vertical-center'><img style='vertical-align:center; align:center' src='img/fixation2_sml.jpg'></div><div class='arrayDiv2'><div class='tl'><img class='introPic' src='trustrating_stim/white_mw042.bmp'><br><font color='green'><strong>Share</strong></font></div><div class='tr'><img class='introPic' src='trustrating_stim/white_mw012.bmp'><br><font color='red'><strong>Keep</strong></font></div></div></div>","null","ARRAY","2","trustrating_stim/white_mw042.bmp,trustrating_stim/white_mw012.bmp","1,0","noMatchOutcome","i","3000","","","","","",""
"html-keyboard-response","42","148057","0.0-7.0-3.1","61006f43a84b82fb439d7cba","bdp_wmem","Wed Mar 15 2023 13:32:32 GMT-0600 (Mountain Daylight Time)","590885","Match,No Match","","null","","","","","","<div class='trialBorder'><div class='vertical-center'><img src='img/fixation2_sml.jpg'</img></div></div>","null","DELAY","","","","","","","","","","","",""
"html-keyboard-response","43","149836","0.0-7.0-4.1","61006f43a84b82fb439d7cba","bdp_wmem","Wed Mar 15 2023 13:32:32 GMT-0600 (Mountain Daylight Time)","590885","Match,No Match","","1779","","","","","","<div class='trialBorder'><div class='targDiv'><div class='tc'><img class='introPic' src='trustrating_stim/white_mw042.bmp'><br><font color='red'><strong>Keep</strong></font></div></div><div class='respDiv'><div class='respDivL'>Match<br>(e)</div><div class='respDivR'>No Match<br>(i)</div></div></div>","i","TARGET","2","trustrating_stim/white_mw042.bmp,trustrating_stim/white_mw012.bmp","1,0","noMatchOutcome","i","3000","trustrating_stim/white_mw042.bmp","red","Keep","REAL","1",""
"html-keyboard-response","44","150337","0.0-7.0-5.1","61006f43a84b82fb439d7cba","bdp_wmem","Wed Mar 15 2023 13:32:32 GMT-0600 (Mountain Daylight Time)","590885","Match,No Match","","null","","","","","","<div class='trialBorder'><div class='vertical-center'><img src='img/correct.jpg'></div><div class='respDiv'><div class='respDivL'>Match<br>(e)</div><div class='respDivR'><font style='color:orange'>No Match<br>(i)</font></div></div></div>","null","FEEDBACK","","","","","","","","","","","",""
"html-keyboard-response","45","150839","0.0-7.0-1.2","61006f43a84b82fb439d7cba","bdp_wmem","Wed Mar 15 2023 13:32:32 GMT-0600 (Mountain Daylight Time)","590885","Match,No Match","","null","","","","","","<div class='trialBorder'><div class='vertical-center'><img src='img/fixation2_sml.jpg'</img></div></div>","null","FIX","","","","","","","","","","","",""
"html-keyboard-response","46","152339","0.0-7.0-2.2","61006f43a84b82fb439d7cba","bdp_wmem","Wed Mar 15 2023 13:32:32 GMT-0600 (Mountain Daylight Time)","590885","Match,No Match","","null","","","","","","<div class='trialBorder'><div class='vertical-center'><img style='vertical-align:center; align:center' src='img/fixation2_sml.jpg'></div><div class='arrayDiv1'><div class='tc'><img class='introPic' src='trustrating_stim/white_mw085.bmp'><br><font color='green'><strong>Share</strong></font></div></div></div>","null","ARRAY","1","trustrating_stim/white_mw085.bmp","1","noMatchOutcome","i","1500","","","","","",""
"html-keyboard-response","47","156341","0.0-7.0-3.2","61006f43a84b82fb439d7cba","bdp_wmem","Wed Mar 15 2023 13:32:32 GMT-0600 (Mountain Daylight Time)","590885","Match,No Match","","null","","","","","","<div class='trialBorder'><div class='vertical-center'><img src='img/fixation2_sml.jpg'</img></div></div>","null","DELAY","","","","","","","","","","","",""
"html-keyboard-response","48","158924","0.0-7.0-4.2","61006f43a84b82fb439d7cba","bdp_wmem","Wed Mar 15 2023 13:32:32 GMT-0600 (Mountain Daylight Time)","590885","Match,No Match","","2582","","","","","","<div class='trialBorder'><div class='targDiv'><div class='tc'><img class='introPic' src='trustrating_stim/white_mw085.bmp'><br><font color='red'><strong>Keep</strong></font></div></div><div class='respDiv'><div class='respDivL'>Match<br>(e)</div><div class='respDivR'>No Match<br>(i)</div></div></div>","e","TARGET","1","trustrating_stim/white_mw085.bmp","1","noMatchOutcome","i","1500","trustrating_stim/white_mw085.bmp","red","Keep","REAL","0",""
"html-keyboard-response","49","159424","0.0-7.0-5.2","61006f43a84b82fb439d7cba","bdp_wmem","Wed Mar 15 2023 13:32:32 GMT-0600 (Mountain Daylight Time)","590885","Match,No Match","","null","","","","","","<div class='trialBorder'><div class='vertical-center'><img src='img/error.jpg'></div><div class='respDiv'><div class='respDivL'><font style='color:orange'>Match<br>(e)</font></div><div class='respDivR'>No Match<br>(i)</div></div></div>","null","FEEDBACK","","","","","","","","","","","",""
"html-keyboard-response","50","159925","0.0-7.0-1.3","61006f43a84b82fb439d7cba","bdp_wmem","Wed Mar 15 2023 13:32:32 GMT-0600 (Mountain Daylight Time)","590885","Match,No Match","","null","","","","","","<div class='trialBorder'><div class='vertical-center'><img src='img/fixation2_sml.jpg'</img></div></div>","null","FIX","","","","","","","","","","","",""
"html-keyboard-response","51","162927","0.0-7.0-2.3","61006f43a84b82fb439d7cba","bdp_wmem","Wed Mar 15 2023 13:32:32 GMT-0600 (Mountain Daylight Time)","590885","Match,No Match","","null","","","","","","<div class='trialBorder'><div class='vertical-center'><img style='vertical-align:center; align:center' src='img/fixation2_sml.jpg'></div><div class='arrayDiv2'><div class='tl'><img class='introPic' src='trustrating_stim/white_mw012.bmp'><br><font color='green'><strong>Share</strong></font></div><div class='tr'><img class='introPic' src='trustrating_stim/white_mw091.bmp'><br><font color='red'><strong>Keep</strong></font></div></div></div>","null","ARRAY","2","trustrating_stim/white_mw012.bmp,trustrating_stim/white_mw091.bmp","1,0","Match","e","3000","","","","","",""
"html-keyboard-response","52","166929","0.0-7.0-3.3","61006f43a84b82fb439d7cba","bdp_wmem","Wed Mar 15 2023 13:32:32 GMT-0600 (Mountain Daylight Time)","590885","Match,No Match","","null","","","","","","<div class='trialBorder'><div class='vertical-center'><img src='img/fixation2_sml.jpg'</img></div></div>","null","DELAY","","","","","","","","","","","",""
"html-keyboard-response","53","168053","0.0-7.0-4.3","61006f43a84b82fb439d7cba","bdp_wmem","Wed Mar 15 2023 13:32:32 GMT-0600 (Mountain Daylight Time)","590885","Match,No Match","","1124","","","","","","<div class='trialBorder'><div class='targDiv'><div class='tc'><img class='introPic' src='trustrating_stim/white_mw012.bmp'><br><font color='green'><strong>Share</strong></font></div></div><div class='respDiv'><div class='respDivL'>Match<br>(e)</div><div class='respDivR'>No Match<br>(i)</div></div></div>","e","TARGET","2","trustrating_stim/white_mw012.bmp,trustrating_stim/white_mw091.bmp","1,0","Match","e","3000","trustrating_stim/white_mw012.bmp","green","Share","REAL","1",""
"html-keyboard-response","54","168554","0.0-7.0-5.3","61006f43a84b82fb439d7cba","bdp_wmem","Wed Mar 15 2023 13:32:32 GMT-0600 (Mountain Daylight Time)","590885","Match,No Match","","null","","","","","","<div class='trialBorder'><div class='vertical-center'><img src='img/correct.jpg'></div><div class='respDiv'><div class='respDivL'><font style='color:orange'>Match<br>(e)</font></div><div class='respDivR'>No Match<br>(i)</div></div></div>","null","FEEDBACK","","","","","","","","","","","",""
"html-keyboard-response","55","169056","0.0-7.0-1.4","61006f43a84b82fb439d7cba","bdp_wmem","Wed Mar 15 2023 13:32:32 GMT-0600 (Mountain Daylight Time)","590885","Match,No Match","","null","","","","","","<div class='trialBorder'><div class='vertical-center'><img src='img/fixation2_sml.jpg'</img></div></div>","null","FIX","","","","","","","","","","","",""
"html-keyboard-response","56","172057","0.0-7.0-2.4","61006f43a84b82fb439d7cba","bdp_wmem","Wed Mar 15 2023 13:32:32 GMT-0600 (Mountain Daylight Time)","590885","Match,No Match","","null","","","","","","<div class='trialBorder'><div class='vertical-center'><img style='vertical-align:center; align:center' src='img/fixation2_sml.jpg'></div><div class='arrayDiv2'><div class='tl'><img class='introPic' src='trustrating_stim/white_mw040.bmp'><br><font color='red'><strong>Keep</strong></font></div><div class='tr'><img class='introPic' src='trustrating_stim/white_mw012.bmp'><br><font color='green'><strong>Share</strong></font></div></div></div>","null","ARRAY","2","trustrating_stim/white_mw040.bmp,trustrating_stim/white_mw012.bmp","0,1","noMatchOutcome","i","3000","","","","","",""
"html-keyboard-response","57","176059","0.0-7.0-3.4","61006f43a84b82fb439d7cba","bdp_wmem","Wed Mar 15 2023 13:32:32 GMT-0600 (Mountain Daylight Time)","590885","Match,No Match","","null","","","","","","<div class='trialBorder'><div class='vertical-center'><img src='img/fixation2_sml.jpg'</img></div></div>","null","DELAY","","","","","","","","","","","",""
"html-keyboard-response","58","177913","0.0-7.0-4.4","61006f43a84b82fb439d7cba","bdp_wmem","Wed Mar 15 2023 13:32:32 GMT-0600 (Mountain Daylight Time)","590885","Match,No Match","","1854","","","","","","<div class='trialBorder'><div class='targDiv'><div class='tc'><img class='introPic' src='trustrating_stim/white_mw012.bmp'><br><font color='red'><strong>Keep</strong></font></div></div><div class='respDiv'><div class='respDivL'>Match<br>(e)</div><div class='respDivR'>No Match<br>(i)</div></div></div>","i","TARGET","2","trustrating_stim/white_mw040.bmp,trustrating_stim/white_mw012.bmp","0,1","noMatchOutcome","i","3000","trustrating_stim/white_mw012.bmp","red","Keep","REAL","1",""
"html-keyboard-response","59","178414","0.0-7.0-5.4","61006f43a84b82fb439d7cba","bdp_wmem","Wed Mar 15 2023 13:32:32 GMT-0600 (Mountain Daylight Time)","590885","Match,No Match","","null","","","","","","<div class='trialBorder'><div class='vertical-center'><img src='img/correct.jpg'></div><div class='respDiv'><div class='respDivL'>Match<br>(e)</div><div class='respDivR'><font style='color:orange'>No Match<br>(i)</font></div></div></div>","null","FEEDBACK","","","","","","","","","","","",""
"html-keyboard-response","60","178916","0.0-7.0-1.5","61006f43a84b82fb439d7cba","bdp_wmem","Wed Mar 15 2023 13:32:32 GMT-0600 (Mountain Daylight Time)","590885","Match,No Match","","null","","","","","","<div class='trialBorder'><div class='vertical-center'><img src='img/fixation2_sml.jpg'</img></div></div>","null","FIX","","","","","","","","","","","",""
"html-keyboard-response","61","180417","0.0-7.0-2.5","61006f43a84b82fb439d7cba","bdp_wmem","Wed Mar 15 2023 13:32:32 GMT-0600 (Mountain Daylight Time)","590885","Match,No Match","","null","","","","","","<div class='trialBorder'><div class='vertical-center'><img style='vertical-align:center; align:center' src='img/fixation2_sml.jpg'></div><div class='arrayDiv1'><div class='tc'><img class='introPic' src='trustrating_stim/white_mw091.bmp'><br><font color='red'><strong>Keep</strong></font></div></div></div>","null","ARRAY","1","trustrating_stim/white_mw091.bmp","0","Match","e","1500","","","","","",""
"html-keyboard-response","62","184419","0.0-7.0-3.5","61006f43a84b82fb439d7cba","bdp_wmem","Wed Mar 15 2023 13:32:32 GMT-0600 (Mountain Daylight Time)","590885","Match,No Match","","null","","","","","","<div class='trialBorder'><div class='vertical-center'><img src='img/fixation2_sml.jpg'</img></div></div>","null","DELAY","","","","","","","","","","","",""
"html-keyboard-response","63","185711","0.0-7.0-4.5","61006f43a84b82fb439d7cba","bdp_wmem","Wed Mar 15 2023 13:32:32 GMT-0600 (Mountain Daylight Time)","590885","Match,No Match","","1292","","","","","","<div class='trialBorder'><div class='targDiv'><div class='tc'><img class='introPic' src='trustrating_stim/white_mw091.bmp'><br><font color='red'><strong>Keep</strong></font></div></div><div class='respDiv'><div class='respDivL'>Match<br>(e)</div><div class='respDivR'>No Match<br>(i)</div></div></div>","e","TARGET","1","trustrating_stim/white_mw091.bmp","0","Match","e","1500","trustrating_stim/white_mw091.bmp","red","Keep","REAL","1",""
"html-keyboard-response","64","186212","0.0-7.0-5.5","61006f43a84b82fb439d7cba","bdp_wmem","Wed Mar 15 2023 13:32:32 GMT-0600 (Mountain Daylight Time)","590885","Match,No Match","","null","","","","","","<div class='trialBorder'><div class='vertical-center'><img src='img/correct.jpg'></div><div class='respDiv'><div class='respDivL'><font style='color:orange'>Match<br>(e)</font></div><div class='respDivR'>No Match<br>(i)</div></div></div>","null","FEEDBACK","","","","","","","","","","","",""
"html-keyboard-response","65","186712","0.0-7.0-1.6","61006f43a84b82fb439d7cba","bdp_wmem","Wed Mar 15 2023 13:32:32 GMT-0600 (Mountain Daylight Time)","590885","Match,No Match","","null","","","","","","<div class='trialBorder'><div class='vertical-center'><img src='img/fixation2_sml.jpg'</img></div></div>","null","FIX","","","","","","","","","","","",""
"html-keyboard-response","66","191214","0.0-7.0-2.6","61006f43a84b82fb439d7cba","bdp_wmem","Wed Mar 15 2023 13:32:32 GMT-0600 (Mountain Daylight Time)","590885","Match,No Match","","null","","","","","","<div class='trialBorder'><div class='vertical-center'><img style='vertical-align:center; align:center' src='img/fixation2_sml.jpg'></div><div class='arrayDiv3'><div class='tl'><img class='introPic' src='trustrating_stim/white_mw078.bmp'><br><font color='green'><strong>Share</strong></font></div><div class='tc'><img class='introPic' src='trustrating_stim/white_mw085.bmp'><br><font color='green'><strong>Share</strong></font></div><div class='tr'><img class='introPic' src='trustrating_stim/white_mw038.bmp'><br><font color='red'><strong>Keep</strong></font></div></div></div>","null","ARRAY","3","trustrating_stim/white_mw078.bmp,trustrating_stim/white_mw085.bmp,trustrating_stim/white_mw038.bmp","1,1,0","Match","e","4500","","","","","",""
"html-keyboard-response","67","195214","0.0-7.0-3.6","61006f43a84b82fb439d7cba","bdp_wmem","Wed Mar 15 2023 13:32:32 GMT-0600 (Mountain Daylight Time)","590885","Match,No Match","","null","","","","","","<div class='trialBorder'><div class='vertical-center'><img src='img/fixation2_sml.jpg'</img></div></div>","null","DELAY","","","","","","","","","","","",""
"html-keyboard-response","68","196700","0.0-7.0-4.6","61006f43a84b82fb439d7cba","bdp_wmem","Wed Mar 15 2023 13:32:32 GMT-0600 (Mountain Daylight Time)","590885","Match,No Match","","1484","","","","","","<div class='trialBorder'><div class='targDiv'><div class='tc'><img class='introPic' src='trustrating_stim/white_mw085.bmp'><br><font color='green'><strong>Share</strong></font></div></div><div class='respDiv'><div class='respDivL'>Match<br>(e)</div><div class='respDivR'>No Match<br>(i)</div></div></div>","e","TARGET","3","trustrating_stim/white_mw078.bmp,trustrating_stim/white_mw085.bmp,trustrating_stim/white_mw038.bmp","1,1,0","Match","e","4500","trustrating_stim/white_mw085.bmp","green","Share","REAL","1",""
"html-keyboard-response","69","197200","0.0-7.0-5.6","61006f43a84b82fb439d7cba","bdp_wmem","Wed Mar 15 2023 13:32:32 GMT-0600 (Mountain Daylight Time)","590885","Match,No Match","","null","","","","","","<div class='trialBorder'><div class='vertical-center'><img src='img/correct.jpg'></div><div class='respDiv'><div class='respDivL'><font style='color:orange'>Match<br>(e)</font></div><div class='respDivR'>No Match<br>(i)</div></div></div>","null","FEEDBACK","","","","","","","","","","","",""
"html-keyboard-response","70","197702","0.0-7.0-1.7","61006f43a84b82fb439d7cba","bdp_wmem","Wed Mar 15 2023 13:32:32 GMT-0600 (Mountain Daylight Time)","590885","Match,No Match","","null","","","","","","<div class='trialBorder'><div class='vertical-center'><img src='img/fixation2_sml.jpg'</img></div></div>","null","FIX","","","","","","","","","","","",""
"html-keyboard-response","71","199204","0.0-7.0-2.7","61006f43a84b82fb439d7cba","bdp_wmem","Wed Mar 15 2023 13:32:32 GMT-0600 (Mountain Daylight Time)","590885","Match,No Match","","null","","","","","","<div class='trialBorder'><div class='vertical-center'><img style='vertical-align:center; align:center' src='img/fixation2_sml.jpg'></div><div class='arrayDiv1'><div class='tc'><img class='introPic' src='trustrating_stim/white_mw078.bmp'><br><font color='green'><strong>Share</strong></font></div></div></div>","null","ARRAY","1","trustrating_stim/white_mw078.bmp","1","noMatchFace","i","1500","","","","","",""
"html-keyboard-response","72","203205","0.0-7.0-3.7","61006f43a84b82fb439d7cba","bdp_wmem","Wed Mar 15 2023 13:32:32 GMT-0600 (Mountain Daylight Time)","590885","Match,No Match","","null","","","","","","<div class='trialBorder'><div class='vertical-center'><img src='img/fixation2_sml.jpg'</img></div></div>","null","DELAY","","","","","","","","","","","",""
"html-keyboard-response","73","204280","0.0-7.0-4.7","61006f43a84b82fb439d7cba","bdp_wmem","Wed Mar 15 2023 13:32:32 GMT-0600 (Mountain Daylight Time)","590885","Match,No Match","","1074","","","","","","<div class='trialBorder'><div class='targDiv'><div class='tc'><img class='introPic' src='trustrating_stim/white_mw040.bmp'><br><font color='green'><strong>Share</strong></font></div></div><div class='respDiv'><div class='respDivL'>Match<br>(e)</div><div class='respDivR'>No Match<br>(i)</div></div></div>","i","TARGET","1","trustrating_stim/white_mw078.bmp","1","noMatchFace","i","1500","trustrating_stim/white_mw040.bmp","green","Share","REAL","1",""
"html-keyboard-response","74","204781","0.0-7.0-5.7","61006f43a84b82fb439d7cba","bdp_wmem","Wed Mar 15 2023 13:32:32 GMT-0600 (Mountain Daylight Time)","590885","Match,No Match","","null","","","","","","<div class='trialBorder'><div class='vertical-center'><img src='img/correct.jpg'></div><div class='respDiv'><div class='respDivL'>Match<br>(e)</div><div class='respDivR'><font style='color:orange'>No Match<br>(i)</font></div></div></div>","null","FEEDBACK","","","","","","","","","","","",""
"html-keyboard-response","75","205282","0.0-7.0-1.8","61006f43a84b82fb439d7cba","bdp_wmem","Wed Mar 15 2023 13:32:32 GMT-0600 (Mountain Daylight Time)","590885","Match,No Match","","null","","","","","","<div class='trialBorder'><div class='vertical-center'><img src='img/fixation2_sml.jpg'</img></div></div>","null","FIX","","","","","","","","","","","",""
"html-keyboard-response","76","206783","0.0-7.0-2.8","61006f43a84b82fb439d7cba","bdp_wmem","Wed Mar 15 2023 13:32:32 GMT-0600 (Mountain Daylight Time)","590885","Match,No Match","","null","","","","","","<div class='trialBorder'><div class='vertical-center'><img style='vertical-align:center; align:center' src='img/fixation2_sml.jpg'></div><div class='arrayDiv1'><div class='tc'><img class='introPic' src='trustrating_stim/white_mw042.bmp'><br><font color='green'><strong>Share</strong></font></div></div></div>","null","ARRAY","1","trustrating_stim/white_mw042.bmp","1","noMatchOutcome","i","1500","","","","","",""
"html-keyboard-response","77","210785","0.0-7.0-3.8","61006f43a84b82fb439d7cba","bdp_wmem","Wed Mar 15 2023 13:32:32 GMT-0600 (Mountain Daylight Time)","590885","Match,No Match","","null","","","","","","<div class='trialBorder'><div class='vertical-center'><img src='img/fixation2_sml.jpg'</img></div></div>","null","DELAY","","","","","","","","","","","",""
"html-keyboard-response","78","211664","0.0-7.0-4.8","61006f43a84b82fb439d7cba","bdp_wmem","Wed Mar 15 2023 13:32:32 GMT-0600 (Mountain Daylight Time)","590885","Match,No Match","","879","","","","","","<div class='trialBorder'><div class='targDiv'><div class='tc'><img class='introPic' src='trustrating_stim/white_mw042.bmp'><br><font color='red'><strong>Keep</strong></font></div></div><div class='respDiv'><div class='respDivL'>Match<br>(e)</div><div class='respDivR'>No Match<br>(i)</div></div></div>","e","TARGET","1","trustrating_stim/white_mw042.bmp","1","noMatchOutcome","i","1500","trustrating_stim/white_mw042.bmp","red","Keep","REAL","0",""
"html-keyboard-response","79","212166","0.0-7.0-5.8","61006f43a84b82fb439d7cba","bdp_wmem","Wed Mar 15 2023 13:32:32 GMT-0600 (Mountain Daylight Time)","590885","Match,No Match","","null","","","","","","<div class='trialBorder'><div class='vertical-center'><img src='img/error.jpg'></div><div class='respDiv'><div class='respDivL'><font style='color:orange'>Match<br>(e)</font></div><div class='respDivR'>No Match<br>(i)</div></div></div>","null","FEEDBACK","","","","","","","","","","","",""
"html-keyboard-response","80","212667","0.0-7.0-1.9","61006f43a84b82fb439d7cba","bdp_wmem","Wed Mar 15 2023 13:32:32 GMT-0600 (Mountain Daylight Time)","590885","Match,No Match","","null","","","","","","<div class='trialBorder'><div class='vertical-center'><img src='img/fixation2_sml.jpg'</img></div></div>","null","FIX","","","","","","","","","","","",""
"html-keyboard-response","81","214168","0.0-7.0-2.9","61006f43a84b82fb439d7cba","bdp_wmem","Wed Mar 15 2023 13:32:32 GMT-0600 (Mountain Daylight Time)","590885","Match,No Match","","null","","","","","","<div class='trialBorder'><div class='vertical-center'><img style='vertical-align:center; align:center' src='img/fixation2_sml.jpg'></div><div class='arrayDiv1'><div class='tc'><img class='introPic' src='trustrating_stim/white_mw070.bmp'><br><font color='red'><strong>Keep</strong></font></div></div></div>","null","ARRAY","1","trustrating_stim/white_mw070.bmp","0","Match","e","1500","","","","","",""
"html-keyboard-response","82","218170","0.0-7.0-3.9","61006f43a84b82fb439d7cba","bdp_wmem","Wed Mar 15 2023 13:32:32 GMT-0600 (Mountain Daylight Time)","590885","Match,No Match","","null","","","","","","<div class='trialBorder'><div class='vertical-center'><img src='img/fixation2_sml.jpg'</img></div></div>","null","DELAY","","","","","","","","","","","",""
"html-keyboard-response","83","220278","0.0-7.0-4.9","61006f43a84b82fb439d7cba","bdp_wmem","Wed Mar 15 2023 13:32:32 GMT-0600 (Mountain Daylight Time)","590885","Match,No Match","","2108","","","","","","<div class='trialBorder'><div class='targDiv'><div class='tc'><img class='introPic' src='trustrating_stim/white_mw070.bmp'><br><font color='red'><strong>Keep</strong></font></div></div><div class='respDiv'><div class='respDivL'>Match<br>(e)</div><div class='respDivR'>No Match<br>(i)</div></div></div>","e","TARGET","1","trustrating_stim/white_mw070.bmp","0","Match","e","1500","trustrating_stim/white_mw070.bmp","red","Keep","REAL","1",""
"html-keyboard-response","84","220778","0.0-7.0-5.9","61006f43a84b82fb439d7cba","bdp_wmem","Wed Mar 15 2023 13:32:32 GMT-0600 (Mountain Daylight Time)","590885","Match,No Match","","null","","","","","","<div class='trialBorder'><div class='vertical-center'><img src='img/correct.jpg'></div><div class='respDiv'><div class='respDivL'><font style='color:orange'>Match<br>(e)</font></div><div class='respDivR'>No Match<br>(i)</div></div></div>","null","FEEDBACK","","","","","","","","","","","",""
"html-keyboard-response","85","221279","0.0-7.0-1.10","61006f43a84b82fb439d7cba","bdp_wmem","Wed Mar 15 2023 13:32:32 GMT-0600 (Mountain Daylight Time)","590885","Match,No Match","","null","","","","","","<div class='trialBorder'><div class='vertical-center'><img src='img/fixation2_sml.jpg'</img></div></div>","null","FIX","","","","","","","","","","","",""
"html-keyboard-response","86","222780","0.0-7.0-2.10","61006f43a84b82fb439d7cba","bdp_wmem","Wed Mar 15 2023 13:32:32 GMT-0600 (Mountain Daylight Time)","590885","Match,No Match","","null","","","","","","<div class='trialBorder'><div class='vertical-center'><img style='vertical-align:center; align:center' src='img/fixation2_sml.jpg'></div><div class='arrayDiv1'><div class='tc'><img class='introPic' src='trustrating_stim/white_mw092.bmp'><br><font color='red'><strong>Keep</strong></font></div></div></div>","null","ARRAY","1","trustrating_stim/white_mw092.bmp","0","noMatchOutcome","i","1500","","","","","",""
"html-keyboard-response","87","226782","0.0-7.0-3.10","61006f43a84b82fb439d7cba","bdp_wmem","Wed Mar 15 2023 13:32:32 GMT-0600 (Mountain Daylight Time)","590885","Match,No Match","","null","","","","","","<div class='trialBorder'><div class='vertical-center'><img src='img/fixation2_sml.jpg'</img></div></div>","null","DELAY","","","","","","","","","","","",""
"html-keyboard-response","88","229228","0.0-7.0-4.10","61006f43a84b82fb439d7cba","bdp_wmem","Wed Mar 15 2023 13:32:32 GMT-0600 (Mountain Daylight Time)","590885","Match,No Match","","2445","","","","","","<div class='trialBorder'><div class='targDiv'><div class='tc'><img class='introPic' src='trustrating_stim/white_mw092.bmp'><br><font color='green'><strong>Share</strong></font></div></div><div class='respDiv'><div class='respDivL'>Match<br>(e)</div><div class='respDivR'>No Match<br>(i)</div></div></div>","i","TARGET","1","trustrating_stim/white_mw092.bmp","0","noMatchOutcome","i","1500","trustrating_stim/white_mw092.bmp","green","Share","REAL","1",""
"html-keyboard-response","89","229728","0.0-7.0-5.10","61006f43a84b82fb439d7cba","bdp_wmem","Wed Mar 15 2023 13:32:32 GMT-0600 (Mountain Daylight Time)","590885","Match,No Match","","null","","","","","","<div class='trialBorder'><div class='vertical-center'><img src='img/correct.jpg'></div><div class='respDiv'><div class='respDivL'>Match<br>(e)</div><div class='respDivR'><font style='color:orange'>No Match<br>(i)</font></div></div></div>","null","FEEDBACK","","","","","","","","","","","",""
"html-keyboard-response","90","230230","0.0-7.0-1.11","61006f43a84b82fb439d7cba","bdp_wmem","Wed Mar 15 2023 13:32:32 GMT-0600 (Mountain Daylight Time)","590885","Match,No Match","","null","","","","","","<div class='trialBorder'><div class='vertical-center'><img src='img/fixation2_sml.jpg'</img></div></div>","null","FIX","","","","","","","","","","","",""
"html-keyboard-response","91","234731","0.0-7.0-2.11","61006f43a84b82fb439d7cba","bdp_wmem","Wed Mar 15 2023 13:32:32 GMT-0600 (Mountain Daylight Time)","590885","Match,No Match","","null","","","","","","<div class='trialBorder'><div class='vertical-center'><img style='vertical-align:center; align:center' src='img/fixation2_sml.jpg'></div><div class='arrayDiv3'><div class='tl'><img class='introPic' src='trustrating_stim/white_mw078.bmp'><br><font color='red'><strong>Keep</strong></font></div><div class='tc'><img class='introPic' src='trustrating_stim/white_mw003.bmp'><br><font color='green'><strong>Share</strong></font></div><div class='tr'><img class='introPic' src='trustrating_stim/white_mw070.bmp'><br><font color='green'><strong>Share</strong></font></div></div></div>","null","ARRAY","3","trustrating_stim/white_mw078.bmp,trustrating_stim/white_mw003.bmp,trustrating_stim/white_mw070.bmp","0,1,1","Match","e","4500","","","","","",""
"html-keyboard-response","92","238733","0.0-7.0-3.11","61006f43a84b82fb439d7cba","bdp_wmem","Wed Mar 15 2023 13:32:32 GMT-0600 (Mountain Daylight Time)","590885","Match,No Match","","null","","","","","","<div class='trialBorder'><div class='vertical-center'><img src='img/fixation2_sml.jpg'</img></div></div>","null","DELAY","","","","","","","","","","","",""
"html-keyboard-response","93","241337","0.0-7.0-4.11","61006f43a84b82fb439d7cba","bdp_wmem","Wed Mar 15 2023 13:32:32 GMT-0600 (Mountain Daylight Time)","590885","Match,No Match","","2604","","","","","","<div class='trialBorder'><div class='targDiv'><div class='tc'><img class='introPic' src='trustrating_stim/white_mw070.bmp'><br><font color='green'><strong>Share</strong></font></div></div><div class='respDiv'><div class='respDivL'>Match<br>(e)</div><div class='respDivR'>No Match<br>(i)</div></div></div>","e","TARGET","3","trustrating_stim/white_mw078.bmp,trustrating_stim/white_mw003.bmp,trustrating_stim/white_mw070.bmp","0,1,1","Match","e","4500","trustrating_stim/white_mw070.bmp","green","Share","REAL","1",""
"html-keyboard-response","94","241838","0.0-7.0-5.11","61006f43a84b82fb439d7cba","bdp_wmem","Wed Mar 15 2023 13:32:32 GMT-0600 (Mountain Daylight Time)","590885","Match,No Match","","null","","","","","","<div class='trialBorder'><div class='vertical-center'><img src='img/correct.jpg'></div><div class='respDiv'><div class='respDivL'><font style='color:orange'>Match<br>(e)</font></div><div class='respDivR'>No Match<br>(i)</div></div></div>","null","FEEDBACK","","","","","","","","","","","",""
"html-keyboard-response","95","242339","0.0-7.0-1.12","61006f43a84b82fb439d7cba","bdp_wmem","Wed Mar 15 2023 13:32:32 GMT-0600 (Mountain Daylight Time)","590885","Match,No Match","","null","","","","","","<div class='trialBorder'><div class='vertical-center'><img src='img/fixation2_sml.jpg'</img></div></div>","null","FIX","","","","","","","","","","","",""
"html-keyboard-response","96","245340","0.0-7.0-2.12","61006f43a84b82fb439d7cba","bdp_wmem","Wed Mar 15 2023 13:32:32 GMT-0600 (Mountain Daylight Time)","590885","Match,No Match","","null","","","","","","<div class='trialBorder'><div class='vertical-center'><img style='vertical-align:center; align:center' src='img/fixation2_sml.jpg'></div><div class='arrayDiv2'><div class='tl'><img class='introPic' src='trustrating_stim/white_mw010.bmp'><br><font color='green'><strong>Share</strong></font></div><div class='tr'><img class='introPic' src='trustrating_stim/white_mw078.bmp'><br><font color='red'><strong>Keep</strong></font></div></div></div>","null","ARRAY","2","trustrating_stim/white_mw010.bmp,trustrating_stim/white_mw078.bmp","1,0","Match","e","3000","","","","","",""
"html-keyboard-response","97","249341","0.0-7.0-3.12","61006f43a84b82fb439d7cba","bdp_wmem","Wed Mar 15 2023 13:32:32 GMT-0600 (Mountain Daylight Time)","590885","Match,No Match","","null","","","","","","<div class='trialBorder'><div class='vertical-center'><img src='img/fixation2_sml.jpg'</img></div></div>","null","DELAY","","","","","","","","","","","",""
"html-keyboard-response","98","251586","0.0-7.0-4.12","61006f43a84b82fb439d7cba","bdp_wmem","Wed Mar 15 2023 13:32:32 GMT-0600 (Mountain Daylight Time)","590885","Match,No Match","","2244","","","","","","<div class='trialBorder'><div class='targDiv'><div class='tc'><img class='introPic' src='trustrating_stim/white_mw078.bmp'><br><font color='red'><strong>Keep</strong></font></div></div><div class='respDiv'><div class='respDivL'>Match<br>(e)</div><div class='respDivR'>No Match<br>(i)</div></div></div>","e","TARGET","2","trustrating_stim/white_mw010.bmp,trustrating_stim/white_mw078.bmp","1,0","Match","e","3000","trustrating_stim/white_mw078.bmp","red","Keep","REAL","1",""
"html-keyboard-response","99","252088","0.0-7.0-5.12","61006f43a84b82fb439d7cba","bdp_wmem","Wed Mar 15 2023 13:32:32 GMT-0600 (Mountain Daylight Time)","590885","Match,No Match","","null","","","","","","<div class='trialBorder'><div class='vertical-center'><img src='img/correct.jpg'></div><div class='respDiv'><div class='respDivL'><font style='color:orange'>Match<br>(e)</font></div><div class='respDivR'>No Match<br>(i)</div></div></div>","null","FEEDBACK","","","","","","","","","","","",""
"html-keyboard-response","100","252589","0.0-7.0-1.13","61006f43a84b82fb439d7cba","bdp_wmem","Wed Mar 15 2023 13:32:32 GMT-0600 (Mountain Daylight Time)","590885","Match,No Match","","null","","","","","","<div class='trialBorder'><div class='vertical-center'><img src='img/fixation2_sml.jpg'</img></div></div>","null","FIX","","","","","","","","","","","",""
"html-keyboard-response","101","254090","0.0-7.0-2.13","61006f43a84b82fb439d7cba","bdp_wmem","Wed Mar 15 2023 13:32:32 GMT-0600 (Mountain Daylight Time)","590885","Match,No Match","","null","","","","","","<div class='trialBorder'><div class='vertical-center'><img style='vertical-align:center; align:center' src='img/fixation2_sml.jpg'></div><div class='arrayDiv1'><div class='tc'><img class='introPic' src='trustrating_stim/white_mw085.bmp'><br><font color='red'><strong>Keep</strong></font></div></div></div>","null","ARRAY","1","trustrating_stim/white_mw085.bmp","0","Match","e","1500","","","","","",""
"html-keyboard-response","102","258091","0.0-7.0-3.13","61006f43a84b82fb439d7cba","bdp_wmem","Wed Mar 15 2023 13:32:32 GMT-0600 (Mountain Daylight Time)","590885","Match,No Match","","null","","","","","","<div class='trialBorder'><div class='vertical-center'><img src='img/fixation2_sml.jpg'</img></div></div>","null","DELAY","","","","","","","","","","","",""
"html-keyboard-response","103","259104","0.0-7.0-4.13","61006f43a84b82fb439d7cba","bdp_wmem","Wed Mar 15 2023 13:32:32 GMT-0600 (Mountain Daylight Time)","590885","Match,No Match","","1013","","","","","","<div class='trialBorder'><div class='targDiv'><div class='tc'><img class='introPic' src='trustrating_stim/white_mw085.bmp'><br><font color='red'><strong>Keep</strong></font></div></div><div class='respDiv'><div class='respDivL'>Match<br>(e)</div><div class='respDivR'>No Match<br>(i)</div></div></div>","e","TARGET","1","trustrating_stim/white_mw085.bmp","0","Match","e","1500","trustrating_stim/white_mw085.bmp","red","Keep","REAL","1",""
"html-keyboard-response","104","259606","0.0-7.0-5.13","61006f43a84b82fb439d7cba","bdp_wmem","Wed Mar 15 2023 13:32:32 GMT-0600 (Mountain Daylight Time)","590885","Match,No Match","","null","","","","","","<div class='trialBorder'><div class='vertical-center'><img src='img/correct.jpg'></div><div class='respDiv'><div class='respDivL'><font style='color:orange'>Match<br>(e)</font></div><div class='respDivR'>No Match<br>(i)</div></div></div>","null","FEEDBACK","","","","","","","","","","","",""
"html-keyboard-response","105","260108","0.0-7.0-1.14","61006f43a84b82fb439d7cba","bdp_wmem","Wed Mar 15 2023 13:32:32 GMT-0600 (Mountain Daylight Time)","590885","Match,No Match","","null","","","","","","<div class='trialBorder'><div class='vertical-center'><img src='img/fixation2_sml.jpg'</img></div></div>","null","FIX","","","","","","","","","","","",""
"html-keyboard-response","106","263110","0.0-7.0-2.14","61006f43a84b82fb439d7cba","bdp_wmem","Wed Mar 15 2023 13:32:32 GMT-0600 (Mountain Daylight Time)","590885","Match,No Match","","null","","","","","","<div class='trialBorder'><div class='vertical-center'><img style='vertical-align:center; align:center' src='img/fixation2_sml.jpg'></div><div class='arrayDiv2'><div class='tl'><img class='introPic' src='trustrating_stim/white_mw091.bmp'><br><font color='red'><strong>Keep</strong></font></div><div class='tr'><img class='introPic' src='trustrating_stim/white_mw003.bmp'><br><font color='green'><strong>Share</strong></font></div></div></div>","null","ARRAY","2","trustrating_stim/white_mw091.bmp,trustrating_stim/white_mw003.bmp","0,1","noMatchOutcome","i","3000","","","","","",""
"html-keyboard-response","107","267111","0.0-7.0-3.14","61006f43a84b82fb439d7cba","bdp_wmem","Wed Mar 15 2023 13:32:32 GMT-0600 (Mountain Daylight Time)","590885","Match,No Match","","null","","","","","","<div class='trialBorder'><div class='vertical-center'><img src='img/fixation2_sml.jpg'</img></div></div>","null","DELAY","","","","","","","","","","","",""
"html-keyboard-response","108","269045","0.0-7.0-4.14","61006f43a84b82fb439d7cba","bdp_wmem","Wed Mar 15 2023 13:32:32 GMT-0600 (Mountain Daylight Time)","590885","Match,No Match","","1932","","","","","","<div class='trialBorder'><div class='targDiv'><div class='tc'><img class='introPic' src='trustrating_stim/white_mw003.bmp'><br><font color='red'><strong>Keep</strong></font></div></div><div class='respDiv'><div class='respDivL'>Match<br>(e)</div><div class='respDivR'>No Match<br>(i)</div></div></div>","e","TARGET","2","trustrating_stim/white_mw091.bmp,trustrating_stim/white_mw003.bmp","0,1","noMatchOutcome","i","3000","trustrating_stim/white_mw003.bmp","red","Keep","REAL","0",""
"html-keyboard-response","109","269546","0.0-7.0-5.14","61006f43a84b82fb439d7cba","bdp_wmem","Wed Mar 15 2023 13:32:32 GMT-0600 (Mountain Daylight Time)","590885","Match,No Match","","null","","","","","","<div class='trialBorder'><div class='vertical-center'><img src='img/error.jpg'></div><div class='respDiv'><div class='respDivL'><font style='color:orange'>Match<br>(e)</font></div><div class='respDivR'>No Match<br>(i)</div></div></div>","null","FEEDBACK","","","","","","","","","","","",""
"html-keyboard-response","110","270047","0.0-7.0-1.15","61006f43a84b82fb439d7cba","bdp_wmem","Wed Mar 15 2023 13:32:32 GMT-0600 (Mountain Daylight Time)","590885","Match,No Match","","null","","","","","","<div class='trialBorder'><div class='vertical-center'><img src='img/fixation2_sml.jpg'</img></div></div>","null","FIX","","","","","","","","","","","",""
"html-keyboard-response","111","273048","0.0-7.0-2.15","61006f43a84b82fb439d7cba","bdp_wmem","Wed Mar 15 2023 13:32:32 GMT-0600 (Mountain Daylight Time)","590885","Match,No Match","","null","","","","","","<div class='trialBorder'><div class='vertical-center'><img style='vertical-align:center; align:center' src='img/fixation2_sml.jpg'></div><div class='arrayDiv2'><div class='tl'><img class='introPic' src='trustrating_stim/white_mw040.bmp'><br><font color='green'><strong>Share</strong></font></div><div class='tr'><img class='introPic' src='trustrating_stim/white_mw013.bmp'><br><font color='red'><strong>Keep</strong></font></div></div></div>","null","ARRAY","2","trustrating_stim/white_mw040.bmp,trustrating_stim/white_mw013.bmp","1,0","Match","e","3000","","","","","",""
"html-keyboard-response","112","277049","0.0-7.0-3.15","61006f43a84b82fb439d7cba","bdp_wmem","Wed Mar 15 2023 13:32:32 GMT-0600 (Mountain Daylight Time)","590885","Match,No Match","","null","","","","","","<div class='trialBorder'><div class='vertical-center'><img src='img/fixation2_sml.jpg'</img></div></div>","null","DELAY","","","","","","","","","","","",""
"html-keyboard-response","113","278423","0.0-7.0-4.15","61006f43a84b82fb439d7cba","bdp_wmem","Wed Mar 15 2023 13:32:32 GMT-0600 (Mountain Daylight Time)","590885","Match,No Match","","1373","","","","","","<div class='trialBorder'><div class='targDiv'><div class='tc'><img class='introPic' src='trustrating_stim/white_mw013.bmp'><br><font color='red'><strong>Keep</strong></font></div></div><div class='respDiv'><div class='respDivL'>Match<br>(e)</div><div class='respDivR'>No Match<br>(i)</div></div></div>","e","TARGET","2","trustrating_stim/white_mw040.bmp,trustrating_stim/white_mw013.bmp","1,0","Match","e","3000","trustrating_stim/white_mw013.bmp","red","Keep","REAL","1",""
"html-keyboard-response","114","278925","0.0-7.0-5.15","61006f43a84b82fb439d7cba","bdp_wmem","Wed Mar 15 2023 13:32:32 GMT-0600 (Mountain Daylight Time)","590885","Match,No Match","","null","","","","","","<div class='trialBorder'><div class='vertical-center'><img src='img/correct.jpg'></div><div class='respDiv'><div class='respDivL'><font style='color:orange'>Match<br>(e)</font></div><div class='respDivR'>No Match<br>(i)</div></div></div>","null","FEEDBACK","","","","","","","","","","","",""
"html-keyboard-response","115","279426","0.0-7.0-1.16","61006f43a84b82fb439d7cba","bdp_wmem","Wed Mar 15 2023 13:32:32 GMT-0600 (Mountain Daylight Time)","590885","Match,No Match","","null","","","","","","<div class='trialBorder'><div class='vertical-center'><img src='img/fixation2_sml.jpg'</img></div></div>","null","FIX","","","","","","","","","","","",""
"html-keyboard-response","116","283928","0.0-7.0-2.16","61006f43a84b82fb439d7cba","bdp_wmem","Wed Mar 15 2023 13:32:32 GMT-0600 (Mountain Daylight Time)","590885","Match,No Match","","null","","","","","","<div class='trialBorder'><div class='vertical-center'><img style='vertical-align:center; align:center' src='img/fixation2_sml.jpg'></div><div class='arrayDiv3'><div class='tl'><img class='introPic' src='trustrating_stim/white_mw092.bmp'><br><font color='red'><strong>Keep</strong></font></div><div class='tc'><img class='introPic' src='trustrating_stim/white_mw078.bmp'><br><font color='green'><strong>Share</strong></font></div><div class='tr'><img class='introPic' src='trustrating_stim/white_mw012.bmp'><br><font color='green'><strong>Share</strong></font></div></div></div>","null","ARRAY","3","trustrating_stim/white_mw092.bmp,trustrating_stim/white_mw078.bmp,trustrating_stim/white_mw012.bmp","0,1,1","noMatchOutcome","i","4500","","","","","",""
"html-keyboard-response","117","287928","0.0-7.0-3.16","61006f43a84b82fb439d7cba","bdp_wmem","Wed Mar 15 2023 13:32:32 GMT-0600 (Mountain Daylight Time)","590885","Match,No Match","","null","","","","","","<div class='trialBorder'><div class='vertical-center'><img src='img/fixation2_sml.jpg'</img></div></div>","null","DELAY","","","","","","","","","","","",""
"html-keyboard-response","118","289833","0.0-7.0-4.16","61006f43a84b82fb439d7cba","bdp_wmem","Wed Mar 15 2023 13:32:32 GMT-0600 (Mountain Daylight Time)","590885","Match,No Match","","1904","","","","","","<div class='trialBorder'><div class='targDiv'><div class='tc'><img class='introPic' src='trustrating_stim/white_mw078.bmp'><br><font color='red'><strong>Keep</strong></font></div></div><div class='respDiv'><div class='respDivL'>Match<br>(e)</div><div class='respDivR'>No Match<br>(i)</div></div></div>","i","TARGET","3","trustrating_stim/white_mw092.bmp,trustrating_stim/white_mw078.bmp,trustrating_stim/white_mw012.bmp","0,1,1","noMatchOutcome","i","4500","trustrating_stim/white_mw078.bmp","red","Keep","REAL","1",""
"html-keyboard-response","119","290334","0.0-7.0-5.16","61006f43a84b82fb439d7cba","bdp_wmem","Wed Mar 15 2023 13:32:32 GMT-0600 (Mountain Daylight Time)","590885","Match,No Match","","null","","","","","","<div class='trialBorder'><div class='vertical-center'><img src='img/correct.jpg'></div><div class='respDiv'><div class='respDivL'>Match<br>(e)</div><div class='respDivR'><font style='color:orange'>No Match<br>(i)</font></div></div></div>","null","FEEDBACK","","","","","","","","","","","",""
"html-keyboard-response","120","290836","0.0-7.0-1.17","61006f43a84b82fb439d7cba","bdp_wmem","Wed Mar 15 2023 13:32:32 GMT-0600 (Mountain Daylight Time)","590885","Match,No Match","","null","","","","","","<div class='trialBorder'><div class='vertical-center'><img src='img/fixation2_sml.jpg'</img></div></div>","null","FIX","","","","","","","","","","","",""
"html-keyboard-response","121","292338","0.0-7.0-2.17","61006f43a84b82fb439d7cba","bdp_wmem","Wed Mar 15 2023 13:32:32 GMT-0600 (Mountain Daylight Time)","590885","Match,No Match","","null","","","","","","<div class='trialBorder'><div class='vertical-center'><img style='vertical-align:center; align:center' src='img/fixation2_sml.jpg'></div><div class='arrayDiv1'><div class='tc'><img class='introPic' src='trustrating_stim/white_mw092.bmp'><br><font color='red'><strong>Keep</strong></font></div></div></div>","null","ARRAY","1","trustrating_stim/white_mw092.bmp","0","Match","e","1500","","","","","",""
"html-keyboard-response","122","296338","0.0-7.0-3.17","61006f43a84b82fb439d7cba","bdp_wmem","Wed Mar 15 2023 13:32:32 GMT-0600 (Mountain Daylight Time)","590885","Match,No Match","","null","","","","","","<div class='trialBorder'><div class='vertical-center'><img src='img/fixation2_sml.jpg'</img></div></div>","null","DELAY","","","","","","","","","","","",""
"html-keyboard-response","123","297401","0.0-7.0-4.17","61006f43a84b82fb439d7cba","bdp_wmem","Wed Mar 15 2023 13:32:32 GMT-0600 (Mountain Daylight Time)","590885","Match,No Match","","1061","","","","","","<div class='trialBorder'><div class='targDiv'><div class='tc'><img class='introPic' src='trustrating_stim/white_mw092.bmp'><br><font color='red'><strong>Keep</strong></font></div></div><div class='respDiv'><div class='respDivL'>Match<br>(e)</div><div class='respDivR'>No Match<br>(i)</div></div></div>","e","TARGET","1","trustrating_stim/white_mw092.bmp","0","Match","e","1500","trustrating_stim/white_mw092.bmp","red","Keep","REAL","1",""
"html-keyboard-response","124","297902","0.0-7.0-5.17","61006f43a84b82fb439d7cba","bdp_wmem","Wed Mar 15 2023 13:32:32 GMT-0600 (Mountain Daylight Time)","590885","Match,No Match","","null","","","","","","<div class='trialBorder'><div class='vertical-center'><img src='img/correct.jpg'></div><div class='respDiv'><div class='respDivL'><font style='color:orange'>Match<br>(e)</font></div><div class='respDivR'>No Match<br>(i)</div></div></div>","null","FEEDBACK","","","","","","","","","","","",""
"html-keyboard-response","125","298403","0.0-7.0-1.18","61006f43a84b82fb439d7cba","bdp_wmem","Wed Mar 15 2023 13:32:32 GMT-0600 (Mountain Daylight Time)","590885","Match,No Match","","null","","","","","","<div class='trialBorder'><div class='vertical-center'><img src='img/fixation2_sml.jpg'</img></div></div>","null","FIX","","","","","","","","","","","",""
"html-keyboard-response","126","301405","0.0-7.0-2.18","61006f43a84b82fb439d7cba","bdp_wmem","Wed Mar 15 2023 13:32:32 GMT-0600 (Mountain Daylight Time)","590885","Match,No Match","","null","","","","","","<div class='trialBorder'><div class='vertical-center'><img style='vertical-align:center; align:center' src='img/fixation2_sml.jpg'></div><div class='arrayDiv2'><div class='tl'><img class='introPic' src='trustrating_stim/white_mw003.bmp'><br><font color='red'><strong>Keep</strong></font></div><div class='tr'><img class='introPic' src='trustrating_stim/white_mw040.bmp'><br><font color='green'><strong>Share</strong></font></div></div></div>","null","ARRAY","2","trustrating_stim/white_mw003.bmp,trustrating_stim/white_mw040.bmp","0,1","noMatchFace","i","3000","","","","","",""
"html-keyboard-response","127","305407","0.0-7.0-3.18","61006f43a84b82fb439d7cba","bdp_wmem","Wed Mar 15 2023 13:32:32 GMT-0600 (Mountain Daylight Time)","590885","Match,No Match","","null","","","","","","<div class='trialBorder'><div class='vertical-center'><img src='img/fixation2_sml.jpg'</img></div></div>","null","DELAY","","","","","","","","","","","",""
"html-keyboard-response","128","306997","0.0-7.0-4.18","61006f43a84b82fb439d7cba","bdp_wmem","Wed Mar 15 2023 13:32:32 GMT-0600 (Mountain Daylight Time)","590885","Match,No Match","","1590","","","","","","<div class='trialBorder'><div class='targDiv'><div class='tc'><img class='introPic' src='trustrating_stim/white_mw092.bmp'><br><font color='green'><strong>Share</strong></font></div></div><div class='respDiv'><div class='respDivL'>Match<br>(e)</div><div class='respDivR'>No Match<br>(i)</div></div></div>","i","TARGET","2","trustrating_stim/white_mw003.bmp,trustrating_stim/white_mw040.bmp","0,1","noMatchFace","i","3000","trustrating_stim/white_mw092.bmp","green","Share","REAL","1",""
"html-keyboard-response","129","307499","0.0-7.0-5.18","61006f43a84b82fb439d7cba","bdp_wmem","Wed Mar 15 2023 13:32:32 GMT-0600 (Mountain Daylight Time)","590885","Match,No Match","","null","","","","","","<div class='trialBorder'><div class='vertical-center'><img src='img/correct.jpg'></div><div class='respDiv'><div class='respDivL'>Match<br>(e)</div><div class='respDivR'><font style='color:orange'>No Match<br>(i)</font></div></div></div>","null","FEEDBACK","","","","","","","","","","","",""
"html-keyboard-response","130","308000","0.0-7.0-1.19","61006f43a84b82fb439d7cba","bdp_wmem","Wed Mar 15 2023 13:32:32 GMT-0600 (Mountain Daylight Time)","590885","Match,No Match","","null","","","","","","<div class='trialBorder'><div class='vertical-center'><img src='img/fixation2_sml.jpg'</img></div></div>","null","FIX","","","","","","","","","","","",""
"html-keyboard-response","131","309501","0.0-7.0-2.19","61006f43a84b82fb439d7cba","bdp_wmem","Wed Mar 15 2023 13:32:32 GMT-0600 (Mountain Daylight Time)","590885","Match,No Match","","null","","","","","","<div class='trialBorder'><div class='vertical-center'><img style='vertical-align:center; align:center' src='img/fixation2_sml.jpg'></div><div class='arrayDiv1'><div class='tc'><img class='introPic' src='trustrating_stim/white_mw042.bmp'><br><font color='green'><strong>Share</strong></font></div></div></div>","null","ARRAY","1","trustrating_stim/white_mw042.bmp","1","Match","e","1500","","","","","",""
"html-keyboard-response","132","313502","0.0-7.0-3.19","61006f43a84b82fb439d7cba","bdp_wmem","Wed Mar 15 2023 13:32:32 GMT-0600 (Mountain Daylight Time)","590885","Match,No Match","","null","","","","","","<div class='trialBorder'><div class='vertical-center'><img src='img/fixation2_sml.jpg'</img></div></div>","null","DELAY","","","","","","","","","","","",""
"html-keyboard-response","133","314690","0.0-7.0-4.19","61006f43a84b82fb439d7cba","bdp_wmem","Wed Mar 15 2023 13:32:32 GMT-0600 (Mountain Daylight Time)","590885","Match,No Match","","1187","","","","","","<div class='trialBorder'><div class='targDiv'><div class='tc'><img class='introPic' src='trustrating_stim/white_mw042.bmp'><br><font color='green'><strong>Share</strong></font></div></div><div class='respDiv'><div class='respDivL'>Match<br>(e)</div><div class='respDivR'>No Match<br>(i)</div></div></div>","e","TARGET","1","trustrating_stim/white_mw042.bmp","1","Match","e","1500","trustrating_stim/white_mw042.bmp","green","Share","REAL","1",""
"html-keyboard-response","134","315192","0.0-7.0-5.19","61006f43a84b82fb439d7cba","bdp_wmem","Wed Mar 15 2023 13:32:32 GMT-0600 (Mountain Daylight Time)","590885","Match,No Match","","null","","","","","","<div class='trialBorder'><div class='vertical-center'><img src='img/correct.jpg'></div><div class='respDiv'><div class='respDivL'><font style='color:orange'>Match<br>(e)</font></div><div class='respDivR'>No Match<br>(i)</div></div></div>","null","FEEDBACK","","","","","","","","","","","",""
"html-keyboard-response","135","315693","0.0-7.0-1.20","61006f43a84b82fb439d7cba","bdp_wmem","Wed Mar 15 2023 13:32:32 GMT-0600 (Mountain Daylight Time)","590885","Match,No Match","","null","","","","","","<div class='trialBorder'><div class='vertical-center'><img src='img/fixation2_sml.jpg'</img></div></div>","null","FIX","","","","","","","","","","","",""
"html-keyboard-response","136","320194","0.0-7.0-2.20","61006f43a84b82fb439d7cba","bdp_wmem","Wed Mar 15 2023 13:32:32 GMT-0600 (Mountain Daylight Time)","590885","Match,No Match","","null","","","","","","<div class='trialBorder'><div class='vertical-center'><img style='vertical-align:center; align:center' src='img/fixation2_sml.jpg'></div><div class='arrayDiv3'><div class='tl'><img class='introPic' src='trustrating_stim/white_mw091.bmp'><br><font color='green'><strong>Share</strong></font></div><div class='tc'><img class='introPic' src='trustrating_stim/white_mw092.bmp'><br><font color='red'><strong>Keep</strong></font></div><div class='tr'><img class='introPic' src='trustrating_stim/white_mw003.bmp'><br><font color='green'><strong>Share</strong></font></div></div></div>","null","ARRAY","3","trustrating_stim/white_mw091.bmp,trustrating_stim/white_mw092.bmp,trustrating_stim/white_mw003.bmp","1,0,1","noMatchFace","i","4500","","","","","",""
"html-keyboard-response","137","324195","0.0-7.0-3.20","61006f43a84b82fb439d7cba","bdp_wmem","Wed Mar 15 2023 13:32:32 GMT-0600 (Mountain Daylight Time)","590885","Match,No Match","","null","","","","","","<div class='trialBorder'><div class='vertical-center'><img src='img/fixation2_sml.jpg'</img></div></div>","null","DELAY","","","","","","","","","","","",""
"html-keyboard-response","138","326433","0.0-7.0-4.20","61006f43a84b82fb439d7cba","bdp_wmem","Wed Mar 15 2023 13:32:32 GMT-0600 (Mountain Daylight Time)","590885","Match,No Match","","2237","","","","","","<div class='trialBorder'><div class='targDiv'><div class='tc'><img class='introPic' src='trustrating_stim/white_mw012.bmp'><br><font color='green'><strong>Share</strong></font></div></div><div class='respDiv'><div class='respDivL'>Match<br>(e)</div><div class='respDivR'>No Match<br>(i)</div></div></div>","e","TARGET","3","trustrating_stim/white_mw091.bmp,trustrating_stim/white_mw092.bmp,trustrating_stim/white_mw003.bmp","1,0,1","noMatchFace","i","4500","trustrating_stim/white_mw012.bmp","green","Share","REAL","0",""
"html-keyboard-response","139","326934","0.0-7.0-5.20","61006f43a84b82fb439d7cba","bdp_wmem","Wed Mar 15 2023 13:32:32 GMT-0600 (Mountain Daylight Time)","590885","Match,No Match","","null","","","","","","<div class='trialBorder'><div class='vertical-center'><img src='img/error.jpg'></div><div class='respDiv'><div class='respDivL'><font style='color:orange'>Match<br>(e)</font></div><div class='respDivR'>No Match<br>(i)</div></div></div>","null","FEEDBACK","","","","","","","","","","","",""
"html-keyboard-response","140","327436","0.0-7.0-1.21","61006f43a84b82fb439d7cba","bdp_wmem","Wed Mar 15 2023 13:32:32 GMT-0600 (Mountain Daylight Time)","590885","Match,No Match","","null","","","","","","<div class='trialBorder'><div class='vertical-center'><img src='img/fixation2_sml.jpg'</img></div></div>","null","FIX","","","","","","","","","","","",""
"html-keyboard-response","141","331938","0.0-7.0-2.21","61006f43a84b82fb439d7cba","bdp_wmem","Wed Mar 15 2023 13:32:32 GMT-0600 (Mountain Daylight Time)","590885","Match,No Match","","null","","","","","","<div class='trialBorder'><div class='vertical-center'><img style='vertical-align:center; align:center' src='img/fixation2_sml.jpg'></div><div class='arrayDiv3'><div class='tl'><img class='introPic' src='trustrating_stim/white_mw070.bmp'><br><font color='red'><strong>Keep</strong></font></div><div class='tc'><img class='introPic' src='trustrating_stim/white_mw013.bmp'><br><font color='red'><strong>Keep</strong></font></div><div class='tr'><img class='introPic' src='trustrating_stim/white_mw085.bmp'><br><font color='green'><strong>Share</strong></font></div></div></div>","null","ARRAY","3","trustrating_stim/white_mw070.bmp,trustrating_stim/white_mw013.bmp,trustrating_stim/white_mw085.bmp","0,0,1","Match","e","4500","","","","","",""
"html-keyboard-response","142","335940","0.0-7.0-3.21","61006f43a84b82fb439d7cba","bdp_wmem","Wed Mar 15 2023 13:32:32 GMT-0600 (Mountain Daylight Time)","590885","Match,No Match","","null","","","","","","<div class='trialBorder'><div class='vertical-center'><img src='img/fixation2_sml.jpg'</img></div></div>","null","DELAY","","","","","","","","","","","",""
"html-keyboard-response","143","338018","0.0-7.0-4.21","61006f43a84b82fb439d7cba","bdp_wmem","Wed Mar 15 2023 13:32:32 GMT-0600 (Mountain Daylight Time)","590885","Match,No Match","","2078","","","","","","<div class='trialBorder'><div class='targDiv'><div class='tc'><img class='introPic' src='trustrating_stim/white_mw070.bmp'><br><font color='red'><strong>Keep</strong></font></div></div><div class='respDiv'><div class='respDivL'>Match<br>(e)</div><div class='respDivR'>No Match<br>(i)</div></div></div>","e","TARGET","3","trustrating_stim/white_mw070.bmp,trustrating_stim/white_mw013.bmp,trustrating_stim/white_mw085.bmp","0,0,1","Match","e","4500","trustrating_stim/white_mw070.bmp","red","Keep","REAL","1",""
"html-keyboard-response","144","338519","0.0-7.0-5.21","61006f43a84b82fb439d7cba","bdp_wmem","Wed Mar 15 2023 13:32:32 GMT-0600 (Mountain Daylight Time)","590885","Match,No Match","","null","","","","","","<div class='trialBorder'><div class='vertical-center'><img src='img/correct.jpg'></div><div class='respDiv'><div class='respDivL'><font style='color:orange'>Match<br>(e)</font></div><div class='respDivR'>No Match<br>(i)</div></div></div>","null","FEEDBACK","","","","","","","","","","","",""
"html-keyboard-response","145","339021","0.0-7.0-1.22","61006f43a84b82fb439d7cba","bdp_wmem","Wed Mar 15 2023 13:32:32 GMT-0600 (Mountain Daylight Time)","590885","Match,No Match","","null","","","","","","<div class='trialBorder'><div class='vertical-center'><img src='img/fixation2_sml.jpg'</img></div></div>","null","FIX","","","","","","","","","","","",""
"html-keyboard-response","146","342022","0.0-7.0-2.22","61006f43a84b82fb439d7cba","bdp_wmem","Wed Mar 15 2023 13:32:32 GMT-0600 (Mountain Daylight Time)","590885","Match,No Match","","null","","","","","","<div class='trialBorder'><div class='vertical-center'><img style='vertical-align:center; align:center' src='img/fixation2_sml.jpg'></div><div class='arrayDiv2'><div class='tl'><img class='introPic' src='trustrating_stim/white_mw010.bmp'><br><font color='red'><strong>Keep</strong></font></div><div class='tr'><img class='introPic' src='trustrating_stim/white_mw012.bmp'><br><font color='green'><strong>Share</strong></font></div></div></div>","null","ARRAY","2","trustrating_stim/white_mw010.bmp,trustrating_stim/white_mw012.bmp","0,1","noMatchOutcome","i","3000","","","","","",""
"html-keyboard-response","147","346023","0.0-7.0-3.22","61006f43a84b82fb439d7cba","bdp_wmem","Wed Mar 15 2023 13:32:32 GMT-0600 (Mountain Daylight Time)","590885","Match,No Match","","null","","","","","","<div class='trialBorder'><div class='vertical-center'><img src='img/fixation2_sml.jpg'</img></div></div>","null","DELAY","","","","","","","","","","","",""
"html-keyboard-response","148","348145","0.0-7.0-4.22","61006f43a84b82fb439d7cba","bdp_wmem","Wed Mar 15 2023 13:32:32 GMT-0600 (Mountain Daylight Time)","590885","Match,No Match","","2120","","","","","","<div class='trialBorder'><div class='targDiv'><div class='tc'><img class='introPic' src='trustrating_stim/white_mw010.bmp'><br><font color='green'><strong>Share</strong></font></div></div><div class='respDiv'><div class='respDivL'>Match<br>(e)</div><div class='respDivR'>No Match<br>(i)</div></div></div>","i","TARGET","2","trustrating_stim/white_mw010.bmp,trustrating_stim/white_mw012.bmp","0,1","noMatchOutcome","i","3000","trustrating_stim/white_mw010.bmp","green","Share","REAL","1",""
"html-keyboard-response","149","348646","0.0-7.0-5.22","61006f43a84b82fb439d7cba","bdp_wmem","Wed Mar 15 2023 13:32:32 GMT-0600 (Mountain Daylight Time)","590885","Match,No Match","","null","","","","","","<div class='trialBorder'><div class='vertical-center'><img src='img/correct.jpg'></div><div class='respDiv'><div class='respDivL'>Match<br>(e)</div><div class='respDivR'><font style='color:orange'>No Match<br>(i)</font></div></div></div>","null","FEEDBACK","","","","","","","","","","","",""
"html-keyboard-response","150","349147","0.0-7.0-1.23","61006f43a84b82fb439d7cba","bdp_wmem","Wed Mar 15 2023 13:32:32 GMT-0600 (Mountain Daylight Time)","590885","Match,No Match","","null","","","","","","<div class='trialBorder'><div class='vertical-center'><img src='img/fixation2_sml.jpg'</img></div></div>","null","FIX","","","","","","","","","","","",""
"html-keyboard-response","151","353648","0.0-7.0-2.23","61006f43a84b82fb439d7cba","bdp_wmem","Wed Mar 15 2023 13:32:32 GMT-0600 (Mountain Daylight Time)","590885","Match,No Match","","null","","","","","","<div class='trialBorder'><div class='vertical-center'><img style='vertical-align:center; align:center' src='img/fixation2_sml.jpg'></div><div class='arrayDiv3'><div class='tl'><img class='introPic' src='trustrating_stim/white_mw070.bmp'><br><font color='red'><strong>Keep</strong></font></div><div class='tc'><img class='introPic' src='trustrating_stim/white_mw003.bmp'><br><font color='green'><strong>Share</strong></font></div><div class='tr'><img class='introPic' src='trustrating_stim/white_mw042.bmp'><br><font color='red'><strong>Keep</strong></font></div></div></div>","null","ARRAY","3","trustrating_stim/white_mw070.bmp,trustrating_stim/white_mw003.bmp,trustrating_stim/white_mw042.bmp","0,1,0","noMatchOutcome","i","4500","","","","","",""
"html-keyboard-response","152","357650","0.0-7.0-3.23","61006f43a84b82fb439d7cba","bdp_wmem","Wed Mar 15 2023 13:32:32 GMT-0600 (Mountain Daylight Time)","590885","Match,No Match","","null","","","","","","<div class='trialBorder'><div class='vertical-center'><img src='img/fixation2_sml.jpg'</img></div></div>","null","DELAY","","","","","","","","","","","",""
"html-keyboard-response","153","358974","0.0-7.0-4.23","61006f43a84b82fb439d7cba","bdp_wmem","Wed Mar 15 2023 13:32:32 GMT-0600 (Mountain Daylight Time)","590885","Match,No Match","","1324","","","","","","<div class='trialBorder'><div class='targDiv'><div class='tc'><img class='introPic' src='trustrating_stim/white_mw003.bmp'><br><font color='red'><strong>Keep</strong></font></div></div><div class='respDiv'><div class='respDivL'>Match<br>(e)</div><div class='respDivR'>No Match<br>(i)</div></div></div>","e","TARGET","3","trustrating_stim/white_mw070.bmp,trustrating_stim/white_mw003.bmp,trustrating_stim/white_mw042.bmp","0,1,0","noMatchOutcome","i","4500","trustrating_stim/white_mw003.bmp","red","Keep","REAL","0",""
"html-keyboard-response","154","359475","0.0-7.0-5.23","61006f43a84b82fb439d7cba","bdp_wmem","Wed Mar 15 2023 13:32:32 GMT-0600 (Mountain Daylight Time)","590885","Match,No Match","","null","","","","","","<div class='trialBorder'><div class='vertical-center'><img src='img/error.jpg'></div><div class='respDiv'><div class='respDivL'><font style='color:orange'>Match<br>(e)</font></div><div class='respDivR'>No Match<br>(i)</div></div></div>","null","FEEDBACK","","","","","","","","","","","",""
"html-keyboard-response","155","359976","0.0-7.0-1.24","61006f43a84b82fb439d7cba","bdp_wmem","Wed Mar 15 2023 13:32:32 GMT-0600 (Mountain Daylight Time)","590885","Match,No Match","","null","","","","","","<div class='trialBorder'><div class='vertical-center'><img src='img/fixation2_sml.jpg'</img></div></div>","null","FIX","","","","","","","","","","","",""
"html-keyboard-response","156","364478","0.0-7.0-2.24","61006f43a84b82fb439d7cba","bdp_wmem","Wed Mar 15 2023 13:32:32 GMT-0600 (Mountain Daylight Time)","590885","Match,No Match","","null","","","","","","<div class='trialBorder'><div class='vertical-center'><img style='vertical-align:center; align:center' src='img/fixation2_sml.jpg'></div><div class='arrayDiv3'><div class='tl'><img class='introPic' src='trustrating_stim/white_mw085.bmp'><br><font color='green'><strong>Share</strong></font></div><div class='tc'><img class='introPic' src='trustrating_stim/white_mw070.bmp'><br><font color='red'><strong>Keep</strong></font></div><div class='tr'><img class='introPic' src='trustrating_stim/white_mw012.bmp'><br><font color='red'><strong>Keep</strong></font></div></div></div>","null","ARRAY","3","trustrating_stim/white_mw085.bmp,trustrating_stim/white_mw070.bmp,trustrating_stim/white_mw012.bmp","1,0,0","noMatchFace","i","4500","","","","","",""
"html-keyboard-response","157","368480","0.0-7.0-3.24","61006f43a84b82fb439d7cba","bdp_wmem","Wed Mar 15 2023 13:32:32 GMT-0600 (Mountain Daylight Time)","590885","Match,No Match","","null","","","","","","<div class='trialBorder'><div class='vertical-center'><img src='img/fixation2_sml.jpg'</img></div></div>","null","DELAY","","","","","","","","","","","",""
"html-keyboard-response","158","370885","0.0-7.0-4.24","61006f43a84b82fb439d7cba","bdp_wmem","Wed Mar 15 2023 13:32:32 GMT-0600 (Mountain Daylight Time)","590885","Match,No Match","","2405","","","","","","<div class='trialBorder'><div class='targDiv'><div class='tc'><img class='introPic' src='trustrating_stim/white_mw003.bmp'><br><font color='red'><strong>Keep</strong></font></div></div><div class='respDiv'><div class='respDivL'>Match<br>(e)</div><div class='respDivR'>No Match<br>(i)</div></div></div>","e","TARGET","3","trustrating_stim/white_mw085.bmp,trustrating_stim/white_mw070.bmp,trustrating_stim/white_mw012.bmp","1,0,0","noMatchFace","i","4500","trustrating_stim/white_mw003.bmp","red","Keep","REAL","0",""
"html-keyboard-response","159","371386","0.0-7.0-5.24","61006f43a84b82fb439d7cba","bdp_wmem","Wed Mar 15 2023 13:32:32 GMT-0600 (Mountain Daylight Time)","590885","Match,No Match","","null","","","","","","<div class='trialBorder'><div class='vertical-center'><img src='img/error.jpg'></div><div class='respDiv'><div class='respDivL'><font style='color:orange'>Match<br>(e)</font></div><div class='respDivR'>No Match<br>(i)</div></div></div>","null","FEEDBACK","","","","","","","","","","","",""
"html-keyboard-response","160","371888","0.0-7.0-1.25","61006f43a84b82fb439d7cba","bdp_wmem","Wed Mar 15 2023 13:32:32 GMT-0600 (Mountain Daylight Time)","590885","Match,No Match","","null","","","","","","<div class='trialBorder'><div class='vertical-center'><img src='img/fixation2_sml.jpg'</img></div></div>","null","FIX","","","","","","","","","","","",""
"html-keyboard-response","161","373389","0.0-7.0-2.25","61006f43a84b82fb439d7cba","bdp_wmem","Wed Mar 15 2023 13:32:32 GMT-0600 (Mountain Daylight Time)","590885","Match,No Match","","null","","","","","","<div class='trialBorder'><div class='vertical-center'><img style='vertical-align:center; align:center' src='img/fixation2_sml.jpg'></div><div class='arrayDiv1'><div class='tc'><img class='introPic' src='trustrating_stim/white_mw013.bmp'><br><font color='green'><strong>Share</strong></font></div></div></div>","null","ARRAY","1","trustrating_stim/white_mw013.bmp","1","noMatchFace","i","1500","","","","","",""
"html-keyboard-response","162","377390","0.0-7.0-3.25","61006f43a84b82fb439d7cba","bdp_wmem","Wed Mar 15 2023 13:32:32 GMT-0600 (Mountain Daylight Time)","590885","Match,No Match","","null","","","","","","<div class='trialBorder'><div class='vertical-center'><img src='img/fixation2_sml.jpg'</img></div></div>","null","DELAY","","","","","","","","","","","",""
"html-keyboard-response","163","378778","0.0-7.0-4.25","61006f43a84b82fb439d7cba","bdp_wmem","Wed Mar 15 2023 13:32:32 GMT-0600 (Mountain Daylight Time)","590885","Match,No Match","","1388","","","","","","<div class='trialBorder'><div class='targDiv'><div class='tc'><img class='introPic' src='trustrating_stim/white_mw092.bmp'><br><font color='green'><strong>Share</strong></font></div></div><div class='respDiv'><div class='respDivL'>Match<br>(e)</div><div class='respDivR'>No Match<br>(i)</div></div></div>","i","TARGET","1","trustrating_stim/white_mw013.bmp","1","noMatchFace","i","1500","trustrating_stim/white_mw092.bmp","green","Share","REAL","1",""
"html-keyboard-response","164","379280","0.0-7.0-5.25","61006f43a84b82fb439d7cba","bdp_wmem","Wed Mar 15 2023 13:32:32 GMT-0600 (Mountain Daylight Time)","590885","Match,No Match","","null","","","","","","<div class='trialBorder'><div class='vertical-center'><img src='img/correct.jpg'></div><div class='respDiv'><div class='respDivL'>Match<br>(e)</div><div class='respDivR'><font style='color:orange'>No Match<br>(i)</font></div></div></div>","null","FEEDBACK","","","","","","","","","","","",""
"html-keyboard-response","165","379781","0.0-7.0-1.26","61006f43a84b82fb439d7cba","bdp_wmem","Wed Mar 15 2023 13:32:32 GMT-0600 (Mountain Daylight Time)","590885","Match,No Match","","null","","","","","","<div class='trialBorder'><div class='vertical-center'><img src='img/fixation2_sml.jpg'</img></div></div>","null","FIX","","","","","","","","","","","",""
"html-keyboard-response","166","381282","0.0-7.0-2.26","61006f43a84b82fb439d7cba","bdp_wmem","Wed Mar 15 2023 13:32:32 GMT-0600 (Mountain Daylight Time)","590885","Match,No Match","","null","","","","","","<div class='trialBorder'><div class='vertical-center'><img style='vertical-align:center; align:center' src='img/fixation2_sml.jpg'></div><div class='arrayDiv1'><div class='tc'><img class='introPic' src='trustrating_stim/white_mw040.bmp'><br><font color='green'><strong>Share</strong></font></div></div></div>","null","ARRAY","1","trustrating_stim/white_mw040.bmp","1","Match","e","1500","","","","","",""
"html-keyboard-response","167","385283","0.0-7.0-3.26","61006f43a84b82fb439d7cba","bdp_wmem","Wed Mar 15 2023 13:32:32 GMT-0600 (Mountain Daylight Time)","590885","Match,No Match","","null","","","","","","<div class='trialBorder'><div class='vertical-center'><img src='img/fixation2_sml.jpg'</img></div></div>","null","DELAY","","","","","","","","","","","",""
"html-keyboard-response","168","386725","0.0-7.0-4.26","61006f43a84b82fb439d7cba","bdp_wmem","Wed Mar 15 2023 13:32:32 GMT-0600 (Mountain Daylight Time)","590885","Match,No Match","","1440","","","","","","<div class='trialBorder'><div class='targDiv'><div class='tc'><img class='introPic' src='trustrating_stim/white_mw040.bmp'><br><font color='green'><strong>Share</strong></font></div></div><div class='respDiv'><div class='respDivL'>Match<br>(e)</div><div class='respDivR'>No Match<br>(i)</div></div></div>","e","TARGET","1","trustrating_stim/white_mw040.bmp","1","Match","e","1500","trustrating_stim/white_mw040.bmp","green","Share","REAL","1",""
"html-keyboard-response","169","387225","0.0-7.0-5.26","61006f43a84b82fb439d7cba","bdp_wmem","Wed Mar 15 2023 13:32:32 GMT-0600 (Mountain Daylight Time)","590885","Match,No Match","","null","","","","","","<div class='trialBorder'><div class='vertical-center'><img src='img/correct.jpg'></div><div class='respDiv'><div class='respDivL'><font style='color:orange'>Match<br>(e)</font></div><div class='respDivR'>No Match<br>(i)</div></div></div>","null","FEEDBACK","","","","","","","","","","","",""
"html-keyboard-response","170","387727","0.0-7.0-1.27","61006f43a84b82fb439d7cba","bdp_wmem","Wed Mar 15 2023 13:32:32 GMT-0600 (Mountain Daylight Time)","590885","Match,No Match","","null","","","","","","<div class='trialBorder'><div class='vertical-center'><img src='img/fixation2_sml.jpg'</img></div></div>","null","FIX","","","","","","","","","","","",""
"html-keyboard-response","171","392228","0.0-7.0-2.27","61006f43a84b82fb439d7cba","bdp_wmem","Wed Mar 15 2023 13:32:32 GMT-0600 (Mountain Daylight Time)","590885","Match,No Match","","null","","","","","","<div class='trialBorder'><div class='vertical-center'><img style='vertical-align:center; align:center' src='img/fixation2_sml.jpg'></div><div class='arrayDiv3'><div class='tl'><img class='introPic' src='trustrating_stim/white_mw012.bmp'><br><font color='red'><strong>Keep</strong></font></div><div class='tc'><img class='introPic' src='trustrating_stim/white_mw040.bmp'><br><font color='red'><strong>Keep</strong></font></div><div class='tr'><img class='introPic' src='trustrating_stim/white_mw091.bmp'><br><font color='green'><strong>Share</strong></font></div></div></div>","null","ARRAY","3","trustrating_stim/white_mw012.bmp,trustrating_stim/white_mw040.bmp,trustrating_stim/white_mw091.bmp","0,0,1","Match","e","4500","","","","","",""
"html-keyboard-response","172","396229","0.0-7.0-3.27","61006f43a84b82fb439d7cba","bdp_wmem","Wed Mar 15 2023 13:32:32 GMT-0600 (Mountain Daylight Time)","590885","Match,No Match","","null","","","","","","<div class='trialBorder'><div class='vertical-center'><img src='img/fixation2_sml.jpg'</img></div></div>","null","DELAY","","","","","","","","","","","",""
"html-keyboard-response","173","398327","0.0-7.0-4.27","61006f43a84b82fb439d7cba","bdp_wmem","Wed Mar 15 2023 13:32:32 GMT-0600 (Mountain Daylight Time)","590885","Match,No Match","","2098","","","","","","<div class='trialBorder'><div class='targDiv'><div class='tc'><img class='introPic' src='trustrating_stim/white_mw012.bmp'><br><font color='red'><strong>Keep</strong></font></div></div><div class='respDiv'><div class='respDivL'>Match<br>(e)</div><div class='respDivR'>No Match<br>(i)</div></div></div>","e","TARGET","3","trustrating_stim/white_mw012.bmp,trustrating_stim/white_mw040.bmp,trustrating_stim/white_mw091.bmp","0,0,1","Match","e","4500","trustrating_stim/white_mw012.bmp","red","Keep","REAL","1",""
"html-keyboard-response","174","398828","0.0-7.0-5.27","61006f43a84b82fb439d7cba","bdp_wmem","Wed Mar 15 2023 13:32:32 GMT-0600 (Mountain Daylight Time)","590885","Match,No Match","","null","","","","","","<div class='trialBorder'><div class='vertical-center'><img src='img/correct.jpg'></div><div class='respDiv'><div class='respDivL'><font style='color:orange'>Match<br>(e)</font></div><div class='respDivR'>No Match<br>(i)</div></div></div>","null","FEEDBACK","","","","","","","","","","","",""
"html-keyboard-response","175","399328","0.0-7.0-1.28","61006f43a84b82fb439d7cba","bdp_wmem","Wed Mar 15 2023 13:32:32 GMT-0600 (Mountain Daylight Time)","590885","Match,No Match","","null","","","","","","<div class='trialBorder'><div class='vertical-center'><img src='img/fixation2_sml.jpg'</img></div></div>","null","FIX","","","","","","","","","","","",""
"html-keyboard-response","176","400829","0.0-7.0-2.28","61006f43a84b82fb439d7cba","bdp_wmem","Wed Mar 15 2023 13:32:32 GMT-0600 (Mountain Daylight Time)","590885","Match,No Match","","null","","","","","","<div class='trialBorder'><div class='vertical-center'><img style='vertical-align:center; align:center' src='img/fixation2_sml.jpg'></div><div class='arrayDiv1'><div class='tc'><img class='introPic' src='trustrating_stim/white_mw070.bmp'><br><font color='green'><strong>Share</strong></font></div></div></div>","null","ARRAY","1","trustrating_stim/white_mw070.bmp","1","noMatchFace","i","1500","","","","","",""
"html-keyboard-response","177","404831","0.0-7.0-3.28","61006f43a84b82fb439d7cba","bdp_wmem","Wed Mar 15 2023 13:32:32 GMT-0600 (Mountain Daylight Time)","590885","Match,No Match","","null","","","","","","<div class='trialBorder'><div class='vertical-center'><img src='img/fixation2_sml.jpg'</img></div></div>","null","DELAY","","","","","","","","","","","",""
"html-keyboard-response","178","405958","0.0-7.0-4.28","61006f43a84b82fb439d7cba","bdp_wmem","Wed Mar 15 2023 13:32:32 GMT-0600 (Mountain Daylight Time)","590885","Match,No Match","","1127","","","","","","<div class='trialBorder'><div class='targDiv'><div class='tc'><img class='introPic' src='trustrating_stim/white_mw013.bmp'><br><font color='green'><strong>Share</strong></font></div></div><div class='respDiv'><div class='respDivL'>Match<br>(e)</div><div class='respDivR'>No Match<br>(i)</div></div></div>","i","TARGET","1","trustrating_stim/white_mw070.bmp","1","noMatchFace","i","1500","trustrating_stim/white_mw013.bmp","green","Share","REAL","1",""
"html-keyboard-response","179","406460","0.0-7.0-5.28","61006f43a84b82fb439d7cba","bdp_wmem","Wed Mar 15 2023 13:32:32 GMT-0600 (Mountain Daylight Time)","590885","Match,No Match","","null","","","","","","<div class='trialBorder'><div class='vertical-center'><img src='img/correct.jpg'></div><div class='respDiv'><div class='respDivL'>Match<br>(e)</div><div class='respDivR'><font style='color:orange'>No Match<br>(i)</font></div></div></div>","null","FEEDBACK","","","","","","","","","","","",""
"html-keyboard-response","180","406961","0.0-7.0-1.29","61006f43a84b82fb439d7cba","bdp_wmem","Wed Mar 15 2023 13:32:32 GMT-0600 (Mountain Daylight Time)","590885","Match,No Match","","null","","","","","","<div class='trialBorder'><div class='vertical-center'><img src='img/fixation2_sml.jpg'</img></div></div>","null","FIX","","","","","","","","","","","",""
"html-keyboard-response","181","409962","0.0-7.0-2.29","61006f43a84b82fb439d7cba","bdp_wmem","Wed Mar 15 2023 13:32:32 GMT-0600 (Mountain Daylight Time)","590885","Match,No Match","","null","","","","","","<div class='trialBorder'><div class='vertical-center'><img style='vertical-align:center; align:center' src='img/fixation2_sml.jpg'></div><div class='arrayDiv2'><div class='tl'><img class='introPic' src='trustrating_stim/white_mw010.bmp'><br><font color='green'><strong>Share</strong></font></div><div class='tr'><img class='introPic' src='trustrating_stim/white_mw013.bmp'><br><font color='red'><strong>Keep</strong></font></div></div></div>","null","ARRAY","2","trustrating_stim/white_mw010.bmp,trustrating_stim/white_mw013.bmp","1,0","noMatchFace","i","3000","","","","","",""
"html-keyboard-response","182","413963","0.0-7.0-3.29","61006f43a84b82fb439d7cba","bdp_wmem","Wed Mar 15 2023 13:32:32 GMT-0600 (Mountain Daylight Time)","590885","Match,No Match","","null","","","","","","<div class='trialBorder'><div class='vertical-center'><img src='img/fixation2_sml.jpg'</img></div></div>","null","DELAY","","","","","","","","","","","",""
"html-keyboard-response","183","415355","0.0-7.0-4.29","61006f43a84b82fb439d7cba","bdp_wmem","Wed Mar 15 2023 13:32:32 GMT-0600 (Mountain Daylight Time)","590885","Match,No Match","","1391","","","","","","<div class='trialBorder'><div class='targDiv'><div class='tc'><img class='introPic' src='trustrating_stim/white_mw092.bmp'><br><font color='green'><strong>Share</strong></font></div></div><div class='respDiv'><div class='respDivL'>Match<br>(e)</div><div class='respDivR'>No Match<br>(i)</div></div></div>","i","TARGET","2","trustrating_stim/white_mw010.bmp,trustrating_stim/white_mw013.bmp","1,0","noMatchFace","i","3000","trustrating_stim/white_mw092.bmp","green","Share","REAL","1",""
"html-keyboard-response","184","415856","0.0-7.0-5.29","61006f43a84b82fb439d7cba","bdp_wmem","Wed Mar 15 2023 13:32:32 GMT-0600 (Mountain Daylight Time)","590885","Match,No Match","","null","","","","","","<div class='trialBorder'><div class='vertical-center'><img src='img/correct.jpg'></div><div class='respDiv'><div class='respDivL'>Match<br>(e)</div><div class='respDivR'><font style='color:orange'>No Match<br>(i)</font></div></div></div>","null","FEEDBACK","","","","","","","","","","","",""
"html-keyboard-response","185","416357","0.0-7.0-1.30","61006f43a84b82fb439d7cba","bdp_wmem","Wed Mar 15 2023 13:32:32 GMT-0600 (Mountain Daylight Time)","590885","Match,No Match","","null","","","","","","<div class='trialBorder'><div class='vertical-center'><img src='img/fixation2_sml.jpg'</img></div></div>","null","FIX","","","","","","","","","","","",""
"html-keyboard-response","186","419359","0.0-7.0-2.30","61006f43a84b82fb439d7cba","bdp_wmem","Wed Mar 15 2023 13:32:32 GMT-0600 (Mountain Daylight Time)","590885","Match,No Match","","null","","","","","","<div class='trialBorder'><div class='vertical-center'><img style='vertical-align:center; align:center' src='img/fixation2_sml.jpg'></div><div class='arrayDiv2'><div class='tl'><img class='introPic' src='trustrating_stim/white_mw010.bmp'><br><font color='red'><strong>Keep</strong></font></div><div class='tr'><img class='introPic' src='trustrating_stim/white_mw040.bmp'><br><font color='green'><strong>Share</strong></font></div></div></div>","null","ARRAY","2","trustrating_stim/white_mw010.bmp,trustrating_stim/white_mw040.bmp","0,1","Match","e","3000","","","","","",""
"html-keyboard-response","187","423360","0.0-7.0-3.30","61006f43a84b82fb439d7cba","bdp_wmem","Wed Mar 15 2023 13:32:32 GMT-0600 (Mountain Daylight Time)","590885","Match,No Match","","null","","","","","","<div class='trialBorder'><div class='vertical-center'><img src='img/fixation2_sml.jpg'</img></div></div>","null","DELAY","","","","","","","","","","","",""
