"event","trial","time","trialtype","subject_id","task","startTime","totalTime","labels","trial_type","trial_index","time_elapsed","internal_node_id","numBlurs","view_history","rt","success","stimulus","key_press","stimType","arraySize","arrayFaces","arrayOutcomes","matchType","corrResp","arrayDur","targFace","targCol","targOutcome","trialType","corr"
"focus","0","0","focusevent","63b82398bbe6a599972413ad","bdp_wmem","Mon Mar 13 2023 15:20:48 GMT-0400 (Eastern Daylight Time)","762627","Match,No Match","","","","","","","","","","","","","","","","","","","","","",""
"","","","","63b82398bbe6a599972413ad","bdp_wmem","Mon Mar 13 2023 15:20:48 GMT-0400 (Eastern Daylight Time)","762627","Match,No Match","pavlovia","0","3","0.0-0.0","","","","","","","","","","","","","","","","","",""
"blur","1","2884","blurevent","63b82398bbe6a599972413ad","bdp_wmem","Mon Mar 13 2023 15:20:48 GMT-0400 (Eastern Daylight Time)","762627","Match,No Match","","","","","1","","","","","","","","","","","","","","","","",""
"focus","1","92700","focusevent","63b82398bbe6a599972413ad","bdp_wmem","Mon Mar 13 2023 15:20:48 GMT-0400 (Eastern Daylight Time)","762627","Match,No Match","","","","","","","","","","","","","","","","","","","","","",""
"","","","","63b82398bbe6a599972413ad","bdp_wmem","Mon Mar 13 2023 15:20:48 GMT-0400 (Eastern Daylight Time)","762627","Match,No Match","instructions","1","95150","0.0-1.0","","[{""page_index"":0,""viewing_time"":95145}]","95146","","","","","","","","","","","","","","",""
"fullscreenexit","2","99041","fullscreenexit","63b82398bbe6a599972413ad","bdp_wmem","Mon Mar 13 2023 15:20:48 GMT-0400 (Eastern Daylight Time)","762627","Match,No Match","","","","","","","","","","","","","","","","","","","","","",""
"","","","","63b82398bbe6a599972413ad","bdp_wmem","Mon Mar 13 2023 15:20:48 GMT-0400 (Eastern Daylight Time)","762627","Match,No Match","fullscreen","2","99816","0.0-2.0","","","","true","","","","","","","","","","","","","",""
"","","","fullscreenfail","63b82398bbe6a599972413ad","bdp_wmem","Mon Mar 13 2023 15:20:48 GMT-0400 (Eastern Daylight Time)","762627","Match,No Match","image-keyboard-response","3","101467","0.0-3.0-0.0","","","1648","","","32","","","","","","","","","","","",""
"","","","","63b82398bbe6a599972413ad","bdp_wmem","Mon Mar 13 2023 15:20:48 GMT-0400 (Eastern Daylight Time)","762627","Match,No Match","instructions","4","209952","0.0-4.0","","[{""page_index"":0,""viewing_time"":23519},{""page_index"":1,""viewing_time"":37178},{""page_index"":2,""viewing_time"":16463},{""page_index"":3,""viewing_time"":19386},{""page_index"":4,""viewing_time"":11683}]","108229","","","","","","","","","","","","","","",""
"","","","","63b82398bbe6a599972413ad","bdp_wmem","Mon Mar 13 2023 15:20:48 GMT-0400 (Eastern Daylight Time)","762627","Match,No Match","html-keyboard-response","5","210470","0.0-5.0-1.0","","","null","","<div class='trialBorder'><div class='vertical-center'><img src='img/fixation2_sml.jpg'</img></div></div>","null","FIX","","","","","","","","","","",""
"","","","","63b82398bbe6a599972413ad","bdp_wmem","Mon Mar 13 2023 15:20:48 GMT-0400 (Eastern Daylight Time)","762627","Match,No Match","html-keyboard-response","6","211983","0.0-5.0-2.0","","","null","","<div class='trialBorder'><div class='vertical-center'><img style='vertical-align:center; align:center' src='img/fixation2_sml.jpg'></div><div class='arrayDiv1'><div class='tc'><img class='introPic' src='trustrating_stim/white_mw012.bmp'><br><font color='red'><strong>Keep</strong></font></div></div></div>","null","ARRAY","1","trustrating_stim/white_mw012.bmp","0","Match","e","1500","","","","",""
"","","","","63b82398bbe6a599972413ad","bdp_wmem","Mon Mar 13 2023 15:20:48 GMT-0400 (Eastern Daylight Time)","762627","Match,No Match","html-keyboard-response","7","215990","0.0-5.0-3.0","","","null","","<div class='trialBorder'><div class='vertical-center'><img src='img/fixation2_sml.jpg'</img></div></div>","null","DELAY","","","","","","","","","","",""
"","","","","63b82398bbe6a599972413ad","bdp_wmem","Mon Mar 13 2023 15:20:48 GMT-0400 (Eastern Daylight Time)","762627","Match,No Match","html-keyboard-response","8","224147","0.0-5.0-4.0","","","8154","","<div class='trialBorder'><div class='targDiv'><div class='tc'><img class='introPic' src='trustrating_stim/white_mw012.bmp'><br><font color='red'><strong>Keep</strong></font></div></div><div class='respDiv'><div class='respDivL'>Match<br>(e)</div><div class='respDivR'>No Match<br>(i)</div></div></div>","i","TARGET","1","trustrating_stim/white_mw012.bmp","0","Match","e","1500","trustrating_stim/white_mw012.bmp","red","Keep","PRACTICE","0"
"","","","","63b82398bbe6a599972413ad","bdp_wmem","Mon Mar 13 2023 15:20:48 GMT-0400 (Eastern Daylight Time)","762627","Match,No Match","html-keyboard-response","9","224649","0.0-5.0-5.0","","","null","","<div class='trialBorder'><div class='vertical-center'><img src='img/error.jpg'></div><div class='respDiv'><div class='respDivL'>Match<br>(e)</div><div class='respDivR'><font style='color:orange'>No Match<br>(i)</font></div></div></div>","null","FEEDBACK","","","","","","","","","","",""
"","","","","63b82398bbe6a599972413ad","bdp_wmem","Mon Mar 13 2023 15:20:48 GMT-0400 (Eastern Daylight Time)","762627","Match,No Match","html-keyboard-response","10","225154","0.0-5.0-1.1","","","null","","<div class='trialBorder'><div class='vertical-center'><img src='img/fixation2_sml.jpg'</img></div></div>","null","FIX","","","","","","","","","","",""
"","","","","63b82398bbe6a599972413ad","bdp_wmem","Mon Mar 13 2023 15:20:48 GMT-0400 (Eastern Daylight Time)","762627","Match,No Match","html-keyboard-response","11","226657","0.0-5.0-2.1","","","null","","<div class='trialBorder'><div class='vertical-center'><img style='vertical-align:center; align:center' src='img/fixation2_sml.jpg'></div><div class='arrayDiv1'><div class='tc'><img class='introPic' src='trustrating_stim/white_mw042.bmp'><br><font color='red'><strong>Keep</strong></font></div></div></div>","null","ARRAY","1","trustrating_stim/white_mw042.bmp","0","noMatchFace","i","1500","","","","",""
"","","","","63b82398bbe6a599972413ad","bdp_wmem","Mon Mar 13 2023 15:20:48 GMT-0400 (Eastern Daylight Time)","762627","Match,No Match","html-keyboard-response","12","230665","0.0-5.0-3.1","","","null","","<div class='trialBorder'><div class='vertical-center'><img src='img/fixation2_sml.jpg'</img></div></div>","null","DELAY","","","","","","","","","","",""
"","","","","63b82398bbe6a599972413ad","bdp_wmem","Mon Mar 13 2023 15:20:48 GMT-0400 (Eastern Daylight Time)","762627","Match,No Match","html-keyboard-response","13","233766","0.0-5.0-4.1","","","3099","","<div class='trialBorder'><div class='targDiv'><div class='tc'><img class='introPic' src='trustrating_stim/white_mw085.bmp'><br><font color='red'><strong>Keep</strong></font></div></div><div class='respDiv'><div class='respDivL'>Match<br>(e)</div><div class='respDivR'>No Match<br>(i)</div></div></div>","i","TARGET","1","trustrating_stim/white_mw042.bmp","0","noMatchFace","i","1500","trustrating_stim/white_mw085.bmp","red","Keep","PRACTICE","1"
"","","","","63b82398bbe6a599972413ad","bdp_wmem","Mon Mar 13 2023 15:20:48 GMT-0400 (Eastern Daylight Time)","762627","Match,No Match","html-keyboard-response","14","234281","0.0-5.0-5.1","","","null","","<div class='trialBorder'><div class='vertical-center'><img src='img/correct.jpg'></div><div class='respDiv'><div class='respDivL'>Match<br>(e)</div><div class='respDivR'><font style='color:orange'>No Match<br>(i)</font></div></div></div>","null","FEEDBACK","","","","","","","","","","",""
"","","","","63b82398bbe6a599972413ad","bdp_wmem","Mon Mar 13 2023 15:20:48 GMT-0400 (Eastern Daylight Time)","762627","Match,No Match","html-keyboard-response","15","234786","0.0-5.0-1.2","","","null","","<div class='trialBorder'><div class='vertical-center'><img src='img/fixation2_sml.jpg'</img></div></div>","null","FIX","","","","","","","","","","",""
"","","","","63b82398bbe6a599972413ad","bdp_wmem","Mon Mar 13 2023 15:20:48 GMT-0400 (Eastern Daylight Time)","762627","Match,No Match","html-keyboard-response","16","237801","0.0-5.0-2.2","","","null","","<div class='trialBorder'><div class='vertical-center'><img style='vertical-align:center; align:center' src='img/fixation2_sml.jpg'></div><div class='arrayDiv2'><div class='tl'><img class='introPic' src='trustrating_stim/white_mw085.bmp'><br><font color='green'><strong>Share</strong></font></div><div class='tr'><img class='introPic' src='trustrating_stim/white_mw042.bmp'><br><font color='red'><strong>Keep</strong></font></div></div></div>","null","ARRAY","2","trustrating_stim/white_mw085.bmp,trustrating_stim/white_mw042.bmp","1,0","noMatchFace","i","3000","","","","",""
"","","","","63b82398bbe6a599972413ad","bdp_wmem","Mon Mar 13 2023 15:20:48 GMT-0400 (Eastern Daylight Time)","762627","Match,No Match","html-keyboard-response","17","241807","0.0-5.0-3.2","","","null","","<div class='trialBorder'><div class='vertical-center'><img src='img/fixation2_sml.jpg'</img></div></div>","null","DELAY","","","","","","","","","","",""
"","","","","63b82398bbe6a599972413ad","bdp_wmem","Mon Mar 13 2023 15:20:48 GMT-0400 (Eastern Daylight Time)","762627","Match,No Match","html-keyboard-response","18","243771","0.0-5.0-4.2","","","1962","","<div class='trialBorder'><div class='targDiv'><div class='tc'><img class='introPic' src='trustrating_stim/white_mw078.bmp'><br><font color='green'><strong>Share</strong></font></div></div><div class='respDiv'><div class='respDivL'>Match<br>(e)</div><div class='respDivR'>No Match<br>(i)</div></div></div>","i","TARGET","2","trustrating_stim/white_mw085.bmp,trustrating_stim/white_mw042.bmp","1,0","noMatchFace","i","3000","trustrating_stim/white_mw078.bmp","green","Share","PRACTICE","1"
"","","","","63b82398bbe6a599972413ad","bdp_wmem","Mon Mar 13 2023 15:20:48 GMT-0400 (Eastern Daylight Time)","762627","Match,No Match","html-keyboard-response","19","244287","0.0-5.0-5.2","","","null","","<div class='trialBorder'><div class='vertical-center'><img src='img/correct.jpg'></div><div class='respDiv'><div class='respDivL'>Match<br>(e)</div><div class='respDivR'><font style='color:orange'>No Match<br>(i)</font></div></div></div>","null","FEEDBACK","","","","","","","","","","",""
"","","","","63b82398bbe6a599972413ad","bdp_wmem","Mon Mar 13 2023 15:20:48 GMT-0400 (Eastern Daylight Time)","762627","Match,No Match","html-keyboard-response","20","244789","0.0-5.0-1.3","","","null","","<div class='trialBorder'><div class='vertical-center'><img src='img/fixation2_sml.jpg'</img></div></div>","null","FIX","","","","","","","","","","",""
"","","","","63b82398bbe6a599972413ad","bdp_wmem","Mon Mar 13 2023 15:20:48 GMT-0400 (Eastern Daylight Time)","762627","Match,No Match","html-keyboard-response","21","249299","0.0-5.0-2.3","","","null","","<div class='trialBorder'><div class='vertical-center'><img style='vertical-align:center; align:center' src='img/fixation2_sml.jpg'></div><div class='arrayDiv3'><div class='tl'><img class='introPic' src='trustrating_stim/white_mw070.bmp'><br><font color='red'><strong>Keep</strong></font></div><div class='tc'><img class='introPic' src='trustrating_stim/white_mw078.bmp'><br><font color='red'><strong>Keep</strong></font></div><div class='tr'><img class='introPic' src='trustrating_stim/white_mw012.bmp'><br><font color='green'><strong>Share</strong></font></div></div></div>","null","ARRAY","3","trustrating_stim/white_mw070.bmp,trustrating_stim/white_mw078.bmp,trustrating_stim/white_mw012.bmp","0,0,1","noMatchOutcome","i","4500","","","","",""
"","","","","63b82398bbe6a599972413ad","bdp_wmem","Mon Mar 13 2023 15:20:48 GMT-0400 (Eastern Daylight Time)","762627","Match,No Match","html-keyboard-response","22","253308","0.0-5.0-3.3","","","null","","<div class='trialBorder'><div class='vertical-center'><img src='img/fixation2_sml.jpg'</img></div></div>","null","DELAY","","","","","","","","","","",""
"","","","","63b82398bbe6a599972413ad","bdp_wmem","Mon Mar 13 2023 15:20:48 GMT-0400 (Eastern Daylight Time)","762627","Match,No Match","html-keyboard-response","23","255305","0.0-5.0-4.3","","","1996","","<div class='trialBorder'><div class='targDiv'><div class='tc'><img class='introPic' src='trustrating_stim/white_mw078.bmp'><br><font color='green'><strong>Share</strong></font></div></div><div class='respDiv'><div class='respDivL'>Match<br>(e)</div><div class='respDivR'>No Match<br>(i)</div></div></div>","i","TARGET","3","trustrating_stim/white_mw070.bmp,trustrating_stim/white_mw078.bmp,trustrating_stim/white_mw012.bmp","0,0,1","noMatchOutcome","i","4500","trustrating_stim/white_mw078.bmp","green","Share","PRACTICE","1"
"","","","","63b82398bbe6a599972413ad","bdp_wmem","Mon Mar 13 2023 15:20:48 GMT-0400 (Eastern Daylight Time)","762627","Match,No Match","html-keyboard-response","24","255816","0.0-5.0-5.3","","","null","","<div class='trialBorder'><div class='vertical-center'><img src='img/correct.jpg'></div><div class='respDiv'><div class='respDivL'>Match<br>(e)</div><div class='respDivR'><font style='color:orange'>No Match<br>(i)</font></div></div></div>","null","FEEDBACK","","","","","","","","","","",""
"","","","","63b82398bbe6a599972413ad","bdp_wmem","Mon Mar 13 2023 15:20:48 GMT-0400 (Eastern Daylight Time)","762627","Match,No Match","html-keyboard-response","25","256320","0.0-5.0-1.4","","","null","","<div class='trialBorder'><div class='vertical-center'><img src='img/fixation2_sml.jpg'</img></div></div>","null","FIX","","","","","","","","","","",""
"","","","","63b82398bbe6a599972413ad","bdp_wmem","Mon Mar 13 2023 15:20:48 GMT-0400 (Eastern Daylight Time)","762627","Match,No Match","html-keyboard-response","26","259326","0.0-5.0-2.4","","","null","","<div class='trialBorder'><div class='vertical-center'><img style='vertical-align:center; align:center' src='img/fixation2_sml.jpg'></div><div class='arrayDiv2'><div class='tl'><img class='introPic' src='trustrating_stim/white_mw038.bmp'><br><font color='green'><strong>Share</strong></font></div><div class='tr'><img class='introPic' src='trustrating_stim/white_mw092.bmp'><br><font color='red'><strong>Keep</strong></font></div></div></div>","null","ARRAY","2","trustrating_stim/white_mw038.bmp,trustrating_stim/white_mw092.bmp","1,0","Match","e","3000","","","","",""
"","","","","63b82398bbe6a599972413ad","bdp_wmem","Mon Mar 13 2023 15:20:48 GMT-0400 (Eastern Daylight Time)","762627","Match,No Match","html-keyboard-response","27","263339","0.0-5.0-3.4","","","null","","<div class='trialBorder'><div class='vertical-center'><img src='img/fixation2_sml.jpg'</img></div></div>","null","DELAY","","","","","","","","","","",""
"","","","","63b82398bbe6a599972413ad","bdp_wmem","Mon Mar 13 2023 15:20:48 GMT-0400 (Eastern Daylight Time)","762627","Match,No Match","html-keyboard-response","28","265114","0.0-5.0-4.4","","","1773","","<div class='trialBorder'><div class='targDiv'><div class='tc'><img class='introPic' src='trustrating_stim/white_mw038.bmp'><br><font color='green'><strong>Share</strong></font></div></div><div class='respDiv'><div class='respDivL'>Match<br>(e)</div><div class='respDivR'>No Match<br>(i)</div></div></div>","e","TARGET","2","trustrating_stim/white_mw038.bmp,trustrating_stim/white_mw092.bmp","1,0","Match","e","3000","trustrating_stim/white_mw038.bmp","green","Share","PRACTICE","1"
"","","","","63b82398bbe6a599972413ad","bdp_wmem","Mon Mar 13 2023 15:20:48 GMT-0400 (Eastern Daylight Time)","762627","Match,No Match","html-keyboard-response","29","265627","0.0-5.0-5.4","","","null","","<div class='trialBorder'><div class='vertical-center'><img src='img/correct.jpg'></div><div class='respDiv'><div class='respDivL'><font style='color:orange'>Match<br>(e)</font></div><div class='respDivR'>No Match<br>(i)</div></div></div>","null","FEEDBACK","","","","","","","","","","",""
"","","","","63b82398bbe6a599972413ad","bdp_wmem","Mon Mar 13 2023 15:20:48 GMT-0400 (Eastern Daylight Time)","762627","Match,No Match","html-keyboard-response","30","266131","0.0-5.0-1.5","","","null","","<div class='trialBorder'><div class='vertical-center'><img src='img/fixation2_sml.jpg'</img></div></div>","null","FIX","","","","","","","","","","",""
"","","","","63b82398bbe6a599972413ad","bdp_wmem","Mon Mar 13 2023 15:20:48 GMT-0400 (Eastern Daylight Time)","762627","Match,No Match","html-keyboard-response","31","270637","0.0-5.0-2.5","","","null","","<div class='trialBorder'><div class='vertical-center'><img style='vertical-align:center; align:center' src='img/fixation2_sml.jpg'></div><div class='arrayDiv3'><div class='tl'><img class='introPic' src='trustrating_stim/white_mw078.bmp'><br><font color='red'><strong>Keep</strong></font></div><div class='tc'><img class='introPic' src='trustrating_stim/white_mw092.bmp'><br><font color='green'><strong>Share</strong></font></div><div class='tr'><img class='introPic' src='trustrating_stim/white_mw038.bmp'><br><font color='red'><strong>Keep</strong></font></div></div></div>","null","ARRAY","3","trustrating_stim/white_mw078.bmp,trustrating_stim/white_mw092.bmp,trustrating_stim/white_mw038.bmp","0,1,0","Match","e","4500","","","","",""
"","","","","63b82398bbe6a599972413ad","bdp_wmem","Mon Mar 13 2023 15:20:48 GMT-0400 (Eastern Daylight Time)","762627","Match,No Match","html-keyboard-response","32","274651","0.0-5.0-3.5","","","null","","<div class='trialBorder'><div class='vertical-center'><img src='img/fixation2_sml.jpg'</img></div></div>","null","DELAY","","","","","","","","","","",""
"","","","","63b82398bbe6a599972413ad","bdp_wmem","Mon Mar 13 2023 15:20:48 GMT-0400 (Eastern Daylight Time)","762627","Match,No Match","html-keyboard-response","33","277380","0.0-5.0-4.5","","","2728","","<div class='trialBorder'><div class='targDiv'><div class='tc'><img class='introPic' src='trustrating_stim/white_mw078.bmp'><br><font color='red'><strong>Keep</strong></font></div></div><div class='respDiv'><div class='respDivL'>Match<br>(e)</div><div class='respDivR'>No Match<br>(i)</div></div></div>","e","TARGET","3","trustrating_stim/white_mw078.bmp,trustrating_stim/white_mw092.bmp,trustrating_stim/white_mw038.bmp","0,1,0","Match","e","4500","trustrating_stim/white_mw078.bmp","red","Keep","PRACTICE","1"
"","","","","63b82398bbe6a599972413ad","bdp_wmem","Mon Mar 13 2023 15:20:48 GMT-0400 (Eastern Daylight Time)","762627","Match,No Match","html-keyboard-response","34","277886","0.0-5.0-5.5","","","null","","<div class='trialBorder'><div class='vertical-center'><img src='img/correct.jpg'></div><div class='respDiv'><div class='respDivL'><font style='color:orange'>Match<br>(e)</font></div><div class='respDivR'>No Match<br>(i)</div></div></div>","null","FEEDBACK","","","","","","","","","","",""
"","","","","63b82398bbe6a599972413ad","bdp_wmem","Mon Mar 13 2023 15:20:48 GMT-0400 (Eastern Daylight Time)","762627","Match,No Match","instructions","35","281679","0.0-6.0","","[{""page_index"":0,""viewing_time"":3793}]","3793","","","","","","","","","","","","","","",""
"","","","","63b82398bbe6a599972413ad","bdp_wmem","Mon Mar 13 2023 15:20:48 GMT-0400 (Eastern Daylight Time)","762627","Match,No Match","html-keyboard-response","36","282182","0.0-7.0-1.0","","","null","","<div class='trialBorder'><div class='vertical-center'><img src='img/fixation2_sml.jpg'</img></div></div>","null","FIX","","","","","","","","","","",""
"","","","","63b82398bbe6a599972413ad","bdp_wmem","Mon Mar 13 2023 15:20:48 GMT-0400 (Eastern Daylight Time)","762627","Match,No Match","html-keyboard-response","37","286698","0.0-7.0-2.0","","","null","","<div class='trialBorder'><div class='vertical-center'><img style='vertical-align:center; align:center' src='img/fixation2_sml.jpg'></div><div class='arrayDiv3'><div class='tl'><img class='introPic' src='trustrating_stim/white_mw010.bmp'><br><font color='green'><strong>Share</strong></font></div><div class='tc'><img class='introPic' src='trustrating_stim/white_mw003.bmp'><br><font color='red'><strong>Keep</strong></font></div><div class='tr'><img class='introPic' src='trustrating_stim/white_mw012.bmp'><br><font color='green'><strong>Share</strong></font></div></div></div>","null","ARRAY","3","trustrating_stim/white_mw010.bmp,trustrating_stim/white_mw003.bmp,trustrating_stim/white_mw012.bmp","1,0,1","Match","e","4500","","","","",""
"","","","","63b82398bbe6a599972413ad","bdp_wmem","Mon Mar 13 2023 15:20:48 GMT-0400 (Eastern Daylight Time)","762627","Match,No Match","html-keyboard-response","38","290701","0.0-7.0-3.0","","","null","","<div class='trialBorder'><div class='vertical-center'><img src='img/fixation2_sml.jpg'</img></div></div>","null","DELAY","","","","","","","","","","",""
"","","","","63b82398bbe6a599972413ad","bdp_wmem","Mon Mar 13 2023 15:20:48 GMT-0400 (Eastern Daylight Time)","762627","Match,No Match","html-keyboard-response","39","292407","0.0-7.0-4.0","","","1706","","<div class='trialBorder'><div class='targDiv'><div class='tc'><img class='introPic' src='trustrating_stim/white_mw012.bmp'><br><font color='green'><strong>Share</strong></font></div></div><div class='respDiv'><div class='respDivL'>Match<br>(e)</div><div class='respDivR'>No Match<br>(i)</div></div></div>","e","TARGET","3","trustrating_stim/white_mw010.bmp,trustrating_stim/white_mw003.bmp,trustrating_stim/white_mw012.bmp","1,0,1","Match","e","4500","trustrating_stim/white_mw012.bmp","green","Share","REAL","1"
"","","","","63b82398bbe6a599972413ad","bdp_wmem","Mon Mar 13 2023 15:20:48 GMT-0400 (Eastern Daylight Time)","762627","Match,No Match","html-keyboard-response","40","292917","0.0-7.0-5.0","","","null","","<div class='trialBorder'><div class='vertical-center'><img src='img/correct.jpg'></div><div class='respDiv'><div class='respDivL'><font style='color:orange'>Match<br>(e)</font></div><div class='respDivR'>No Match<br>(i)</div></div></div>","null","FEEDBACK","","","","","","","","","","",""
"","","","","63b82398bbe6a599972413ad","bdp_wmem","Mon Mar 13 2023 15:20:48 GMT-0400 (Eastern Daylight Time)","762627","Match,No Match","html-keyboard-response","41","293422","0.0-7.0-1.1","","","null","","<div class='trialBorder'><div class='vertical-center'><img src='img/fixation2_sml.jpg'</img></div></div>","null","FIX","","","","","","","","","","",""
"","","","","63b82398bbe6a599972413ad","bdp_wmem","Mon Mar 13 2023 15:20:48 GMT-0400 (Eastern Daylight Time)","762627","Match,No Match","html-keyboard-response","42","297929","0.0-7.0-2.1","","","null","","<div class='trialBorder'><div class='vertical-center'><img style='vertical-align:center; align:center' src='img/fixation2_sml.jpg'></div><div class='arrayDiv3'><div class='tl'><img class='introPic' src='trustrating_stim/white_mw012.bmp'><br><font color='green'><strong>Share</strong></font></div><div class='tc'><img class='introPic' src='trustrating_stim/white_mw038.bmp'><br><font color='red'><strong>Keep</strong></font></div><div class='tr'><img class='introPic' src='trustrating_stim/white_mw078.bmp'><br><font color='red'><strong>Keep</strong></font></div></div></div>","null","ARRAY","3","trustrating_stim/white_mw012.bmp,trustrating_stim/white_mw038.bmp,trustrating_stim/white_mw078.bmp","1,0,0","Match","e","4500","","","","",""
"","","","","63b82398bbe6a599972413ad","bdp_wmem","Mon Mar 13 2023 15:20:48 GMT-0400 (Eastern Daylight Time)","762627","Match,No Match","html-keyboard-response","43","301938","0.0-7.0-3.1","","","null","","<div class='trialBorder'><div class='vertical-center'><img src='img/fixation2_sml.jpg'</img></div></div>","null","DELAY","","","","","","","","","","",""
"","","","","63b82398bbe6a599972413ad","bdp_wmem","Mon Mar 13 2023 15:20:48 GMT-0400 (Eastern Daylight Time)","762627","Match,No Match","html-keyboard-response","44","303956","0.0-7.0-4.1","","","2017","","<div class='trialBorder'><div class='targDiv'><div class='tc'><img class='introPic' src='trustrating_stim/white_mw012.bmp'><br><font color='green'><strong>Share</strong></font></div></div><div class='respDiv'><div class='respDivL'>Match<br>(e)</div><div class='respDivR'>No Match<br>(i)</div></div></div>","e","TARGET","3","trustrating_stim/white_mw012.bmp,trustrating_stim/white_mw038.bmp,trustrating_stim/white_mw078.bmp","1,0,0","Match","e","4500","trustrating_stim/white_mw012.bmp","green","Share","REAL","1"
"","","","","63b82398bbe6a599972413ad","bdp_wmem","Mon Mar 13 2023 15:20:48 GMT-0400 (Eastern Daylight Time)","762627","Match,No Match","html-keyboard-response","45","304469","0.0-7.0-5.1","","","null","","<div class='trialBorder'><div class='vertical-center'><img src='img/correct.jpg'></div><div class='respDiv'><div class='respDivL'><font style='color:orange'>Match<br>(e)</font></div><div class='respDivR'>No Match<br>(i)</div></div></div>","null","FEEDBACK","","","","","","","","","","",""
"","","","","63b82398bbe6a599972413ad","bdp_wmem","Mon Mar 13 2023 15:20:48 GMT-0400 (Eastern Daylight Time)","762627","Match,No Match","html-keyboard-response","46","304980","0.0-7.0-1.2","","","null","","<div class='trialBorder'><div class='vertical-center'><img src='img/fixation2_sml.jpg'</img></div></div>","null","FIX","","","","","","","","","","",""
"","","","","63b82398bbe6a599972413ad","bdp_wmem","Mon Mar 13 2023 15:20:48 GMT-0400 (Eastern Daylight Time)","762627","Match,No Match","html-keyboard-response","47","307985","0.0-7.0-2.2","","","null","","<div class='trialBorder'><div class='vertical-center'><img style='vertical-align:center; align:center' src='img/fixation2_sml.jpg'></div><div class='arrayDiv2'><div class='tl'><img class='introPic' src='trustrating_stim/white_mw042.bmp'><br><font color='red'><strong>Keep</strong></font></div><div class='tr'><img class='introPic' src='trustrating_stim/white_mw078.bmp'><br><font color='green'><strong>Share</strong></font></div></div></div>","null","ARRAY","2","trustrating_stim/white_mw042.bmp,trustrating_stim/white_mw078.bmp","0,1","Match","e","3000","","","","",""
"","","","","63b82398bbe6a599972413ad","bdp_wmem","Mon Mar 13 2023 15:20:48 GMT-0400 (Eastern Daylight Time)","762627","Match,No Match","html-keyboard-response","48","311988","0.0-7.0-3.2","","","null","","<div class='trialBorder'><div class='vertical-center'><img src='img/fixation2_sml.jpg'</img></div></div>","null","DELAY","","","","","","","","","","",""
"","","","","63b82398bbe6a599972413ad","bdp_wmem","Mon Mar 13 2023 15:20:48 GMT-0400 (Eastern Daylight Time)","762627","Match,No Match","html-keyboard-response","49","314922","0.0-7.0-4.2","","","2932","","<div class='trialBorder'><div class='targDiv'><div class='tc'><img class='introPic' src='trustrating_stim/white_mw042.bmp'><br><font color='red'><strong>Keep</strong></font></div></div><div class='respDiv'><div class='respDivL'>Match<br>(e)</div><div class='respDivR'>No Match<br>(i)</div></div></div>","e","TARGET","2","trustrating_stim/white_mw042.bmp,trustrating_stim/white_mw078.bmp","0,1","Match","e","3000","trustrating_stim/white_mw042.bmp","red","Keep","REAL","1"
"","","","","63b82398bbe6a599972413ad","bdp_wmem","Mon Mar 13 2023 15:20:48 GMT-0400 (Eastern Daylight Time)","762627","Match,No Match","html-keyboard-response","50","315424","0.0-7.0-5.2","","","null","","<div class='trialBorder'><div class='vertical-center'><img src='img/correct.jpg'></div><div class='respDiv'><div class='respDivL'><font style='color:orange'>Match<br>(e)</font></div><div class='respDivR'>No Match<br>(i)</div></div></div>","null","FEEDBACK","","","","","","","","","","",""
"","","","","63b82398bbe6a599972413ad","bdp_wmem","Mon Mar 13 2023 15:20:48 GMT-0400 (Eastern Daylight Time)","762627","Match,No Match","html-keyboard-response","51","315930","0.0-7.0-1.3","","","null","","<div class='trialBorder'><div class='vertical-center'><img src='img/fixation2_sml.jpg'</img></div></div>","null","FIX","","","","","","","","","","",""
"","","","","63b82398bbe6a599972413ad","bdp_wmem","Mon Mar 13 2023 15:20:48 GMT-0400 (Eastern Daylight Time)","762627","Match,No Match","html-keyboard-response","52","320446","0.0-7.0-2.3","","","null","","<div class='trialBorder'><div class='vertical-center'><img style='vertical-align:center; align:center' src='img/fixation2_sml.jpg'></div><div class='arrayDiv3'><div class='tl'><img class='introPic' src='trustrating_stim/white_mw013.bmp'><br><font color='red'><strong>Keep</strong></font></div><div class='tc'><img class='introPic' src='trustrating_stim/white_mw040.bmp'><br><font color='red'><strong>Keep</strong></font></div><div class='tr'><img class='introPic' src='trustrating_stim/white_mw012.bmp'><br><font color='green'><strong>Share</strong></font></div></div></div>","null","ARRAY","3","trustrating_stim/white_mw013.bmp,trustrating_stim/white_mw040.bmp,trustrating_stim/white_mw012.bmp","0,0,1","noMatchFace","i","4500","","","","",""
"","","","","63b82398bbe6a599972413ad","bdp_wmem","Mon Mar 13 2023 15:20:48 GMT-0400 (Eastern Daylight Time)","762627","Match,No Match","html-keyboard-response","53","324460","0.0-7.0-3.3","","","null","","<div class='trialBorder'><div class='vertical-center'><img src='img/fixation2_sml.jpg'</img></div></div>","null","DELAY","","","","","","","","","","",""
"","","","","63b82398bbe6a599972413ad","bdp_wmem","Mon Mar 13 2023 15:20:48 GMT-0400 (Eastern Daylight Time)","762627","Match,No Match","html-keyboard-response","54","326472","0.0-7.0-4.3","","","2012","","<div class='trialBorder'><div class='targDiv'><div class='tc'><img class='introPic' src='trustrating_stim/white_mw078.bmp'><br><font color='green'><strong>Share</strong></font></div></div><div class='respDiv'><div class='respDivL'>Match<br>(e)</div><div class='respDivR'>No Match<br>(i)</div></div></div>","i","TARGET","3","trustrating_stim/white_mw013.bmp,trustrating_stim/white_mw040.bmp,trustrating_stim/white_mw012.bmp","0,0,1","noMatchFace","i","4500","trustrating_stim/white_mw078.bmp","green","Share","REAL","1"
"","","","","63b82398bbe6a599972413ad","bdp_wmem","Mon Mar 13 2023 15:20:48 GMT-0400 (Eastern Daylight Time)","762627","Match,No Match","html-keyboard-response","55","326976","0.0-7.0-5.3","","","null","","<div class='trialBorder'><div class='vertical-center'><img src='img/correct.jpg'></div><div class='respDiv'><div class='respDivL'>Match<br>(e)</div><div class='respDivR'><font style='color:orange'>No Match<br>(i)</font></div></div></div>","null","FEEDBACK","","","","","","","","","","",""
"","","","","63b82398bbe6a599972413ad","bdp_wmem","Mon Mar 13 2023 15:20:48 GMT-0400 (Eastern Daylight Time)","762627","Match,No Match","html-keyboard-response","56","327480","0.0-7.0-1.4","","","null","","<div class='trialBorder'><div class='vertical-center'><img src='img/fixation2_sml.jpg'</img></div></div>","null","FIX","","","","","","","","","","",""
"","","","","63b82398bbe6a599972413ad","bdp_wmem","Mon Mar 13 2023 15:20:48 GMT-0400 (Eastern Daylight Time)","762627","Match,No Match","html-keyboard-response","57","331982","0.0-7.0-2.4","","","null","","<div class='trialBorder'><div class='vertical-center'><img style='vertical-align:center; align:center' src='img/fixation2_sml.jpg'></div><div class='arrayDiv3'><div class='tl'><img class='introPic' src='trustrating_stim/white_mw013.bmp'><br><font color='red'><strong>Keep</strong></font></div><div class='tc'><img class='introPic' src='trustrating_stim/white_mw038.bmp'><br><font color='green'><strong>Share</strong></font></div><div class='tr'><img class='introPic' src='trustrating_stim/white_mw078.bmp'><br><font color='red'><strong>Keep</strong></font></div></div></div>","null","ARRAY","3","trustrating_stim/white_mw013.bmp,trustrating_stim/white_mw038.bmp,trustrating_stim/white_mw078.bmp","0,1,0","noMatchOutcome","i","4500","","","","",""
"","","","","63b82398bbe6a599972413ad","bdp_wmem","Mon Mar 13 2023 15:20:48 GMT-0400 (Eastern Daylight Time)","762627","Match,No Match","html-keyboard-response","58","335989","0.0-7.0-3.4","","","null","","<div class='trialBorder'><div class='vertical-center'><img src='img/fixation2_sml.jpg'</img></div></div>","null","DELAY","","","","","","","","","","",""
"","","","","63b82398bbe6a599972413ad","bdp_wmem","Mon Mar 13 2023 15:20:48 GMT-0400 (Eastern Daylight Time)","762627","Match,No Match","html-keyboard-response","59","338001","0.0-7.0-4.4","","","2012","","<div class='trialBorder'><div class='targDiv'><div class='tc'><img class='introPic' src='trustrating_stim/white_mw078.bmp'><br><font color='green'><strong>Share</strong></font></div></div><div class='respDiv'><div class='respDivL'>Match<br>(e)</div><div class='respDivR'>No Match<br>(i)</div></div></div>","e","TARGET","3","trustrating_stim/white_mw013.bmp,trustrating_stim/white_mw038.bmp,trustrating_stim/white_mw078.bmp","0,1,0","noMatchOutcome","i","4500","trustrating_stim/white_mw078.bmp","green","Share","REAL","0"
"","","","","63b82398bbe6a599972413ad","bdp_wmem","Mon Mar 13 2023 15:20:48 GMT-0400 (Eastern Daylight Time)","762627","Match,No Match","html-keyboard-response","60","338506","0.0-7.0-5.4","","","null","","<div class='trialBorder'><div class='vertical-center'><img src='img/error.jpg'></div><div class='respDiv'><div class='respDivL'><font style='color:orange'>Match<br>(e)</font></div><div class='respDivR'>No Match<br>(i)</div></div></div>","null","FEEDBACK","","","","","","","","","","",""
"","","","","63b82398bbe6a599972413ad","bdp_wmem","Mon Mar 13 2023 15:20:48 GMT-0400 (Eastern Daylight Time)","762627","Match,No Match","html-keyboard-response","61","339012","0.0-7.0-1.5","","","null","","<div class='trialBorder'><div class='vertical-center'><img src='img/fixation2_sml.jpg'</img></div></div>","null","FIX","","","","","","","","","","",""
"","","","","63b82398bbe6a599972413ad","bdp_wmem","Mon Mar 13 2023 15:20:48 GMT-0400 (Eastern Daylight Time)","762627","Match,No Match","html-keyboard-response","62","340513","0.0-7.0-2.5","","","null","","<div class='trialBorder'><div class='vertical-center'><img style='vertical-align:center; align:center' src='img/fixation2_sml.jpg'></div><div class='arrayDiv1'><div class='tc'><img class='introPic' src='trustrating_stim/white_mw003.bmp'><br><font color='green'><strong>Share</strong></font></div></div></div>","null","ARRAY","1","trustrating_stim/white_mw003.bmp","1","noMatchOutcome","i","1500","","","","",""
"","","","","63b82398bbe6a599972413ad","bdp_wmem","Mon Mar 13 2023 15:20:48 GMT-0400 (Eastern Daylight Time)","762627","Match,No Match","html-keyboard-response","63","344525","0.0-7.0-3.5","","","null","","<div class='trialBorder'><div class='vertical-center'><img src='img/fixation2_sml.jpg'</img></div></div>","null","DELAY","","","","","","","","","","",""
"","","","","63b82398bbe6a599972413ad","bdp_wmem","Mon Mar 13 2023 15:20:48 GMT-0400 (Eastern Daylight Time)","762627","Match,No Match","html-keyboard-response","64","346266","0.0-7.0-4.5","","","1740","","<div class='trialBorder'><div class='targDiv'><div class='tc'><img class='introPic' src='trustrating_stim/white_mw003.bmp'><br><font color='red'><strong>Keep</strong></font></div></div><div class='respDiv'><div class='respDivL'>Match<br>(e)</div><div class='respDivR'>No Match<br>(i)</div></div></div>","i","TARGET","1","trustrating_stim/white_mw003.bmp","1","noMatchOutcome","i","1500","trustrating_stim/white_mw003.bmp","red","Keep","REAL","1"
"","","","","63b82398bbe6a599972413ad","bdp_wmem","Mon Mar 13 2023 15:20:48 GMT-0400 (Eastern Daylight Time)","762627","Match,No Match","html-keyboard-response","65","346770","0.0-7.0-5.5","","","null","","<div class='trialBorder'><div class='vertical-center'><img src='img/correct.jpg'></div><div class='respDiv'><div class='respDivL'>Match<br>(e)</div><div class='respDivR'><font style='color:orange'>No Match<br>(i)</font></div></div></div>","null","FEEDBACK","","","","","","","","","","",""
"","","","","63b82398bbe6a599972413ad","bdp_wmem","Mon Mar 13 2023 15:20:48 GMT-0400 (Eastern Daylight Time)","762627","Match,No Match","html-keyboard-response","66","347276","0.0-7.0-1.6","","","null","","<div class='trialBorder'><div class='vertical-center'><img src='img/fixation2_sml.jpg'</img></div></div>","null","FIX","","","","","","","","","","",""
"","","","","63b82398bbe6a599972413ad","bdp_wmem","Mon Mar 13 2023 15:20:48 GMT-0400 (Eastern Daylight Time)","762627","Match,No Match","html-keyboard-response","67","351788","0.0-7.0-2.6","","","null","","<div class='trialBorder'><div class='vertical-center'><img style='vertical-align:center; align:center' src='img/fixation2_sml.jpg'></div><div class='arrayDiv3'><div class='tl'><img class='introPic' src='trustrating_stim/white_mw091.bmp'><br><font color='red'><strong>Keep</strong></font></div><div class='tc'><img class='introPic' src='trustrating_stim/white_mw012.bmp'><br><font color='green'><strong>Share</strong></font></div><div class='tr'><img class='introPic' src='trustrating_stim/white_mw078.bmp'><br><font color='red'><strong>Keep</strong></font></div></div></div>","null","ARRAY","3","trustrating_stim/white_mw091.bmp,trustrating_stim/white_mw012.bmp,trustrating_stim/white_mw078.bmp","0,1,0","noMatchFace","i","4500","","","","",""
"","","","","63b82398bbe6a599972413ad","bdp_wmem","Mon Mar 13 2023 15:20:48 GMT-0400 (Eastern Daylight Time)","762627","Match,No Match","html-keyboard-response","68","355801","0.0-7.0-3.6","","","null","","<div class='trialBorder'><div class='vertical-center'><img src='img/fixation2_sml.jpg'</img></div></div>","null","DELAY","","","","","","","","","","",""
"","","","","63b82398bbe6a599972413ad","bdp_wmem","Mon Mar 13 2023 15:20:48 GMT-0400 (Eastern Daylight Time)","762627","Match,No Match","html-keyboard-response","69","359083","0.0-7.0-4.6","","","3281","","<div class='trialBorder'><div class='targDiv'><div class='tc'><img class='introPic' src='trustrating_stim/white_mw013.bmp'><br><font color='green'><strong>Share</strong></font></div></div><div class='respDiv'><div class='respDivL'>Match<br>(e)</div><div class='respDivR'>No Match<br>(i)</div></div></div>","i","TARGET","3","trustrating_stim/white_mw091.bmp,trustrating_stim/white_mw012.bmp,trustrating_stim/white_mw078.bmp","0,1,0","noMatchFace","i","4500","trustrating_stim/white_mw013.bmp","green","Share","REAL","1"
"","","","","63b82398bbe6a599972413ad","bdp_wmem","Mon Mar 13 2023 15:20:48 GMT-0400 (Eastern Daylight Time)","762627","Match,No Match","html-keyboard-response","70","359597","0.0-7.0-5.6","","","null","","<div class='trialBorder'><div class='vertical-center'><img src='img/correct.jpg'></div><div class='respDiv'><div class='respDivL'>Match<br>(e)</div><div class='respDivR'><font style='color:orange'>No Match<br>(i)</font></div></div></div>","null","FEEDBACK","","","","","","","","","","",""
"","","","","63b82398bbe6a599972413ad","bdp_wmem","Mon Mar 13 2023 15:20:48 GMT-0400 (Eastern Daylight Time)","762627","Match,No Match","html-keyboard-response","71","360102","0.0-7.0-1.7","","","null","","<div class='trialBorder'><div class='vertical-center'><img src='img/fixation2_sml.jpg'</img></div></div>","null","FIX","","","","","","","","","","",""
"","","","","63b82398bbe6a599972413ad","bdp_wmem","Mon Mar 13 2023 15:20:48 GMT-0400 (Eastern Daylight Time)","762627","Match,No Match","html-keyboard-response","72","364620","0.0-7.0-2.7","","","null","","<div class='trialBorder'><div class='vertical-center'><img style='vertical-align:center; align:center' src='img/fixation2_sml.jpg'></div><div class='arrayDiv3'><div class='tl'><img class='introPic' src='trustrating_stim/white_mw092.bmp'><br><font color='red'><strong>Keep</strong></font></div><div class='tc'><img class='introPic' src='trustrating_stim/white_mw013.bmp'><br><font color='green'><strong>Share</strong></font></div><div class='tr'><img class='introPic' src='trustrating_stim/white_mw010.bmp'><br><font color='red'><strong>Keep</strong></font></div></div></div>","null","ARRAY","3","trustrating_stim/white_mw092.bmp,trustrating_stim/white_mw013.bmp,trustrating_stim/white_mw010.bmp","0,1,0","Match","e","4500","","","","",""
"","","","","63b82398bbe6a599972413ad","bdp_wmem","Mon Mar 13 2023 15:20:48 GMT-0400 (Eastern Daylight Time)","762627","Match,No Match","html-keyboard-response","73","368632","0.0-7.0-3.7","","","null","","<div class='trialBorder'><div class='vertical-center'><img src='img/fixation2_sml.jpg'</img></div></div>","null","DELAY","","","","","","","","","","",""
"","","","","63b82398bbe6a599972413ad","bdp_wmem","Mon Mar 13 2023 15:20:48 GMT-0400 (Eastern Daylight Time)","762627","Match,No Match","html-keyboard-response","74","370952","0.0-7.0-4.7","","","2319","","<div class='trialBorder'><div class='targDiv'><div class='tc'><img class='introPic' src='trustrating_stim/white_mw010.bmp'><br><font color='red'><strong>Keep</strong></font></div></div><div class='respDiv'><div class='respDivL'>Match<br>(e)</div><div class='respDivR'>No Match<br>(i)</div></div></div>","i","TARGET","3","trustrating_stim/white_mw092.bmp,trustrating_stim/white_mw013.bmp,trustrating_stim/white_mw010.bmp","0,1,0","Match","e","4500","trustrating_stim/white_mw010.bmp","red","Keep","REAL","0"
"","","","","63b82398bbe6a599972413ad","bdp_wmem","Mon Mar 13 2023 15:20:48 GMT-0400 (Eastern Daylight Time)","762627","Match,No Match","html-keyboard-response","75","371463","0.0-7.0-5.7","","","null","","<div class='trialBorder'><div class='vertical-center'><img src='img/error.jpg'></div><div class='respDiv'><div class='respDivL'>Match<br>(e)</div><div class='respDivR'><font style='color:orange'>No Match<br>(i)</font></div></div></div>","null","FEEDBACK","","","","","","","","","","",""
"","","","","63b82398bbe6a599972413ad","bdp_wmem","Mon Mar 13 2023 15:20:48 GMT-0400 (Eastern Daylight Time)","762627","Match,No Match","html-keyboard-response","76","371966","0.0-7.0-1.8","","","null","","<div class='trialBorder'><div class='vertical-center'><img src='img/fixation2_sml.jpg'</img></div></div>","null","FIX","","","","","","","","","","",""
"","","","","63b82398bbe6a599972413ad","bdp_wmem","Mon Mar 13 2023 15:20:48 GMT-0400 (Eastern Daylight Time)","762627","Match,No Match","html-keyboard-response","77","376478","0.0-7.0-2.8","","","null","","<div class='trialBorder'><div class='vertical-center'><img style='vertical-align:center; align:center' src='img/fixation2_sml.jpg'></div><div class='arrayDiv3'><div class='tl'><img class='introPic' src='trustrating_stim/white_mw078.bmp'><br><font color='green'><strong>Share</strong></font></div><div class='tc'><img class='introPic' src='trustrating_stim/white_mw092.bmp'><br><font color='red'><strong>Keep</strong></font></div><div class='tr'><img class='introPic' src='trustrating_stim/white_mw012.bmp'><br><font color='green'><strong>Share</strong></font></div></div></div>","null","ARRAY","3","trustrating_stim/white_mw078.bmp,trustrating_stim/white_mw092.bmp,trustrating_stim/white_mw012.bmp","1,0,1","noMatchOutcome","i","4500","","","","",""
"","","","","63b82398bbe6a599972413ad","bdp_wmem","Mon Mar 13 2023 15:20:48 GMT-0400 (Eastern Daylight Time)","762627","Match,No Match","html-keyboard-response","78","380479","0.0-7.0-3.8","","","null","","<div class='trialBorder'><div class='vertical-center'><img src='img/fixation2_sml.jpg'</img></div></div>","null","DELAY","","","","","","","","","","",""
"","","","","63b82398bbe6a599972413ad","bdp_wmem","Mon Mar 13 2023 15:20:48 GMT-0400 (Eastern Daylight Time)","762627","Match,No Match","html-keyboard-response","79","382687","0.0-7.0-4.8","","","2207","","<div class='trialBorder'><div class='targDiv'><div class='tc'><img class='introPic' src='trustrating_stim/white_mw078.bmp'><br><font color='red'><strong>Keep</strong></font></div></div><div class='respDiv'><div class='respDivL'>Match<br>(e)</div><div class='respDivR'>No Match<br>(i)</div></div></div>","i","TARGET","3","trustrating_stim/white_mw078.bmp,trustrating_stim/white_mw092.bmp,trustrating_stim/white_mw012.bmp","1,0,1","noMatchOutcome","i","4500","trustrating_stim/white_mw078.bmp","red","Keep","REAL","1"
"","","","","63b82398bbe6a599972413ad","bdp_wmem","Mon Mar 13 2023 15:20:48 GMT-0400 (Eastern Daylight Time)","762627","Match,No Match","html-keyboard-response","80","383199","0.0-7.0-5.8","","","null","","<div class='trialBorder'><div class='vertical-center'><img src='img/correct.jpg'></div><div class='respDiv'><div class='respDivL'>Match<br>(e)</div><div class='respDivR'><font style='color:orange'>No Match<br>(i)</font></div></div></div>","null","FEEDBACK","","","","","","","","","","",""
"","","","","63b82398bbe6a599972413ad","bdp_wmem","Mon Mar 13 2023 15:20:48 GMT-0400 (Eastern Daylight Time)","762627","Match,No Match","html-keyboard-response","81","383704","0.0-7.0-1.9","","","null","","<div class='trialBorder'><div class='vertical-center'><img src='img/fixation2_sml.jpg'</img></div></div>","null","FIX","","","","","","","","","","",""
"","","","","63b82398bbe6a599972413ad","bdp_wmem","Mon Mar 13 2023 15:20:48 GMT-0400 (Eastern Daylight Time)","762627","Match,No Match","html-keyboard-response","82","385219","0.0-7.0-2.9","","","null","","<div class='trialBorder'><div class='vertical-center'><img style='vertical-align:center; align:center' src='img/fixation2_sml.jpg'></div><div class='arrayDiv1'><div class='tc'><img class='introPic' src='trustrating_stim/white_mw038.bmp'><br><font color='green'><strong>Share</strong></font></div></div></div>","null","ARRAY","1","trustrating_stim/white_mw038.bmp","1","noMatchFace","i","1500","","","","",""
"","","","","63b82398bbe6a599972413ad","bdp_wmem","Mon Mar 13 2023 15:20:48 GMT-0400 (Eastern Daylight Time)","762627","Match,No Match","html-keyboard-response","83","389226","0.0-7.0-3.9","","","null","","<div class='trialBorder'><div class='vertical-center'><img src='img/fixation2_sml.jpg'</img></div></div>","null","DELAY","","","","","","","","","","",""
"","","","","63b82398bbe6a599972413ad","bdp_wmem","Mon Mar 13 2023 15:20:48 GMT-0400 (Eastern Daylight Time)","762627","Match,No Match","html-keyboard-response","84","392204","0.0-7.0-4.9","","","2976","","<div class='trialBorder'><div class='targDiv'><div class='tc'><img class='introPic' src='trustrating_stim/white_mw078.bmp'><br><font color='green'><strong>Share</strong></font></div></div><div class='respDiv'><div class='respDivL'>Match<br>(e)</div><div class='respDivR'>No Match<br>(i)</div></div></div>","i","TARGET","1","trustrating_stim/white_mw038.bmp","1","noMatchFace","i","1500","trustrating_stim/white_mw078.bmp","green","Share","REAL","1"
"","","","","63b82398bbe6a599972413ad","bdp_wmem","Mon Mar 13 2023 15:20:48 GMT-0400 (Eastern Daylight Time)","762627","Match,No Match","html-keyboard-response","85","392711","0.0-7.0-5.9","","","null","","<div class='trialBorder'><div class='vertical-center'><img src='img/correct.jpg'></div><div class='respDiv'><div class='respDivL'>Match<br>(e)</div><div class='respDivR'><font style='color:orange'>No Match<br>(i)</font></div></div></div>","null","FEEDBACK","","","","","","","","","","",""
"","","","","63b82398bbe6a599972413ad","bdp_wmem","Mon Mar 13 2023 15:20:48 GMT-0400 (Eastern Daylight Time)","762627","Match,No Match","html-keyboard-response","86","393217","0.0-7.0-1.10","","","null","","<div class='trialBorder'><div class='vertical-center'><img src='img/fixation2_sml.jpg'</img></div></div>","null","FIX","","","","","","","","","","",""
"","","","","63b82398bbe6a599972413ad","bdp_wmem","Mon Mar 13 2023 15:20:48 GMT-0400 (Eastern Daylight Time)","762627","Match,No Match","html-keyboard-response","87","394731","0.0-7.0-2.10","","","null","","<div class='trialBorder'><div class='vertical-center'><img style='vertical-align:center; align:center' src='img/fixation2_sml.jpg'></div><div class='arrayDiv1'><div class='tc'><img class='introPic' src='trustrating_stim/white_mw010.bmp'><br><font color='green'><strong>Share</strong></font></div></div></div>","null","ARRAY","1","trustrating_stim/white_mw010.bmp","1","Match","e","1500","","","","",""
"","","","","63b82398bbe6a599972413ad","bdp_wmem","Mon Mar 13 2023 15:20:48 GMT-0400 (Eastern Daylight Time)","762627","Match,No Match","html-keyboard-response","88","398741","0.0-7.0-3.10","","","null","","<div class='trialBorder'><div class='vertical-center'><img src='img/fixation2_sml.jpg'</img></div></div>","null","DELAY","","","","","","","","","","",""
"","","","","63b82398bbe6a599972413ad","bdp_wmem","Mon Mar 13 2023 15:20:48 GMT-0400 (Eastern Daylight Time)","762627","Match,No Match","html-keyboard-response","89","400053","0.0-7.0-4.10","","","1312","","<div class='trialBorder'><div class='targDiv'><div class='tc'><img class='introPic' src='trustrating_stim/white_mw010.bmp'><br><font color='green'><strong>Share</strong></font></div></div><div class='respDiv'><div class='respDivL'>Match<br>(e)</div><div class='respDivR'>No Match<br>(i)</div></div></div>","e","TARGET","1","trustrating_stim/white_mw010.bmp","1","Match","e","1500","trustrating_stim/white_mw010.bmp","green","Share","REAL","1"
"","","","","63b82398bbe6a599972413ad","bdp_wmem","Mon Mar 13 2023 15:20:48 GMT-0400 (Eastern Daylight Time)","762627","Match,No Match","html-keyboard-response","90","400559","0.0-7.0-5.10","","","null","","<div class='trialBorder'><div class='vertical-center'><img src='img/correct.jpg'></div><div class='respDiv'><div class='respDivL'><font style='color:orange'>Match<br>(e)</font></div><div class='respDivR'>No Match<br>(i)</div></div></div>","null","FEEDBACK","","","","","","","","","","",""
"","","","","63b82398bbe6a599972413ad","bdp_wmem","Mon Mar 13 2023 15:20:48 GMT-0400 (Eastern Daylight Time)","762627","Match,No Match","html-keyboard-response","91","401064","0.0-7.0-1.11","","","null","","<div class='trialBorder'><div class='vertical-center'><img src='img/fixation2_sml.jpg'</img></div></div>","null","FIX","","","","","","","","","","",""
"","","","","63b82398bbe6a599972413ad","bdp_wmem","Mon Mar 13 2023 15:20:48 GMT-0400 (Eastern Daylight Time)","762627","Match,No Match","html-keyboard-response","92","404068","0.0-7.0-2.11","","","null","","<div class='trialBorder'><div class='vertical-center'><img style='vertical-align:center; align:center' src='img/fixation2_sml.jpg'></div><div class='arrayDiv2'><div class='tl'><img class='introPic' src='trustrating_stim/white_mw003.bmp'><br><font color='red'><strong>Keep</strong></font></div><div class='tr'><img class='introPic' src='trustrating_stim/white_mw085.bmp'><br><font color='green'><strong>Share</strong></font></div></div></div>","null","ARRAY","2","trustrating_stim/white_mw003.bmp,trustrating_stim/white_mw085.bmp","0,1","noMatchOutcome","i","3000","","","","",""
"","","","","63b82398bbe6a599972413ad","bdp_wmem","Mon Mar 13 2023 15:20:48 GMT-0400 (Eastern Daylight Time)","762627","Match,No Match","html-keyboard-response","93","408077","0.0-7.0-3.11","","","null","","<div class='trialBorder'><div class='vertical-center'><img src='img/fixation2_sml.jpg'</img></div></div>","null","DELAY","","","","","","","","","","",""
"","","","","63b82398bbe6a599972413ad","bdp_wmem","Mon Mar 13 2023 15:20:48 GMT-0400 (Eastern Daylight Time)","762627","Match,No Match","html-keyboard-response","94","409882","0.0-7.0-4.11","","","1805","","<div class='trialBorder'><div class='targDiv'><div class='tc'><img class='introPic' src='trustrating_stim/white_mw003.bmp'><br><font color='green'><strong>Share</strong></font></div></div><div class='respDiv'><div class='respDivL'>Match<br>(e)</div><div class='respDivR'>No Match<br>(i)</div></div></div>","i","TARGET","2","trustrating_stim/white_mw003.bmp,trustrating_stim/white_mw085.bmp","0,1","noMatchOutcome","i","3000","trustrating_stim/white_mw003.bmp","green","Share","REAL","1"
"","","","","63b82398bbe6a599972413ad","bdp_wmem","Mon Mar 13 2023 15:20:48 GMT-0400 (Eastern Daylight Time)","762627","Match,No Match","html-keyboard-response","95","410387","0.0-7.0-5.11","","","null","","<div class='trialBorder'><div class='vertical-center'><img src='img/correct.jpg'></div><div class='respDiv'><div class='respDivL'>Match<br>(e)</div><div class='respDivR'><font style='color:orange'>No Match<br>(i)</font></div></div></div>","null","FEEDBACK","","","","","","","","","","",""
"","","","","63b82398bbe6a599972413ad","bdp_wmem","Mon Mar 13 2023 15:20:48 GMT-0400 (Eastern Daylight Time)","762627","Match,No Match","html-keyboard-response","96","410890","0.0-7.0-1.12","","","null","","<div class='trialBorder'><div class='vertical-center'><img src='img/fixation2_sml.jpg'</img></div></div>","null","FIX","","","","","","","","","","",""
"","","","","63b82398bbe6a599972413ad","bdp_wmem","Mon Mar 13 2023 15:20:48 GMT-0400 (Eastern Daylight Time)","762627","Match,No Match","html-keyboard-response","97","413897","0.0-7.0-2.12","","","null","","<div class='trialBorder'><div class='vertical-center'><img style='vertical-align:center; align:center' src='img/fixation2_sml.jpg'></div><div class='arrayDiv2'><div class='tl'><img class='introPic' src='trustrating_stim/white_mw042.bmp'><br><font color='green'><strong>Share</strong></font></div><div class='tr'><img class='introPic' src='trustrating_stim/white_mw070.bmp'><br><font color='red'><strong>Keep</strong></font></div></div></div>","null","ARRAY","2","trustrating_stim/white_mw042.bmp,trustrating_stim/white_mw070.bmp","1,0","noMatchOutcome","i","3000","","","","",""
"","","","","63b82398bbe6a599972413ad","bdp_wmem","Mon Mar 13 2023 15:20:48 GMT-0400 (Eastern Daylight Time)","762627","Match,No Match","html-keyboard-response","98","417912","0.0-7.0-3.12","","","null","","<div class='trialBorder'><div class='vertical-center'><img src='img/fixation2_sml.jpg'</img></div></div>","null","DELAY","","","","","","","","","","",""
"","","","","63b82398bbe6a599972413ad","bdp_wmem","Mon Mar 13 2023 15:20:48 GMT-0400 (Eastern Daylight Time)","762627","Match,No Match","html-keyboard-response","99","419976","0.0-7.0-4.12","","","2063","","<div class='trialBorder'><div class='targDiv'><div class='tc'><img class='introPic' src='trustrating_stim/white_mw070.bmp'><br><font color='green'><strong>Share</strong></font></div></div><div class='respDiv'><div class='respDivL'>Match<br>(e)</div><div class='respDivR'>No Match<br>(i)</div></div></div>","i","TARGET","2","trustrating_stim/white_mw042.bmp,trustrating_stim/white_mw070.bmp","1,0","noMatchOutcome","i","3000","trustrating_stim/white_mw070.bmp","green","Share","REAL","1"
"","","","","63b82398bbe6a599972413ad","bdp_wmem","Mon Mar 13 2023 15:20:48 GMT-0400 (Eastern Daylight Time)","762627","Match,No Match","html-keyboard-response","100","420487","0.0-7.0-5.12","","","null","","<div class='trialBorder'><div class='vertical-center'><img src='img/correct.jpg'></div><div class='respDiv'><div class='respDivL'>Match<br>(e)</div><div class='respDivR'><font style='color:orange'>No Match<br>(i)</font></div></div></div>","null","FEEDBACK","","","","","","","","","","",""
"","","","","63b82398bbe6a599972413ad","bdp_wmem","Mon Mar 13 2023 15:20:48 GMT-0400 (Eastern Daylight Time)","762627","Match,No Match","html-keyboard-response","101","420993","0.0-7.0-1.13","","","null","","<div class='trialBorder'><div class='vertical-center'><img src='img/fixation2_sml.jpg'</img></div></div>","null","FIX","","","","","","","","","","",""
"","","","","63b82398bbe6a599972413ad","bdp_wmem","Mon Mar 13 2023 15:20:48 GMT-0400 (Eastern Daylight Time)","762627","Match,No Match","html-keyboard-response","102","422500","0.0-7.0-2.13","","","null","","<div class='trialBorder'><div class='vertical-center'><img style='vertical-align:center; align:center' src='img/fixation2_sml.jpg'></div><div class='arrayDiv1'><div class='tc'><img class='introPic' src='trustrating_stim/white_mw003.bmp'><br><font color='green'><strong>Share</strong></font></div></div></div>","null","ARRAY","1","trustrating_stim/white_mw003.bmp","1","noMatchOutcome","i","1500","","","","",""
"","","","","63b82398bbe6a599972413ad","bdp_wmem","Mon Mar 13 2023 15:20:48 GMT-0400 (Eastern Daylight Time)","762627","Match,No Match","html-keyboard-response","103","426518","0.0-7.0-3.13","","","null","","<div class='trialBorder'><div class='vertical-center'><img src='img/fixation2_sml.jpg'</img></div></div>","null","DELAY","","","","","","","","","","",""
"","","","","63b82398bbe6a599972413ad","bdp_wmem","Mon Mar 13 2023 15:20:48 GMT-0400 (Eastern Daylight Time)","762627","Match,No Match","html-keyboard-response","104","429009","0.0-7.0-4.13","","","2488","","<div class='trialBorder'><div class='targDiv'><div class='tc'><img class='introPic' src='trustrating_stim/white_mw003.bmp'><br><font color='red'><strong>Keep</strong></font></div></div><div class='respDiv'><div class='respDivL'>Match<br>(e)</div><div class='respDivR'>No Match<br>(i)</div></div></div>","i","TARGET","1","trustrating_stim/white_mw003.bmp","1","noMatchOutcome","i","1500","trustrating_stim/white_mw003.bmp","red","Keep","REAL","1"
"","","","","63b82398bbe6a599972413ad","bdp_wmem","Mon Mar 13 2023 15:20:48 GMT-0400 (Eastern Daylight Time)","762627","Match,No Match","html-keyboard-response","105","429520","0.0-7.0-5.13","","","null","","<div class='trialBorder'><div class='vertical-center'><img src='img/correct.jpg'></div><div class='respDiv'><div class='respDivL'>Match<br>(e)</div><div class='respDivR'><font style='color:orange'>No Match<br>(i)</font></div></div></div>","null","FEEDBACK","","","","","","","","","","",""
"","","","","63b82398bbe6a599972413ad","bdp_wmem","Mon Mar 13 2023 15:20:48 GMT-0400 (Eastern Daylight Time)","762627","Match,No Match","html-keyboard-response","106","430024","0.0-7.0-1.14","","","null","","<div class='trialBorder'><div class='vertical-center'><img src='img/fixation2_sml.jpg'</img></div></div>","null","FIX","","","","","","","","","","",""
"","","","","63b82398bbe6a599972413ad","bdp_wmem","Mon Mar 13 2023 15:20:48 GMT-0400 (Eastern Daylight Time)","762627","Match,No Match","html-keyboard-response","107","434527","0.0-7.0-2.14","","","null","","<div class='trialBorder'><div class='vertical-center'><img style='vertical-align:center; align:center' src='img/fixation2_sml.jpg'></div><div class='arrayDiv3'><div class='tl'><img class='introPic' src='trustrating_stim/white_mw092.bmp'><br><font color='red'><strong>Keep</strong></font></div><div class='tc'><img class='introPic' src='trustrating_stim/white_mw070.bmp'><br><font color='green'><strong>Share</strong></font></div><div class='tr'><img class='introPic' src='trustrating_stim/white_mw013.bmp'><br><font color='green'><strong>Share</strong></font></div></div></div>","null","ARRAY","3","trustrating_stim/white_mw092.bmp,trustrating_stim/white_mw070.bmp,trustrating_stim/white_mw013.bmp","0,1,1","Match","e","4500","","","","",""
"","","","","63b82398bbe6a599972413ad","bdp_wmem","Mon Mar 13 2023 15:20:48 GMT-0400 (Eastern Daylight Time)","762627","Match,No Match","html-keyboard-response","108","438538","0.0-7.0-3.14","","","null","","<div class='trialBorder'><div class='vertical-center'><img src='img/fixation2_sml.jpg'</img></div></div>","null","DELAY","","","","","","","","","","",""
"","","","","63b82398bbe6a599972413ad","bdp_wmem","Mon Mar 13 2023 15:20:48 GMT-0400 (Eastern Daylight Time)","762627","Match,No Match","html-keyboard-response","109","440340","0.0-7.0-4.14","","","1802","","<div class='trialBorder'><div class='targDiv'><div class='tc'><img class='introPic' src='trustrating_stim/white_mw092.bmp'><br><font color='red'><strong>Keep</strong></font></div></div><div class='respDiv'><div class='respDivL'>Match<br>(e)</div><div class='respDivR'>No Match<br>(i)</div></div></div>","e","TARGET","3","trustrating_stim/white_mw092.bmp,trustrating_stim/white_mw070.bmp,trustrating_stim/white_mw013.bmp","0,1,1","Match","e","4500","trustrating_stim/white_mw092.bmp","red","Keep","REAL","1"
"","","","","63b82398bbe6a599972413ad","bdp_wmem","Mon Mar 13 2023 15:20:48 GMT-0400 (Eastern Daylight Time)","762627","Match,No Match","html-keyboard-response","110","440848","0.0-7.0-5.14","","","null","","<div class='trialBorder'><div class='vertical-center'><img src='img/correct.jpg'></div><div class='respDiv'><div class='respDivL'><font style='color:orange'>Match<br>(e)</font></div><div class='respDivR'>No Match<br>(i)</div></div></div>","null","FEEDBACK","","","","","","","","","","",""
"","","","","63b82398bbe6a599972413ad","bdp_wmem","Mon Mar 13 2023 15:20:48 GMT-0400 (Eastern Daylight Time)","762627","Match,No Match","html-keyboard-response","111","441355","0.0-7.0-1.15","","","null","","<div class='trialBorder'><div class='vertical-center'><img src='img/fixation2_sml.jpg'</img></div></div>","null","FIX","","","","","","","","","","",""
"","","","","63b82398bbe6a599972413ad","bdp_wmem","Mon Mar 13 2023 15:20:48 GMT-0400 (Eastern Daylight Time)","762627","Match,No Match","html-keyboard-response","112","442869","0.0-7.0-2.15","","","null","","<div class='trialBorder'><div class='vertical-center'><img style='vertical-align:center; align:center' src='img/fixation2_sml.jpg'></div><div class='arrayDiv1'><div class='tc'><img class='introPic' src='trustrating_stim/white_mw091.bmp'><br><font color='green'><strong>Share</strong></font></div></div></div>","null","ARRAY","1","trustrating_stim/white_mw091.bmp","1","noMatchFace","i","1500","","","","",""
"","","","","63b82398bbe6a599972413ad","bdp_wmem","Mon Mar 13 2023 15:20:48 GMT-0400 (Eastern Daylight Time)","762627","Match,No Match","html-keyboard-response","113","446872","0.0-7.0-3.15","","","null","","<div class='trialBorder'><div class='vertical-center'><img src='img/fixation2_sml.jpg'</img></div></div>","null","DELAY","","","","","","","","","","",""
"","","","","63b82398bbe6a599972413ad","bdp_wmem","Mon Mar 13 2023 15:20:48 GMT-0400 (Eastern Daylight Time)","762627","Match,No Match","html-keyboard-response","114","448625","0.0-7.0-4.15","","","1752","","<div class='trialBorder'><div class='targDiv'><div class='tc'><img class='introPic' src='trustrating_stim/white_mw085.bmp'><br><font color='green'><strong>Share</strong></font></div></div><div class='respDiv'><div class='respDivL'>Match<br>(e)</div><div class='respDivR'>No Match<br>(i)</div></div></div>","i","TARGET","1","trustrating_stim/white_mw091.bmp","1","noMatchFace","i","1500","trustrating_stim/white_mw085.bmp","green","Share","REAL","1"
"","","","","63b82398bbe6a599972413ad","bdp_wmem","Mon Mar 13 2023 15:20:48 GMT-0400 (Eastern Daylight Time)","762627","Match,No Match","html-keyboard-response","115","449131","0.0-7.0-5.15","","","null","","<div class='trialBorder'><div class='vertical-center'><img src='img/correct.jpg'></div><div class='respDiv'><div class='respDivL'>Match<br>(e)</div><div class='respDivR'><font style='color:orange'>No Match<br>(i)</font></div></div></div>","null","FEEDBACK","","","","","","","","","","",""
"","","","","63b82398bbe6a599972413ad","bdp_wmem","Mon Mar 13 2023 15:20:48 GMT-0400 (Eastern Daylight Time)","762627","Match,No Match","html-keyboard-response","116","449643","0.0-7.0-1.16","","","null","","<div class='trialBorder'><div class='vertical-center'><img src='img/fixation2_sml.jpg'</img></div></div>","null","FIX","","","","","","","","","","",""
"","","","","63b82398bbe6a599972413ad","bdp_wmem","Mon Mar 13 2023 15:20:48 GMT-0400 (Eastern Daylight Time)","762627","Match,No Match","html-keyboard-response","117","451158","0.0-7.0-2.16","","","null","","<div class='trialBorder'><div class='vertical-center'><img style='vertical-align:center; align:center' src='img/fixation2_sml.jpg'></div><div class='arrayDiv1'><div class='tc'><img class='introPic' src='trustrating_stim/white_mw038.bmp'><br><font color='red'><strong>Keep</strong></font></div></div></div>","null","ARRAY","1","trustrating_stim/white_mw038.bmp","0","noMatchFace","i","1500","","","","",""
"","","","","63b82398bbe6a599972413ad","bdp_wmem","Mon Mar 13 2023 15:20:48 GMT-0400 (Eastern Daylight Time)","762627","Match,No Match","html-keyboard-response","118","455162","0.0-7.0-3.16","","","null","","<div class='trialBorder'><div class='vertical-center'><img src='img/fixation2_sml.jpg'</img></div></div>","null","DELAY","","","","","","","","","","",""
"","","","","63b82398bbe6a599972413ad","bdp_wmem","Mon Mar 13 2023 15:20:48 GMT-0400 (Eastern Daylight Time)","762627","Match,No Match","html-keyboard-response","119","456412","0.0-7.0-4.16","","","1249","","<div class='trialBorder'><div class='targDiv'><div class='tc'><img class='introPic' src='trustrating_stim/white_mw070.bmp'><br><font color='red'><strong>Keep</strong></font></div></div><div class='respDiv'><div class='respDivL'>Match<br>(e)</div><div class='respDivR'>No Match<br>(i)</div></div></div>","i","TARGET","1","trustrating_stim/white_mw038.bmp","0","noMatchFace","i","1500","trustrating_stim/white_mw070.bmp","red","Keep","REAL","1"
"","","","","63b82398bbe6a599972413ad","bdp_wmem","Mon Mar 13 2023 15:20:48 GMT-0400 (Eastern Daylight Time)","762627","Match,No Match","html-keyboard-response","120","456918","0.0-7.0-5.16","","","null","","<div class='trialBorder'><div class='vertical-center'><img src='img/correct.jpg'></div><div class='respDiv'><div class='respDivL'>Match<br>(e)</div><div class='respDivR'><font style='color:orange'>No Match<br>(i)</font></div></div></div>","null","FEEDBACK","","","","","","","","","","",""
"","","","","63b82398bbe6a599972413ad","bdp_wmem","Mon Mar 13 2023 15:20:48 GMT-0400 (Eastern Daylight Time)","762627","Match,No Match","html-keyboard-response","121","457425","0.0-7.0-1.17","","","null","","<div class='trialBorder'><div class='vertical-center'><img src='img/fixation2_sml.jpg'</img></div></div>","null","FIX","","","","","","","","","","",""
"","","","","63b82398bbe6a599972413ad","bdp_wmem","Mon Mar 13 2023 15:20:48 GMT-0400 (Eastern Daylight Time)","762627","Match,No Match","html-keyboard-response","122","460445","0.0-7.0-2.17","","","null","","<div class='trialBorder'><div class='vertical-center'><img style='vertical-align:center; align:center' src='img/fixation2_sml.jpg'></div><div class='arrayDiv2'><div class='tl'><img class='introPic' src='trustrating_stim/white_mw078.bmp'><br><font color='green'><strong>Share</strong></font></div><div class='tr'><img class='introPic' src='trustrating_stim/white_mw040.bmp'><br><font color='red'><strong>Keep</strong></font></div></div></div>","null","ARRAY","2","trustrating_stim/white_mw078.bmp,trustrating_stim/white_mw040.bmp","1,0","Match","e","3000","","","","",""
"","","","","63b82398bbe6a599972413ad","bdp_wmem","Mon Mar 13 2023 15:20:48 GMT-0400 (Eastern Daylight Time)","762627","Match,No Match","html-keyboard-response","123","464454","0.0-7.0-3.17","","","null","","<div class='trialBorder'><div class='vertical-center'><img src='img/fixation2_sml.jpg'</img></div></div>","null","DELAY","","","","","","","","","","",""
"","","","","63b82398bbe6a599972413ad","bdp_wmem","Mon Mar 13 2023 15:20:48 GMT-0400 (Eastern Daylight Time)","762627","Match,No Match","html-keyboard-response","124","465719","0.0-7.0-4.17","","","1264","","<div class='trialBorder'><div class='targDiv'><div class='tc'><img class='introPic' src='trustrating_stim/white_mw078.bmp'><br><font color='green'><strong>Share</strong></font></div></div><div class='respDiv'><div class='respDivL'>Match<br>(e)</div><div class='respDivR'>No Match<br>(i)</div></div></div>","e","TARGET","2","trustrating_stim/white_mw078.bmp,trustrating_stim/white_mw040.bmp","1,0","Match","e","3000","trustrating_stim/white_mw078.bmp","green","Share","REAL","1"
"","","","","63b82398bbe6a599972413ad","bdp_wmem","Mon Mar 13 2023 15:20:48 GMT-0400 (Eastern Daylight Time)","762627","Match,No Match","html-keyboard-response","125","466232","0.0-7.0-5.17","","","null","","<div class='trialBorder'><div class='vertical-center'><img src='img/correct.jpg'></div><div class='respDiv'><div class='respDivL'><font style='color:orange'>Match<br>(e)</font></div><div class='respDivR'>No Match<br>(i)</div></div></div>","null","FEEDBACK","","","","","","","","","","",""
"","","","","63b82398bbe6a599972413ad","bdp_wmem","Mon Mar 13 2023 15:20:48 GMT-0400 (Eastern Daylight Time)","762627","Match,No Match","html-keyboard-response","126","466737","0.0-7.0-1.18","","","null","","<div class='trialBorder'><div class='vertical-center'><img src='img/fixation2_sml.jpg'</img></div></div>","null","FIX","","","","","","","","","","",""
"","","","","63b82398bbe6a599972413ad","bdp_wmem","Mon Mar 13 2023 15:20:48 GMT-0400 (Eastern Daylight Time)","762627","Match,No Match","html-keyboard-response","127","471251","0.0-7.0-2.18","","","null","","<div class='trialBorder'><div class='vertical-center'><img style='vertical-align:center; align:center' src='img/fixation2_sml.jpg'></div><div class='arrayDiv3'><div class='tl'><img class='introPic' src='trustrating_stim/white_mw003.bmp'><br><font color='green'><strong>Share</strong></font></div><div class='tc'><img class='introPic' src='trustrating_stim/white_mw092.bmp'><br><font color='green'><strong>Share</strong></font></div><div class='tr'><img class='introPic' src='trustrating_stim/white_mw040.bmp'><br><font color='red'><strong>Keep</strong></font></div></div></div>","null","ARRAY","3","trustrating_stim/white_mw003.bmp,trustrating_stim/white_mw092.bmp,trustrating_stim/white_mw040.bmp","1,1,0","Match","e","4500","","","","",""
"","","","","63b82398bbe6a599972413ad","bdp_wmem","Mon Mar 13 2023 15:20:48 GMT-0400 (Eastern Daylight Time)","762627","Match,No Match","html-keyboard-response","128","475265","0.0-7.0-3.18","","","null","","<div class='trialBorder'><div class='vertical-center'><img src='img/fixation2_sml.jpg'</img></div></div>","null","DELAY","","","","","","","","","","",""
"","","","","63b82398bbe6a599972413ad","bdp_wmem","Mon Mar 13 2023 15:20:48 GMT-0400 (Eastern Daylight Time)","762627","Match,No Match","html-keyboard-response","129","477614","0.0-7.0-4.18","","","2349","","<div class='trialBorder'><div class='targDiv'><div class='tc'><img class='introPic' src='trustrating_stim/white_mw092.bmp'><br><font color='green'><strong>Share</strong></font></div></div><div class='respDiv'><div class='respDivL'>Match<br>(e)</div><div class='respDivR'>No Match<br>(i)</div></div></div>","e","TARGET","3","trustrating_stim/white_mw003.bmp,trustrating_stim/white_mw092.bmp,trustrating_stim/white_mw040.bmp","1,1,0","Match","e","4500","trustrating_stim/white_mw092.bmp","green","Share","REAL","1"
"","","","","63b82398bbe6a599972413ad","bdp_wmem","Mon Mar 13 2023 15:20:48 GMT-0400 (Eastern Daylight Time)","762627","Match,No Match","html-keyboard-response","130","478129","0.0-7.0-5.18","","","null","","<div class='trialBorder'><div class='vertical-center'><img src='img/correct.jpg'></div><div class='respDiv'><div class='respDivL'><font style='color:orange'>Match<br>(e)</font></div><div class='respDivR'>No Match<br>(i)</div></div></div>","null","FEEDBACK","","","","","","","","","","",""
"","","","","63b82398bbe6a599972413ad","bdp_wmem","Mon Mar 13 2023 15:20:48 GMT-0400 (Eastern Daylight Time)","762627","Match,No Match","html-keyboard-response","131","478634","0.0-7.0-1.19","","","null","","<div class='trialBorder'><div class='vertical-center'><img src='img/fixation2_sml.jpg'</img></div></div>","null","FIX","","","","","","","","","","",""
"","","","","63b82398bbe6a599972413ad","bdp_wmem","Mon Mar 13 2023 15:20:48 GMT-0400 (Eastern Daylight Time)","762627","Match,No Match","html-keyboard-response","132","481650","0.0-7.0-2.19","","","null","","<div class='trialBorder'><div class='vertical-center'><img style='vertical-align:center; align:center' src='img/fixation2_sml.jpg'></div><div class='arrayDiv2'><div class='tl'><img class='introPic' src='trustrating_stim/white_mw013.bmp'><br><font color='red'><strong>Keep</strong></font></div><div class='tr'><img class='introPic' src='trustrating_stim/white_mw092.bmp'><br><font color='green'><strong>Share</strong></font></div></div></div>","null","ARRAY","2","trustrating_stim/white_mw013.bmp,trustrating_stim/white_mw092.bmp","0,1","noMatchFace","i","3000","","","","",""
"","","","","63b82398bbe6a599972413ad","bdp_wmem","Mon Mar 13 2023 15:20:48 GMT-0400 (Eastern Daylight Time)","762627","Match,No Match","html-keyboard-response","133","485662","0.0-7.0-3.19","","","null","","<div class='trialBorder'><div class='vertical-center'><img src='img/fixation2_sml.jpg'</img></div></div>","null","DELAY","","","","","","","","","","",""
"","","","","63b82398bbe6a599972413ad","bdp_wmem","Mon Mar 13 2023 15:20:48 GMT-0400 (Eastern Daylight Time)","762627","Match,No Match","html-keyboard-response","134","487796","0.0-7.0-4.19","","","2133","","<div class='trialBorder'><div class='targDiv'><div class='tc'><img class='introPic' src='trustrating_stim/white_mw003.bmp'><br><font color='green'><strong>Share</strong></font></div></div><div class='respDiv'><div class='respDivL'>Match<br>(e)</div><div class='respDivR'>No Match<br>(i)</div></div></div>","e","TARGET","2","trustrating_stim/white_mw013.bmp,trustrating_stim/white_mw092.bmp","0,1","noMatchFace","i","3000","trustrating_stim/white_mw003.bmp","green","Share","REAL","0"
"","","","","63b82398bbe6a599972413ad","bdp_wmem","Mon Mar 13 2023 15:20:48 GMT-0400 (Eastern Daylight Time)","762627","Match,No Match","html-keyboard-response","135","488298","0.0-7.0-5.19","","","null","","<div class='trialBorder'><div class='vertical-center'><img src='img/error.jpg'></div><div class='respDiv'><div class='respDivL'><font style='color:orange'>Match<br>(e)</font></div><div class='respDivR'>No Match<br>(i)</div></div></div>","null","FEEDBACK","","","","","","","","","","",""
"","","","","63b82398bbe6a599972413ad","bdp_wmem","Mon Mar 13 2023 15:20:48 GMT-0400 (Eastern Daylight Time)","762627","Match,No Match","html-keyboard-response","136","488803","0.0-7.0-1.20","","","null","","<div class='trialBorder'><div class='vertical-center'><img src='img/fixation2_sml.jpg'</img></div></div>","null","FIX","","","","","","","","","","",""
"","","","","63b82398bbe6a599972413ad","bdp_wmem","Mon Mar 13 2023 15:20:48 GMT-0400 (Eastern Daylight Time)","762627","Match,No Match","html-keyboard-response","137","490304","0.0-7.0-2.20","","","null","","<div class='trialBorder'><div class='vertical-center'><img style='vertical-align:center; align:center' src='img/fixation2_sml.jpg'></div><div class='arrayDiv1'><div class='tc'><img class='introPic' src='trustrating_stim/white_mw085.bmp'><br><font color='green'><strong>Share</strong></font></div></div></div>","null","ARRAY","1","trustrating_stim/white_mw085.bmp","1","noMatchFace","i","1500","","","","",""
"","","","","63b82398bbe6a599972413ad","bdp_wmem","Mon Mar 13 2023 15:20:48 GMT-0400 (Eastern Daylight Time)","762627","Match,No Match","html-keyboard-response","138","494313","0.0-7.0-3.20","","","null","","<div class='trialBorder'><div class='vertical-center'><img src='img/fixation2_sml.jpg'</img></div></div>","null","DELAY","","","","","","","","","","",""
"","","","","63b82398bbe6a599972413ad","bdp_wmem","Mon Mar 13 2023 15:20:48 GMT-0400 (Eastern Daylight Time)","762627","Match,No Match","html-keyboard-response","139","495813","0.0-7.0-4.20","","","1499","","<div class='trialBorder'><div class='targDiv'><div class='tc'><img class='introPic' src='trustrating_stim/white_mw042.bmp'><br><font color='green'><strong>Share</strong></font></div></div><div class='respDiv'><div class='respDivL'>Match<br>(e)</div><div class='respDivR'>No Match<br>(i)</div></div></div>","i","TARGET","1","trustrating_stim/white_mw085.bmp","1","noMatchFace","i","1500","trustrating_stim/white_mw042.bmp","green","Share","REAL","1"
"","","","","63b82398bbe6a599972413ad","bdp_wmem","Mon Mar 13 2023 15:20:48 GMT-0400 (Eastern Daylight Time)","762627","Match,No Match","html-keyboard-response","140","496320","0.0-7.0-5.20","","","null","","<div class='trialBorder'><div class='vertical-center'><img src='img/correct.jpg'></div><div class='respDiv'><div class='respDivL'>Match<br>(e)</div><div class='respDivR'><font style='color:orange'>No Match<br>(i)</font></div></div></div>","null","FEEDBACK","","","","","","","","","","",""
"","","","","63b82398bbe6a599972413ad","bdp_wmem","Mon Mar 13 2023 15:20:48 GMT-0400 (Eastern Daylight Time)","762627","Match,No Match","html-keyboard-response","141","496824","0.0-7.0-1.21","","","null","","<div class='trialBorder'><div class='vertical-center'><img src='img/fixation2_sml.jpg'</img></div></div>","null","FIX","","","","","","","","","","",""
"","","","","63b82398bbe6a599972413ad","bdp_wmem","Mon Mar 13 2023 15:20:48 GMT-0400 (Eastern Daylight Time)","762627","Match,No Match","html-keyboard-response","142","499840","0.0-7.0-2.21","","","null","","<div class='trialBorder'><div class='vertical-center'><img style='vertical-align:center; align:center' src='img/fixation2_sml.jpg'></div><div class='arrayDiv2'><div class='tl'><img class='introPic' src='trustrating_stim/white_mw010.bmp'><br><font color='green'><strong>Share</strong></font></div><div class='tr'><img class='introPic' src='trustrating_stim/white_mw085.bmp'><br><font color='red'><strong>Keep</strong></font></div></div></div>","null","ARRAY","2","trustrating_stim/white_mw010.bmp,trustrating_stim/white_mw085.bmp","1,0","Match","e","3000","","","","",""
"","","","","63b82398bbe6a599972413ad","bdp_wmem","Mon Mar 13 2023 15:20:48 GMT-0400 (Eastern Daylight Time)","762627","Match,No Match","html-keyboard-response","143","503856","0.0-7.0-3.21","","","null","","<div class='trialBorder'><div class='vertical-center'><img src='img/fixation2_sml.jpg'</img></div></div>","null","DELAY","","","","","","","","","","",""
"","","","","63b82398bbe6a599972413ad","bdp_wmem","Mon Mar 13 2023 15:20:48 GMT-0400 (Eastern Daylight Time)","762627","Match,No Match","html-keyboard-response","144","505385","0.0-7.0-4.21","","","1529","","<div class='trialBorder'><div class='targDiv'><div class='tc'><img class='introPic' src='trustrating_stim/white_mw085.bmp'><br><font color='red'><strong>Keep</strong></font></div></div><div class='respDiv'><div class='respDivL'>Match<br>(e)</div><div class='respDivR'>No Match<br>(i)</div></div></div>","e","TARGET","2","trustrating_stim/white_mw010.bmp,trustrating_stim/white_mw085.bmp","1,0","Match","e","3000","trustrating_stim/white_mw085.bmp","red","Keep","REAL","1"
"","","","","63b82398bbe6a599972413ad","bdp_wmem","Mon Mar 13 2023 15:20:48 GMT-0400 (Eastern Daylight Time)","762627","Match,No Match","html-keyboard-response","145","505892","0.0-7.0-5.21","","","null","","<div class='trialBorder'><div class='vertical-center'><img src='img/correct.jpg'></div><div class='respDiv'><div class='respDivL'><font style='color:orange'>Match<br>(e)</font></div><div class='respDivR'>No Match<br>(i)</div></div></div>","null","FEEDBACK","","","","","","","","","","",""
"","","","","63b82398bbe6a599972413ad","bdp_wmem","Mon Mar 13 2023 15:20:48 GMT-0400 (Eastern Daylight Time)","762627","Match,No Match","html-keyboard-response","146","506398","0.0-7.0-1.22","","","null","","<div class='trialBorder'><div class='vertical-center'><img src='img/fixation2_sml.jpg'</img></div></div>","null","FIX","","","","","","","","","","",""
"","","","","63b82398bbe6a599972413ad","bdp_wmem","Mon Mar 13 2023 15:20:48 GMT-0400 (Eastern Daylight Time)","762627","Match,No Match","html-keyboard-response","147","507902","0.0-7.0-2.22","","","null","","<div class='trialBorder'><div class='vertical-center'><img style='vertical-align:center; align:center' src='img/fixation2_sml.jpg'></div><div class='arrayDiv1'><div class='tc'><img class='introPic' src='trustrating_stim/white_mw085.bmp'><br><font color='green'><strong>Share</strong></font></div></div></div>","null","ARRAY","1","trustrating_stim/white_mw085.bmp","1","noMatchOutcome","i","1500","","","","",""
"","","","","63b82398bbe6a599972413ad","bdp_wmem","Mon Mar 13 2023 15:20:48 GMT-0400 (Eastern Daylight Time)","762627","Match,No Match","html-keyboard-response","148","511907","0.0-7.0-3.22","","","null","","<div class='trialBorder'><div class='vertical-center'><img src='img/fixation2_sml.jpg'</img></div></div>","null","DELAY","","","","","","","","","","",""
"","","","","63b82398bbe6a599972413ad","bdp_wmem","Mon Mar 13 2023 15:20:48 GMT-0400 (Eastern Daylight Time)","762627","Match,No Match","html-keyboard-response","149","514067","0.0-7.0-4.22","","","2159","","<div class='trialBorder'><div class='targDiv'><div class='tc'><img class='introPic' src='trustrating_stim/white_mw085.bmp'><br><font color='red'><strong>Keep</strong></font></div></div><div class='respDiv'><div class='respDivL'>Match<br>(e)</div><div class='respDivR'>No Match<br>(i)</div></div></div>","i","TARGET","1","trustrating_stim/white_mw085.bmp","1","noMatchOutcome","i","1500","trustrating_stim/white_mw085.bmp","red","Keep","REAL","1"
"","","","","63b82398bbe6a599972413ad","bdp_wmem","Mon Mar 13 2023 15:20:48 GMT-0400 (Eastern Daylight Time)","762627","Match,No Match","html-keyboard-response","150","514573","0.0-7.0-5.22","","","null","","<div class='trialBorder'><div class='vertical-center'><img src='img/correct.jpg'></div><div class='respDiv'><div class='respDivL'>Match<br>(e)</div><div class='respDivR'><font style='color:orange'>No Match<br>(i)</font></div></div></div>","null","FEEDBACK","","","","","","","","","","",""
"","","","","63b82398bbe6a599972413ad","bdp_wmem","Mon Mar 13 2023 15:20:48 GMT-0400 (Eastern Daylight Time)","762627","Match,No Match","html-keyboard-response","151","515076","0.0-7.0-1.23","","","null","","<div class='trialBorder'><div class='vertical-center'><img src='img/fixation2_sml.jpg'</img></div></div>","null","FIX","","","","","","","","","","",""
"","","","","63b82398bbe6a599972413ad","bdp_wmem","Mon Mar 13 2023 15:20:48 GMT-0400 (Eastern Daylight Time)","762627","Match,No Match","html-keyboard-response","152","518078","0.0-7.0-2.23","","","null","","<div class='trialBorder'><div class='vertical-center'><img style='vertical-align:center; align:center' src='img/fixation2_sml.jpg'></div><div class='arrayDiv2'><div class='tl'><img class='introPic' src='trustrating_stim/white_mw091.bmp'><br><font color='green'><strong>Share</strong></font></div><div class='tr'><img class='introPic' src='trustrating_stim/white_mw078.bmp'><br><font color='red'><strong>Keep</strong></font></div></div></div>","null","ARRAY","2","trustrating_stim/white_mw091.bmp,trustrating_stim/white_mw078.bmp","1,0","Match","e","3000","","","","",""
"","","","","63b82398bbe6a599972413ad","bdp_wmem","Mon Mar 13 2023 15:20:48 GMT-0400 (Eastern Daylight Time)","762627","Match,No Match","html-keyboard-response","153","522089","0.0-7.0-3.23","","","null","","<div class='trialBorder'><div class='vertical-center'><img src='img/fixation2_sml.jpg'</img></div></div>","null","DELAY","","","","","","","","","","",""
"","","","","63b82398bbe6a599972413ad","bdp_wmem","Mon Mar 13 2023 15:20:48 GMT-0400 (Eastern Daylight Time)","762627","Match,No Match","html-keyboard-response","154","523789","0.0-7.0-4.23","","","1699","","<div class='trialBorder'><div class='targDiv'><div class='tc'><img class='introPic' src='trustrating_stim/white_mw091.bmp'><br><font color='green'><strong>Share</strong></font></div></div><div class='respDiv'><div class='respDivL'>Match<br>(e)</div><div class='respDivR'>No Match<br>(i)</div></div></div>","e","TARGET","2","trustrating_stim/white_mw091.bmp,trustrating_stim/white_mw078.bmp","1,0","Match","e","3000","trustrating_stim/white_mw091.bmp","green","Share","REAL","1"
"","","","","63b82398bbe6a599972413ad","bdp_wmem","Mon Mar 13 2023 15:20:48 GMT-0400 (Eastern Daylight Time)","762627","Match,No Match","html-keyboard-response","155","524305","0.0-7.0-5.23","","","null","","<div class='trialBorder'><div class='vertical-center'><img src='img/correct.jpg'></div><div class='respDiv'><div class='respDivL'><font style='color:orange'>Match<br>(e)</font></div><div class='respDivR'>No Match<br>(i)</div></div></div>","null","FEEDBACK","","","","","","","","","","",""
"","","","","63b82398bbe6a599972413ad","bdp_wmem","Mon Mar 13 2023 15:20:48 GMT-0400 (Eastern Daylight Time)","762627","Match,No Match","html-keyboard-response","156","524808","0.0-7.0-1.24","","","null","","<div class='trialBorder'><div class='vertical-center'><img src='img/fixation2_sml.jpg'</img></div></div>","null","FIX","","","","","","","","","","",""
"","","","","63b82398bbe6a599972413ad","bdp_wmem","Mon Mar 13 2023 15:20:48 GMT-0400 (Eastern Daylight Time)","762627","Match,No Match","html-keyboard-response","157","529320","0.0-7.0-2.24","","","null","","<div class='trialBorder'><div class='vertical-center'><img style='vertical-align:center; align:center' src='img/fixation2_sml.jpg'></div><div class='arrayDiv3'><div class='tl'><img class='introPic' src='trustrating_stim/white_mw042.bmp'><br><font color='green'><strong>Share</strong></font></div><div class='tc'><img class='introPic' src='trustrating_stim/white_mw012.bmp'><br><font color='green'><strong>Share</strong></font></div><div class='tr'><img class='introPic' src='trustrating_stim/white_mw003.bmp'><br><font color='red'><strong>Keep</strong></font></div></div></div>","null","ARRAY","3","trustrating_stim/white_mw042.bmp,trustrating_stim/white_mw012.bmp,trustrating_stim/white_mw003.bmp","1,1,0","Match","e","4500","","","","",""
"","","","","63b82398bbe6a599972413ad","bdp_wmem","Mon Mar 13 2023 15:20:48 GMT-0400 (Eastern Daylight Time)","762627","Match,No Match","html-keyboard-response","158","533324","0.0-7.0-3.24","","","null","","<div class='trialBorder'><div class='vertical-center'><img src='img/fixation2_sml.jpg'</img></div></div>","null","DELAY","","","","","","","","","","",""
"","","","","63b82398bbe6a599972413ad","bdp_wmem","Mon Mar 13 2023 15:20:48 GMT-0400 (Eastern Daylight Time)","762627","Match,No Match","html-keyboard-response","159","534952","0.0-7.0-4.24","","","1626","","<div class='trialBorder'><div class='targDiv'><div class='tc'><img class='introPic' src='trustrating_stim/white_mw003.bmp'><br><font color='red'><strong>Keep</strong></font></div></div><div class='respDiv'><div class='respDivL'>Match<br>(e)</div><div class='respDivR'>No Match<br>(i)</div></div></div>","e","TARGET","3","trustrating_stim/white_mw042.bmp,trustrating_stim/white_mw012.bmp,trustrating_stim/white_mw003.bmp","1,1,0","Match","e","4500","trustrating_stim/white_mw003.bmp","red","Keep","REAL","1"
"","","","","63b82398bbe6a599972413ad","bdp_wmem","Mon Mar 13 2023 15:20:48 GMT-0400 (Eastern Daylight Time)","762627","Match,No Match","html-keyboard-response","160","535454","0.0-7.0-5.24","","","null","","<div class='trialBorder'><div class='vertical-center'><img src='img/correct.jpg'></div><div class='respDiv'><div class='respDivL'><font style='color:orange'>Match<br>(e)</font></div><div class='respDivR'>No Match<br>(i)</div></div></div>","null","FEEDBACK","","","","","","","","","","",""
"","","","","63b82398bbe6a599972413ad","bdp_wmem","Mon Mar 13 2023 15:20:48 GMT-0400 (Eastern Daylight Time)","762627","Match,No Match","html-keyboard-response","161","535957","0.0-7.0-1.25","","","null","","<div class='trialBorder'><div class='vertical-center'><img src='img/fixation2_sml.jpg'</img></div></div>","null","FIX","","","","","","","","","","",""
"","","","","63b82398bbe6a599972413ad","bdp_wmem","Mon Mar 13 2023 15:20:48 GMT-0400 (Eastern Daylight Time)","762627","Match,No Match","html-keyboard-response","162","540458","0.0-7.0-2.25","","","null","","<div class='trialBorder'><div class='vertical-center'><img style='vertical-align:center; align:center' src='img/fixation2_sml.jpg'></div><div class='arrayDiv3'><div class='tl'><img class='introPic' src='trustrating_stim/white_mw092.bmp'><br><font color='green'><strong>Share</strong></font></div><div class='tc'><img class='introPic' src='trustrating_stim/white_mw070.bmp'><br><font color='red'><strong>Keep</strong></font></div><div class='tr'><img class='introPic' src='trustrating_stim/white_mw091.bmp'><br><font color='green'><strong>Share</strong></font></div></div></div>","null","ARRAY","3","trustrating_stim/white_mw092.bmp,trustrating_stim/white_mw070.bmp,trustrating_stim/white_mw091.bmp","1,0,1","Match","e","4500","","","","",""
"","","","","63b82398bbe6a599972413ad","bdp_wmem","Mon Mar 13 2023 15:20:48 GMT-0400 (Eastern Daylight Time)","762627","Match,No Match","html-keyboard-response","163","544475","0.0-7.0-3.25","","","null","","<div class='trialBorder'><div class='vertical-center'><img src='img/fixation2_sml.jpg'</img></div></div>","null","DELAY","","","","","","","","","","",""
"","","","","63b82398bbe6a599972413ad","bdp_wmem","Mon Mar 13 2023 15:20:48 GMT-0400 (Eastern Daylight Time)","762627","Match,No Match","html-keyboard-response","164","546295","0.0-7.0-4.25","","","1820","","<div class='trialBorder'><div class='targDiv'><div class='tc'><img class='introPic' src='trustrating_stim/white_mw092.bmp'><br><font color='green'><strong>Share</strong></font></div></div><div class='respDiv'><div class='respDivL'>Match<br>(e)</div><div class='respDivR'>No Match<br>(i)</div></div></div>","e","TARGET","3","trustrating_stim/white_mw092.bmp,trustrating_stim/white_mw070.bmp,trustrating_stim/white_mw091.bmp","1,0,1","Match","e","4500","trustrating_stim/white_mw092.bmp","green","Share","REAL","1"
"","","","","63b82398bbe6a599972413ad","bdp_wmem","Mon Mar 13 2023 15:20:48 GMT-0400 (Eastern Daylight Time)","762627","Match,No Match","html-keyboard-response","165","546798","0.0-7.0-5.25","","","null","","<div class='trialBorder'><div class='vertical-center'><img src='img/correct.jpg'></div><div class='respDiv'><div class='respDivL'><font style='color:orange'>Match<br>(e)</font></div><div class='respDivR'>No Match<br>(i)</div></div></div>","null","FEEDBACK","","","","","","","","","","",""
"","","","","63b82398bbe6a599972413ad","bdp_wmem","Mon Mar 13 2023 15:20:48 GMT-0400 (Eastern Daylight Time)","762627","Match,No Match","html-keyboard-response","166","547300","0.0-7.0-1.26","","","null","","<div class='trialBorder'><div class='vertical-center'><img src='img/fixation2_sml.jpg'</img></div></div>","null","FIX","","","","","","","","","","",""
"","","","","63b82398bbe6a599972413ad","bdp_wmem","Mon Mar 13 2023 15:20:48 GMT-0400 (Eastern Daylight Time)","762627","Match,No Match","html-keyboard-response","167","551808","0.0-7.0-2.26","","","null","","<div class='trialBorder'><div class='vertical-center'><img style='vertical-align:center; align:center' src='img/fixation2_sml.jpg'></div><div class='arrayDiv3'><div class='tl'><img class='introPic' src='trustrating_stim/white_mw085.bmp'><br><font color='green'><strong>Share</strong></font></div><div class='tc'><img class='introPic' src='trustrating_stim/white_mw003.bmp'><br><font color='red'><strong>Keep</strong></font></div><div class='tr'><img class='introPic' src='trustrating_stim/white_mw012.bmp'><br><font color='red'><strong>Keep</strong></font></div></div></div>","null","ARRAY","3","trustrating_stim/white_mw085.bmp,trustrating_stim/white_mw003.bmp,trustrating_stim/white_mw012.bmp","1,0,0","noMatchFace","i","4500","","","","",""
"","","","","63b82398bbe6a599972413ad","bdp_wmem","Mon Mar 13 2023 15:20:48 GMT-0400 (Eastern Daylight Time)","762627","Match,No Match","html-keyboard-response","168","555819","0.0-7.0-3.26","","","null","","<div class='trialBorder'><div class='vertical-center'><img src='img/fixation2_sml.jpg'</img></div></div>","null","DELAY","","","","","","","","","","",""
"","","","","63b82398bbe6a599972413ad","bdp_wmem","Mon Mar 13 2023 15:20:48 GMT-0400 (Eastern Daylight Time)","762627","Match,No Match","html-keyboard-response","169","558183","0.0-7.0-4.26","","","2362","","<div class='trialBorder'><div class='targDiv'><div class='tc'><img class='introPic' src='trustrating_stim/white_mw078.bmp'><br><font color='red'><strong>Keep</strong></font></div></div><div class='respDiv'><div class='respDivL'>Match<br>(e)</div><div class='respDivR'>No Match<br>(i)</div></div></div>","e","TARGET","3","trustrating_stim/white_mw085.bmp,trustrating_stim/white_mw003.bmp,trustrating_stim/white_mw012.bmp","1,0,0","noMatchFace","i","4500","trustrating_stim/white_mw078.bmp","red","Keep","REAL","0"
"","","","","63b82398bbe6a599972413ad","bdp_wmem","Mon Mar 13 2023 15:20:48 GMT-0400 (Eastern Daylight Time)","762627","Match,No Match","html-keyboard-response","170","558688","0.0-7.0-5.26","","","null","","<div class='trialBorder'><div class='vertical-center'><img src='img/error.jpg'></div><div class='respDiv'><div class='respDivL'><font style='color:orange'>Match<br>(e)</font></div><div class='respDivR'>No Match<br>(i)</div></div></div>","null","FEEDBACK","","","","","","","","","","",""
"","","","","63b82398bbe6a599972413ad","bdp_wmem","Mon Mar 13 2023 15:20:48 GMT-0400 (Eastern Daylight Time)","762627","Match,No Match","html-keyboard-response","171","559197","0.0-7.0-1.27","","","null","","<div class='trialBorder'><div class='vertical-center'><img src='img/fixation2_sml.jpg'</img></div></div>","null","FIX","","","","","","","","","","",""
"","","","","63b82398bbe6a599972413ad","bdp_wmem","Mon Mar 13 2023 15:20:48 GMT-0400 (Eastern Daylight Time)","762627","Match,No Match","html-keyboard-response","172","562205","0.0-7.0-2.27","","","null","","<div class='trialBorder'><div class='vertical-center'><img style='vertical-align:center; align:center' src='img/fixation2_sml.jpg'></div><div class='arrayDiv2'><div class='tl'><img class='introPic' src='trustrating_stim/white_mw003.bmp'><br><font color='green'><strong>Share</strong></font></div><div class='tr'><img class='introPic' src='trustrating_stim/white_mw091.bmp'><br><font color='red'><strong>Keep</strong></font></div></div></div>","null","ARRAY","2","trustrating_stim/white_mw003.bmp,trustrating_stim/white_mw091.bmp","1,0","Match","e","3000","","","","",""
"","","","","63b82398bbe6a599972413ad","bdp_wmem","Mon Mar 13 2023 15:20:48 GMT-0400 (Eastern Daylight Time)","762627","Match,No Match","html-keyboard-response","173","566213","0.0-7.0-3.27","","","null","","<div class='trialBorder'><div class='vertical-center'><img src='img/fixation2_sml.jpg'</img></div></div>","null","DELAY","","","","","","","","","","",""
"","","","","63b82398bbe6a599972413ad","bdp_wmem","Mon Mar 13 2023 15:20:48 GMT-0400 (Eastern Daylight Time)","762627","Match,No Match","html-keyboard-response","174","567478","0.0-7.0-4.27","","","1264","","<div class='trialBorder'><div class='targDiv'><div class='tc'><img class='introPic' src='trustrating_stim/white_mw003.bmp'><br><font color='green'><strong>Share</strong></font></div></div><div class='respDiv'><div class='respDivL'>Match<br>(e)</div><div class='respDivR'>No Match<br>(i)</div></div></div>","e","TARGET","2","trustrating_stim/white_mw003.bmp,trustrating_stim/white_mw091.bmp","1,0","Match","e","3000","trustrating_stim/white_mw003.bmp","green","Share","REAL","1"
"","","","","63b82398bbe6a599972413ad","bdp_wmem","Mon Mar 13 2023 15:20:48 GMT-0400 (Eastern Daylight Time)","762627","Match,No Match","html-keyboard-response","175","567983","0.0-7.0-5.27","","","null","","<div class='trialBorder'><div class='vertical-center'><img src='img/correct.jpg'></div><div class='respDiv'><div class='respDivL'><font style='color:orange'>Match<br>(e)</font></div><div class='respDivR'>No Match<br>(i)</div></div></div>","null","FEEDBACK","","","","","","","","","","",""
"","","","","63b82398bbe6a599972413ad","bdp_wmem","Mon Mar 13 2023 15:20:48 GMT-0400 (Eastern Daylight Time)","762627","Match,No Match","html-keyboard-response","176","568485","0.0-7.0-1.28","","","null","","<div class='trialBorder'><div class='vertical-center'><img src='img/fixation2_sml.jpg'</img></div></div>","null","FIX","","","","","","","","","","",""
"","","","","63b82398bbe6a599972413ad","bdp_wmem","Mon Mar 13 2023 15:20:48 GMT-0400 (Eastern Daylight Time)","762627","Match,No Match","html-keyboard-response","177","572992","0.0-7.0-2.28","","","null","","<div class='trialBorder'><div class='vertical-center'><img style='vertical-align:center; align:center' src='img/fixation2_sml.jpg'></div><div class='arrayDiv3'><div class='tl'><img class='introPic' src='trustrating_stim/white_mw078.bmp'><br><font color='green'><strong>Share</strong></font></div><div class='tc'><img class='introPic' src='trustrating_stim/white_mw091.bmp'><br><font color='red'><strong>Keep</strong></font></div><div class='tr'><img class='introPic' src='trustrating_stim/white_mw042.bmp'><br><font color='green'><strong>Share</strong></font></div></div></div>","null","ARRAY","3","trustrating_stim/white_mw078.bmp,trustrating_stim/white_mw091.bmp,trustrating_stim/white_mw042.bmp","1,0,1","Match","e","4500","","","","",""
"","","","","63b82398bbe6a599972413ad","bdp_wmem","Mon Mar 13 2023 15:20:48 GMT-0400 (Eastern Daylight Time)","762627","Match,No Match","html-keyboard-response","178","577005","0.0-7.0-3.28","","","null","","<div class='trialBorder'><div class='vertical-center'><img src='img/fixation2_sml.jpg'</img></div></div>","null","DELAY","","","","","","","","","","",""
"","","","","63b82398bbe6a599972413ad","bdp_wmem","Mon Mar 13 2023 15:20:48 GMT-0400 (Eastern Daylight Time)","762627","Match,No Match","html-keyboard-response","179","579504","0.0-7.0-4.28","","","2497","","<div class='trialBorder'><div class='targDiv'><div class='tc'><img class='introPic' src='trustrating_stim/white_mw042.bmp'><br><font color='green'><strong>Share</strong></font></div></div><div class='respDiv'><div class='respDivL'>Match<br>(e)</div><div class='respDivR'>No Match<br>(i)</div></div></div>","i","TARGET","3","trustrating_stim/white_mw078.bmp,trustrating_stim/white_mw091.bmp,trustrating_stim/white_mw042.bmp","1,0,1","Match","e","4500","trustrating_stim/white_mw042.bmp","green","Share","REAL","0"
"","","","","63b82398bbe6a599972413ad","bdp_wmem","Mon Mar 13 2023 15:20:48 GMT-0400 (Eastern Daylight Time)","762627","Match,No Match","html-keyboard-response","180","580007","0.0-7.0-5.28","","","null","","<div class='trialBorder'><div class='vertical-center'><img src='img/error.jpg'></div><div class='respDiv'><div class='respDivL'>Match<br>(e)</div><div class='respDivR'><font style='color:orange'>No Match<br>(i)</font></div></div></div>","null","FEEDBACK","","","","","","","","","","",""
"","","","","63b82398bbe6a599972413ad","bdp_wmem","Mon Mar 13 2023 15:20:48 GMT-0400 (Eastern Daylight Time)","762627","Match,No Match","html-keyboard-response","181","580511","0.0-7.0-1.29","","","null","","<div class='trialBorder'><div class='vertical-center'><img src='img/fixation2_sml.jpg'</img></div></div>","null","FIX","","","","","","","","","","",""
"","","","","63b82398bbe6a599972413ad","bdp_wmem","Mon Mar 13 2023 15:20:48 GMT-0400 (Eastern Daylight Time)","762627","Match,No Match","html-keyboard-response","182","585021","0.0-7.0-2.29","","","null","","<div class='trialBorder'><div class='vertical-center'><img style='vertical-align:center; align:center' src='img/fixation2_sml.jpg'></div><div class='arrayDiv3'><div class='tl'><img class='introPic' src='trustrating_stim/white_mw042.bmp'><br><font color='red'><strong>Keep</strong></font></div><div class='tc'><img class='introPic' src='trustrating_stim/white_mw091.bmp'><br><font color='green'><strong>Share</strong></font></div><div class='tr'><img class='introPic' src='trustrating_stim/white_mw012.bmp'><br><font color='green'><strong>Share</strong></font></div></div></div>","null","ARRAY","3","trustrating_stim/white_mw042.bmp,trustrating_stim/white_mw091.bmp,trustrating_stim/white_mw012.bmp","0,1,1","noMatchOutcome","i","4500","","","","",""
"","","","","63b82398bbe6a599972413ad","bdp_wmem","Mon Mar 13 2023 15:20:48 GMT-0400 (Eastern Daylight Time)","762627","Match,No Match","html-keyboard-response","183","589035","0.0-7.0-3.29","","","null","","<div class='trialBorder'><div class='vertical-center'><img src='img/fixation2_sml.jpg'</img></div></div>","null","DELAY","","","","","","","","","","",""
