"trial_type","trial_index","time_elapsed","internal_node_id","subject_id","task","startTime","totalTime","labels","view_history","rt","event","trial","time","trialtype","success","stimulus","key_press","stimType","arraySize","arrayFaces","arrayOutcomes","matchType","corrResp","arrayDur","targFace","targCol","targOutcome","trialType","corr"
"pavlovia","0","8","0.0-0.0","62d06d1b651d6922f62fab9b","bdp_wmem","Mon Mar 13 2023 12:04:39 GMT-0600 (Mountain Daylight Time)","748918","Match,No Match","","","","","","","","","","","","","","","","","","","","",""
"instructions","1","2537","0.0-1.0","62d06d1b651d6922f62fab9b","bdp_wmem","Mon Mar 13 2023 12:04:39 GMT-0600 (Mountain Daylight Time)","748918","Match,No Match","[{""page_index"":0,""viewing_time"":2526}]","2527","","","","","","","","","","","","","","","","","","",""
"","","","","62d06d1b651d6922f62fab9b","bdp_wmem","Mon Mar 13 2023 12:04:39 GMT-0600 (Mountain Daylight Time)","748918","Match,No Match","","","fullscreenenter","2","4006","fullscreenenter","","","","","","","","","","","","","","",""
"fullscreen","2","4954","0.0-2.0","62d06d1b651d6922f62fab9b","bdp_wmem","Mon Mar 13 2023 12:04:39 GMT-0600 (Mountain Daylight Time)","748918","Match,No Match","","","","","","","true","","","","","","","","","","","","","",""
"instructions","3","30666","0.0-4.0","62d06d1b651d6922f62fab9b","bdp_wmem","Mon Mar 13 2023 12:04:39 GMT-0600 (Mountain Daylight Time)","748918","Match,No Match","[{""page_index"":0,""viewing_time"":12071},{""page_index"":1,""viewing_time"":8772},{""page_index"":2,""viewing_time"":2680},{""page_index"":3,""viewing_time"":1360},{""page_index"":4,""viewing_time"":826}]","25709","","","","","","","","","","","","","","","","","","",""
"html-keyboard-response","4","31172","0.0-5.0-1.0","62d06d1b651d6922f62fab9b","bdp_wmem","Mon Mar 13 2023 12:04:39 GMT-0600 (Mountain Daylight Time)","748918","Match,No Match","","null","","","","","","<div class='trialBorder'><div class='vertical-center'><img src='img/fixation2_sml.jpg'</img></div></div>","null","FIX","","","","","","","","","","",""
"html-keyboard-response","5","32676","0.0-5.0-2.0","62d06d1b651d6922f62fab9b","bdp_wmem","Mon Mar 13 2023 12:04:39 GMT-0600 (Mountain Daylight Time)","748918","Match,No Match","","null","","","","","","<div class='trialBorder'><div class='vertical-center'><img style='vertical-align:center; align:center' src='img/fixation2_sml.jpg'></div><div class='arrayDiv1'><div class='tc'><img class='introPic' src='trustrating_stim/white_mw010.bmp'><br><font color='green'><strong>Share</strong></font></div></div></div>","null","ARRAY","1","trustrating_stim/white_mw010.bmp","1","Match","e","1500","","","","",""
"html-keyboard-response","6","36681","0.0-5.0-3.0","62d06d1b651d6922f62fab9b","bdp_wmem","Mon Mar 13 2023 12:04:39 GMT-0600 (Mountain Daylight Time)","748918","Match,No Match","","null","","","","","","<div class='trialBorder'><div class='vertical-center'><img src='img/fixation2_sml.jpg'</img></div></div>","null","DELAY","","","","","","","","","","",""
"html-keyboard-response","7","38589","0.0-5.0-4.0","62d06d1b651d6922f62fab9b","bdp_wmem","Mon Mar 13 2023 12:04:39 GMT-0600 (Mountain Daylight Time)","748918","Match,No Match","","1902","","","","","","<div class='trialBorder'><div class='targDiv'><div class='tc'><img class='introPic' src='trustrating_stim/white_mw010.bmp'><br><font color='green'><strong>Share</strong></font></div></div><div class='respDiv'><div class='respDivL'>Match<br>(e)</div><div class='respDivR'>No Match<br>(i)</div></div></div>","i","TARGET","1","trustrating_stim/white_mw010.bmp","1","Match","e","1500","trustrating_stim/white_mw010.bmp","green","Share","PRACTICE","0"
"html-keyboard-response","8","39094","0.0-5.0-5.0","62d06d1b651d6922f62fab9b","bdp_wmem","Mon Mar 13 2023 12:04:39 GMT-0600 (Mountain Daylight Time)","748918","Match,No Match","","null","","","","","","<div class='trialBorder'><div class='vertical-center'><img src='img/error.jpg'></div><div class='respDiv'><div class='respDivL'>Match<br>(e)</div><div class='respDivR'><font style='color:orange'>No Match<br>(i)</font></div></div></div>","null","FEEDBACK","","","","","","","","","","",""
"html-keyboard-response","9","39598","0.0-5.0-1.1","62d06d1b651d6922f62fab9b","bdp_wmem","Mon Mar 13 2023 12:04:39 GMT-0600 (Mountain Daylight Time)","748918","Match,No Match","","null","","","","","","<div class='trialBorder'><div class='vertical-center'><img src='img/fixation2_sml.jpg'</img></div></div>","null","FIX","","","","","","","","","","",""
"html-keyboard-response","10","42601","0.0-5.0-2.1","62d06d1b651d6922f62fab9b","bdp_wmem","Mon Mar 13 2023 12:04:39 GMT-0600 (Mountain Daylight Time)","748918","Match,No Match","","null","","","","","","<div class='trialBorder'><div class='vertical-center'><img style='vertical-align:center; align:center' src='img/fixation2_sml.jpg'></div><div class='arrayDiv2'><div class='tl'><img class='introPic' src='trustrating_stim/white_mw010.bmp'><br><font color='red'><strong>Keep</strong></font></div><div class='tr'><img class='introPic' src='trustrating_stim/white_mw013.bmp'><br><font color='green'><strong>Share</strong></font></div></div></div>","null","ARRAY","2","trustrating_stim/white_mw010.bmp,trustrating_stim/white_mw013.bmp","0,1","Match","e","3000","","","","",""
"html-keyboard-response","11","46604","0.0-5.0-3.1","62d06d1b651d6922f62fab9b","bdp_wmem","Mon Mar 13 2023 12:04:39 GMT-0600 (Mountain Daylight Time)","748918","Match,No Match","","null","","","","","","<div class='trialBorder'><div class='vertical-center'><img src='img/fixation2_sml.jpg'</img></div></div>","null","DELAY","","","","","","","","","","",""
"html-keyboard-response","12","48275","0.0-5.0-4.1","62d06d1b651d6922f62fab9b","bdp_wmem","Mon Mar 13 2023 12:04:39 GMT-0600 (Mountain Daylight Time)","748918","Match,No Match","","1664","","","","","","<div class='trialBorder'><div class='targDiv'><div class='tc'><img class='introPic' src='trustrating_stim/white_mw013.bmp'><br><font color='green'><strong>Share</strong></font></div></div><div class='respDiv'><div class='respDivL'>Match<br>(e)</div><div class='respDivR'>No Match<br>(i)</div></div></div>","e","TARGET","2","trustrating_stim/white_mw010.bmp,trustrating_stim/white_mw013.bmp","0,1","Match","e","3000","trustrating_stim/white_mw013.bmp","green","Share","PRACTICE","1"
"html-keyboard-response","13","48779","0.0-5.0-5.1","62d06d1b651d6922f62fab9b","bdp_wmem","Mon Mar 13 2023 12:04:39 GMT-0600 (Mountain Daylight Time)","748918","Match,No Match","","null","","","","","","<div class='trialBorder'><div class='vertical-center'><img src='img/correct.jpg'></div><div class='respDiv'><div class='respDivL'><font style='color:orange'>Match<br>(e)</font></div><div class='respDivR'>No Match<br>(i)</div></div></div>","null","FEEDBACK","","","","","","","","","","",""
"html-keyboard-response","14","49282","0.0-5.0-1.2","62d06d1b651d6922f62fab9b","bdp_wmem","Mon Mar 13 2023 12:04:39 GMT-0600 (Mountain Daylight Time)","748918","Match,No Match","","null","","","","","","<div class='trialBorder'><div class='vertical-center'><img src='img/fixation2_sml.jpg'</img></div></div>","null","FIX","","","","","","","","","","",""
"html-keyboard-response","15","53787","0.0-5.0-2.2","62d06d1b651d6922f62fab9b","bdp_wmem","Mon Mar 13 2023 12:04:39 GMT-0600 (Mountain Daylight Time)","748918","Match,No Match","","null","","","","","","<div class='trialBorder'><div class='vertical-center'><img style='vertical-align:center; align:center' src='img/fixation2_sml.jpg'></div><div class='arrayDiv3'><div class='tl'><img class='introPic' src='trustrating_stim/white_mw003.bmp'><br><font color='green'><strong>Share</strong></font></div><div class='tc'><img class='introPic' src='trustrating_stim/white_mw013.bmp'><br><font color='red'><strong>Keep</strong></font></div><div class='tr'><img class='introPic' src='trustrating_stim/white_mw012.bmp'><br><font color='green'><strong>Share</strong></font></div></div></div>","null","ARRAY","3","trustrating_stim/white_mw003.bmp,trustrating_stim/white_mw013.bmp,trustrating_stim/white_mw012.bmp","1,0,1","noMatchOutcome","i","4500","","","","",""
"html-keyboard-response","16","57790","0.0-5.0-3.2","62d06d1b651d6922f62fab9b","bdp_wmem","Mon Mar 13 2023 12:04:39 GMT-0600 (Mountain Daylight Time)","748918","Match,No Match","","null","","","","","","<div class='trialBorder'><div class='vertical-center'><img src='img/fixation2_sml.jpg'</img></div></div>","null","DELAY","","","","","","","","","","",""
"html-keyboard-response","17","58895","0.0-5.0-4.2","62d06d1b651d6922f62fab9b","bdp_wmem","Mon Mar 13 2023 12:04:39 GMT-0600 (Mountain Daylight Time)","748918","Match,No Match","","1102","","","","","","<div class='trialBorder'><div class='targDiv'><div class='tc'><img class='introPic' src='trustrating_stim/white_mw003.bmp'><br><font color='red'><strong>Keep</strong></font></div></div><div class='respDiv'><div class='respDivL'>Match<br>(e)</div><div class='respDivR'>No Match<br>(i)</div></div></div>","e","TARGET","3","trustrating_stim/white_mw003.bmp,trustrating_stim/white_mw013.bmp,trustrating_stim/white_mw012.bmp","1,0,1","noMatchOutcome","i","4500","trustrating_stim/white_mw003.bmp","red","Keep","PRACTICE","0"
"html-keyboard-response","18","59398","0.0-5.0-5.2","62d06d1b651d6922f62fab9b","bdp_wmem","Mon Mar 13 2023 12:04:39 GMT-0600 (Mountain Daylight Time)","748918","Match,No Match","","null","","","","","","<div class='trialBorder'><div class='vertical-center'><img src='img/error.jpg'></div><div class='respDiv'><div class='respDivL'><font style='color:orange'>Match<br>(e)</font></div><div class='respDivR'>No Match<br>(i)</div></div></div>","null","FEEDBACK","","","","","","","","","","",""
"html-keyboard-response","19","59902","0.0-5.0-1.3","62d06d1b651d6922f62fab9b","bdp_wmem","Mon Mar 13 2023 12:04:39 GMT-0600 (Mountain Daylight Time)","748918","Match,No Match","","null","","","","","","<div class='trialBorder'><div class='vertical-center'><img src='img/fixation2_sml.jpg'</img></div></div>","null","FIX","","","","","","","","","","",""
"html-keyboard-response","20","61407","0.0-5.0-2.3","62d06d1b651d6922f62fab9b","bdp_wmem","Mon Mar 13 2023 12:04:39 GMT-0600 (Mountain Daylight Time)","748918","Match,No Match","","null","","","","","","<div class='trialBorder'><div class='vertical-center'><img style='vertical-align:center; align:center' src='img/fixation2_sml.jpg'></div><div class='arrayDiv1'><div class='tc'><img class='introPic' src='trustrating_stim/white_mw078.bmp'><br><font color='green'><strong>Share</strong></font></div></div></div>","null","ARRAY","1","trustrating_stim/white_mw078.bmp","1","noMatchFace","i","1500","","","","",""
"html-keyboard-response","21","65409","0.0-5.0-3.3","62d06d1b651d6922f62fab9b","bdp_wmem","Mon Mar 13 2023 12:04:39 GMT-0600 (Mountain Daylight Time)","748918","Match,No Match","","null","","","","","","<div class='trialBorder'><div class='vertical-center'><img src='img/fixation2_sml.jpg'</img></div></div>","null","DELAY","","","","","","","","","","",""
"html-keyboard-response","22","65785","0.0-5.0-4.3","62d06d1b651d6922f62fab9b","bdp_wmem","Mon Mar 13 2023 12:04:39 GMT-0600 (Mountain Daylight Time)","748918","Match,No Match","","372","","","","","","<div class='trialBorder'><div class='targDiv'><div class='tc'><img class='introPic' src='trustrating_stim/white_mw013.bmp'><br><font color='green'><strong>Share</strong></font></div></div><div class='respDiv'><div class='respDivL'>Match<br>(e)</div><div class='respDivR'>No Match<br>(i)</div></div></div>","e","TARGET","1","trustrating_stim/white_mw078.bmp","1","noMatchFace","i","1500","trustrating_stim/white_mw013.bmp","green","Share","PRACTICE","0"
"html-keyboard-response","23","66288","0.0-5.0-5.3","62d06d1b651d6922f62fab9b","bdp_wmem","Mon Mar 13 2023 12:04:39 GMT-0600 (Mountain Daylight Time)","748918","Match,No Match","","null","","","","","","<div class='trialBorder'><div class='vertical-center'><img src='img/error.jpg'></div><div class='respDiv'><div class='respDivL'><font style='color:orange'>Match<br>(e)</font></div><div class='respDivR'>No Match<br>(i)</div></div></div>","null","FEEDBACK","","","","","","","","","","",""
"html-keyboard-response","24","66792","0.0-5.0-1.4","62d06d1b651d6922f62fab9b","bdp_wmem","Mon Mar 13 2023 12:04:39 GMT-0600 (Mountain Daylight Time)","748918","Match,No Match","","null","","","","","","<div class='trialBorder'><div class='vertical-center'><img src='img/fixation2_sml.jpg'</img></div></div>","null","FIX","","","","","","","","","","",""
"html-keyboard-response","25","71296","0.0-5.0-2.4","62d06d1b651d6922f62fab9b","bdp_wmem","Mon Mar 13 2023 12:04:39 GMT-0600 (Mountain Daylight Time)","748918","Match,No Match","","null","","","","","","<div class='trialBorder'><div class='vertical-center'><img style='vertical-align:center; align:center' src='img/fixation2_sml.jpg'></div><div class='arrayDiv3'><div class='tl'><img class='introPic' src='trustrating_stim/white_mw091.bmp'><br><font color='red'><strong>Keep</strong></font></div><div class='tc'><img class='introPic' src='trustrating_stim/white_mw012.bmp'><br><font color='green'><strong>Share</strong></font></div><div class='tr'><img class='introPic' src='trustrating_stim/white_mw040.bmp'><br><font color='red'><strong>Keep</strong></font></div></div></div>","null","ARRAY","3","trustrating_stim/white_mw091.bmp,trustrating_stim/white_mw012.bmp,trustrating_stim/white_mw040.bmp","0,1,0","Match","e","4500","","","","",""
"html-keyboard-response","26","75299","0.0-5.0-3.4","62d06d1b651d6922f62fab9b","bdp_wmem","Mon Mar 13 2023 12:04:39 GMT-0600 (Mountain Daylight Time)","748918","Match,No Match","","null","","","","","","<div class='trialBorder'><div class='vertical-center'><img src='img/fixation2_sml.jpg'</img></div></div>","null","DELAY","","","","","","","","","","",""
"html-keyboard-response","27","76736","0.0-5.0-4.4","62d06d1b651d6922f62fab9b","bdp_wmem","Mon Mar 13 2023 12:04:39 GMT-0600 (Mountain Daylight Time)","748918","Match,No Match","","1435","","","","","","<div class='trialBorder'><div class='targDiv'><div class='tc'><img class='introPic' src='trustrating_stim/white_mw040.bmp'><br><font color='red'><strong>Keep</strong></font></div></div><div class='respDiv'><div class='respDivL'>Match<br>(e)</div><div class='respDivR'>No Match<br>(i)</div></div></div>","e","TARGET","3","trustrating_stim/white_mw091.bmp,trustrating_stim/white_mw012.bmp,trustrating_stim/white_mw040.bmp","0,1,0","Match","e","4500","trustrating_stim/white_mw040.bmp","red","Keep","PRACTICE","1"
"html-keyboard-response","28","77240","0.0-5.0-5.4","62d06d1b651d6922f62fab9b","bdp_wmem","Mon Mar 13 2023 12:04:39 GMT-0600 (Mountain Daylight Time)","748918","Match,No Match","","null","","","","","","<div class='trialBorder'><div class='vertical-center'><img src='img/correct.jpg'></div><div class='respDiv'><div class='respDivL'><font style='color:orange'>Match<br>(e)</font></div><div class='respDivR'>No Match<br>(i)</div></div></div>","null","FEEDBACK","","","","","","","","","","",""
"html-keyboard-response","29","77742","0.0-5.0-1.5","62d06d1b651d6922f62fab9b","bdp_wmem","Mon Mar 13 2023 12:04:39 GMT-0600 (Mountain Daylight Time)","748918","Match,No Match","","null","","","","","","<div class='trialBorder'><div class='vertical-center'><img src='img/fixation2_sml.jpg'</img></div></div>","null","FIX","","","","","","","","","","",""
"html-keyboard-response","30","80745","0.0-5.0-2.5","62d06d1b651d6922f62fab9b","bdp_wmem","Mon Mar 13 2023 12:04:39 GMT-0600 (Mountain Daylight Time)","748918","Match,No Match","","null","","","","","","<div class='trialBorder'><div class='vertical-center'><img style='vertical-align:center; align:center' src='img/fixation2_sml.jpg'></div><div class='arrayDiv2'><div class='tl'><img class='introPic' src='trustrating_stim/white_mw070.bmp'><br><font color='red'><strong>Keep</strong></font></div><div class='tr'><img class='introPic' src='trustrating_stim/white_mw040.bmp'><br><font color='green'><strong>Share</strong></font></div></div></div>","null","ARRAY","2","trustrating_stim/white_mw070.bmp,trustrating_stim/white_mw040.bmp","0,1","noMatchOutcome","i","3000","","","","",""
"html-keyboard-response","31","84749","0.0-5.0-3.5","62d06d1b651d6922f62fab9b","bdp_wmem","Mon Mar 13 2023 12:04:39 GMT-0600 (Mountain Daylight Time)","748918","Match,No Match","","null","","","","","","<div class='trialBorder'><div class='vertical-center'><img src='img/fixation2_sml.jpg'</img></div></div>","null","DELAY","","","","","","","","","","",""
"html-keyboard-response","32","85914","0.0-5.0-4.5","62d06d1b651d6922f62fab9b","bdp_wmem","Mon Mar 13 2023 12:04:39 GMT-0600 (Mountain Daylight Time)","748918","Match,No Match","","1161","","","","","","<div class='trialBorder'><div class='targDiv'><div class='tc'><img class='introPic' src='trustrating_stim/white_mw070.bmp'><br><font color='green'><strong>Share</strong></font></div></div><div class='respDiv'><div class='respDivL'>Match<br>(e)</div><div class='respDivR'>No Match<br>(i)</div></div></div>","e","TARGET","2","trustrating_stim/white_mw070.bmp,trustrating_stim/white_mw040.bmp","0,1","noMatchOutcome","i","3000","trustrating_stim/white_mw070.bmp","green","Share","PRACTICE","0"
"html-keyboard-response","33","86416","0.0-5.0-5.5","62d06d1b651d6922f62fab9b","bdp_wmem","Mon Mar 13 2023 12:04:39 GMT-0600 (Mountain Daylight Time)","748918","Match,No Match","","null","","","","","","<div class='trialBorder'><div class='vertical-center'><img src='img/error.jpg'></div><div class='respDiv'><div class='respDivL'><font style='color:orange'>Match<br>(e)</font></div><div class='respDivR'>No Match<br>(i)</div></div></div>","null","FEEDBACK","","","","","","","","","","",""
"instructions","34","89578","0.0-6.0","62d06d1b651d6922f62fab9b","bdp_wmem","Mon Mar 13 2023 12:04:39 GMT-0600 (Mountain Daylight Time)","748918","Match,No Match","[{""page_index"":0,""viewing_time"":3161}]","3161","","","","","","","","","","","","","","","","","","",""
"html-keyboard-response","35","90081","0.0-7.0-1.0","62d06d1b651d6922f62fab9b","bdp_wmem","Mon Mar 13 2023 12:04:39 GMT-0600 (Mountain Daylight Time)","748918","Match,No Match","","null","","","","","","<div class='trialBorder'><div class='vertical-center'><img src='img/fixation2_sml.jpg'</img></div></div>","null","FIX","","","","","","","","","","",""
"html-keyboard-response","36","94586","0.0-7.0-2.0","62d06d1b651d6922f62fab9b","bdp_wmem","Mon Mar 13 2023 12:04:39 GMT-0600 (Mountain Daylight Time)","748918","Match,No Match","","null","","","","","","<div class='trialBorder'><div class='vertical-center'><img style='vertical-align:center; align:center' src='img/fixation2_sml.jpg'></div><div class='arrayDiv3'><div class='tl'><img class='introPic' src='trustrating_stim/white_mw012.bmp'><br><font color='green'><strong>Share</strong></font></div><div class='tc'><img class='introPic' src='trustrating_stim/white_mw070.bmp'><br><font color='red'><strong>Keep</strong></font></div><div class='tr'><img class='introPic' src='trustrating_stim/white_mw010.bmp'><br><font color='red'><strong>Keep</strong></font></div></div></div>","null","ARRAY","3","trustrating_stim/white_mw012.bmp,trustrating_stim/white_mw070.bmp,trustrating_stim/white_mw010.bmp","1,0,0","Match","e","4500","","","","",""
"html-keyboard-response","37","98589","0.0-7.0-3.0","62d06d1b651d6922f62fab9b","bdp_wmem","Mon Mar 13 2023 12:04:39 GMT-0600 (Mountain Daylight Time)","748918","Match,No Match","","null","","","","","","<div class='trialBorder'><div class='vertical-center'><img src='img/fixation2_sml.jpg'</img></div></div>","null","DELAY","","","","","","","","","","",""
"html-keyboard-response","38","103030","0.0-7.0-4.0","62d06d1b651d6922f62fab9b","bdp_wmem","Mon Mar 13 2023 12:04:39 GMT-0600 (Mountain Daylight Time)","748918","Match,No Match","","4438","","","","","","<div class='trialBorder'><div class='targDiv'><div class='tc'><img class='introPic' src='trustrating_stim/white_mw012.bmp'><br><font color='green'><strong>Share</strong></font></div></div><div class='respDiv'><div class='respDivL'>Match<br>(e)</div><div class='respDivR'>No Match<br>(i)</div></div></div>","i","TARGET","3","trustrating_stim/white_mw012.bmp,trustrating_stim/white_mw070.bmp,trustrating_stim/white_mw010.bmp","1,0,0","Match","e","4500","trustrating_stim/white_mw012.bmp","green","Share","REAL","0"
"html-keyboard-response","39","103534","0.0-7.0-5.0","62d06d1b651d6922f62fab9b","bdp_wmem","Mon Mar 13 2023 12:04:39 GMT-0600 (Mountain Daylight Time)","748918","Match,No Match","","null","","","","","","<div class='trialBorder'><div class='vertical-center'><img src='img/error.jpg'></div><div class='respDiv'><div class='respDivL'>Match<br>(e)</div><div class='respDivR'><font style='color:orange'>No Match<br>(i)</font></div></div></div>","null","FEEDBACK","","","","","","","","","","",""
"html-keyboard-response","40","104038","0.0-7.0-1.1","62d06d1b651d6922f62fab9b","bdp_wmem","Mon Mar 13 2023 12:04:39 GMT-0600 (Mountain Daylight Time)","748918","Match,No Match","","null","","","","","","<div class='trialBorder'><div class='vertical-center'><img src='img/fixation2_sml.jpg'</img></div></div>","null","FIX","","","","","","","","","","",""
"html-keyboard-response","41","108544","0.0-7.0-2.1","62d06d1b651d6922f62fab9b","bdp_wmem","Mon Mar 13 2023 12:04:39 GMT-0600 (Mountain Daylight Time)","748918","Match,No Match","","null","","","","","","<div class='trialBorder'><div class='vertical-center'><img style='vertical-align:center; align:center' src='img/fixation2_sml.jpg'></div><div class='arrayDiv3'><div class='tl'><img class='introPic' src='trustrating_stim/white_mw040.bmp'><br><font color='green'><strong>Share</strong></font></div><div class='tc'><img class='introPic' src='trustrating_stim/white_mw091.bmp'><br><font color='red'><strong>Keep</strong></font></div><div class='tr'><img class='introPic' src='trustrating_stim/white_mw012.bmp'><br><font color='red'><strong>Keep</strong></font></div></div></div>","null","ARRAY","3","trustrating_stim/white_mw040.bmp,trustrating_stim/white_mw091.bmp,trustrating_stim/white_mw012.bmp","1,0,0","Match","e","4500","","","","",""
"html-keyboard-response","42","112548","0.0-7.0-3.1","62d06d1b651d6922f62fab9b","bdp_wmem","Mon Mar 13 2023 12:04:39 GMT-0600 (Mountain Daylight Time)","748918","Match,No Match","","null","","","","","","<div class='trialBorder'><div class='vertical-center'><img src='img/fixation2_sml.jpg'</img></div></div>","null","DELAY","","","","","","","","","","",""
"html-keyboard-response","43","115447","0.0-7.0-4.1","62d06d1b651d6922f62fab9b","bdp_wmem","Mon Mar 13 2023 12:04:39 GMT-0600 (Mountain Daylight Time)","748918","Match,No Match","","2894","","","","","","<div class='trialBorder'><div class='targDiv'><div class='tc'><img class='introPic' src='trustrating_stim/white_mw040.bmp'><br><font color='green'><strong>Share</strong></font></div></div><div class='respDiv'><div class='respDivL'>Match<br>(e)</div><div class='respDivR'>No Match<br>(i)</div></div></div>","i","TARGET","3","trustrating_stim/white_mw040.bmp,trustrating_stim/white_mw091.bmp,trustrating_stim/white_mw012.bmp","1,0,0","Match","e","4500","trustrating_stim/white_mw040.bmp","green","Share","REAL","0"
"html-keyboard-response","44","115950","0.0-7.0-5.1","62d06d1b651d6922f62fab9b","bdp_wmem","Mon Mar 13 2023 12:04:39 GMT-0600 (Mountain Daylight Time)","748918","Match,No Match","","null","","","","","","<div class='trialBorder'><div class='vertical-center'><img src='img/error.jpg'></div><div class='respDiv'><div class='respDivL'>Match<br>(e)</div><div class='respDivR'><font style='color:orange'>No Match<br>(i)</font></div></div></div>","null","FEEDBACK","","","","","","","","","","",""
"html-keyboard-response","45","116453","0.0-7.0-1.2","62d06d1b651d6922f62fab9b","bdp_wmem","Mon Mar 13 2023 12:04:39 GMT-0600 (Mountain Daylight Time)","748918","Match,No Match","","null","","","","","","<div class='trialBorder'><div class='vertical-center'><img src='img/fixation2_sml.jpg'</img></div></div>","null","FIX","","","","","","","","","","",""
"html-keyboard-response","46","117964","0.0-7.0-2.2","62d06d1b651d6922f62fab9b","bdp_wmem","Mon Mar 13 2023 12:04:39 GMT-0600 (Mountain Daylight Time)","748918","Match,No Match","","null","","","","","","<div class='trialBorder'><div class='vertical-center'><img style='vertical-align:center; align:center' src='img/fixation2_sml.jpg'></div><div class='arrayDiv1'><div class='tc'><img class='introPic' src='trustrating_stim/white_mw040.bmp'><br><font color='green'><strong>Share</strong></font></div></div></div>","null","ARRAY","1","trustrating_stim/white_mw040.bmp","1","noMatchFace","i","1500","","","","",""
"html-keyboard-response","47","121969","0.0-7.0-3.2","62d06d1b651d6922f62fab9b","bdp_wmem","Mon Mar 13 2023 12:04:39 GMT-0600 (Mountain Daylight Time)","748918","Match,No Match","","null","","","","","","<div class='trialBorder'><div class='vertical-center'><img src='img/fixation2_sml.jpg'</img></div></div>","null","DELAY","","","","","","","","","","",""
"html-keyboard-response","48","122284","0.0-7.0-4.2","62d06d1b651d6922f62fab9b","bdp_wmem","Mon Mar 13 2023 12:04:39 GMT-0600 (Mountain Daylight Time)","748918","Match,No Match","","311","","","","","","<div class='trialBorder'><div class='targDiv'><div class='tc'><img class='introPic' src='trustrating_stim/white_mw013.bmp'><br><font color='green'><strong>Share</strong></font></div></div><div class='respDiv'><div class='respDivL'>Match<br>(e)</div><div class='respDivR'>No Match<br>(i)</div></div></div>","i","TARGET","1","trustrating_stim/white_mw040.bmp","1","noMatchFace","i","1500","trustrating_stim/white_mw013.bmp","green","Share","REAL","1"
"html-keyboard-response","49","122787","0.0-7.0-5.2","62d06d1b651d6922f62fab9b","bdp_wmem","Mon Mar 13 2023 12:04:39 GMT-0600 (Mountain Daylight Time)","748918","Match,No Match","","null","","","","","","<div class='trialBorder'><div class='vertical-center'><img src='img/correct.jpg'></div><div class='respDiv'><div class='respDivL'>Match<br>(e)</div><div class='respDivR'><font style='color:orange'>No Match<br>(i)</font></div></div></div>","null","FEEDBACK","","","","","","","","","","",""
"html-keyboard-response","50","123290","0.0-7.0-1.3","62d06d1b651d6922f62fab9b","bdp_wmem","Mon Mar 13 2023 12:04:39 GMT-0600 (Mountain Daylight Time)","748918","Match,No Match","","null","","","","","","<div class='trialBorder'><div class='vertical-center'><img src='img/fixation2_sml.jpg'</img></div></div>","null","FIX","","","","","","","","","","",""
"html-keyboard-response","51","124795","0.0-7.0-2.3","62d06d1b651d6922f62fab9b","bdp_wmem","Mon Mar 13 2023 12:04:39 GMT-0600 (Mountain Daylight Time)","748918","Match,No Match","","null","","","","","","<div class='trialBorder'><div class='vertical-center'><img style='vertical-align:center; align:center' src='img/fixation2_sml.jpg'></div><div class='arrayDiv1'><div class='tc'><img class='introPic' src='trustrating_stim/white_mw092.bmp'><br><font color='red'><strong>Keep</strong></font></div></div></div>","null","ARRAY","1","trustrating_stim/white_mw092.bmp","0","Match","e","1500","","","","",""
"html-keyboard-response","52","128800","0.0-7.0-3.3","62d06d1b651d6922f62fab9b","bdp_wmem","Mon Mar 13 2023 12:04:39 GMT-0600 (Mountain Daylight Time)","748918","Match,No Match","","null","","","","","","<div class='trialBorder'><div class='vertical-center'><img src='img/fixation2_sml.jpg'</img></div></div>","null","DELAY","","","","","","","","","","",""
"html-keyboard-response","53","128822","0.0-7.0-4.3","62d06d1b651d6922f62fab9b","bdp_wmem","Mon Mar 13 2023 12:04:39 GMT-0600 (Mountain Daylight Time)","748918","Match,No Match","","18","","","","","","<div class='trialBorder'><div class='targDiv'><div class='tc'><img class='introPic' src='trustrating_stim/white_mw092.bmp'><br><font color='red'><strong>Keep</strong></font></div></div><div class='respDiv'><div class='respDivL'>Match<br>(e)</div><div class='respDivR'>No Match<br>(i)</div></div></div>","i","TARGET","1","trustrating_stim/white_mw092.bmp","0","Match","e","1500","trustrating_stim/white_mw092.bmp","red","Keep","REAL","0"
"html-keyboard-response","54","129326","0.0-7.0-5.3","62d06d1b651d6922f62fab9b","bdp_wmem","Mon Mar 13 2023 12:04:39 GMT-0600 (Mountain Daylight Time)","748918","Match,No Match","","null","","","","","","<div class='trialBorder'><div class='vertical-center'><img src='img/error.jpg'></div><div class='respDiv'><div class='respDivL'>Match<br>(e)</div><div class='respDivR'><font style='color:orange'>No Match<br>(i)</font></div></div></div>","null","FEEDBACK","","","","","","","","","","",""
"html-keyboard-response","55","129830","0.0-7.0-1.4","62d06d1b651d6922f62fab9b","bdp_wmem","Mon Mar 13 2023 12:04:39 GMT-0600 (Mountain Daylight Time)","748918","Match,No Match","","null","","","","","","<div class='trialBorder'><div class='vertical-center'><img src='img/fixation2_sml.jpg'</img></div></div>","null","FIX","","","","","","","","","","",""
"html-keyboard-response","56","132833","0.0-7.0-2.4","62d06d1b651d6922f62fab9b","bdp_wmem","Mon Mar 13 2023 12:04:39 GMT-0600 (Mountain Daylight Time)","748918","Match,No Match","","null","","","","","","<div class='trialBorder'><div class='vertical-center'><img style='vertical-align:center; align:center' src='img/fixation2_sml.jpg'></div><div class='arrayDiv2'><div class='tl'><img class='introPic' src='trustrating_stim/white_mw003.bmp'><br><font color='red'><strong>Keep</strong></font></div><div class='tr'><img class='introPic' src='trustrating_stim/white_mw092.bmp'><br><font color='green'><strong>Share</strong></font></div></div></div>","null","ARRAY","2","trustrating_stim/white_mw003.bmp,trustrating_stim/white_mw092.bmp","0,1","Match","e","3000","","","","",""
"html-keyboard-response","57","136836","0.0-7.0-3.4","62d06d1b651d6922f62fab9b","bdp_wmem","Mon Mar 13 2023 12:04:39 GMT-0600 (Mountain Daylight Time)","748918","Match,No Match","","null","","","","","","<div class='trialBorder'><div class='vertical-center'><img src='img/fixation2_sml.jpg'</img></div></div>","null","DELAY","","","","","","","","","","",""
"html-keyboard-response","58","137575","0.0-7.0-4.4","62d06d1b651d6922f62fab9b","bdp_wmem","Mon Mar 13 2023 12:04:39 GMT-0600 (Mountain Daylight Time)","748918","Match,No Match","","734","","","","","","<div class='trialBorder'><div class='targDiv'><div class='tc'><img class='introPic' src='trustrating_stim/white_mw092.bmp'><br><font color='green'><strong>Share</strong></font></div></div><div class='respDiv'><div class='respDivL'>Match<br>(e)</div><div class='respDivR'>No Match<br>(i)</div></div></div>","e","TARGET","2","trustrating_stim/white_mw003.bmp,trustrating_stim/white_mw092.bmp","0,1","Match","e","3000","trustrating_stim/white_mw092.bmp","green","Share","REAL","1"
"html-keyboard-response","59","138080","0.0-7.0-5.4","62d06d1b651d6922f62fab9b","bdp_wmem","Mon Mar 13 2023 12:04:39 GMT-0600 (Mountain Daylight Time)","748918","Match,No Match","","null","","","","","","<div class='trialBorder'><div class='vertical-center'><img src='img/correct.jpg'></div><div class='respDiv'><div class='respDivL'><font style='color:orange'>Match<br>(e)</font></div><div class='respDivR'>No Match<br>(i)</div></div></div>","null","FEEDBACK","","","","","","","","","","",""
"html-keyboard-response","60","138584","0.0-7.0-1.5","62d06d1b651d6922f62fab9b","bdp_wmem","Mon Mar 13 2023 12:04:39 GMT-0600 (Mountain Daylight Time)","748918","Match,No Match","","null","","","","","","<div class='trialBorder'><div class='vertical-center'><img src='img/fixation2_sml.jpg'</img></div></div>","null","FIX","","","","","","","","","","",""
"html-keyboard-response","61","140088","0.0-7.0-2.5","62d06d1b651d6922f62fab9b","bdp_wmem","Mon Mar 13 2023 12:04:39 GMT-0600 (Mountain Daylight Time)","748918","Match,No Match","","null","","","","","","<div class='trialBorder'><div class='vertical-center'><img style='vertical-align:center; align:center' src='img/fixation2_sml.jpg'></div><div class='arrayDiv1'><div class='tc'><img class='introPic' src='trustrating_stim/white_mw085.bmp'><br><font color='green'><strong>Share</strong></font></div></div></div>","null","ARRAY","1","trustrating_stim/white_mw085.bmp","1","noMatchOutcome","i","1500","","","","",""
"html-keyboard-response","62","144090","0.0-7.0-3.5","62d06d1b651d6922f62fab9b","bdp_wmem","Mon Mar 13 2023 12:04:39 GMT-0600 (Mountain Daylight Time)","748918","Match,No Match","","null","","","","","","<div class='trialBorder'><div class='vertical-center'><img src='img/fixation2_sml.jpg'</img></div></div>","null","DELAY","","","","","","","","","","",""
"html-keyboard-response","63","144932","0.0-7.0-4.5","62d06d1b651d6922f62fab9b","bdp_wmem","Mon Mar 13 2023 12:04:39 GMT-0600 (Mountain Daylight Time)","748918","Match,No Match","","838","","","","","","<div class='trialBorder'><div class='targDiv'><div class='tc'><img class='introPic' src='trustrating_stim/white_mw085.bmp'><br><font color='red'><strong>Keep</strong></font></div></div><div class='respDiv'><div class='respDivL'>Match<br>(e)</div><div class='respDivR'>No Match<br>(i)</div></div></div>","e","TARGET","1","trustrating_stim/white_mw085.bmp","1","noMatchOutcome","i","1500","trustrating_stim/white_mw085.bmp","red","Keep","REAL","0"
"html-keyboard-response","64","145434","0.0-7.0-5.5","62d06d1b651d6922f62fab9b","bdp_wmem","Mon Mar 13 2023 12:04:39 GMT-0600 (Mountain Daylight Time)","748918","Match,No Match","","null","","","","","","<div class='trialBorder'><div class='vertical-center'><img src='img/error.jpg'></div><div class='respDiv'><div class='respDivL'><font style='color:orange'>Match<br>(e)</font></div><div class='respDivR'>No Match<br>(i)</div></div></div>","null","FEEDBACK","","","","","","","","","","",""
"html-keyboard-response","65","145936","0.0-7.0-1.6","62d06d1b651d6922f62fab9b","bdp_wmem","Mon Mar 13 2023 12:04:39 GMT-0600 (Mountain Daylight Time)","748918","Match,No Match","","null","","","","","","<div class='trialBorder'><div class='vertical-center'><img src='img/fixation2_sml.jpg'</img></div></div>","null","FIX","","","","","","","","","","",""
"html-keyboard-response","66","147441","0.0-7.0-2.6","62d06d1b651d6922f62fab9b","bdp_wmem","Mon Mar 13 2023 12:04:39 GMT-0600 (Mountain Daylight Time)","748918","Match,No Match","","null","","","","","","<div class='trialBorder'><div class='vertical-center'><img style='vertical-align:center; align:center' src='img/fixation2_sml.jpg'></div><div class='arrayDiv1'><div class='tc'><img class='introPic' src='trustrating_stim/white_mw042.bmp'><br><font color='green'><strong>Share</strong></font></div></div></div>","null","ARRAY","1","trustrating_stim/white_mw042.bmp","1","Match","e","1500","","","","",""
"html-keyboard-response","67","151444","0.0-7.0-3.6","62d06d1b651d6922f62fab9b","bdp_wmem","Mon Mar 13 2023 12:04:39 GMT-0600 (Mountain Daylight Time)","748918","Match,No Match","","null","","","","","","<div class='trialBorder'><div class='vertical-center'><img src='img/fixation2_sml.jpg'</img></div></div>","null","DELAY","","","","","","","","","","",""
"html-keyboard-response","68","151466","0.0-7.0-4.6","62d06d1b651d6922f62fab9b","bdp_wmem","Mon Mar 13 2023 12:04:39 GMT-0600 (Mountain Daylight Time)","748918","Match,No Match","","19","","","","","","<div class='trialBorder'><div class='targDiv'><div class='tc'><img class='introPic' src='trustrating_stim/white_mw042.bmp'><br><font color='green'><strong>Share</strong></font></div></div><div class='respDiv'><div class='respDivL'>Match<br>(e)</div><div class='respDivR'>No Match<br>(i)</div></div></div>","i","TARGET","1","trustrating_stim/white_mw042.bmp","1","Match","e","1500","trustrating_stim/white_mw042.bmp","green","Share","REAL","0"
"html-keyboard-response","69","151970","0.0-7.0-5.6","62d06d1b651d6922f62fab9b","bdp_wmem","Mon Mar 13 2023 12:04:39 GMT-0600 (Mountain Daylight Time)","748918","Match,No Match","","null","","","","","","<div class='trialBorder'><div class='vertical-center'><img src='img/error.jpg'></div><div class='respDiv'><div class='respDivL'>Match<br>(e)</div><div class='respDivR'><font style='color:orange'>No Match<br>(i)</font></div></div></div>","null","FEEDBACK","","","","","","","","","","",""
"html-keyboard-response","70","152473","0.0-7.0-1.7","62d06d1b651d6922f62fab9b","bdp_wmem","Mon Mar 13 2023 12:04:39 GMT-0600 (Mountain Daylight Time)","748918","Match,No Match","","null","","","","","","<div class='trialBorder'><div class='vertical-center'><img src='img/fixation2_sml.jpg'</img></div></div>","null","FIX","","","","","","","","","","",""
"html-keyboard-response","71","156978","0.0-7.0-2.7","62d06d1b651d6922f62fab9b","bdp_wmem","Mon Mar 13 2023 12:04:39 GMT-0600 (Mountain Daylight Time)","748918","Match,No Match","","null","","","","","","<div class='trialBorder'><div class='vertical-center'><img style='vertical-align:center; align:center' src='img/fixation2_sml.jpg'></div><div class='arrayDiv3'><div class='tl'><img class='introPic' src='trustrating_stim/white_mw003.bmp'><br><font color='green'><strong>Share</strong></font></div><div class='tc'><img class='introPic' src='trustrating_stim/white_mw040.bmp'><br><font color='red'><strong>Keep</strong></font></div><div class='tr'><img class='introPic' src='trustrating_stim/white_mw013.bmp'><br><font color='red'><strong>Keep</strong></font></div></div></div>","null","ARRAY","3","trustrating_stim/white_mw003.bmp,trustrating_stim/white_mw040.bmp,trustrating_stim/white_mw013.bmp","1,0,0","noMatchFace","i","4500","","","","",""
"html-keyboard-response","72","160982","0.0-7.0-3.7","62d06d1b651d6922f62fab9b","bdp_wmem","Mon Mar 13 2023 12:04:39 GMT-0600 (Mountain Daylight Time)","748918","Match,No Match","","null","","","","","","<div class='trialBorder'><div class='vertical-center'><img src='img/fixation2_sml.jpg'</img></div></div>","null","DELAY","","","","","","","","","","",""
"html-keyboard-response","73","162433","0.0-7.0-4.7","62d06d1b651d6922f62fab9b","bdp_wmem","Mon Mar 13 2023 12:04:39 GMT-0600 (Mountain Daylight Time)","748918","Match,No Match","","1448","","","","","","<div class='trialBorder'><div class='targDiv'><div class='tc'><img class='introPic' src='trustrating_stim/white_mw042.bmp'><br><font color='red'><strong>Keep</strong></font></div></div><div class='respDiv'><div class='respDivL'>Match<br>(e)</div><div class='respDivR'>No Match<br>(i)</div></div></div>","e","TARGET","3","trustrating_stim/white_mw003.bmp,trustrating_stim/white_mw040.bmp,trustrating_stim/white_mw013.bmp","1,0,0","noMatchFace","i","4500","trustrating_stim/white_mw042.bmp","red","Keep","REAL","0"
"html-keyboard-response","74","162936","0.0-7.0-5.7","62d06d1b651d6922f62fab9b","bdp_wmem","Mon Mar 13 2023 12:04:39 GMT-0600 (Mountain Daylight Time)","748918","Match,No Match","","null","","","","","","<div class='trialBorder'><div class='vertical-center'><img src='img/error.jpg'></div><div class='respDiv'><div class='respDivL'><font style='color:orange'>Match<br>(e)</font></div><div class='respDivR'>No Match<br>(i)</div></div></div>","null","FEEDBACK","","","","","","","","","","",""
"html-keyboard-response","75","163439","0.0-7.0-1.8","62d06d1b651d6922f62fab9b","bdp_wmem","Mon Mar 13 2023 12:04:39 GMT-0600 (Mountain Daylight Time)","748918","Match,No Match","","null","","","","","","<div class='trialBorder'><div class='vertical-center'><img src='img/fixation2_sml.jpg'</img></div></div>","null","FIX","","","","","","","","","","",""
"html-keyboard-response","76","166442","0.0-7.0-2.8","62d06d1b651d6922f62fab9b","bdp_wmem","Mon Mar 13 2023 12:04:39 GMT-0600 (Mountain Daylight Time)","748918","Match,No Match","","null","","","","","","<div class='trialBorder'><div class='vertical-center'><img style='vertical-align:center; align:center' src='img/fixation2_sml.jpg'></div><div class='arrayDiv2'><div class='tl'><img class='introPic' src='trustrating_stim/white_mw040.bmp'><br><font color='red'><strong>Keep</strong></font></div><div class='tr'><img class='introPic' src='trustrating_stim/white_mw012.bmp'><br><font color='green'><strong>Share</strong></font></div></div></div>","null","ARRAY","2","trustrating_stim/white_mw040.bmp,trustrating_stim/white_mw012.bmp","0,1","Match","e","3000","","","","",""
"html-keyboard-response","77","170446","0.0-7.0-3.8","62d06d1b651d6922f62fab9b","bdp_wmem","Mon Mar 13 2023 12:04:39 GMT-0600 (Mountain Daylight Time)","748918","Match,No Match","","null","","","","","","<div class='trialBorder'><div class='vertical-center'><img src='img/fixation2_sml.jpg'</img></div></div>","null","DELAY","","","","","","","","","","",""
"html-keyboard-response","78","171366","0.0-7.0-4.8","62d06d1b651d6922f62fab9b","bdp_wmem","Mon Mar 13 2023 12:04:39 GMT-0600 (Mountain Daylight Time)","748918","Match,No Match","","916","","","","","","<div class='trialBorder'><div class='targDiv'><div class='tc'><img class='introPic' src='trustrating_stim/white_mw012.bmp'><br><font color='green'><strong>Share</strong></font></div></div><div class='respDiv'><div class='respDivL'>Match<br>(e)</div><div class='respDivR'>No Match<br>(i)</div></div></div>","e","TARGET","2","trustrating_stim/white_mw040.bmp,trustrating_stim/white_mw012.bmp","0,1","Match","e","3000","trustrating_stim/white_mw012.bmp","green","Share","REAL","1"
"html-keyboard-response","79","171871","0.0-7.0-5.8","62d06d1b651d6922f62fab9b","bdp_wmem","Mon Mar 13 2023 12:04:39 GMT-0600 (Mountain Daylight Time)","748918","Match,No Match","","null","","","","","","<div class='trialBorder'><div class='vertical-center'><img src='img/correct.jpg'></div><div class='respDiv'><div class='respDivL'><font style='color:orange'>Match<br>(e)</font></div><div class='respDivR'>No Match<br>(i)</div></div></div>","null","FEEDBACK","","","","","","","","","","",""
"html-keyboard-response","80","172374","0.0-7.0-1.9","62d06d1b651d6922f62fab9b","bdp_wmem","Mon Mar 13 2023 12:04:39 GMT-0600 (Mountain Daylight Time)","748918","Match,No Match","","null","","","","","","<div class='trialBorder'><div class='vertical-center'><img src='img/fixation2_sml.jpg'</img></div></div>","null","FIX","","","","","","","","","","",""
"html-keyboard-response","81","175378","0.0-7.0-2.9","62d06d1b651d6922f62fab9b","bdp_wmem","Mon Mar 13 2023 12:04:39 GMT-0600 (Mountain Daylight Time)","748918","Match,No Match","","null","","","","","","<div class='trialBorder'><div class='vertical-center'><img style='vertical-align:center; align:center' src='img/fixation2_sml.jpg'></div><div class='arrayDiv2'><div class='tl'><img class='introPic' src='trustrating_stim/white_mw012.bmp'><br><font color='red'><strong>Keep</strong></font></div><div class='tr'><img class='introPic' src='trustrating_stim/white_mw003.bmp'><br><font color='green'><strong>Share</strong></font></div></div></div>","null","ARRAY","2","trustrating_stim/white_mw012.bmp,trustrating_stim/white_mw003.bmp","0,1","noMatchFace","i","3000","","","","",""
"html-keyboard-response","82","179381","0.0-7.0-3.9","62d06d1b651d6922f62fab9b","bdp_wmem","Mon Mar 13 2023 12:04:39 GMT-0600 (Mountain Daylight Time)","748918","Match,No Match","","null","","","","","","<div class='trialBorder'><div class='vertical-center'><img src='img/fixation2_sml.jpg'</img></div></div>","null","DELAY","","","","","","","","","","",""
"html-keyboard-response","83","179926","0.0-7.0-4.9","62d06d1b651d6922f62fab9b","bdp_wmem","Mon Mar 13 2023 12:04:39 GMT-0600 (Mountain Daylight Time)","748918","Match,No Match","","541","","","","","","<div class='trialBorder'><div class='targDiv'><div class='tc'><img class='introPic' src='trustrating_stim/white_mw013.bmp'><br><font color='red'><strong>Keep</strong></font></div></div><div class='respDiv'><div class='respDivL'>Match<br>(e)</div><div class='respDivR'>No Match<br>(i)</div></div></div>","e","TARGET","2","trustrating_stim/white_mw012.bmp,trustrating_stim/white_mw003.bmp","0,1","noMatchFace","i","3000","trustrating_stim/white_mw013.bmp","red","Keep","REAL","0"
"html-keyboard-response","84","180430","0.0-7.0-5.9","62d06d1b651d6922f62fab9b","bdp_wmem","Mon Mar 13 2023 12:04:39 GMT-0600 (Mountain Daylight Time)","748918","Match,No Match","","null","","","","","","<div class='trialBorder'><div class='vertical-center'><img src='img/error.jpg'></div><div class='respDiv'><div class='respDivL'><font style='color:orange'>Match<br>(e)</font></div><div class='respDivR'>No Match<br>(i)</div></div></div>","null","FEEDBACK","","","","","","","","","","",""
"html-keyboard-response","85","180932","0.0-7.0-1.10","62d06d1b651d6922f62fab9b","bdp_wmem","Mon Mar 13 2023 12:04:39 GMT-0600 (Mountain Daylight Time)","748918","Match,No Match","","null","","","","","","<div class='trialBorder'><div class='vertical-center'><img src='img/fixation2_sml.jpg'</img></div></div>","null","FIX","","","","","","","","","","",""
"html-keyboard-response","86","185437","0.0-7.0-2.10","62d06d1b651d6922f62fab9b","bdp_wmem","Mon Mar 13 2023 12:04:39 GMT-0600 (Mountain Daylight Time)","748918","Match,No Match","","null","","","","","","<div class='trialBorder'><div class='vertical-center'><img style='vertical-align:center; align:center' src='img/fixation2_sml.jpg'></div><div class='arrayDiv3'><div class='tl'><img class='introPic' src='trustrating_stim/white_mw091.bmp'><br><font color='green'><strong>Share</strong></font></div><div class='tc'><img class='introPic' src='trustrating_stim/white_mw040.bmp'><br><font color='red'><strong>Keep</strong></font></div><div class='tr'><img class='introPic' src='trustrating_stim/white_mw012.bmp'><br><font color='green'><strong>Share</strong></font></div></div></div>","null","ARRAY","3","trustrating_stim/white_mw091.bmp,trustrating_stim/white_mw040.bmp,trustrating_stim/white_mw012.bmp","1,0,1","noMatchFace","i","4500","","","","",""
"html-keyboard-response","87","189441","0.0-7.0-3.10","62d06d1b651d6922f62fab9b","bdp_wmem","Mon Mar 13 2023 12:04:39 GMT-0600 (Mountain Daylight Time)","748918","Match,No Match","","null","","","","","","<div class='trialBorder'><div class='vertical-center'><img src='img/fixation2_sml.jpg'</img></div></div>","null","DELAY","","","","","","","","","","",""
"html-keyboard-response","88","190637","0.0-7.0-4.10","62d06d1b651d6922f62fab9b","bdp_wmem","Mon Mar 13 2023 12:04:39 GMT-0600 (Mountain Daylight Time)","748918","Match,No Match","","1192","","","","","","<div class='trialBorder'><div class='targDiv'><div class='tc'><img class='introPic' src='trustrating_stim/white_mw085.bmp'><br><font color='green'><strong>Share</strong></font></div></div><div class='respDiv'><div class='respDivL'>Match<br>(e)</div><div class='respDivR'>No Match<br>(i)</div></div></div>","i","TARGET","3","trustrating_stim/white_mw091.bmp,trustrating_stim/white_mw040.bmp,trustrating_stim/white_mw012.bmp","1,0,1","noMatchFace","i","4500","trustrating_stim/white_mw085.bmp","green","Share","REAL","1"
"html-keyboard-response","89","191140","0.0-7.0-5.10","62d06d1b651d6922f62fab9b","bdp_wmem","Mon Mar 13 2023 12:04:39 GMT-0600 (Mountain Daylight Time)","748918","Match,No Match","","null","","","","","","<div class='trialBorder'><div class='vertical-center'><img src='img/correct.jpg'></div><div class='respDiv'><div class='respDivL'>Match<br>(e)</div><div class='respDivR'><font style='color:orange'>No Match<br>(i)</font></div></div></div>","null","FEEDBACK","","","","","","","","","","",""
"html-keyboard-response","90","191643","0.0-7.0-1.11","62d06d1b651d6922f62fab9b","bdp_wmem","Mon Mar 13 2023 12:04:39 GMT-0600 (Mountain Daylight Time)","748918","Match,No Match","","null","","","","","","<div class='trialBorder'><div class='vertical-center'><img src='img/fixation2_sml.jpg'</img></div></div>","null","FIX","","","","","","","","","","",""
"html-keyboard-response","91","196147","0.0-7.0-2.11","62d06d1b651d6922f62fab9b","bdp_wmem","Mon Mar 13 2023 12:04:39 GMT-0600 (Mountain Daylight Time)","748918","Match,No Match","","null","","","","","","<div class='trialBorder'><div class='vertical-center'><img style='vertical-align:center; align:center' src='img/fixation2_sml.jpg'></div><div class='arrayDiv3'><div class='tl'><img class='introPic' src='trustrating_stim/white_mw085.bmp'><br><font color='red'><strong>Keep</strong></font></div><div class='tc'><img class='introPic' src='trustrating_stim/white_mw013.bmp'><br><font color='red'><strong>Keep</strong></font></div><div class='tr'><img class='introPic' src='trustrating_stim/white_mw038.bmp'><br><font color='green'><strong>Share</strong></font></div></div></div>","null","ARRAY","3","trustrating_stim/white_mw085.bmp,trustrating_stim/white_mw013.bmp,trustrating_stim/white_mw038.bmp","0,0,1","noMatchOutcome","i","4500","","","","",""
"html-keyboard-response","92","200150","0.0-7.0-3.11","62d06d1b651d6922f62fab9b","bdp_wmem","Mon Mar 13 2023 12:04:39 GMT-0600 (Mountain Daylight Time)","748918","Match,No Match","","null","","","","","","<div class='trialBorder'><div class='vertical-center'><img src='img/fixation2_sml.jpg'</img></div></div>","null","DELAY","","","","","","","","","","",""
"html-keyboard-response","93","207851","0.0-7.0-4.11","62d06d1b651d6922f62fab9b","bdp_wmem","Mon Mar 13 2023 12:04:39 GMT-0600 (Mountain Daylight Time)","748918","Match,No Match","","7699","","","","","","<div class='trialBorder'><div class='targDiv'><div class='tc'><img class='introPic' src='trustrating_stim/white_mw085.bmp'><br><font color='green'><strong>Share</strong></font></div></div><div class='respDiv'><div class='respDivL'>Match<br>(e)</div><div class='respDivR'>No Match<br>(i)</div></div></div>","i","TARGET","3","trustrating_stim/white_mw085.bmp,trustrating_stim/white_mw013.bmp,trustrating_stim/white_mw038.bmp","0,0,1","noMatchOutcome","i","4500","trustrating_stim/white_mw085.bmp","green","Share","REAL","1"
"html-keyboard-response","94","208354","0.0-7.0-5.11","62d06d1b651d6922f62fab9b","bdp_wmem","Mon Mar 13 2023 12:04:39 GMT-0600 (Mountain Daylight Time)","748918","Match,No Match","","null","","","","","","<div class='trialBorder'><div class='vertical-center'><img src='img/correct.jpg'></div><div class='respDiv'><div class='respDivL'>Match<br>(e)</div><div class='respDivR'><font style='color:orange'>No Match<br>(i)</font></div></div></div>","null","FEEDBACK","","","","","","","","","","",""
"html-keyboard-response","95","208856","0.0-7.0-1.12","62d06d1b651d6922f62fab9b","bdp_wmem","Mon Mar 13 2023 12:04:39 GMT-0600 (Mountain Daylight Time)","748918","Match,No Match","","null","","","","","","<div class='trialBorder'><div class='vertical-center'><img src='img/fixation2_sml.jpg'</img></div></div>","null","FIX","","","","","","","","","","",""
"html-keyboard-response","96","211862","0.0-7.0-2.12","62d06d1b651d6922f62fab9b","bdp_wmem","Mon Mar 13 2023 12:04:39 GMT-0600 (Mountain Daylight Time)","748918","Match,No Match","","null","","","","","","<div class='trialBorder'><div class='vertical-center'><img style='vertical-align:center; align:center' src='img/fixation2_sml.jpg'></div><div class='arrayDiv2'><div class='tl'><img class='introPic' src='trustrating_stim/white_mw078.bmp'><br><font color='green'><strong>Share</strong></font></div><div class='tr'><img class='introPic' src='trustrating_stim/white_mw010.bmp'><br><font color='red'><strong>Keep</strong></font></div></div></div>","null","ARRAY","2","trustrating_stim/white_mw078.bmp,trustrating_stim/white_mw010.bmp","1,0","noMatchOutcome","i","3000","","","","",""
"html-keyboard-response","97","215865","0.0-7.0-3.12","62d06d1b651d6922f62fab9b","bdp_wmem","Mon Mar 13 2023 12:04:39 GMT-0600 (Mountain Daylight Time)","748918","Match,No Match","","null","","","","","","<div class='trialBorder'><div class='vertical-center'><img src='img/fixation2_sml.jpg'</img></div></div>","null","DELAY","","","","","","","","","","",""
"html-keyboard-response","98","217491","0.0-7.0-4.12","62d06d1b651d6922f62fab9b","bdp_wmem","Mon Mar 13 2023 12:04:39 GMT-0600 (Mountain Daylight Time)","748918","Match,No Match","","1622","","","","","","<div class='trialBorder'><div class='targDiv'><div class='tc'><img class='introPic' src='trustrating_stim/white_mw078.bmp'><br><font color='red'><strong>Keep</strong></font></div></div><div class='respDiv'><div class='respDivL'>Match<br>(e)</div><div class='respDivR'>No Match<br>(i)</div></div></div>","e","TARGET","2","trustrating_stim/white_mw078.bmp,trustrating_stim/white_mw010.bmp","1,0","noMatchOutcome","i","3000","trustrating_stim/white_mw078.bmp","red","Keep","REAL","0"
"html-keyboard-response","99","217993","0.0-7.0-5.12","62d06d1b651d6922f62fab9b","bdp_wmem","Mon Mar 13 2023 12:04:39 GMT-0600 (Mountain Daylight Time)","748918","Match,No Match","","null","","","","","","<div class='trialBorder'><div class='vertical-center'><img src='img/error.jpg'></div><div class='respDiv'><div class='respDivL'><font style='color:orange'>Match<br>(e)</font></div><div class='respDivR'>No Match<br>(i)</div></div></div>","null","FEEDBACK","","","","","","","","","","",""
"html-keyboard-response","100","218497","0.0-7.0-1.13","62d06d1b651d6922f62fab9b","bdp_wmem","Mon Mar 13 2023 12:04:39 GMT-0600 (Mountain Daylight Time)","748918","Match,No Match","","null","","","","","","<div class='trialBorder'><div class='vertical-center'><img src='img/fixation2_sml.jpg'</img></div></div>","null","FIX","","","","","","","","","","",""
"html-keyboard-response","101","221503","0.0-7.0-2.13","62d06d1b651d6922f62fab9b","bdp_wmem","Mon Mar 13 2023 12:04:39 GMT-0600 (Mountain Daylight Time)","748918","Match,No Match","","null","","","","","","<div class='trialBorder'><div class='vertical-center'><img style='vertical-align:center; align:center' src='img/fixation2_sml.jpg'></div><div class='arrayDiv2'><div class='tl'><img class='introPic' src='trustrating_stim/white_mw013.bmp'><br><font color='red'><strong>Keep</strong></font></div><div class='tr'><img class='introPic' src='trustrating_stim/white_mw010.bmp'><br><font color='green'><strong>Share</strong></font></div></div></div>","null","ARRAY","2","trustrating_stim/white_mw013.bmp,trustrating_stim/white_mw010.bmp","0,1","Match","e","3000","","","","",""
"html-keyboard-response","102","225507","0.0-7.0-3.13","62d06d1b651d6922f62fab9b","bdp_wmem","Mon Mar 13 2023 12:04:39 GMT-0600 (Mountain Daylight Time)","748918","Match,No Match","","null","","","","","","<div class='trialBorder'><div class='vertical-center'><img src='img/fixation2_sml.jpg'</img></div></div>","null","DELAY","","","","","","","","","","",""
"html-keyboard-response","103","231357","0.0-7.0-4.13","62d06d1b651d6922f62fab9b","bdp_wmem","Mon Mar 13 2023 12:04:39 GMT-0600 (Mountain Daylight Time)","748918","Match,No Match","","5845","","","","","","<div class='trialBorder'><div class='targDiv'><div class='tc'><img class='introPic' src='trustrating_stim/white_mw010.bmp'><br><font color='green'><strong>Share</strong></font></div></div><div class='respDiv'><div class='respDivL'>Match<br>(e)</div><div class='respDivR'>No Match<br>(i)</div></div></div>","e","TARGET","2","trustrating_stim/white_mw013.bmp,trustrating_stim/white_mw010.bmp","0,1","Match","e","3000","trustrating_stim/white_mw010.bmp","green","Share","REAL","1"
"html-keyboard-response","104","231861","0.0-7.0-5.13","62d06d1b651d6922f62fab9b","bdp_wmem","Mon Mar 13 2023 12:04:39 GMT-0600 (Mountain Daylight Time)","748918","Match,No Match","","null","","","","","","<div class='trialBorder'><div class='vertical-center'><img src='img/correct.jpg'></div><div class='respDiv'><div class='respDivL'><font style='color:orange'>Match<br>(e)</font></div><div class='respDivR'>No Match<br>(i)</div></div></div>","null","FEEDBACK","","","","","","","","","","",""
"html-keyboard-response","105","232365","0.0-7.0-1.14","62d06d1b651d6922f62fab9b","bdp_wmem","Mon Mar 13 2023 12:04:39 GMT-0600 (Mountain Daylight Time)","748918","Match,No Match","","null","","","","","","<div class='trialBorder'><div class='vertical-center'><img src='img/fixation2_sml.jpg'</img></div></div>","null","FIX","","","","","","","","","","",""
"html-keyboard-response","106","233870","0.0-7.0-2.14","62d06d1b651d6922f62fab9b","bdp_wmem","Mon Mar 13 2023 12:04:39 GMT-0600 (Mountain Daylight Time)","748918","Match,No Match","","null","","","","","","<div class='trialBorder'><div class='vertical-center'><img style='vertical-align:center; align:center' src='img/fixation2_sml.jpg'></div><div class='arrayDiv1'><div class='tc'><img class='introPic' src='trustrating_stim/white_mw091.bmp'><br><font color='green'><strong>Share</strong></font></div></div></div>","null","ARRAY","1","trustrating_stim/white_mw091.bmp","1","noMatchFace","i","1500","","","","",""
"html-keyboard-response","107","237875","0.0-7.0-3.14","62d06d1b651d6922f62fab9b","bdp_wmem","Mon Mar 13 2023 12:04:39 GMT-0600 (Mountain Daylight Time)","748918","Match,No Match","","null","","","","","","<div class='trialBorder'><div class='vertical-center'><img src='img/fixation2_sml.jpg'</img></div></div>","null","DELAY","","","","","","","","","","",""
"html-keyboard-response","108","240377","0.0-7.0-4.14","62d06d1b651d6922f62fab9b","bdp_wmem","Mon Mar 13 2023 12:04:39 GMT-0600 (Mountain Daylight Time)","748918","Match,No Match","","2498","","","","","","<div class='trialBorder'><div class='targDiv'><div class='tc'><img class='introPic' src='trustrating_stim/white_mw042.bmp'><br><font color='green'><strong>Share</strong></font></div></div><div class='respDiv'><div class='respDivL'>Match<br>(e)</div><div class='respDivR'>No Match<br>(i)</div></div></div>","i","TARGET","1","trustrating_stim/white_mw091.bmp","1","noMatchFace","i","1500","trustrating_stim/white_mw042.bmp","green","Share","REAL","1"
"html-keyboard-response","109","240880","0.0-7.0-5.14","62d06d1b651d6922f62fab9b","bdp_wmem","Mon Mar 13 2023 12:04:39 GMT-0600 (Mountain Daylight Time)","748918","Match,No Match","","null","","","","","","<div class='trialBorder'><div class='vertical-center'><img src='img/correct.jpg'></div><div class='respDiv'><div class='respDivL'>Match<br>(e)</div><div class='respDivR'><font style='color:orange'>No Match<br>(i)</font></div></div></div>","null","FEEDBACK","","","","","","","","","","",""
"html-keyboard-response","110","241383","0.0-7.0-1.15","62d06d1b651d6922f62fab9b","bdp_wmem","Mon Mar 13 2023 12:04:39 GMT-0600 (Mountain Daylight Time)","748918","Match,No Match","","null","","","","","","<div class='trialBorder'><div class='vertical-center'><img src='img/fixation2_sml.jpg'</img></div></div>","null","FIX","","","","","","","","","","",""
"html-keyboard-response","111","242886","0.0-7.0-2.15","62d06d1b651d6922f62fab9b","bdp_wmem","Mon Mar 13 2023 12:04:39 GMT-0600 (Mountain Daylight Time)","748918","Match,No Match","","null","","","","","","<div class='trialBorder'><div class='vertical-center'><img style='vertical-align:center; align:center' src='img/fixation2_sml.jpg'></div><div class='arrayDiv1'><div class='tc'><img class='introPic' src='trustrating_stim/white_mw010.bmp'><br><font color='green'><strong>Share</strong></font></div></div></div>","null","ARRAY","1","trustrating_stim/white_mw010.bmp","1","Match","e","1500","","","","",""
"html-keyboard-response","112","246890","0.0-7.0-3.15","62d06d1b651d6922f62fab9b","bdp_wmem","Mon Mar 13 2023 12:04:39 GMT-0600 (Mountain Daylight Time)","748918","Match,No Match","","null","","","","","","<div class='trialBorder'><div class='vertical-center'><img src='img/fixation2_sml.jpg'</img></div></div>","null","DELAY","","","","","","","","","","",""
"html-keyboard-response","113","250373","0.0-7.0-4.15","62d06d1b651d6922f62fab9b","bdp_wmem","Mon Mar 13 2023 12:04:39 GMT-0600 (Mountain Daylight Time)","748918","Match,No Match","","3479","","","","","","<div class='trialBorder'><div class='targDiv'><div class='tc'><img class='introPic' src='trustrating_stim/white_mw010.bmp'><br><font color='green'><strong>Share</strong></font></div></div><div class='respDiv'><div class='respDivL'>Match<br>(e)</div><div class='respDivR'>No Match<br>(i)</div></div></div>","e","TARGET","1","trustrating_stim/white_mw010.bmp","1","Match","e","1500","trustrating_stim/white_mw010.bmp","green","Share","REAL","1"
"html-keyboard-response","114","250876","0.0-7.0-5.15","62d06d1b651d6922f62fab9b","bdp_wmem","Mon Mar 13 2023 12:04:39 GMT-0600 (Mountain Daylight Time)","748918","Match,No Match","","null","","","","","","<div class='trialBorder'><div class='vertical-center'><img src='img/correct.jpg'></div><div class='respDiv'><div class='respDivL'><font style='color:orange'>Match<br>(e)</font></div><div class='respDivR'>No Match<br>(i)</div></div></div>","null","FEEDBACK","","","","","","","","","","",""
"html-keyboard-response","115","251381","0.0-7.0-1.16","62d06d1b651d6922f62fab9b","bdp_wmem","Mon Mar 13 2023 12:04:39 GMT-0600 (Mountain Daylight Time)","748918","Match,No Match","","null","","","","","","<div class='trialBorder'><div class='vertical-center'><img src='img/fixation2_sml.jpg'</img></div></div>","null","FIX","","","","","","","","","","",""
"html-keyboard-response","116","255886","0.0-7.0-2.16","62d06d1b651d6922f62fab9b","bdp_wmem","Mon Mar 13 2023 12:04:39 GMT-0600 (Mountain Daylight Time)","748918","Match,No Match","","null","","","","","","<div class='trialBorder'><div class='vertical-center'><img style='vertical-align:center; align:center' src='img/fixation2_sml.jpg'></div><div class='arrayDiv3'><div class='tl'><img class='introPic' src='trustrating_stim/white_mw091.bmp'><br><font color='red'><strong>Keep</strong></font></div><div class='tc'><img class='introPic' src='trustrating_stim/white_mw003.bmp'><br><font color='green'><strong>Share</strong></font></div><div class='tr'><img class='introPic' src='trustrating_stim/white_mw042.bmp'><br><font color='green'><strong>Share</strong></font></div></div></div>","null","ARRAY","3","trustrating_stim/white_mw091.bmp,trustrating_stim/white_mw003.bmp,trustrating_stim/white_mw042.bmp","0,1,1","Match","e","4500","","","","",""
"html-keyboard-response","117","259889","0.0-7.0-3.16","62d06d1b651d6922f62fab9b","bdp_wmem","Mon Mar 13 2023 12:04:39 GMT-0600 (Mountain Daylight Time)","748918","Match,No Match","","null","","","","","","<div class='trialBorder'><div class='vertical-center'><img src='img/fixation2_sml.jpg'</img></div></div>","null","DELAY","","","","","","","","","","",""
"html-keyboard-response","118","263663","0.0-7.0-4.16","62d06d1b651d6922f62fab9b","bdp_wmem","Mon Mar 13 2023 12:04:39 GMT-0600 (Mountain Daylight Time)","748918","Match,No Match","","3768","","","","","","<div class='trialBorder'><div class='targDiv'><div class='tc'><img class='introPic' src='trustrating_stim/white_mw091.bmp'><br><font color='red'><strong>Keep</strong></font></div></div><div class='respDiv'><div class='respDivL'>Match<br>(e)</div><div class='respDivR'>No Match<br>(i)</div></div></div>","i","TARGET","3","trustrating_stim/white_mw091.bmp,trustrating_stim/white_mw003.bmp,trustrating_stim/white_mw042.bmp","0,1,1","Match","e","4500","trustrating_stim/white_mw091.bmp","red","Keep","REAL","0"
"html-keyboard-response","119","264167","0.0-7.0-5.16","62d06d1b651d6922f62fab9b","bdp_wmem","Mon Mar 13 2023 12:04:39 GMT-0600 (Mountain Daylight Time)","748918","Match,No Match","","null","","","","","","<div class='trialBorder'><div class='vertical-center'><img src='img/error.jpg'></div><div class='respDiv'><div class='respDivL'>Match<br>(e)</div><div class='respDivR'><font style='color:orange'>No Match<br>(i)</font></div></div></div>","null","FEEDBACK","","","","","","","","","","",""
"html-keyboard-response","120","264670","0.0-7.0-1.17","62d06d1b651d6922f62fab9b","bdp_wmem","Mon Mar 13 2023 12:04:39 GMT-0600 (Mountain Daylight Time)","748918","Match,No Match","","null","","","","","","<div class='trialBorder'><div class='vertical-center'><img src='img/fixation2_sml.jpg'</img></div></div>","null","FIX","","","","","","","","","","",""
"html-keyboard-response","121","267675","0.0-7.0-2.17","62d06d1b651d6922f62fab9b","bdp_wmem","Mon Mar 13 2023 12:04:39 GMT-0600 (Mountain Daylight Time)","748918","Match,No Match","","null","","","","","","<div class='trialBorder'><div class='vertical-center'><img style='vertical-align:center; align:center' src='img/fixation2_sml.jpg'></div><div class='arrayDiv2'><div class='tl'><img class='introPic' src='trustrating_stim/white_mw078.bmp'><br><font color='red'><strong>Keep</strong></font></div><div class='tr'><img class='introPic' src='trustrating_stim/white_mw040.bmp'><br><font color='green'><strong>Share</strong></font></div></div></div>","null","ARRAY","2","trustrating_stim/white_mw078.bmp,trustrating_stim/white_mw040.bmp","0,1","noMatchFace","i","3000","","","","",""
"html-keyboard-response","122","271680","0.0-7.0-3.17","62d06d1b651d6922f62fab9b","bdp_wmem","Mon Mar 13 2023 12:04:39 GMT-0600 (Mountain Daylight Time)","748918","Match,No Match","","null","","","","","","<div class='trialBorder'><div class='vertical-center'><img src='img/fixation2_sml.jpg'</img></div></div>","null","DELAY","","","","","","","","","","",""
"html-keyboard-response","123","286834","0.0-7.0-4.17","62d06d1b651d6922f62fab9b","bdp_wmem","Mon Mar 13 2023 12:04:39 GMT-0600 (Mountain Daylight Time)","748918","Match,No Match","","15149","","","","","","<div class='trialBorder'><div class='targDiv'><div class='tc'><img class='introPic' src='trustrating_stim/white_mw091.bmp'><br><font color='green'><strong>Share</strong></font></div></div><div class='respDiv'><div class='respDivL'>Match<br>(e)</div><div class='respDivR'>No Match<br>(i)</div></div></div>","e","TARGET","2","trustrating_stim/white_mw078.bmp,trustrating_stim/white_mw040.bmp","0,1","noMatchFace","i","3000","trustrating_stim/white_mw091.bmp","green","Share","REAL","0"
"html-keyboard-response","124","287339","0.0-7.0-5.17","62d06d1b651d6922f62fab9b","bdp_wmem","Mon Mar 13 2023 12:04:39 GMT-0600 (Mountain Daylight Time)","748918","Match,No Match","","null","","","","","","<div class='trialBorder'><div class='vertical-center'><img src='img/error.jpg'></div><div class='respDiv'><div class='respDivL'><font style='color:orange'>Match<br>(e)</font></div><div class='respDivR'>No Match<br>(i)</div></div></div>","null","FEEDBACK","","","","","","","","","","",""
"html-keyboard-response","125","287842","0.0-7.0-1.18","62d06d1b651d6922f62fab9b","bdp_wmem","Mon Mar 13 2023 12:04:39 GMT-0600 (Mountain Daylight Time)","748918","Match,No Match","","null","","","","","","<div class='trialBorder'><div class='vertical-center'><img src='img/fixation2_sml.jpg'</img></div></div>","null","FIX","","","","","","","","","","",""
"html-keyboard-response","126","289348","0.0-7.0-2.18","62d06d1b651d6922f62fab9b","bdp_wmem","Mon Mar 13 2023 12:04:39 GMT-0600 (Mountain Daylight Time)","748918","Match,No Match","","null","","","","","","<div class='trialBorder'><div class='vertical-center'><img style='vertical-align:center; align:center' src='img/fixation2_sml.jpg'></div><div class='arrayDiv1'><div class='tc'><img class='introPic' src='trustrating_stim/white_mw038.bmp'><br><font color='green'><strong>Share</strong></font></div></div></div>","null","ARRAY","1","trustrating_stim/white_mw038.bmp","1","noMatchOutcome","i","1500","","","","",""
"html-keyboard-response","127","293350","0.0-7.0-3.18","62d06d1b651d6922f62fab9b","bdp_wmem","Mon Mar 13 2023 12:04:39 GMT-0600 (Mountain Daylight Time)","748918","Match,No Match","","null","","","","","","<div class='trialBorder'><div class='vertical-center'><img src='img/fixation2_sml.jpg'</img></div></div>","null","DELAY","","","","","","","","","","",""
"html-keyboard-response","128","301778","0.0-7.0-4.18","62d06d1b651d6922f62fab9b","bdp_wmem","Mon Mar 13 2023 12:04:39 GMT-0600 (Mountain Daylight Time)","748918","Match,No Match","","8424","","","","","","<div class='trialBorder'><div class='targDiv'><div class='tc'><img class='introPic' src='trustrating_stim/white_mw038.bmp'><br><font color='red'><strong>Keep</strong></font></div></div><div class='respDiv'><div class='respDivL'>Match<br>(e)</div><div class='respDivR'>No Match<br>(i)</div></div></div>","i","TARGET","1","trustrating_stim/white_mw038.bmp","1","noMatchOutcome","i","1500","trustrating_stim/white_mw038.bmp","red","Keep","REAL","1"
"html-keyboard-response","129","302281","0.0-7.0-5.18","62d06d1b651d6922f62fab9b","bdp_wmem","Mon Mar 13 2023 12:04:39 GMT-0600 (Mountain Daylight Time)","748918","Match,No Match","","null","","","","","","<div class='trialBorder'><div class='vertical-center'><img src='img/correct.jpg'></div><div class='respDiv'><div class='respDivL'>Match<br>(e)</div><div class='respDivR'><font style='color:orange'>No Match<br>(i)</font></div></div></div>","null","FEEDBACK","","","","","","","","","","",""
"html-keyboard-response","130","302788","0.0-7.0-1.19","62d06d1b651d6922f62fab9b","bdp_wmem","Mon Mar 13 2023 12:04:39 GMT-0600 (Mountain Daylight Time)","748918","Match,No Match","","null","","","","","","<div class='trialBorder'><div class='vertical-center'><img src='img/fixation2_sml.jpg'</img></div></div>","null","FIX","","","","","","","","","","",""
"html-keyboard-response","131","305798","0.0-7.0-2.19","62d06d1b651d6922f62fab9b","bdp_wmem","Mon Mar 13 2023 12:04:39 GMT-0600 (Mountain Daylight Time)","748918","Match,No Match","","null","","","","","","<div class='trialBorder'><div class='vertical-center'><img style='vertical-align:center; align:center' src='img/fixation2_sml.jpg'></div><div class='arrayDiv2'><div class='tl'><img class='introPic' src='trustrating_stim/white_mw012.bmp'><br><font color='red'><strong>Keep</strong></font></div><div class='tr'><img class='introPic' src='trustrating_stim/white_mw013.bmp'><br><font color='green'><strong>Share</strong></font></div></div></div>","null","ARRAY","2","trustrating_stim/white_mw012.bmp,trustrating_stim/white_mw013.bmp","0,1","Match","e","3000","","","","",""
"html-keyboard-response","132","309801","0.0-7.0-3.19","62d06d1b651d6922f62fab9b","bdp_wmem","Mon Mar 13 2023 12:04:39 GMT-0600 (Mountain Daylight Time)","748918","Match,No Match","","null","","","","","","<div class='trialBorder'><div class='vertical-center'><img src='img/fixation2_sml.jpg'</img></div></div>","null","DELAY","","","","","","","","","","",""
"html-keyboard-response","133","310942","0.0-7.0-4.19","62d06d1b651d6922f62fab9b","bdp_wmem","Mon Mar 13 2023 12:04:39 GMT-0600 (Mountain Daylight Time)","748918","Match,No Match","","1136","","","","","","<div class='trialBorder'><div class='targDiv'><div class='tc'><img class='introPic' src='trustrating_stim/white_mw013.bmp'><br><font color='green'><strong>Share</strong></font></div></div><div class='respDiv'><div class='respDivL'>Match<br>(e)</div><div class='respDivR'>No Match<br>(i)</div></div></div>","i","TARGET","2","trustrating_stim/white_mw012.bmp,trustrating_stim/white_mw013.bmp","0,1","Match","e","3000","trustrating_stim/white_mw013.bmp","green","Share","REAL","0"
"html-keyboard-response","134","311446","0.0-7.0-5.19","62d06d1b651d6922f62fab9b","bdp_wmem","Mon Mar 13 2023 12:04:39 GMT-0600 (Mountain Daylight Time)","748918","Match,No Match","","null","","","","","","<div class='trialBorder'><div class='vertical-center'><img src='img/error.jpg'></div><div class='respDiv'><div class='respDivL'>Match<br>(e)</div><div class='respDivR'><font style='color:orange'>No Match<br>(i)</font></div></div></div>","null","FEEDBACK","","","","","","","","","","",""
"html-keyboard-response","135","311949","0.0-7.0-1.20","62d06d1b651d6922f62fab9b","bdp_wmem","Mon Mar 13 2023 12:04:39 GMT-0600 (Mountain Daylight Time)","748918","Match,No Match","","null","","","","","","<div class='trialBorder'><div class='vertical-center'><img src='img/fixation2_sml.jpg'</img></div></div>","null","FIX","","","","","","","","","","",""
"html-keyboard-response","136","314953","0.0-7.0-2.20","62d06d1b651d6922f62fab9b","bdp_wmem","Mon Mar 13 2023 12:04:39 GMT-0600 (Mountain Daylight Time)","748918","Match,No Match","","null","","","","","","<div class='trialBorder'><div class='vertical-center'><img style='vertical-align:center; align:center' src='img/fixation2_sml.jpg'></div><div class='arrayDiv2'><div class='tl'><img class='introPic' src='trustrating_stim/white_mw070.bmp'><br><font color='green'><strong>Share</strong></font></div><div class='tr'><img class='introPic' src='trustrating_stim/white_mw012.bmp'><br><font color='red'><strong>Keep</strong></font></div></div></div>","null","ARRAY","2","trustrating_stim/white_mw070.bmp,trustrating_stim/white_mw012.bmp","1,0","noMatchFace","i","3000","","","","",""
"html-keyboard-response","137","318956","0.0-7.0-3.20","62d06d1b651d6922f62fab9b","bdp_wmem","Mon Mar 13 2023 12:04:39 GMT-0600 (Mountain Daylight Time)","748918","Match,No Match","","null","","","","","","<div class='trialBorder'><div class='vertical-center'><img src='img/fixation2_sml.jpg'</img></div></div>","null","DELAY","","","","","","","","","","",""
"html-keyboard-response","138","319684","0.0-7.0-4.20","62d06d1b651d6922f62fab9b","bdp_wmem","Mon Mar 13 2023 12:04:39 GMT-0600 (Mountain Daylight Time)","748918","Match,No Match","","724","","","","","","<div class='trialBorder'><div class='targDiv'><div class='tc'><img class='introPic' src='trustrating_stim/white_mw085.bmp'><br><font color='red'><strong>Keep</strong></font></div></div><div class='respDiv'><div class='respDivL'>Match<br>(e)</div><div class='respDivR'>No Match<br>(i)</div></div></div>","e","TARGET","2","trustrating_stim/white_mw070.bmp,trustrating_stim/white_mw012.bmp","1,0","noMatchFace","i","3000","trustrating_stim/white_mw085.bmp","red","Keep","REAL","0"
"html-keyboard-response","139","320188","0.0-7.0-5.20","62d06d1b651d6922f62fab9b","bdp_wmem","Mon Mar 13 2023 12:04:39 GMT-0600 (Mountain Daylight Time)","748918","Match,No Match","","null","","","","","","<div class='trialBorder'><div class='vertical-center'><img src='img/error.jpg'></div><div class='respDiv'><div class='respDivL'><font style='color:orange'>Match<br>(e)</font></div><div class='respDivR'>No Match<br>(i)</div></div></div>","null","FEEDBACK","","","","","","","","","","",""
"html-keyboard-response","140","320691","0.0-7.0-1.21","62d06d1b651d6922f62fab9b","bdp_wmem","Mon Mar 13 2023 12:04:39 GMT-0600 (Mountain Daylight Time)","748918","Match,No Match","","null","","","","","","<div class='trialBorder'><div class='vertical-center'><img src='img/fixation2_sml.jpg'</img></div></div>","null","FIX","","","","","","","","","","",""
"html-keyboard-response","141","325195","0.0-7.0-2.21","62d06d1b651d6922f62fab9b","bdp_wmem","Mon Mar 13 2023 12:04:39 GMT-0600 (Mountain Daylight Time)","748918","Match,No Match","","null","","","","","","<div class='trialBorder'><div class='vertical-center'><img style='vertical-align:center; align:center' src='img/fixation2_sml.jpg'></div><div class='arrayDiv3'><div class='tl'><img class='introPic' src='trustrating_stim/white_mw042.bmp'><br><font color='green'><strong>Share</strong></font></div><div class='tc'><img class='introPic' src='trustrating_stim/white_mw091.bmp'><br><font color='red'><strong>Keep</strong></font></div><div class='tr'><img class='introPic' src='trustrating_stim/white_mw038.bmp'><br><font color='green'><strong>Share</strong></font></div></div></div>","null","ARRAY","3","trustrating_stim/white_mw042.bmp,trustrating_stim/white_mw091.bmp,trustrating_stim/white_mw038.bmp","1,0,1","Match","e","4500","","","","",""
"html-keyboard-response","142","329199","0.0-7.0-3.21","62d06d1b651d6922f62fab9b","bdp_wmem","Mon Mar 13 2023 12:04:39 GMT-0600 (Mountain Daylight Time)","748918","Match,No Match","","null","","","","","","<div class='trialBorder'><div class='vertical-center'><img src='img/fixation2_sml.jpg'</img></div></div>","null","DELAY","","","","","","","","","","",""
"html-keyboard-response","143","329577","0.0-7.0-4.21","62d06d1b651d6922f62fab9b","bdp_wmem","Mon Mar 13 2023 12:04:39 GMT-0600 (Mountain Daylight Time)","748918","Match,No Match","","374","","","","","","<div class='trialBorder'><div class='targDiv'><div class='tc'><img class='introPic' src='trustrating_stim/white_mw042.bmp'><br><font color='green'><strong>Share</strong></font></div></div><div class='respDiv'><div class='respDivL'>Match<br>(e)</div><div class='respDivR'>No Match<br>(i)</div></div></div>","i","TARGET","3","trustrating_stim/white_mw042.bmp,trustrating_stim/white_mw091.bmp,trustrating_stim/white_mw038.bmp","1,0,1","Match","e","4500","trustrating_stim/white_mw042.bmp","green","Share","REAL","0"
"html-keyboard-response","144","330080","0.0-7.0-5.21","62d06d1b651d6922f62fab9b","bdp_wmem","Mon Mar 13 2023 12:04:39 GMT-0600 (Mountain Daylight Time)","748918","Match,No Match","","null","","","","","","<div class='trialBorder'><div class='vertical-center'><img src='img/error.jpg'></div><div class='respDiv'><div class='respDivL'>Match<br>(e)</div><div class='respDivR'><font style='color:orange'>No Match<br>(i)</font></div></div></div>","null","FEEDBACK","","","","","","","","","","",""
"html-keyboard-response","145","330583","0.0-7.0-1.22","62d06d1b651d6922f62fab9b","bdp_wmem","Mon Mar 13 2023 12:04:39 GMT-0600 (Mountain Daylight Time)","748918","Match,No Match","","null","","","","","","<div class='trialBorder'><div class='vertical-center'><img src='img/fixation2_sml.jpg'</img></div></div>","null","FIX","","","","","","","","","","",""
"html-keyboard-response","146","332088","0.0-7.0-2.22","62d06d1b651d6922f62fab9b","bdp_wmem","Mon Mar 13 2023 12:04:39 GMT-0600 (Mountain Daylight Time)","748918","Match,No Match","","null","","","","","","<div class='trialBorder'><div class='vertical-center'><img style='vertical-align:center; align:center' src='img/fixation2_sml.jpg'></div><div class='arrayDiv1'><div class='tc'><img class='introPic' src='trustrating_stim/white_mw078.bmp'><br><font color='green'><strong>Share</strong></font></div></div></div>","null","ARRAY","1","trustrating_stim/white_mw078.bmp","1","noMatchFace","i","1500","","","","",""
"html-keyboard-response","147","336091","0.0-7.0-3.22","62d06d1b651d6922f62fab9b","bdp_wmem","Mon Mar 13 2023 12:04:39 GMT-0600 (Mountain Daylight Time)","748918","Match,No Match","","null","","","","","","<div class='trialBorder'><div class='vertical-center'><img src='img/fixation2_sml.jpg'</img></div></div>","null","DELAY","","","","","","","","","","",""
"html-keyboard-response","148","349377","0.0-7.0-4.22","62d06d1b651d6922f62fab9b","bdp_wmem","Mon Mar 13 2023 12:04:39 GMT-0600 (Mountain Daylight Time)","748918","Match,No Match","","13282","","","","","","<div class='trialBorder'><div class='targDiv'><div class='tc'><img class='introPic' src='trustrating_stim/white_mw092.bmp'><br><font color='green'><strong>Share</strong></font></div></div><div class='respDiv'><div class='respDivL'>Match<br>(e)</div><div class='respDivR'>No Match<br>(i)</div></div></div>","i","TARGET","1","trustrating_stim/white_mw078.bmp","1","noMatchFace","i","1500","trustrating_stim/white_mw092.bmp","green","Share","REAL","1"
"html-keyboard-response","149","349881","0.0-7.0-5.22","62d06d1b651d6922f62fab9b","bdp_wmem","Mon Mar 13 2023 12:04:39 GMT-0600 (Mountain Daylight Time)","748918","Match,No Match","","null","","","","","","<div class='trialBorder'><div class='vertical-center'><img src='img/correct.jpg'></div><div class='respDiv'><div class='respDivL'>Match<br>(e)</div><div class='respDivR'><font style='color:orange'>No Match<br>(i)</font></div></div></div>","null","FEEDBACK","","","","","","","","","","",""
"html-keyboard-response","150","350384","0.0-7.0-1.23","62d06d1b651d6922f62fab9b","bdp_wmem","Mon Mar 13 2023 12:04:39 GMT-0600 (Mountain Daylight Time)","748918","Match,No Match","","null","","","","","","<div class='trialBorder'><div class='vertical-center'><img src='img/fixation2_sml.jpg'</img></div></div>","null","FIX","","","","","","","","","","",""
"html-keyboard-response","151","353390","0.0-7.0-2.23","62d06d1b651d6922f62fab9b","bdp_wmem","Mon Mar 13 2023 12:04:39 GMT-0600 (Mountain Daylight Time)","748918","Match,No Match","","null","","","","","","<div class='trialBorder'><div class='vertical-center'><img style='vertical-align:center; align:center' src='img/fixation2_sml.jpg'></div><div class='arrayDiv2'><div class='tl'><img class='introPic' src='trustrating_stim/white_mw013.bmp'><br><font color='red'><strong>Keep</strong></font></div><div class='tr'><img class='introPic' src='trustrating_stim/white_mw042.bmp'><br><font color='green'><strong>Share</strong></font></div></div></div>","null","ARRAY","2","trustrating_stim/white_mw013.bmp,trustrating_stim/white_mw042.bmp","0,1","Match","e","3000","","","","",""
"html-keyboard-response","152","357393","0.0-7.0-3.23","62d06d1b651d6922f62fab9b","bdp_wmem","Mon Mar 13 2023 12:04:39 GMT-0600 (Mountain Daylight Time)","748918","Match,No Match","","null","","","","","","<div class='trialBorder'><div class='vertical-center'><img src='img/fixation2_sml.jpg'</img></div></div>","null","DELAY","","","","","","","","","","",""
"html-keyboard-response","153","365051","0.0-7.0-4.23","62d06d1b651d6922f62fab9b","bdp_wmem","Mon Mar 13 2023 12:04:39 GMT-0600 (Mountain Daylight Time)","748918","Match,No Match","","7654","","","","","","<div class='trialBorder'><div class='targDiv'><div class='tc'><img class='introPic' src='trustrating_stim/white_mw042.bmp'><br><font color='green'><strong>Share</strong></font></div></div><div class='respDiv'><div class='respDivL'>Match<br>(e)</div><div class='respDivR'>No Match<br>(i)</div></div></div>","i","TARGET","2","trustrating_stim/white_mw013.bmp,trustrating_stim/white_mw042.bmp","0,1","Match","e","3000","trustrating_stim/white_mw042.bmp","green","Share","REAL","0"
"html-keyboard-response","154","365554","0.0-7.0-5.23","62d06d1b651d6922f62fab9b","bdp_wmem","Mon Mar 13 2023 12:04:39 GMT-0600 (Mountain Daylight Time)","748918","Match,No Match","","null","","","","","","<div class='trialBorder'><div class='vertical-center'><img src='img/error.jpg'></div><div class='respDiv'><div class='respDivL'>Match<br>(e)</div><div class='respDivR'><font style='color:orange'>No Match<br>(i)</font></div></div></div>","null","FEEDBACK","","","","","","","","","","",""
"html-keyboard-response","155","366058","0.0-7.0-1.24","62d06d1b651d6922f62fab9b","bdp_wmem","Mon Mar 13 2023 12:04:39 GMT-0600 (Mountain Daylight Time)","748918","Match,No Match","","null","","","","","","<div class='trialBorder'><div class='vertical-center'><img src='img/fixation2_sml.jpg'</img></div></div>","null","FIX","","","","","","","","","","",""
"html-keyboard-response","156","369068","0.0-7.0-2.24","62d06d1b651d6922f62fab9b","bdp_wmem","Mon Mar 13 2023 12:04:39 GMT-0600 (Mountain Daylight Time)","748918","Match,No Match","","null","","","","","","<div class='trialBorder'><div class='vertical-center'><img style='vertical-align:center; align:center' src='img/fixation2_sml.jpg'></div><div class='arrayDiv2'><div class='tl'><img class='introPic' src='trustrating_stim/white_mw003.bmp'><br><font color='red'><strong>Keep</strong></font></div><div class='tr'><img class='introPic' src='trustrating_stim/white_mw010.bmp'><br><font color='green'><strong>Share</strong></font></div></div></div>","null","ARRAY","2","trustrating_stim/white_mw003.bmp,trustrating_stim/white_mw010.bmp","0,1","noMatchOutcome","i","3000","","","","",""
"html-keyboard-response","157","373071","0.0-7.0-3.24","62d06d1b651d6922f62fab9b","bdp_wmem","Mon Mar 13 2023 12:04:39 GMT-0600 (Mountain Daylight Time)","748918","Match,No Match","","null","","","","","","<div class='trialBorder'><div class='vertical-center'><img src='img/fixation2_sml.jpg'</img></div></div>","null","DELAY","","","","","","","","","","",""
"html-keyboard-response","158","380843","0.0-7.0-4.24","62d06d1b651d6922f62fab9b","bdp_wmem","Mon Mar 13 2023 12:04:39 GMT-0600 (Mountain Daylight Time)","748918","Match,No Match","","7768","","","","","","<div class='trialBorder'><div class='targDiv'><div class='tc'><img class='introPic' src='trustrating_stim/white_mw003.bmp'><br><font color='green'><strong>Share</strong></font></div></div><div class='respDiv'><div class='respDivL'>Match<br>(e)</div><div class='respDivR'>No Match<br>(i)</div></div></div>","e","TARGET","2","trustrating_stim/white_mw003.bmp,trustrating_stim/white_mw010.bmp","0,1","noMatchOutcome","i","3000","trustrating_stim/white_mw003.bmp","green","Share","REAL","0"
"html-keyboard-response","159","381346","0.0-7.0-5.24","62d06d1b651d6922f62fab9b","bdp_wmem","Mon Mar 13 2023 12:04:39 GMT-0600 (Mountain Daylight Time)","748918","Match,No Match","","null","","","","","","<div class='trialBorder'><div class='vertical-center'><img src='img/error.jpg'></div><div class='respDiv'><div class='respDivL'><font style='color:orange'>Match<br>(e)</font></div><div class='respDivR'>No Match<br>(i)</div></div></div>","null","FEEDBACK","","","","","","","","","","",""
"html-keyboard-response","160","381849","0.0-7.0-1.25","62d06d1b651d6922f62fab9b","bdp_wmem","Mon Mar 13 2023 12:04:39 GMT-0600 (Mountain Daylight Time)","748918","Match,No Match","","null","","","","","","<div class='trialBorder'><div class='vertical-center'><img src='img/fixation2_sml.jpg'</img></div></div>","null","FIX","","","","","","","","","","",""
"html-keyboard-response","161","386355","0.0-7.0-2.25","62d06d1b651d6922f62fab9b","bdp_wmem","Mon Mar 13 2023 12:04:39 GMT-0600 (Mountain Daylight Time)","748918","Match,No Match","","null","","","","","","<div class='trialBorder'><div class='vertical-center'><img style='vertical-align:center; align:center' src='img/fixation2_sml.jpg'></div><div class='arrayDiv3'><div class='tl'><img class='introPic' src='trustrating_stim/white_mw070.bmp'><br><font color='red'><strong>Keep</strong></font></div><div class='tc'><img class='introPic' src='trustrating_stim/white_mw078.bmp'><br><font color='red'><strong>Keep</strong></font></div><div class='tr'><img class='introPic' src='trustrating_stim/white_mw085.bmp'><br><font color='green'><strong>Share</strong></font></div></div></div>","null","ARRAY","3","trustrating_stim/white_mw070.bmp,trustrating_stim/white_mw078.bmp,trustrating_stim/white_mw085.bmp","0,0,1","Match","e","4500","","","","",""
"html-keyboard-response","162","390359","0.0-7.0-3.25","62d06d1b651d6922f62fab9b","bdp_wmem","Mon Mar 13 2023 12:04:39 GMT-0600 (Mountain Daylight Time)","748918","Match,No Match","","null","","","","","","<div class='trialBorder'><div class='vertical-center'><img src='img/fixation2_sml.jpg'</img></div></div>","null","DELAY","","","","","","","","","","",""
"html-keyboard-response","163","397225","0.0-7.0-4.25","62d06d1b651d6922f62fab9b","bdp_wmem","Mon Mar 13 2023 12:04:39 GMT-0600 (Mountain Daylight Time)","748918","Match,No Match","","6862","","","","","","<div class='trialBorder'><div class='targDiv'><div class='tc'><img class='introPic' src='trustrating_stim/white_mw085.bmp'><br><font color='green'><strong>Share</strong></font></div></div><div class='respDiv'><div class='respDivL'>Match<br>(e)</div><div class='respDivR'>No Match<br>(i)</div></div></div>","i","TARGET","3","trustrating_stim/white_mw070.bmp,trustrating_stim/white_mw078.bmp,trustrating_stim/white_mw085.bmp","0,0,1","Match","e","4500","trustrating_stim/white_mw085.bmp","green","Share","REAL","0"
"html-keyboard-response","164","397729","0.0-7.0-5.25","62d06d1b651d6922f62fab9b","bdp_wmem","Mon Mar 13 2023 12:04:39 GMT-0600 (Mountain Daylight Time)","748918","Match,No Match","","null","","","","","","<div class='trialBorder'><div class='vertical-center'><img src='img/error.jpg'></div><div class='respDiv'><div class='respDivL'>Match<br>(e)</div><div class='respDivR'><font style='color:orange'>No Match<br>(i)</font></div></div></div>","null","FEEDBACK","","","","","","","","","","",""
"html-keyboard-response","165","398232","0.0-7.0-1.26","62d06d1b651d6922f62fab9b","bdp_wmem","Mon Mar 13 2023 12:04:39 GMT-0600 (Mountain Daylight Time)","748918","Match,No Match","","null","","","","","","<div class='trialBorder'><div class='vertical-center'><img src='img/fixation2_sml.jpg'</img></div></div>","null","FIX","","","","","","","","","","",""
"html-keyboard-response","166","402738","0.0-7.0-2.26","62d06d1b651d6922f62fab9b","bdp_wmem","Mon Mar 13 2023 12:04:39 GMT-0600 (Mountain Daylight Time)","748918","Match,No Match","","null","","","","","","<div class='trialBorder'><div class='vertical-center'><img style='vertical-align:center; align:center' src='img/fixation2_sml.jpg'></div><div class='arrayDiv3'><div class='tl'><img class='introPic' src='trustrating_stim/white_mw085.bmp'><br><font color='red'><strong>Keep</strong></font></div><div class='tc'><img class='introPic' src='trustrating_stim/white_mw042.bmp'><br><font color='green'><strong>Share</strong></font></div><div class='tr'><img class='introPic' src='trustrating_stim/white_mw038.bmp'><br><font color='green'><strong>Share</strong></font></div></div></div>","null","ARRAY","3","trustrating_stim/white_mw085.bmp,trustrating_stim/white_mw042.bmp,trustrating_stim/white_mw038.bmp","0,1,1","noMatchOutcome","i","4500","","","","",""
"html-keyboard-response","167","406741","0.0-7.0-3.26","62d06d1b651d6922f62fab9b","bdp_wmem","Mon Mar 13 2023 12:04:39 GMT-0600 (Mountain Daylight Time)","748918","Match,No Match","","null","","","","","","<div class='trialBorder'><div class='vertical-center'><img src='img/fixation2_sml.jpg'</img></div></div>","null","DELAY","","","","","","","","","","",""
"html-keyboard-response","168","410162","0.0-7.0-4.26","62d06d1b651d6922f62fab9b","bdp_wmem","Mon Mar 13 2023 12:04:39 GMT-0600 (Mountain Daylight Time)","748918","Match,No Match","","3416","","","","","","<div class='trialBorder'><div class='targDiv'><div class='tc'><img class='introPic' src='trustrating_stim/white_mw038.bmp'><br><font color='red'><strong>Keep</strong></font></div></div><div class='respDiv'><div class='respDivL'>Match<br>(e)</div><div class='respDivR'>No Match<br>(i)</div></div></div>","e","TARGET","3","trustrating_stim/white_mw085.bmp,trustrating_stim/white_mw042.bmp,trustrating_stim/white_mw038.bmp","0,1,1","noMatchOutcome","i","4500","trustrating_stim/white_mw038.bmp","red","Keep","REAL","0"
"html-keyboard-response","169","410666","0.0-7.0-5.26","62d06d1b651d6922f62fab9b","bdp_wmem","Mon Mar 13 2023 12:04:39 GMT-0600 (Mountain Daylight Time)","748918","Match,No Match","","null","","","","","","<div class='trialBorder'><div class='vertical-center'><img src='img/error.jpg'></div><div class='respDiv'><div class='respDivL'><font style='color:orange'>Match<br>(e)</font></div><div class='respDivR'>No Match<br>(i)</div></div></div>","null","FEEDBACK","","","","","","","","","","",""
"html-keyboard-response","170","411169","0.0-7.0-1.27","62d06d1b651d6922f62fab9b","bdp_wmem","Mon Mar 13 2023 12:04:39 GMT-0600 (Mountain Daylight Time)","748918","Match,No Match","","null","","","","","","<div class='trialBorder'><div class='vertical-center'><img src='img/fixation2_sml.jpg'</img></div></div>","null","FIX","","","","","","","","","","",""
"html-keyboard-response","171","412673","0.0-7.0-2.27","62d06d1b651d6922f62fab9b","bdp_wmem","Mon Mar 13 2023 12:04:39 GMT-0600 (Mountain Daylight Time)","748918","Match,No Match","","null","","","","","","<div class='trialBorder'><div class='vertical-center'><img style='vertical-align:center; align:center' src='img/fixation2_sml.jpg'></div><div class='arrayDiv1'><div class='tc'><img class='introPic' src='trustrating_stim/white_mw003.bmp'><br><font color='green'><strong>Share</strong></font></div></div></div>","null","ARRAY","1","trustrating_stim/white_mw003.bmp","1","Match","e","1500","","","","",""
"html-keyboard-response","172","416677","0.0-7.0-3.27","62d06d1b651d6922f62fab9b","bdp_wmem","Mon Mar 13 2023 12:04:39 GMT-0600 (Mountain Daylight Time)","748918","Match,No Match","","null","","","","","","<div class='trialBorder'><div class='vertical-center'><img src='img/fixation2_sml.jpg'</img></div></div>","null","DELAY","","","","","","","","","","",""
"html-keyboard-response","173","417988","0.0-7.0-4.27","62d06d1b651d6922f62fab9b","bdp_wmem","Mon Mar 13 2023 12:04:39 GMT-0600 (Mountain Daylight Time)","748918","Match,No Match","","1307","","","","","","<div class='trialBorder'><div class='targDiv'><div class='tc'><img class='introPic' src='trustrating_stim/white_mw003.bmp'><br><font color='green'><strong>Share</strong></font></div></div><div class='respDiv'><div class='respDivL'>Match<br>(e)</div><div class='respDivR'>No Match<br>(i)</div></div></div>","i","TARGET","1","trustrating_stim/white_mw003.bmp","1","Match","e","1500","trustrating_stim/white_mw003.bmp","green","Share","REAL","0"
"html-keyboard-response","174","418491","0.0-7.0-5.27","62d06d1b651d6922f62fab9b","bdp_wmem","Mon Mar 13 2023 12:04:39 GMT-0600 (Mountain Daylight Time)","748918","Match,No Match","","null","","","","","","<div class='trialBorder'><div class='vertical-center'><img src='img/error.jpg'></div><div class='respDiv'><div class='respDivL'>Match<br>(e)</div><div class='respDivR'><font style='color:orange'>No Match<br>(i)</font></div></div></div>","null","FEEDBACK","","","","","","","","","","",""
"html-keyboard-response","175","418995","0.0-7.0-1.28","62d06d1b651d6922f62fab9b","bdp_wmem","Mon Mar 13 2023 12:04:39 GMT-0600 (Mountain Daylight Time)","748918","Match,No Match","","null","","","","","","<div class='trialBorder'><div class='vertical-center'><img src='img/fixation2_sml.jpg'</img></div></div>","null","FIX","","","","","","","","","","",""
"html-keyboard-response","176","423498","0.0-7.0-2.28","62d06d1b651d6922f62fab9b","bdp_wmem","Mon Mar 13 2023 12:04:39 GMT-0600 (Mountain Daylight Time)","748918","Match,No Match","","null","","","","","","<div class='trialBorder'><div class='vertical-center'><img style='vertical-align:center; align:center' src='img/fixation2_sml.jpg'></div><div class='arrayDiv3'><div class='tl'><img class='introPic' src='trustrating_stim/white_mw010.bmp'><br><font color='green'><strong>Share</strong></font></div><div class='tc'><img class='introPic' src='trustrating_stim/white_mw078.bmp'><br><font color='green'><strong>Share</strong></font></div><div class='tr'><img class='introPic' src='trustrating_stim/white_mw070.bmp'><br><font color='red'><strong>Keep</strong></font></div></div></div>","null","ARRAY","3","trustrating_stim/white_mw010.bmp,trustrating_stim/white_mw078.bmp,trustrating_stim/white_mw070.bmp","1,1,0","Match","e","4500","","","","",""
"html-keyboard-response","177","427500","0.0-7.0-3.28","62d06d1b651d6922f62fab9b","bdp_wmem","Mon Mar 13 2023 12:04:39 GMT-0600 (Mountain Daylight Time)","748918","Match,No Match","","null","","","","","","<div class='trialBorder'><div class='vertical-center'><img src='img/fixation2_sml.jpg'</img></div></div>","null","DELAY","","","","","","","","","","",""
"html-keyboard-response","178","428828","0.0-7.0-4.28","62d06d1b651d6922f62fab9b","bdp_wmem","Mon Mar 13 2023 12:04:39 GMT-0600 (Mountain Daylight Time)","748918","Match,No Match","","1324","","","","","","<div class='trialBorder'><div class='targDiv'><div class='tc'><img class='introPic' src='trustrating_stim/white_mw070.bmp'><br><font color='red'><strong>Keep</strong></font></div></div><div class='respDiv'><div class='respDivL'>Match<br>(e)</div><div class='respDivR'>No Match<br>(i)</div></div></div>","i","TARGET","3","trustrating_stim/white_mw010.bmp,trustrating_stim/white_mw078.bmp,trustrating_stim/white_mw070.bmp","1,1,0","Match","e","4500","trustrating_stim/white_mw070.bmp","red","Keep","REAL","0"
"html-keyboard-response","179","429331","0.0-7.0-5.28","62d06d1b651d6922f62fab9b","bdp_wmem","Mon Mar 13 2023 12:04:39 GMT-0600 (Mountain Daylight Time)","748918","Match,No Match","","null","","","","","","<div class='trialBorder'><div class='vertical-center'><img src='img/error.jpg'></div><div class='respDiv'><div class='respDivL'>Match<br>(e)</div><div class='respDivR'><font style='color:orange'>No Match<br>(i)</font></div></div></div>","null","FEEDBACK","","","","","","","","","","",""
"html-keyboard-response","180","429835","0.0-7.0-1.29","62d06d1b651d6922f62fab9b","bdp_wmem","Mon Mar 13 2023 12:04:39 GMT-0600 (Mountain Daylight Time)","748918","Match,No Match","","null","","","","","","<div class='trialBorder'><div class='vertical-center'><img src='img/fixation2_sml.jpg'</img></div></div>","null","FIX","","","","","","","","","","",""
"html-keyboard-response","181","432839","0.0-7.0-2.29","62d06d1b651d6922f62fab9b","bdp_wmem","Mon Mar 13 2023 12:04:39 GMT-0600 (Mountain Daylight Time)","748918","Match,No Match","","null","","","","","","<div class='trialBorder'><div class='vertical-center'><img style='vertical-align:center; align:center' src='img/fixation2_sml.jpg'></div><div class='arrayDiv2'><div class='tl'><img class='introPic' src='trustrating_stim/white_mw070.bmp'><br><font color='red'><strong>Keep</strong></font></div><div class='tr'><img class='introPic' src='trustrating_stim/white_mw012.bmp'><br><font color='green'><strong>Share</strong></font></div></div></div>","null","ARRAY","2","trustrating_stim/white_mw070.bmp,trustrating_stim/white_mw012.bmp","0,1","noMatchOutcome","i","3000","","","","",""
"html-keyboard-response","182","436842","0.0-7.0-3.29","62d06d1b651d6922f62fab9b","bdp_wmem","Mon Mar 13 2023 12:04:39 GMT-0600 (Mountain Daylight Time)","748918","Match,No Match","","null","","","","","","<div class='trialBorder'><div class='vertical-center'><img src='img/fixation2_sml.jpg'</img></div></div>","null","DELAY","","","","","","","","","","",""
"html-keyboard-response","183","440694","0.0-7.0-4.29","62d06d1b651d6922f62fab9b","bdp_wmem","Mon Mar 13 2023 12:04:39 GMT-0600 (Mountain Daylight Time)","748918","Match,No Match","","3849","","","","","","<div class='trialBorder'><div class='targDiv'><div class='tc'><img class='introPic' src='trustrating_stim/white_mw070.bmp'><br><font color='green'><strong>Share</strong></font></div></div><div class='respDiv'><div class='respDivL'>Match<br>(e)</div><div class='respDivR'>No Match<br>(i)</div></div></div>","e","TARGET","2","trustrating_stim/white_mw070.bmp,trustrating_stim/white_mw012.bmp","0,1","noMatchOutcome","i","3000","trustrating_stim/white_mw070.bmp","green","Share","REAL","0"
"html-keyboard-response","184","441197","0.0-7.0-5.29","62d06d1b651d6922f62fab9b","bdp_wmem","Mon Mar 13 2023 12:04:39 GMT-0600 (Mountain Daylight Time)","748918","Match,No Match","","null","","","","","","<div class='trialBorder'><div class='vertical-center'><img src='img/error.jpg'></div><div class='respDiv'><div class='respDivL'><font style='color:orange'>Match<br>(e)</font></div><div class='respDivR'>No Match<br>(i)</div></div></div>","null","FEEDBACK","","","","","","","","","","",""
"html-keyboard-response","185","441699","0.0-7.0-1.30","62d06d1b651d6922f62fab9b","bdp_wmem","Mon Mar 13 2023 12:04:39 GMT-0600 (Mountain Daylight Time)","748918","Match,No Match","","null","","","","","","<div class='trialBorder'><div class='vertical-center'><img src='img/fixation2_sml.jpg'</img></div></div>","null","FIX","","","","","","","","","","",""
"html-keyboard-response","186","443204","0.0-7.0-2.30","62d06d1b651d6922f62fab9b","bdp_wmem","Mon Mar 13 2023 12:04:39 GMT-0600 (Mountain Daylight Time)","748918","Match,No Match","","null","","","","","","<div class='trialBorder'><div class='vertical-center'><img style='vertical-align:center; align:center' src='img/fixation2_sml.jpg'></div><div class='arrayDiv1'><div class='tc'><img class='introPic' src='trustrating_stim/white_mw013.bmp'><br><font color='red'><strong>Keep</strong></font></div></div></div>","null","ARRAY","1","trustrating_stim/white_mw013.bmp","0","Match","e","1500","","","","",""
"html-keyboard-response","187","447207","0.0-7.0-3.30","62d06d1b651d6922f62fab9b","bdp_wmem","Mon Mar 13 2023 12:04:39 GMT-0600 (Mountain Daylight Time)","748918","Match,No Match","","null","","","","","","<div class='trialBorder'><div class='vertical-center'><img src='img/fixation2_sml.jpg'</img></div></div>","null","DELAY","","","","","","","","","","",""
