"event","trial","time","trialtype","subject_id","task","startTime","totalTime","labels","trial_type","trial_index","time_elapsed","internal_node_id","view_history","rt","success","stimulus","key_press","stimType","arraySize","arrayFaces","arrayOutcomes","matchType","corrResp","arrayDur","targFace","targCol","targOutcome","trialType","corr"
"focus","0","0","focusevent","6162341a644c08d5cca4b7bb","bdp_wmem","Sun Mar 12 2023 17:32:56 GMT-0400 (Eastern Daylight Time)","583980","Match,No Match","","","","","","","","","","","","","","","","","","","","",""
"","","","","6162341a644c08d5cca4b7bb","bdp_wmem","Sun Mar 12 2023 17:32:56 GMT-0400 (Eastern Daylight Time)","583980","Match,No Match","pavlovia","0","2","0.0-0.0","","","","","","","","","","","","","","","","",""
"","","","","6162341a644c08d5cca4b7bb","bdp_wmem","Sun Mar 12 2023 17:32:56 GMT-0400 (Eastern Daylight Time)","583980","Match,No Match","instructions","1","1588","0.0-1.0","[{""page_index"":0,""viewing_time"":1586}]","1586","","","","","","","","","","","","","","",""
"fullscreenexit","2","3271","fullscreenexit","6162341a644c08d5cca4b7bb","bdp_wmem","Sun Mar 12 2023 17:32:56 GMT-0400 (Eastern Daylight Time)","583980","Match,No Match","","","","","","","","","","","","","","","","","","","","",""
"","","","","6162341a644c08d5cca4b7bb","bdp_wmem","Sun Mar 12 2023 17:32:56 GMT-0400 (Eastern Daylight Time)","583980","Match,No Match","fullscreen","2","4053","0.0-2.0","","","true","","","","","","","","","","","","","",""
"","","","fullscreenfail","6162341a644c08d5cca4b7bb","bdp_wmem","Sun Mar 12 2023 17:32:56 GMT-0400 (Eastern Daylight Time)","583980","Match,No Match","image-keyboard-response","3","4615","0.0-3.0-0.0","","548","","","32","","","","","","","","","","","",""
"","","","","6162341a644c08d5cca4b7bb","bdp_wmem","Sun Mar 12 2023 17:32:56 GMT-0400 (Eastern Daylight Time)","583980","Match,No Match","instructions","4","75982","0.0-4.0","[{""page_index"":0,""viewing_time"":43991},{""page_index"":1,""viewing_time"":12018},{""page_index"":2,""viewing_time"":8157},{""page_index"":3,""viewing_time"":4377},{""page_index"":4,""viewing_time"":2571}]","71115","","","","","","","","","","","","","","",""
"","","","","6162341a644c08d5cca4b7bb","bdp_wmem","Sun Mar 12 2023 17:32:56 GMT-0400 (Eastern Daylight Time)","583980","Match,No Match","html-keyboard-response","5","76485","0.0-5.0-1.0","","null","","<div class='trialBorder'><div class='vertical-center'><img src='img/fixation2_sml.jpg'</img></div></div>","null","FIX","","","","","","","","","","",""
"","","","","6162341a644c08d5cca4b7bb","bdp_wmem","Sun Mar 12 2023 17:32:56 GMT-0400 (Eastern Daylight Time)","583980","Match,No Match","html-keyboard-response","6","77992","0.0-5.0-2.0","","null","","<div class='trialBorder'><div class='vertical-center'><img style='vertical-align:center; align:center' src='img/fixation2_sml.jpg'></div><div class='arrayDiv1'><div class='tc'><img class='introPic' src='trustrating_stim/white_mw010.bmp'><br><font color='red'><strong>Keep</strong></font></div></div></div>","null","ARRAY","1","trustrating_stim/white_mw010.bmp","0","noMatchFace","i","1500","","","","",""
"","","","","6162341a644c08d5cca4b7bb","bdp_wmem","Sun Mar 12 2023 17:32:56 GMT-0400 (Eastern Daylight Time)","583980","Match,No Match","html-keyboard-response","7","81993","0.0-5.0-3.0","","null","","<div class='trialBorder'><div class='vertical-center'><img src='img/fixation2_sml.jpg'</img></div></div>","null","DELAY","","","","","","","","","","",""
"","","","","6162341a644c08d5cca4b7bb","bdp_wmem","Sun Mar 12 2023 17:32:56 GMT-0400 (Eastern Daylight Time)","583980","Match,No Match","html-keyboard-response","8","82953","0.0-5.0-4.0","","958","","<div class='trialBorder'><div class='targDiv'><div class='tc'><img class='introPic' src='trustrating_stim/white_mw085.bmp'><br><font color='red'><strong>Keep</strong></font></div></div><div class='respDiv'><div class='respDivL'>Match<br>(e)</div><div class='respDivR'>No Match<br>(i)</div></div></div>","i","TARGET","1","trustrating_stim/white_mw010.bmp","0","noMatchFace","i","1500","trustrating_stim/white_mw085.bmp","red","Keep","PRACTICE","1"
"","","","","6162341a644c08d5cca4b7bb","bdp_wmem","Sun Mar 12 2023 17:32:56 GMT-0400 (Eastern Daylight Time)","583980","Match,No Match","html-keyboard-response","9","83456","0.0-5.0-5.0","","null","","<div class='trialBorder'><div class='vertical-center'><img src='img/correct.jpg'></div><div class='respDiv'><div class='respDivL'>Match<br>(e)</div><div class='respDivR'><font style='color:orange'>No Match<br>(i)</font></div></div></div>","null","FEEDBACK","","","","","","","","","","",""
"","","","","6162341a644c08d5cca4b7bb","bdp_wmem","Sun Mar 12 2023 17:32:56 GMT-0400 (Eastern Daylight Time)","583980","Match,No Match","html-keyboard-response","10","83958","0.0-5.0-1.1","","null","","<div class='trialBorder'><div class='vertical-center'><img src='img/fixation2_sml.jpg'</img></div></div>","null","FIX","","","","","","","","","","",""
"","","","","6162341a644c08d5cca4b7bb","bdp_wmem","Sun Mar 12 2023 17:32:56 GMT-0400 (Eastern Daylight Time)","583980","Match,No Match","html-keyboard-response","11","85461","0.0-5.0-2.1","","null","","<div class='trialBorder'><div class='vertical-center'><img style='vertical-align:center; align:center' src='img/fixation2_sml.jpg'></div><div class='arrayDiv1'><div class='tc'><img class='introPic' src='trustrating_stim/white_mw013.bmp'><br><font color='red'><strong>Keep</strong></font></div></div></div>","null","ARRAY","1","trustrating_stim/white_mw013.bmp","0","Match","e","1500","","","","",""
"","","","","6162341a644c08d5cca4b7bb","bdp_wmem","Sun Mar 12 2023 17:32:56 GMT-0400 (Eastern Daylight Time)","583980","Match,No Match","html-keyboard-response","12","89462","0.0-5.0-3.1","","null","","<div class='trialBorder'><div class='vertical-center'><img src='img/fixation2_sml.jpg'</img></div></div>","null","DELAY","","","","","","","","","","",""
"","","","","6162341a644c08d5cca4b7bb","bdp_wmem","Sun Mar 12 2023 17:32:56 GMT-0400 (Eastern Daylight Time)","583980","Match,No Match","html-keyboard-response","13","91080","0.0-5.0-4.1","","1615","","<div class='trialBorder'><div class='targDiv'><div class='tc'><img class='introPic' src='trustrating_stim/white_mw013.bmp'><br><font color='red'><strong>Keep</strong></font></div></div><div class='respDiv'><div class='respDivL'>Match<br>(e)</div><div class='respDivR'>No Match<br>(i)</div></div></div>","e","TARGET","1","trustrating_stim/white_mw013.bmp","0","Match","e","1500","trustrating_stim/white_mw013.bmp","red","Keep","PRACTICE","1"
"","","","","6162341a644c08d5cca4b7bb","bdp_wmem","Sun Mar 12 2023 17:32:56 GMT-0400 (Eastern Daylight Time)","583980","Match,No Match","html-keyboard-response","14","91585","0.0-5.0-5.1","","null","","<div class='trialBorder'><div class='vertical-center'><img src='img/correct.jpg'></div><div class='respDiv'><div class='respDivL'><font style='color:orange'>Match<br>(e)</font></div><div class='respDivR'>No Match<br>(i)</div></div></div>","null","FEEDBACK","","","","","","","","","","",""
"","","","","6162341a644c08d5cca4b7bb","bdp_wmem","Sun Mar 12 2023 17:32:56 GMT-0400 (Eastern Daylight Time)","583980","Match,No Match","html-keyboard-response","15","92089","0.0-5.0-1.2","","null","","<div class='trialBorder'><div class='vertical-center'><img src='img/fixation2_sml.jpg'</img></div></div>","null","FIX","","","","","","","","","","",""
"","","","","6162341a644c08d5cca4b7bb","bdp_wmem","Sun Mar 12 2023 17:32:56 GMT-0400 (Eastern Daylight Time)","583980","Match,No Match","html-keyboard-response","16","96595","0.0-5.0-2.2","","null","","<div class='trialBorder'><div class='vertical-center'><img style='vertical-align:center; align:center' src='img/fixation2_sml.jpg'></div><div class='arrayDiv3'><div class='tl'><img class='introPic' src='trustrating_stim/white_mw042.bmp'><br><font color='green'><strong>Share</strong></font></div><div class='tc'><img class='introPic' src='trustrating_stim/white_mw091.bmp'><br><font color='red'><strong>Keep</strong></font></div><div class='tr'><img class='introPic' src='trustrating_stim/white_mw013.bmp'><br><font color='green'><strong>Share</strong></font></div></div></div>","null","ARRAY","3","trustrating_stim/white_mw042.bmp,trustrating_stim/white_mw091.bmp,trustrating_stim/white_mw013.bmp","1,0,1","noMatchOutcome","i","4500","","","","",""
"","","","","6162341a644c08d5cca4b7bb","bdp_wmem","Sun Mar 12 2023 17:32:56 GMT-0400 (Eastern Daylight Time)","583980","Match,No Match","html-keyboard-response","17","100600","0.0-5.0-3.2","","null","","<div class='trialBorder'><div class='vertical-center'><img src='img/fixation2_sml.jpg'</img></div></div>","null","DELAY","","","","","","","","","","",""
"","","","","6162341a644c08d5cca4b7bb","bdp_wmem","Sun Mar 12 2023 17:32:56 GMT-0400 (Eastern Daylight Time)","583980","Match,No Match","html-keyboard-response","18","103452","0.0-5.0-4.2","","2847","","<div class='trialBorder'><div class='targDiv'><div class='tc'><img class='introPic' src='trustrating_stim/white_mw013.bmp'><br><font color='red'><strong>Keep</strong></font></div></div><div class='respDiv'><div class='respDivL'>Match<br>(e)</div><div class='respDivR'>No Match<br>(i)</div></div></div>","i","TARGET","3","trustrating_stim/white_mw042.bmp,trustrating_stim/white_mw091.bmp,trustrating_stim/white_mw013.bmp","1,0,1","noMatchOutcome","i","4500","trustrating_stim/white_mw013.bmp","red","Keep","PRACTICE","1"
"","","","","6162341a644c08d5cca4b7bb","bdp_wmem","Sun Mar 12 2023 17:32:56 GMT-0400 (Eastern Daylight Time)","583980","Match,No Match","html-keyboard-response","19","103955","0.0-5.0-5.2","","null","","<div class='trialBorder'><div class='vertical-center'><img src='img/correct.jpg'></div><div class='respDiv'><div class='respDivL'>Match<br>(e)</div><div class='respDivR'><font style='color:orange'>No Match<br>(i)</font></div></div></div>","null","FEEDBACK","","","","","","","","","","",""
"","","","","6162341a644c08d5cca4b7bb","bdp_wmem","Sun Mar 12 2023 17:32:56 GMT-0400 (Eastern Daylight Time)","583980","Match,No Match","html-keyboard-response","20","104457","0.0-5.0-1.3","","null","","<div class='trialBorder'><div class='vertical-center'><img src='img/fixation2_sml.jpg'</img></div></div>","null","FIX","","","","","","","","","","",""
"","","","","6162341a644c08d5cca4b7bb","bdp_wmem","Sun Mar 12 2023 17:32:56 GMT-0400 (Eastern Daylight Time)","583980","Match,No Match","html-keyboard-response","21","108959","0.0-5.0-2.3","","null","","<div class='trialBorder'><div class='vertical-center'><img style='vertical-align:center; align:center' src='img/fixation2_sml.jpg'></div><div class='arrayDiv3'><div class='tl'><img class='introPic' src='trustrating_stim/white_mw012.bmp'><br><font color='red'><strong>Keep</strong></font></div><div class='tc'><img class='introPic' src='trustrating_stim/white_mw070.bmp'><br><font color='green'><strong>Share</strong></font></div><div class='tr'><img class='introPic' src='trustrating_stim/white_mw010.bmp'><br><font color='red'><strong>Keep</strong></font></div></div></div>","null","ARRAY","3","trustrating_stim/white_mw012.bmp,trustrating_stim/white_mw070.bmp,trustrating_stim/white_mw010.bmp","0,1,0","Match","e","4500","","","","",""
"","","","","6162341a644c08d5cca4b7bb","bdp_wmem","Sun Mar 12 2023 17:32:56 GMT-0400 (Eastern Daylight Time)","583980","Match,No Match","html-keyboard-response","22","112962","0.0-5.0-3.3","","null","","<div class='trialBorder'><div class='vertical-center'><img src='img/fixation2_sml.jpg'</img></div></div>","null","DELAY","","","","","","","","","","",""
"","","","","6162341a644c08d5cca4b7bb","bdp_wmem","Sun Mar 12 2023 17:32:56 GMT-0400 (Eastern Daylight Time)","583980","Match,No Match","html-keyboard-response","23","114733","0.0-5.0-4.3","","1769","","<div class='trialBorder'><div class='targDiv'><div class='tc'><img class='introPic' src='trustrating_stim/white_mw010.bmp'><br><font color='red'><strong>Keep</strong></font></div></div><div class='respDiv'><div class='respDivL'>Match<br>(e)</div><div class='respDivR'>No Match<br>(i)</div></div></div>","e","TARGET","3","trustrating_stim/white_mw012.bmp,trustrating_stim/white_mw070.bmp,trustrating_stim/white_mw010.bmp","0,1,0","Match","e","4500","trustrating_stim/white_mw010.bmp","red","Keep","PRACTICE","1"
"","","","","6162341a644c08d5cca4b7bb","bdp_wmem","Sun Mar 12 2023 17:32:56 GMT-0400 (Eastern Daylight Time)","583980","Match,No Match","html-keyboard-response","24","115235","0.0-5.0-5.3","","null","","<div class='trialBorder'><div class='vertical-center'><img src='img/correct.jpg'></div><div class='respDiv'><div class='respDivL'><font style='color:orange'>Match<br>(e)</font></div><div class='respDivR'>No Match<br>(i)</div></div></div>","null","FEEDBACK","","","","","","","","","","",""
"","","","","6162341a644c08d5cca4b7bb","bdp_wmem","Sun Mar 12 2023 17:32:56 GMT-0400 (Eastern Daylight Time)","583980","Match,No Match","html-keyboard-response","25","115737","0.0-5.0-1.4","","null","","<div class='trialBorder'><div class='vertical-center'><img src='img/fixation2_sml.jpg'</img></div></div>","null","FIX","","","","","","","","","","",""
"","","","","6162341a644c08d5cca4b7bb","bdp_wmem","Sun Mar 12 2023 17:32:56 GMT-0400 (Eastern Daylight Time)","583980","Match,No Match","html-keyboard-response","26","118741","0.0-5.0-2.4","","null","","<div class='trialBorder'><div class='vertical-center'><img style='vertical-align:center; align:center' src='img/fixation2_sml.jpg'></div><div class='arrayDiv2'><div class='tl'><img class='introPic' src='trustrating_stim/white_mw070.bmp'><br><font color='green'><strong>Share</strong></font></div><div class='tr'><img class='introPic' src='trustrating_stim/white_mw010.bmp'><br><font color='red'><strong>Keep</strong></font></div></div></div>","null","ARRAY","2","trustrating_stim/white_mw070.bmp,trustrating_stim/white_mw010.bmp","1,0","noMatchOutcome","i","3000","","","","",""
"","","","","6162341a644c08d5cca4b7bb","bdp_wmem","Sun Mar 12 2023 17:32:56 GMT-0400 (Eastern Daylight Time)","583980","Match,No Match","html-keyboard-response","27","122742","0.0-5.0-3.4","","null","","<div class='trialBorder'><div class='vertical-center'><img src='img/fixation2_sml.jpg'</img></div></div>","null","DELAY","","","","","","","","","","",""
"","","","","6162341a644c08d5cca4b7bb","bdp_wmem","Sun Mar 12 2023 17:32:56 GMT-0400 (Eastern Daylight Time)","583980","Match,No Match","html-keyboard-response","28","124106","0.0-5.0-4.4","","1361","","<div class='trialBorder'><div class='targDiv'><div class='tc'><img class='introPic' src='trustrating_stim/white_mw070.bmp'><br><font color='red'><strong>Keep</strong></font></div></div><div class='respDiv'><div class='respDivL'>Match<br>(e)</div><div class='respDivR'>No Match<br>(i)</div></div></div>","i","TARGET","2","trustrating_stim/white_mw070.bmp,trustrating_stim/white_mw010.bmp","1,0","noMatchOutcome","i","3000","trustrating_stim/white_mw070.bmp","red","Keep","PRACTICE","1"
"","","","","6162341a644c08d5cca4b7bb","bdp_wmem","Sun Mar 12 2023 17:32:56 GMT-0400 (Eastern Daylight Time)","583980","Match,No Match","html-keyboard-response","29","124608","0.0-5.0-5.4","","null","","<div class='trialBorder'><div class='vertical-center'><img src='img/correct.jpg'></div><div class='respDiv'><div class='respDivL'>Match<br>(e)</div><div class='respDivR'><font style='color:orange'>No Match<br>(i)</font></div></div></div>","null","FEEDBACK","","","","","","","","","","",""
"","","","","6162341a644c08d5cca4b7bb","bdp_wmem","Sun Mar 12 2023 17:32:56 GMT-0400 (Eastern Daylight Time)","583980","Match,No Match","html-keyboard-response","30","125110","0.0-5.0-1.5","","null","","<div class='trialBorder'><div class='vertical-center'><img src='img/fixation2_sml.jpg'</img></div></div>","null","FIX","","","","","","","","","","",""
"","","","","6162341a644c08d5cca4b7bb","bdp_wmem","Sun Mar 12 2023 17:32:56 GMT-0400 (Eastern Daylight Time)","583980","Match,No Match","html-keyboard-response","31","128112","0.0-5.0-2.5","","null","","<div class='trialBorder'><div class='vertical-center'><img style='vertical-align:center; align:center' src='img/fixation2_sml.jpg'></div><div class='arrayDiv2'><div class='tl'><img class='introPic' src='trustrating_stim/white_mw078.bmp'><br><font color='green'><strong>Share</strong></font></div><div class='tr'><img class='introPic' src='trustrating_stim/white_mw038.bmp'><br><font color='red'><strong>Keep</strong></font></div></div></div>","null","ARRAY","2","trustrating_stim/white_mw078.bmp,trustrating_stim/white_mw038.bmp","1,0","Match","e","3000","","","","",""
"","","","","6162341a644c08d5cca4b7bb","bdp_wmem","Sun Mar 12 2023 17:32:56 GMT-0400 (Eastern Daylight Time)","583980","Match,No Match","html-keyboard-response","32","132113","0.0-5.0-3.5","","null","","<div class='trialBorder'><div class='vertical-center'><img src='img/fixation2_sml.jpg'</img></div></div>","null","DELAY","","","","","","","","","","",""
"","","","","6162341a644c08d5cca4b7bb","bdp_wmem","Sun Mar 12 2023 17:32:56 GMT-0400 (Eastern Daylight Time)","583980","Match,No Match","html-keyboard-response","33","133402","0.0-5.0-4.5","","1287","","<div class='trialBorder'><div class='targDiv'><div class='tc'><img class='introPic' src='trustrating_stim/white_mw078.bmp'><br><font color='green'><strong>Share</strong></font></div></div><div class='respDiv'><div class='respDivL'>Match<br>(e)</div><div class='respDivR'>No Match<br>(i)</div></div></div>","e","TARGET","2","trustrating_stim/white_mw078.bmp,trustrating_stim/white_mw038.bmp","1,0","Match","e","3000","trustrating_stim/white_mw078.bmp","green","Share","PRACTICE","1"
"","","","","6162341a644c08d5cca4b7bb","bdp_wmem","Sun Mar 12 2023 17:32:56 GMT-0400 (Eastern Daylight Time)","583980","Match,No Match","html-keyboard-response","34","133903","0.0-5.0-5.5","","null","","<div class='trialBorder'><div class='vertical-center'><img src='img/correct.jpg'></div><div class='respDiv'><div class='respDivL'><font style='color:orange'>Match<br>(e)</font></div><div class='respDivR'>No Match<br>(i)</div></div></div>","null","FEEDBACK","","","","","","","","","","",""
"","","","","6162341a644c08d5cca4b7bb","bdp_wmem","Sun Mar 12 2023 17:32:56 GMT-0400 (Eastern Daylight Time)","583980","Match,No Match","instructions","35","136134","0.0-6.0","[{""page_index"":0,""viewing_time"":2230}]","2230","","","","","","","","","","","","","","",""
"","","","","6162341a644c08d5cca4b7bb","bdp_wmem","Sun Mar 12 2023 17:32:56 GMT-0400 (Eastern Daylight Time)","583980","Match,No Match","html-keyboard-response","36","136637","0.0-7.0-1.0","","null","","<div class='trialBorder'><div class='vertical-center'><img src='img/fixation2_sml.jpg'</img></div></div>","null","FIX","","","","","","","","","","",""
"","","","","6162341a644c08d5cca4b7bb","bdp_wmem","Sun Mar 12 2023 17:32:56 GMT-0400 (Eastern Daylight Time)","583980","Match,No Match","html-keyboard-response","37","141139","0.0-7.0-2.0","","null","","<div class='trialBorder'><div class='vertical-center'><img style='vertical-align:center; align:center' src='img/fixation2_sml.jpg'></div><div class='arrayDiv3'><div class='tl'><img class='introPic' src='trustrating_stim/white_mw038.bmp'><br><font color='green'><strong>Share</strong></font></div><div class='tc'><img class='introPic' src='trustrating_stim/white_mw092.bmp'><br><font color='red'><strong>Keep</strong></font></div><div class='tr'><img class='introPic' src='trustrating_stim/white_mw091.bmp'><br><font color='red'><strong>Keep</strong></font></div></div></div>","null","ARRAY","3","trustrating_stim/white_mw038.bmp,trustrating_stim/white_mw092.bmp,trustrating_stim/white_mw091.bmp","1,0,0","noMatchFace","i","4500","","","","",""
"","","","","6162341a644c08d5cca4b7bb","bdp_wmem","Sun Mar 12 2023 17:32:56 GMT-0400 (Eastern Daylight Time)","583980","Match,No Match","html-keyboard-response","38","145140","0.0-7.0-3.0","","null","","<div class='trialBorder'><div class='vertical-center'><img src='img/fixation2_sml.jpg'</img></div></div>","null","DELAY","","","","","","","","","","",""
"","","","","6162341a644c08d5cca4b7bb","bdp_wmem","Sun Mar 12 2023 17:32:56 GMT-0400 (Eastern Daylight Time)","583980","Match,No Match","html-keyboard-response","39","146553","0.0-7.0-4.0","","1412","","<div class='trialBorder'><div class='targDiv'><div class='tc'><img class='introPic' src='trustrating_stim/white_mw040.bmp'><br><font color='red'><strong>Keep</strong></font></div></div><div class='respDiv'><div class='respDivL'>Match<br>(e)</div><div class='respDivR'>No Match<br>(i)</div></div></div>","e","TARGET","3","trustrating_stim/white_mw038.bmp,trustrating_stim/white_mw092.bmp,trustrating_stim/white_mw091.bmp","1,0,0","noMatchFace","i","4500","trustrating_stim/white_mw040.bmp","red","Keep","REAL","0"
"","","","","6162341a644c08d5cca4b7bb","bdp_wmem","Sun Mar 12 2023 17:32:56 GMT-0400 (Eastern Daylight Time)","583980","Match,No Match","html-keyboard-response","40","147056","0.0-7.0-5.0","","null","","<div class='trialBorder'><div class='vertical-center'><img src='img/error.jpg'></div><div class='respDiv'><div class='respDivL'><font style='color:orange'>Match<br>(e)</font></div><div class='respDivR'>No Match<br>(i)</div></div></div>","null","FEEDBACK","","","","","","","","","","",""
"","","","","6162341a644c08d5cca4b7bb","bdp_wmem","Sun Mar 12 2023 17:32:56 GMT-0400 (Eastern Daylight Time)","583980","Match,No Match","html-keyboard-response","41","147557","0.0-7.0-1.1","","null","","<div class='trialBorder'><div class='vertical-center'><img src='img/fixation2_sml.jpg'</img></div></div>","null","FIX","","","","","","","","","","",""
"","","","","6162341a644c08d5cca4b7bb","bdp_wmem","Sun Mar 12 2023 17:32:56 GMT-0400 (Eastern Daylight Time)","583980","Match,No Match","html-keyboard-response","42","150558","0.0-7.0-2.1","","null","","<div class='trialBorder'><div class='vertical-center'><img style='vertical-align:center; align:center' src='img/fixation2_sml.jpg'></div><div class='arrayDiv2'><div class='tl'><img class='introPic' src='trustrating_stim/white_mw091.bmp'><br><font color='green'><strong>Share</strong></font></div><div class='tr'><img class='introPic' src='trustrating_stim/white_mw038.bmp'><br><font color='red'><strong>Keep</strong></font></div></div></div>","null","ARRAY","2","trustrating_stim/white_mw091.bmp,trustrating_stim/white_mw038.bmp","1,0","Match","e","3000","","","","",""
"","","","","6162341a644c08d5cca4b7bb","bdp_wmem","Sun Mar 12 2023 17:32:56 GMT-0400 (Eastern Daylight Time)","583980","Match,No Match","html-keyboard-response","43","154561","0.0-7.0-3.1","","null","","<div class='trialBorder'><div class='vertical-center'><img src='img/fixation2_sml.jpg'</img></div></div>","null","DELAY","","","","","","","","","","",""
"","","","","6162341a644c08d5cca4b7bb","bdp_wmem","Sun Mar 12 2023 17:32:56 GMT-0400 (Eastern Daylight Time)","583980","Match,No Match","html-keyboard-response","44","156057","0.0-7.0-4.1","","1489","","<div class='trialBorder'><div class='targDiv'><div class='tc'><img class='introPic' src='trustrating_stim/white_mw091.bmp'><br><font color='green'><strong>Share</strong></font></div></div><div class='respDiv'><div class='respDivL'>Match<br>(e)</div><div class='respDivR'>No Match<br>(i)</div></div></div>","e","TARGET","2","trustrating_stim/white_mw091.bmp,trustrating_stim/white_mw038.bmp","1,0","Match","e","3000","trustrating_stim/white_mw091.bmp","green","Share","REAL","1"
"","","","","6162341a644c08d5cca4b7bb","bdp_wmem","Sun Mar 12 2023 17:32:56 GMT-0400 (Eastern Daylight Time)","583980","Match,No Match","html-keyboard-response","45","156559","0.0-7.0-5.1","","null","","<div class='trialBorder'><div class='vertical-center'><img src='img/correct.jpg'></div><div class='respDiv'><div class='respDivL'><font style='color:orange'>Match<br>(e)</font></div><div class='respDivR'>No Match<br>(i)</div></div></div>","null","FEEDBACK","","","","","","","","","","",""
"","","","","6162341a644c08d5cca4b7bb","bdp_wmem","Sun Mar 12 2023 17:32:56 GMT-0400 (Eastern Daylight Time)","583980","Match,No Match","html-keyboard-response","46","157063","0.0-7.0-1.2","","null","","<div class='trialBorder'><div class='vertical-center'><img src='img/fixation2_sml.jpg'</img></div></div>","null","FIX","","","","","","","","","","",""
"","","","","6162341a644c08d5cca4b7bb","bdp_wmem","Sun Mar 12 2023 17:32:56 GMT-0400 (Eastern Daylight Time)","583980","Match,No Match","html-keyboard-response","47","161567","0.0-7.0-2.2","","null","","<div class='trialBorder'><div class='vertical-center'><img style='vertical-align:center; align:center' src='img/fixation2_sml.jpg'></div><div class='arrayDiv3'><div class='tl'><img class='introPic' src='trustrating_stim/white_mw003.bmp'><br><font color='green'><strong>Share</strong></font></div><div class='tc'><img class='introPic' src='trustrating_stim/white_mw040.bmp'><br><font color='green'><strong>Share</strong></font></div><div class='tr'><img class='introPic' src='trustrating_stim/white_mw070.bmp'><br><font color='red'><strong>Keep</strong></font></div></div></div>","null","ARRAY","3","trustrating_stim/white_mw003.bmp,trustrating_stim/white_mw040.bmp,trustrating_stim/white_mw070.bmp","1,1,0","Match","e","4500","","","","",""
"","","","","6162341a644c08d5cca4b7bb","bdp_wmem","Sun Mar 12 2023 17:32:56 GMT-0400 (Eastern Daylight Time)","583980","Match,No Match","html-keyboard-response","48","165571","0.0-7.0-3.2","","null","","<div class='trialBorder'><div class='vertical-center'><img src='img/fixation2_sml.jpg'</img></div></div>","null","DELAY","","","","","","","","","","",""
"","","","","6162341a644c08d5cca4b7bb","bdp_wmem","Sun Mar 12 2023 17:32:56 GMT-0400 (Eastern Daylight Time)","583980","Match,No Match","html-keyboard-response","49","166408","0.0-7.0-4.2","","832","","<div class='trialBorder'><div class='targDiv'><div class='tc'><img class='introPic' src='trustrating_stim/white_mw003.bmp'><br><font color='green'><strong>Share</strong></font></div></div><div class='respDiv'><div class='respDivL'>Match<br>(e)</div><div class='respDivR'>No Match<br>(i)</div></div></div>","e","TARGET","3","trustrating_stim/white_mw003.bmp,trustrating_stim/white_mw040.bmp,trustrating_stim/white_mw070.bmp","1,1,0","Match","e","4500","trustrating_stim/white_mw003.bmp","green","Share","REAL","1"
"","","","","6162341a644c08d5cca4b7bb","bdp_wmem","Sun Mar 12 2023 17:32:56 GMT-0400 (Eastern Daylight Time)","583980","Match,No Match","html-keyboard-response","50","166913","0.0-7.0-5.2","","null","","<div class='trialBorder'><div class='vertical-center'><img src='img/correct.jpg'></div><div class='respDiv'><div class='respDivL'><font style='color:orange'>Match<br>(e)</font></div><div class='respDivR'>No Match<br>(i)</div></div></div>","null","FEEDBACK","","","","","","","","","","",""
"","","","","6162341a644c08d5cca4b7bb","bdp_wmem","Sun Mar 12 2023 17:32:56 GMT-0400 (Eastern Daylight Time)","583980","Match,No Match","html-keyboard-response","51","167414","0.0-7.0-1.3","","null","","<div class='trialBorder'><div class='vertical-center'><img src='img/fixation2_sml.jpg'</img></div></div>","null","FIX","","","","","","","","","","",""
"","","","","6162341a644c08d5cca4b7bb","bdp_wmem","Sun Mar 12 2023 17:32:56 GMT-0400 (Eastern Daylight Time)","583980","Match,No Match","html-keyboard-response","52","171916","0.0-7.0-2.3","","null","","<div class='trialBorder'><div class='vertical-center'><img style='vertical-align:center; align:center' src='img/fixation2_sml.jpg'></div><div class='arrayDiv3'><div class='tl'><img class='introPic' src='trustrating_stim/white_mw092.bmp'><br><font color='red'><strong>Keep</strong></font></div><div class='tc'><img class='introPic' src='trustrating_stim/white_mw070.bmp'><br><font color='red'><strong>Keep</strong></font></div><div class='tr'><img class='introPic' src='trustrating_stim/white_mw042.bmp'><br><font color='green'><strong>Share</strong></font></div></div></div>","null","ARRAY","3","trustrating_stim/white_mw092.bmp,trustrating_stim/white_mw070.bmp,trustrating_stim/white_mw042.bmp","0,0,1","noMatchOutcome","i","4500","","","","",""
"","","","","6162341a644c08d5cca4b7bb","bdp_wmem","Sun Mar 12 2023 17:32:56 GMT-0400 (Eastern Daylight Time)","583980","Match,No Match","html-keyboard-response","53","175917","0.0-7.0-3.3","","null","","<div class='trialBorder'><div class='vertical-center'><img src='img/fixation2_sml.jpg'</img></div></div>","null","DELAY","","","","","","","","","","",""
"","","","","6162341a644c08d5cca4b7bb","bdp_wmem","Sun Mar 12 2023 17:32:56 GMT-0400 (Eastern Daylight Time)","583980","Match,No Match","html-keyboard-response","54","177520","0.0-7.0-4.3","","1602","","<div class='trialBorder'><div class='targDiv'><div class='tc'><img class='introPic' src='trustrating_stim/white_mw042.bmp'><br><font color='red'><strong>Keep</strong></font></div></div><div class='respDiv'><div class='respDivL'>Match<br>(e)</div><div class='respDivR'>No Match<br>(i)</div></div></div>","i","TARGET","3","trustrating_stim/white_mw092.bmp,trustrating_stim/white_mw070.bmp,trustrating_stim/white_mw042.bmp","0,0,1","noMatchOutcome","i","4500","trustrating_stim/white_mw042.bmp","red","Keep","REAL","1"
"","","","","6162341a644c08d5cca4b7bb","bdp_wmem","Sun Mar 12 2023 17:32:56 GMT-0400 (Eastern Daylight Time)","583980","Match,No Match","html-keyboard-response","55","178022","0.0-7.0-5.3","","null","","<div class='trialBorder'><div class='vertical-center'><img src='img/correct.jpg'></div><div class='respDiv'><div class='respDivL'>Match<br>(e)</div><div class='respDivR'><font style='color:orange'>No Match<br>(i)</font></div></div></div>","null","FEEDBACK","","","","","","","","","","",""
"","","","","6162341a644c08d5cca4b7bb","bdp_wmem","Sun Mar 12 2023 17:32:56 GMT-0400 (Eastern Daylight Time)","583980","Match,No Match","html-keyboard-response","56","178522","0.0-7.0-1.4","","null","","<div class='trialBorder'><div class='vertical-center'><img src='img/fixation2_sml.jpg'</img></div></div>","null","FIX","","","","","","","","","","",""
"","","","","6162341a644c08d5cca4b7bb","bdp_wmem","Sun Mar 12 2023 17:32:56 GMT-0400 (Eastern Daylight Time)","583980","Match,No Match","html-keyboard-response","57","180025","0.0-7.0-2.4","","null","","<div class='trialBorder'><div class='vertical-center'><img style='vertical-align:center; align:center' src='img/fixation2_sml.jpg'></div><div class='arrayDiv1'><div class='tc'><img class='introPic' src='trustrating_stim/white_mw042.bmp'><br><font color='green'><strong>Share</strong></font></div></div></div>","null","ARRAY","1","trustrating_stim/white_mw042.bmp","1","noMatchFace","i","1500","","","","",""
"","","","","6162341a644c08d5cca4b7bb","bdp_wmem","Sun Mar 12 2023 17:32:56 GMT-0400 (Eastern Daylight Time)","583980","Match,No Match","html-keyboard-response","58","184027","0.0-7.0-3.4","","null","","<div class='trialBorder'><div class='vertical-center'><img src='img/fixation2_sml.jpg'</img></div></div>","null","DELAY","","","","","","","","","","",""
"","","","","6162341a644c08d5cca4b7bb","bdp_wmem","Sun Mar 12 2023 17:32:56 GMT-0400 (Eastern Daylight Time)","583980","Match,No Match","html-keyboard-response","59","185356","0.0-7.0-4.4","","1327","","<div class='trialBorder'><div class='targDiv'><div class='tc'><img class='introPic' src='trustrating_stim/white_mw003.bmp'><br><font color='green'><strong>Share</strong></font></div></div><div class='respDiv'><div class='respDivL'>Match<br>(e)</div><div class='respDivR'>No Match<br>(i)</div></div></div>","i","TARGET","1","trustrating_stim/white_mw042.bmp","1","noMatchFace","i","1500","trustrating_stim/white_mw003.bmp","green","Share","REAL","1"
"","","","","6162341a644c08d5cca4b7bb","bdp_wmem","Sun Mar 12 2023 17:32:56 GMT-0400 (Eastern Daylight Time)","583980","Match,No Match","html-keyboard-response","60","185858","0.0-7.0-5.4","","null","","<div class='trialBorder'><div class='vertical-center'><img src='img/correct.jpg'></div><div class='respDiv'><div class='respDivL'>Match<br>(e)</div><div class='respDivR'><font style='color:orange'>No Match<br>(i)</font></div></div></div>","null","FEEDBACK","","","","","","","","","","",""
"","","","","6162341a644c08d5cca4b7bb","bdp_wmem","Sun Mar 12 2023 17:32:56 GMT-0400 (Eastern Daylight Time)","583980","Match,No Match","html-keyboard-response","61","186361","0.0-7.0-1.5","","null","","<div class='trialBorder'><div class='vertical-center'><img src='img/fixation2_sml.jpg'</img></div></div>","null","FIX","","","","","","","","","","",""
"","","","","6162341a644c08d5cca4b7bb","bdp_wmem","Sun Mar 12 2023 17:32:56 GMT-0400 (Eastern Daylight Time)","583980","Match,No Match","html-keyboard-response","62","189363","0.0-7.0-2.5","","null","","<div class='trialBorder'><div class='vertical-center'><img style='vertical-align:center; align:center' src='img/fixation2_sml.jpg'></div><div class='arrayDiv2'><div class='tl'><img class='introPic' src='trustrating_stim/white_mw013.bmp'><br><font color='red'><strong>Keep</strong></font></div><div class='tr'><img class='introPic' src='trustrating_stim/white_mw012.bmp'><br><font color='green'><strong>Share</strong></font></div></div></div>","null","ARRAY","2","trustrating_stim/white_mw013.bmp,trustrating_stim/white_mw012.bmp","0,1","Match","e","3000","","","","",""
"","","","","6162341a644c08d5cca4b7bb","bdp_wmem","Sun Mar 12 2023 17:32:56 GMT-0400 (Eastern Daylight Time)","583980","Match,No Match","html-keyboard-response","63","193364","0.0-7.0-3.5","","null","","<div class='trialBorder'><div class='vertical-center'><img src='img/fixation2_sml.jpg'</img></div></div>","null","DELAY","","","","","","","","","","",""
"","","","","6162341a644c08d5cca4b7bb","bdp_wmem","Sun Mar 12 2023 17:32:56 GMT-0400 (Eastern Daylight Time)","583980","Match,No Match","html-keyboard-response","64","194856","0.0-7.0-4.5","","1492","","<div class='trialBorder'><div class='targDiv'><div class='tc'><img class='introPic' src='trustrating_stim/white_mw012.bmp'><br><font color='green'><strong>Share</strong></font></div></div><div class='respDiv'><div class='respDivL'>Match<br>(e)</div><div class='respDivR'>No Match<br>(i)</div></div></div>","e","TARGET","2","trustrating_stim/white_mw013.bmp,trustrating_stim/white_mw012.bmp","0,1","Match","e","3000","trustrating_stim/white_mw012.bmp","green","Share","REAL","1"
"","","","","6162341a644c08d5cca4b7bb","bdp_wmem","Sun Mar 12 2023 17:32:56 GMT-0400 (Eastern Daylight Time)","583980","Match,No Match","html-keyboard-response","65","195358","0.0-7.0-5.5","","null","","<div class='trialBorder'><div class='vertical-center'><img src='img/correct.jpg'></div><div class='respDiv'><div class='respDivL'><font style='color:orange'>Match<br>(e)</font></div><div class='respDivR'>No Match<br>(i)</div></div></div>","null","FEEDBACK","","","","","","","","","","",""
"","","","","6162341a644c08d5cca4b7bb","bdp_wmem","Sun Mar 12 2023 17:32:56 GMT-0400 (Eastern Daylight Time)","583980","Match,No Match","html-keyboard-response","66","195860","0.0-7.0-1.6","","null","","<div class='trialBorder'><div class='vertical-center'><img src='img/fixation2_sml.jpg'</img></div></div>","null","FIX","","","","","","","","","","",""
"","","","","6162341a644c08d5cca4b7bb","bdp_wmem","Sun Mar 12 2023 17:32:56 GMT-0400 (Eastern Daylight Time)","583980","Match,No Match","html-keyboard-response","67","197361","0.0-7.0-2.6","","null","","<div class='trialBorder'><div class='vertical-center'><img style='vertical-align:center; align:center' src='img/fixation2_sml.jpg'></div><div class='arrayDiv1'><div class='tc'><img class='introPic' src='trustrating_stim/white_mw078.bmp'><br><font color='red'><strong>Keep</strong></font></div></div></div>","null","ARRAY","1","trustrating_stim/white_mw078.bmp","0","noMatchFace","i","1500","","","","",""
"","","","","6162341a644c08d5cca4b7bb","bdp_wmem","Sun Mar 12 2023 17:32:56 GMT-0400 (Eastern Daylight Time)","583980","Match,No Match","html-keyboard-response","68","201362","0.0-7.0-3.6","","null","","<div class='trialBorder'><div class='vertical-center'><img src='img/fixation2_sml.jpg'</img></div></div>","null","DELAY","","","","","","","","","","",""
"","","","","6162341a644c08d5cca4b7bb","bdp_wmem","Sun Mar 12 2023 17:32:56 GMT-0400 (Eastern Daylight Time)","583980","Match,No Match","html-keyboard-response","69","202832","0.0-7.0-4.6","","1469","","<div class='trialBorder'><div class='targDiv'><div class='tc'><img class='introPic' src='trustrating_stim/white_mw003.bmp'><br><font color='red'><strong>Keep</strong></font></div></div><div class='respDiv'><div class='respDivL'>Match<br>(e)</div><div class='respDivR'>No Match<br>(i)</div></div></div>","i","TARGET","1","trustrating_stim/white_mw078.bmp","0","noMatchFace","i","1500","trustrating_stim/white_mw003.bmp","red","Keep","REAL","1"
"","","","","6162341a644c08d5cca4b7bb","bdp_wmem","Sun Mar 12 2023 17:32:56 GMT-0400 (Eastern Daylight Time)","583980","Match,No Match","html-keyboard-response","70","203333","0.0-7.0-5.6","","null","","<div class='trialBorder'><div class='vertical-center'><img src='img/correct.jpg'></div><div class='respDiv'><div class='respDivL'>Match<br>(e)</div><div class='respDivR'><font style='color:orange'>No Match<br>(i)</font></div></div></div>","null","FEEDBACK","","","","","","","","","","",""
"","","","","6162341a644c08d5cca4b7bb","bdp_wmem","Sun Mar 12 2023 17:32:56 GMT-0400 (Eastern Daylight Time)","583980","Match,No Match","html-keyboard-response","71","203834","0.0-7.0-1.7","","null","","<div class='trialBorder'><div class='vertical-center'><img src='img/fixation2_sml.jpg'</img></div></div>","null","FIX","","","","","","","","","","",""
"","","","","6162341a644c08d5cca4b7bb","bdp_wmem","Sun Mar 12 2023 17:32:56 GMT-0400 (Eastern Daylight Time)","583980","Match,No Match","html-keyboard-response","72","206835","0.0-7.0-2.7","","null","","<div class='trialBorder'><div class='vertical-center'><img style='vertical-align:center; align:center' src='img/fixation2_sml.jpg'></div><div class='arrayDiv2'><div class='tl'><img class='introPic' src='trustrating_stim/white_mw070.bmp'><br><font color='red'><strong>Keep</strong></font></div><div class='tr'><img class='introPic' src='trustrating_stim/white_mw042.bmp'><br><font color='green'><strong>Share</strong></font></div></div></div>","null","ARRAY","2","trustrating_stim/white_mw070.bmp,trustrating_stim/white_mw042.bmp","0,1","Match","e","3000","","","","",""
"","","","","6162341a644c08d5cca4b7bb","bdp_wmem","Sun Mar 12 2023 17:32:56 GMT-0400 (Eastern Daylight Time)","583980","Match,No Match","html-keyboard-response","73","210837","0.0-7.0-3.7","","null","","<div class='trialBorder'><div class='vertical-center'><img src='img/fixation2_sml.jpg'</img></div></div>","null","DELAY","","","","","","","","","","",""
"","","","","6162341a644c08d5cca4b7bb","bdp_wmem","Sun Mar 12 2023 17:32:56 GMT-0400 (Eastern Daylight Time)","583980","Match,No Match","html-keyboard-response","74","211812","0.0-7.0-4.7","","974","","<div class='trialBorder'><div class='targDiv'><div class='tc'><img class='introPic' src='trustrating_stim/white_mw070.bmp'><br><font color='red'><strong>Keep</strong></font></div></div><div class='respDiv'><div class='respDivL'>Match<br>(e)</div><div class='respDivR'>No Match<br>(i)</div></div></div>","i","TARGET","2","trustrating_stim/white_mw070.bmp,trustrating_stim/white_mw042.bmp","0,1","Match","e","3000","trustrating_stim/white_mw070.bmp","red","Keep","REAL","0"
"","","","","6162341a644c08d5cca4b7bb","bdp_wmem","Sun Mar 12 2023 17:32:56 GMT-0400 (Eastern Daylight Time)","583980","Match,No Match","html-keyboard-response","75","212313","0.0-7.0-5.7","","null","","<div class='trialBorder'><div class='vertical-center'><img src='img/error.jpg'></div><div class='respDiv'><div class='respDivL'>Match<br>(e)</div><div class='respDivR'><font style='color:orange'>No Match<br>(i)</font></div></div></div>","null","FEEDBACK","","","","","","","","","","",""
"","","","","6162341a644c08d5cca4b7bb","bdp_wmem","Sun Mar 12 2023 17:32:56 GMT-0400 (Eastern Daylight Time)","583980","Match,No Match","html-keyboard-response","76","212814","0.0-7.0-1.8","","null","","<div class='trialBorder'><div class='vertical-center'><img src='img/fixation2_sml.jpg'</img></div></div>","null","FIX","","","","","","","","","","",""
"","","","","6162341a644c08d5cca4b7bb","bdp_wmem","Sun Mar 12 2023 17:32:56 GMT-0400 (Eastern Daylight Time)","583980","Match,No Match","html-keyboard-response","77","217317","0.0-7.0-2.8","","null","","<div class='trialBorder'><div class='vertical-center'><img style='vertical-align:center; align:center' src='img/fixation2_sml.jpg'></div><div class='arrayDiv3'><div class='tl'><img class='introPic' src='trustrating_stim/white_mw091.bmp'><br><font color='green'><strong>Share</strong></font></div><div class='tc'><img class='introPic' src='trustrating_stim/white_mw013.bmp'><br><font color='red'><strong>Keep</strong></font></div><div class='tr'><img class='introPic' src='trustrating_stim/white_mw078.bmp'><br><font color='red'><strong>Keep</strong></font></div></div></div>","null","ARRAY","3","trustrating_stim/white_mw091.bmp,trustrating_stim/white_mw013.bmp,trustrating_stim/white_mw078.bmp","1,0,0","Match","e","4500","","","","",""
"","","","","6162341a644c08d5cca4b7bb","bdp_wmem","Sun Mar 12 2023 17:32:56 GMT-0400 (Eastern Daylight Time)","583980","Match,No Match","html-keyboard-response","78","221318","0.0-7.0-3.8","","null","","<div class='trialBorder'><div class='vertical-center'><img src='img/fixation2_sml.jpg'</img></div></div>","null","DELAY","","","","","","","","","","",""
"","","","","6162341a644c08d5cca4b7bb","bdp_wmem","Sun Mar 12 2023 17:32:56 GMT-0400 (Eastern Daylight Time)","583980","Match,No Match","html-keyboard-response","79","223008","0.0-7.0-4.8","","1686","","<div class='trialBorder'><div class='targDiv'><div class='tc'><img class='introPic' src='trustrating_stim/white_mw078.bmp'><br><font color='red'><strong>Keep</strong></font></div></div><div class='respDiv'><div class='respDivL'>Match<br>(e)</div><div class='respDivR'>No Match<br>(i)</div></div></div>","e","TARGET","3","trustrating_stim/white_mw091.bmp,trustrating_stim/white_mw013.bmp,trustrating_stim/white_mw078.bmp","1,0,0","Match","e","4500","trustrating_stim/white_mw078.bmp","red","Keep","REAL","1"
"","","","","6162341a644c08d5cca4b7bb","bdp_wmem","Sun Mar 12 2023 17:32:56 GMT-0400 (Eastern Daylight Time)","583980","Match,No Match","html-keyboard-response","80","223514","0.0-7.0-5.8","","null","","<div class='trialBorder'><div class='vertical-center'><img src='img/correct.jpg'></div><div class='respDiv'><div class='respDivL'><font style='color:orange'>Match<br>(e)</font></div><div class='respDivR'>No Match<br>(i)</div></div></div>","null","FEEDBACK","","","","","","","","","","",""
"","","","","6162341a644c08d5cca4b7bb","bdp_wmem","Sun Mar 12 2023 17:32:56 GMT-0400 (Eastern Daylight Time)","583980","Match,No Match","html-keyboard-response","81","224014","0.0-7.0-1.9","","null","","<div class='trialBorder'><div class='vertical-center'><img src='img/fixation2_sml.jpg'</img></div></div>","null","FIX","","","","","","","","","","",""
"","","","","6162341a644c08d5cca4b7bb","bdp_wmem","Sun Mar 12 2023 17:32:56 GMT-0400 (Eastern Daylight Time)","583980","Match,No Match","html-keyboard-response","82","228519","0.0-7.0-2.9","","null","","<div class='trialBorder'><div class='vertical-center'><img style='vertical-align:center; align:center' src='img/fixation2_sml.jpg'></div><div class='arrayDiv3'><div class='tl'><img class='introPic' src='trustrating_stim/white_mw085.bmp'><br><font color='green'><strong>Share</strong></font></div><div class='tc'><img class='introPic' src='trustrating_stim/white_mw003.bmp'><br><font color='red'><strong>Keep</strong></font></div><div class='tr'><img class='introPic' src='trustrating_stim/white_mw040.bmp'><br><font color='green'><strong>Share</strong></font></div></div></div>","null","ARRAY","3","trustrating_stim/white_mw085.bmp,trustrating_stim/white_mw003.bmp,trustrating_stim/white_mw040.bmp","1,0,1","Match","e","4500","","","","",""
"","","","","6162341a644c08d5cca4b7bb","bdp_wmem","Sun Mar 12 2023 17:32:56 GMT-0400 (Eastern Daylight Time)","583980","Match,No Match","html-keyboard-response","83","232520","0.0-7.0-3.9","","null","","<div class='trialBorder'><div class='vertical-center'><img src='img/fixation2_sml.jpg'</img></div></div>","null","DELAY","","","","","","","","","","",""
"","","","","6162341a644c08d5cca4b7bb","bdp_wmem","Sun Mar 12 2023 17:32:56 GMT-0400 (Eastern Daylight Time)","583980","Match,No Match","html-keyboard-response","84","233594","0.0-7.0-4.9","","1072","","<div class='trialBorder'><div class='targDiv'><div class='tc'><img class='introPic' src='trustrating_stim/white_mw085.bmp'><br><font color='green'><strong>Share</strong></font></div></div><div class='respDiv'><div class='respDivL'>Match<br>(e)</div><div class='respDivR'>No Match<br>(i)</div></div></div>","i","TARGET","3","trustrating_stim/white_mw085.bmp,trustrating_stim/white_mw003.bmp,trustrating_stim/white_mw040.bmp","1,0,1","Match","e","4500","trustrating_stim/white_mw085.bmp","green","Share","REAL","0"
"","","","","6162341a644c08d5cca4b7bb","bdp_wmem","Sun Mar 12 2023 17:32:56 GMT-0400 (Eastern Daylight Time)","583980","Match,No Match","html-keyboard-response","85","234097","0.0-7.0-5.9","","null","","<div class='trialBorder'><div class='vertical-center'><img src='img/error.jpg'></div><div class='respDiv'><div class='respDivL'>Match<br>(e)</div><div class='respDivR'><font style='color:orange'>No Match<br>(i)</font></div></div></div>","null","FEEDBACK","","","","","","","","","","",""
"","","","","6162341a644c08d5cca4b7bb","bdp_wmem","Sun Mar 12 2023 17:32:56 GMT-0400 (Eastern Daylight Time)","583980","Match,No Match","html-keyboard-response","86","234599","0.0-7.0-1.10","","null","","<div class='trialBorder'><div class='vertical-center'><img src='img/fixation2_sml.jpg'</img></div></div>","null","FIX","","","","","","","","","","",""
"","","","","6162341a644c08d5cca4b7bb","bdp_wmem","Sun Mar 12 2023 17:32:56 GMT-0400 (Eastern Daylight Time)","583980","Match,No Match","html-keyboard-response","87","239100","0.0-7.0-2.10","","null","","<div class='trialBorder'><div class='vertical-center'><img style='vertical-align:center; align:center' src='img/fixation2_sml.jpg'></div><div class='arrayDiv3'><div class='tl'><img class='introPic' src='trustrating_stim/white_mw038.bmp'><br><font color='red'><strong>Keep</strong></font></div><div class='tc'><img class='introPic' src='trustrating_stim/white_mw042.bmp'><br><font color='green'><strong>Share</strong></font></div><div class='tr'><img class='introPic' src='trustrating_stim/white_mw070.bmp'><br><font color='green'><strong>Share</strong></font></div></div></div>","null","ARRAY","3","trustrating_stim/white_mw038.bmp,trustrating_stim/white_mw042.bmp,trustrating_stim/white_mw070.bmp","0,1,1","Match","e","4500","","","","",""
"","","","","6162341a644c08d5cca4b7bb","bdp_wmem","Sun Mar 12 2023 17:32:56 GMT-0400 (Eastern Daylight Time)","583980","Match,No Match","html-keyboard-response","88","243102","0.0-7.0-3.10","","null","","<div class='trialBorder'><div class='vertical-center'><img src='img/fixation2_sml.jpg'</img></div></div>","null","DELAY","","","","","","","","","","",""
"","","","","6162341a644c08d5cca4b7bb","bdp_wmem","Sun Mar 12 2023 17:32:56 GMT-0400 (Eastern Daylight Time)","583980","Match,No Match","html-keyboard-response","89","244106","0.0-7.0-4.10","","1003","","<div class='trialBorder'><div class='targDiv'><div class='tc'><img class='introPic' src='trustrating_stim/white_mw070.bmp'><br><font color='green'><strong>Share</strong></font></div></div><div class='respDiv'><div class='respDivL'>Match<br>(e)</div><div class='respDivR'>No Match<br>(i)</div></div></div>","i","TARGET","3","trustrating_stim/white_mw038.bmp,trustrating_stim/white_mw042.bmp,trustrating_stim/white_mw070.bmp","0,1,1","Match","e","4500","trustrating_stim/white_mw070.bmp","green","Share","REAL","0"
"","","","","6162341a644c08d5cca4b7bb","bdp_wmem","Sun Mar 12 2023 17:32:56 GMT-0400 (Eastern Daylight Time)","583980","Match,No Match","html-keyboard-response","90","244608","0.0-7.0-5.10","","null","","<div class='trialBorder'><div class='vertical-center'><img src='img/error.jpg'></div><div class='respDiv'><div class='respDivL'>Match<br>(e)</div><div class='respDivR'><font style='color:orange'>No Match<br>(i)</font></div></div></div>","null","FEEDBACK","","","","","","","","","","",""
"","","","","6162341a644c08d5cca4b7bb","bdp_wmem","Sun Mar 12 2023 17:32:56 GMT-0400 (Eastern Daylight Time)","583980","Match,No Match","html-keyboard-response","91","245109","0.0-7.0-1.11","","null","","<div class='trialBorder'><div class='vertical-center'><img src='img/fixation2_sml.jpg'</img></div></div>","null","FIX","","","","","","","","","","",""
"","","","","6162341a644c08d5cca4b7bb","bdp_wmem","Sun Mar 12 2023 17:32:56 GMT-0400 (Eastern Daylight Time)","583980","Match,No Match","html-keyboard-response","92","246610","0.0-7.0-2.11","","null","","<div class='trialBorder'><div class='vertical-center'><img style='vertical-align:center; align:center' src='img/fixation2_sml.jpg'></div><div class='arrayDiv1'><div class='tc'><img class='introPic' src='trustrating_stim/white_mw038.bmp'><br><font color='red'><strong>Keep</strong></font></div></div></div>","null","ARRAY","1","trustrating_stim/white_mw038.bmp","0","noMatchOutcome","i","1500","","","","",""
"","","","","6162341a644c08d5cca4b7bb","bdp_wmem","Sun Mar 12 2023 17:32:56 GMT-0400 (Eastern Daylight Time)","583980","Match,No Match","html-keyboard-response","93","250612","0.0-7.0-3.11","","null","","<div class='trialBorder'><div class='vertical-center'><img src='img/fixation2_sml.jpg'</img></div></div>","null","DELAY","","","","","","","","","","",""
"","","","","6162341a644c08d5cca4b7bb","bdp_wmem","Sun Mar 12 2023 17:32:56 GMT-0400 (Eastern Daylight Time)","583980","Match,No Match","html-keyboard-response","94","252146","0.0-7.0-4.11","","1532","","<div class='trialBorder'><div class='targDiv'><div class='tc'><img class='introPic' src='trustrating_stim/white_mw038.bmp'><br><font color='green'><strong>Share</strong></font></div></div><div class='respDiv'><div class='respDivL'>Match<br>(e)</div><div class='respDivR'>No Match<br>(i)</div></div></div>","i","TARGET","1","trustrating_stim/white_mw038.bmp","0","noMatchOutcome","i","1500","trustrating_stim/white_mw038.bmp","green","Share","REAL","1"
"","","","","6162341a644c08d5cca4b7bb","bdp_wmem","Sun Mar 12 2023 17:32:56 GMT-0400 (Eastern Daylight Time)","583980","Match,No Match","html-keyboard-response","95","252649","0.0-7.0-5.11","","null","","<div class='trialBorder'><div class='vertical-center'><img src='img/correct.jpg'></div><div class='respDiv'><div class='respDivL'>Match<br>(e)</div><div class='respDivR'><font style='color:orange'>No Match<br>(i)</font></div></div></div>","null","FEEDBACK","","","","","","","","","","",""
"","","","","6162341a644c08d5cca4b7bb","bdp_wmem","Sun Mar 12 2023 17:32:56 GMT-0400 (Eastern Daylight Time)","583980","Match,No Match","html-keyboard-response","96","253150","0.0-7.0-1.12","","null","","<div class='trialBorder'><div class='vertical-center'><img src='img/fixation2_sml.jpg'</img></div></div>","null","FIX","","","","","","","","","","",""
"","","","","6162341a644c08d5cca4b7bb","bdp_wmem","Sun Mar 12 2023 17:32:56 GMT-0400 (Eastern Daylight Time)","583980","Match,No Match","html-keyboard-response","97","257652","0.0-7.0-2.12","","null","","<div class='trialBorder'><div class='vertical-center'><img style='vertical-align:center; align:center' src='img/fixation2_sml.jpg'></div><div class='arrayDiv3'><div class='tl'><img class='introPic' src='trustrating_stim/white_mw070.bmp'><br><font color='red'><strong>Keep</strong></font></div><div class='tc'><img class='introPic' src='trustrating_stim/white_mw038.bmp'><br><font color='red'><strong>Keep</strong></font></div><div class='tr'><img class='introPic' src='trustrating_stim/white_mw042.bmp'><br><font color='green'><strong>Share</strong></font></div></div></div>","null","ARRAY","3","trustrating_stim/white_mw070.bmp,trustrating_stim/white_mw038.bmp,trustrating_stim/white_mw042.bmp","0,0,1","noMatchOutcome","i","4500","","","","",""
"","","","","6162341a644c08d5cca4b7bb","bdp_wmem","Sun Mar 12 2023 17:32:56 GMT-0400 (Eastern Daylight Time)","583980","Match,No Match","html-keyboard-response","98","261653","0.0-7.0-3.12","","null","","<div class='trialBorder'><div class='vertical-center'><img src='img/fixation2_sml.jpg'</img></div></div>","null","DELAY","","","","","","","","","","",""
"","","","","6162341a644c08d5cca4b7bb","bdp_wmem","Sun Mar 12 2023 17:32:56 GMT-0400 (Eastern Daylight Time)","583980","Match,No Match","html-keyboard-response","99","263088","0.0-7.0-4.12","","1433","","<div class='trialBorder'><div class='targDiv'><div class='tc'><img class='introPic' src='trustrating_stim/white_mw070.bmp'><br><font color='green'><strong>Share</strong></font></div></div><div class='respDiv'><div class='respDivL'>Match<br>(e)</div><div class='respDivR'>No Match<br>(i)</div></div></div>","e","TARGET","3","trustrating_stim/white_mw070.bmp,trustrating_stim/white_mw038.bmp,trustrating_stim/white_mw042.bmp","0,0,1","noMatchOutcome","i","4500","trustrating_stim/white_mw070.bmp","green","Share","REAL","0"
"","","","","6162341a644c08d5cca4b7bb","bdp_wmem","Sun Mar 12 2023 17:32:56 GMT-0400 (Eastern Daylight Time)","583980","Match,No Match","html-keyboard-response","100","263589","0.0-7.0-5.12","","null","","<div class='trialBorder'><div class='vertical-center'><img src='img/error.jpg'></div><div class='respDiv'><div class='respDivL'><font style='color:orange'>Match<br>(e)</font></div><div class='respDivR'>No Match<br>(i)</div></div></div>","null","FEEDBACK","","","","","","","","","","",""
"","","","","6162341a644c08d5cca4b7bb","bdp_wmem","Sun Mar 12 2023 17:32:56 GMT-0400 (Eastern Daylight Time)","583980","Match,No Match","html-keyboard-response","101","264091","0.0-7.0-1.13","","null","","<div class='trialBorder'><div class='vertical-center'><img src='img/fixation2_sml.jpg'</img></div></div>","null","FIX","","","","","","","","","","",""
"","","","","6162341a644c08d5cca4b7bb","bdp_wmem","Sun Mar 12 2023 17:32:56 GMT-0400 (Eastern Daylight Time)","583980","Match,No Match","html-keyboard-response","102","268592","0.0-7.0-2.13","","null","","<div class='trialBorder'><div class='vertical-center'><img style='vertical-align:center; align:center' src='img/fixation2_sml.jpg'></div><div class='arrayDiv3'><div class='tl'><img class='introPic' src='trustrating_stim/white_mw042.bmp'><br><font color='green'><strong>Share</strong></font></div><div class='tc'><img class='introPic' src='trustrating_stim/white_mw085.bmp'><br><font color='red'><strong>Keep</strong></font></div><div class='tr'><img class='introPic' src='trustrating_stim/white_mw091.bmp'><br><font color='red'><strong>Keep</strong></font></div></div></div>","null","ARRAY","3","trustrating_stim/white_mw042.bmp,trustrating_stim/white_mw085.bmp,trustrating_stim/white_mw091.bmp","1,0,0","Match","e","4500","","","","",""
"","","","","6162341a644c08d5cca4b7bb","bdp_wmem","Sun Mar 12 2023 17:32:56 GMT-0400 (Eastern Daylight Time)","583980","Match,No Match","html-keyboard-response","103","272593","0.0-7.0-3.13","","null","","<div class='trialBorder'><div class='vertical-center'><img src='img/fixation2_sml.jpg'</img></div></div>","null","DELAY","","","","","","","","","","",""
"","","","","6162341a644c08d5cca4b7bb","bdp_wmem","Sun Mar 12 2023 17:32:56 GMT-0400 (Eastern Daylight Time)","583980","Match,No Match","html-keyboard-response","104","274518","0.0-7.0-4.13","","1924","","<div class='trialBorder'><div class='targDiv'><div class='tc'><img class='introPic' src='trustrating_stim/white_mw091.bmp'><br><font color='red'><strong>Keep</strong></font></div></div><div class='respDiv'><div class='respDivL'>Match<br>(e)</div><div class='respDivR'>No Match<br>(i)</div></div></div>","i","TARGET","3","trustrating_stim/white_mw042.bmp,trustrating_stim/white_mw085.bmp,trustrating_stim/white_mw091.bmp","1,0,0","Match","e","4500","trustrating_stim/white_mw091.bmp","red","Keep","REAL","0"
"","","","","6162341a644c08d5cca4b7bb","bdp_wmem","Sun Mar 12 2023 17:32:56 GMT-0400 (Eastern Daylight Time)","583980","Match,No Match","html-keyboard-response","105","275019","0.0-7.0-5.13","","null","","<div class='trialBorder'><div class='vertical-center'><img src='img/error.jpg'></div><div class='respDiv'><div class='respDivL'>Match<br>(e)</div><div class='respDivR'><font style='color:orange'>No Match<br>(i)</font></div></div></div>","null","FEEDBACK","","","","","","","","","","",""
"","","","","6162341a644c08d5cca4b7bb","bdp_wmem","Sun Mar 12 2023 17:32:56 GMT-0400 (Eastern Daylight Time)","583980","Match,No Match","html-keyboard-response","106","275520","0.0-7.0-1.14","","null","","<div class='trialBorder'><div class='vertical-center'><img src='img/fixation2_sml.jpg'</img></div></div>","null","FIX","","","","","","","","","","",""
"","","","","6162341a644c08d5cca4b7bb","bdp_wmem","Sun Mar 12 2023 17:32:56 GMT-0400 (Eastern Daylight Time)","583980","Match,No Match","html-keyboard-response","107","278522","0.0-7.0-2.14","","null","","<div class='trialBorder'><div class='vertical-center'><img style='vertical-align:center; align:center' src='img/fixation2_sml.jpg'></div><div class='arrayDiv2'><div class='tl'><img class='introPic' src='trustrating_stim/white_mw010.bmp'><br><font color='green'><strong>Share</strong></font></div><div class='tr'><img class='introPic' src='trustrating_stim/white_mw012.bmp'><br><font color='red'><strong>Keep</strong></font></div></div></div>","null","ARRAY","2","trustrating_stim/white_mw010.bmp,trustrating_stim/white_mw012.bmp","1,0","noMatchFace","i","3000","","","","",""
"","","","","6162341a644c08d5cca4b7bb","bdp_wmem","Sun Mar 12 2023 17:32:56 GMT-0400 (Eastern Daylight Time)","583980","Match,No Match","html-keyboard-response","108","282524","0.0-7.0-3.14","","null","","<div class='trialBorder'><div class='vertical-center'><img src='img/fixation2_sml.jpg'</img></div></div>","null","DELAY","","","","","","","","","","",""
"","","","","6162341a644c08d5cca4b7bb","bdp_wmem","Sun Mar 12 2023 17:32:56 GMT-0400 (Eastern Daylight Time)","583980","Match,No Match","html-keyboard-response","109","283589","0.0-7.0-4.14","","1063","","<div class='trialBorder'><div class='targDiv'><div class='tc'><img class='introPic' src='trustrating_stim/white_mw078.bmp'><br><font color='green'><strong>Share</strong></font></div></div><div class='respDiv'><div class='respDivL'>Match<br>(e)</div><div class='respDivR'>No Match<br>(i)</div></div></div>","i","TARGET","2","trustrating_stim/white_mw010.bmp,trustrating_stim/white_mw012.bmp","1,0","noMatchFace","i","3000","trustrating_stim/white_mw078.bmp","green","Share","REAL","1"
"","","","","6162341a644c08d5cca4b7bb","bdp_wmem","Sun Mar 12 2023 17:32:56 GMT-0400 (Eastern Daylight Time)","583980","Match,No Match","html-keyboard-response","110","284091","0.0-7.0-5.14","","null","","<div class='trialBorder'><div class='vertical-center'><img src='img/correct.jpg'></div><div class='respDiv'><div class='respDivL'>Match<br>(e)</div><div class='respDivR'><font style='color:orange'>No Match<br>(i)</font></div></div></div>","null","FEEDBACK","","","","","","","","","","",""
"","","","","6162341a644c08d5cca4b7bb","bdp_wmem","Sun Mar 12 2023 17:32:56 GMT-0400 (Eastern Daylight Time)","583980","Match,No Match","html-keyboard-response","111","284591","0.0-7.0-1.15","","null","","<div class='trialBorder'><div class='vertical-center'><img src='img/fixation2_sml.jpg'</img></div></div>","null","FIX","","","","","","","","","","",""
"","","","","6162341a644c08d5cca4b7bb","bdp_wmem","Sun Mar 12 2023 17:32:56 GMT-0400 (Eastern Daylight Time)","583980","Match,No Match","html-keyboard-response","112","289096","0.0-7.0-2.15","","null","","<div class='trialBorder'><div class='vertical-center'><img style='vertical-align:center; align:center' src='img/fixation2_sml.jpg'></div><div class='arrayDiv3'><div class='tl'><img class='introPic' src='trustrating_stim/white_mw091.bmp'><br><font color='red'><strong>Keep</strong></font></div><div class='tc'><img class='introPic' src='trustrating_stim/white_mw038.bmp'><br><font color='green'><strong>Share</strong></font></div><div class='tr'><img class='introPic' src='trustrating_stim/white_mw078.bmp'><br><font color='red'><strong>Keep</strong></font></div></div></div>","null","ARRAY","3","trustrating_stim/white_mw091.bmp,trustrating_stim/white_mw038.bmp,trustrating_stim/white_mw078.bmp","0,1,0","Match","e","4500","","","","",""
"","","","","6162341a644c08d5cca4b7bb","bdp_wmem","Sun Mar 12 2023 17:32:56 GMT-0400 (Eastern Daylight Time)","583980","Match,No Match","html-keyboard-response","113","293100","0.0-7.0-3.15","","null","","<div class='trialBorder'><div class='vertical-center'><img src='img/fixation2_sml.jpg'</img></div></div>","null","DELAY","","","","","","","","","","",""
"","","","","6162341a644c08d5cca4b7bb","bdp_wmem","Sun Mar 12 2023 17:32:56 GMT-0400 (Eastern Daylight Time)","583980","Match,No Match","html-keyboard-response","114","294286","0.0-7.0-4.15","","1185","","<div class='trialBorder'><div class='targDiv'><div class='tc'><img class='introPic' src='trustrating_stim/white_mw038.bmp'><br><font color='green'><strong>Share</strong></font></div></div><div class='respDiv'><div class='respDivL'>Match<br>(e)</div><div class='respDivR'>No Match<br>(i)</div></div></div>","i","TARGET","3","trustrating_stim/white_mw091.bmp,trustrating_stim/white_mw038.bmp,trustrating_stim/white_mw078.bmp","0,1,0","Match","e","4500","trustrating_stim/white_mw038.bmp","green","Share","REAL","0"
"","","","","6162341a644c08d5cca4b7bb","bdp_wmem","Sun Mar 12 2023 17:32:56 GMT-0400 (Eastern Daylight Time)","583980","Match,No Match","html-keyboard-response","115","294787","0.0-7.0-5.15","","null","","<div class='trialBorder'><div class='vertical-center'><img src='img/error.jpg'></div><div class='respDiv'><div class='respDivL'>Match<br>(e)</div><div class='respDivR'><font style='color:orange'>No Match<br>(i)</font></div></div></div>","null","FEEDBACK","","","","","","","","","","",""
"","","","","6162341a644c08d5cca4b7bb","bdp_wmem","Sun Mar 12 2023 17:32:56 GMT-0400 (Eastern Daylight Time)","583980","Match,No Match","html-keyboard-response","116","295291","0.0-7.0-1.16","","null","","<div class='trialBorder'><div class='vertical-center'><img src='img/fixation2_sml.jpg'</img></div></div>","null","FIX","","","","","","","","","","",""
"","","","","6162341a644c08d5cca4b7bb","bdp_wmem","Sun Mar 12 2023 17:32:56 GMT-0400 (Eastern Daylight Time)","583980","Match,No Match","html-keyboard-response","117","296793","0.0-7.0-2.16","","null","","<div class='trialBorder'><div class='vertical-center'><img style='vertical-align:center; align:center' src='img/fixation2_sml.jpg'></div><div class='arrayDiv1'><div class='tc'><img class='introPic' src='trustrating_stim/white_mw091.bmp'><br><font color='green'><strong>Share</strong></font></div></div></div>","null","ARRAY","1","trustrating_stim/white_mw091.bmp","1","Match","e","1500","","","","",""
"","","","","6162341a644c08d5cca4b7bb","bdp_wmem","Sun Mar 12 2023 17:32:56 GMT-0400 (Eastern Daylight Time)","583980","Match,No Match","html-keyboard-response","118","300796","0.0-7.0-3.16","","null","","<div class='trialBorder'><div class='vertical-center'><img src='img/fixation2_sml.jpg'</img></div></div>","null","DELAY","","","","","","","","","","",""
"","","","","6162341a644c08d5cca4b7bb","bdp_wmem","Sun Mar 12 2023 17:32:56 GMT-0400 (Eastern Daylight Time)","583980","Match,No Match","html-keyboard-response","119","302871","0.0-7.0-4.16","","2072","","<div class='trialBorder'><div class='targDiv'><div class='tc'><img class='introPic' src='trustrating_stim/white_mw091.bmp'><br><font color='green'><strong>Share</strong></font></div></div><div class='respDiv'><div class='respDivL'>Match<br>(e)</div><div class='respDivR'>No Match<br>(i)</div></div></div>","e","TARGET","1","trustrating_stim/white_mw091.bmp","1","Match","e","1500","trustrating_stim/white_mw091.bmp","green","Share","REAL","1"
"","","","","6162341a644c08d5cca4b7bb","bdp_wmem","Sun Mar 12 2023 17:32:56 GMT-0400 (Eastern Daylight Time)","583980","Match,No Match","html-keyboard-response","120","303374","0.0-7.0-5.16","","null","","<div class='trialBorder'><div class='vertical-center'><img src='img/correct.jpg'></div><div class='respDiv'><div class='respDivL'><font style='color:orange'>Match<br>(e)</font></div><div class='respDivR'>No Match<br>(i)</div></div></div>","null","FEEDBACK","","","","","","","","","","",""
"","","","","6162341a644c08d5cca4b7bb","bdp_wmem","Sun Mar 12 2023 17:32:56 GMT-0400 (Eastern Daylight Time)","583980","Match,No Match","html-keyboard-response","121","303877","0.0-7.0-1.17","","null","","<div class='trialBorder'><div class='vertical-center'><img src='img/fixation2_sml.jpg'</img></div></div>","null","FIX","","","","","","","","","","",""
"","","","","6162341a644c08d5cca4b7bb","bdp_wmem","Sun Mar 12 2023 17:32:56 GMT-0400 (Eastern Daylight Time)","583980","Match,No Match","html-keyboard-response","122","306880","0.0-7.0-2.17","","null","","<div class='trialBorder'><div class='vertical-center'><img style='vertical-align:center; align:center' src='img/fixation2_sml.jpg'></div><div class='arrayDiv2'><div class='tl'><img class='introPic' src='trustrating_stim/white_mw003.bmp'><br><font color='red'><strong>Keep</strong></font></div><div class='tr'><img class='introPic' src='trustrating_stim/white_mw085.bmp'><br><font color='green'><strong>Share</strong></font></div></div></div>","null","ARRAY","2","trustrating_stim/white_mw003.bmp,trustrating_stim/white_mw085.bmp","0,1","noMatchFace","i","3000","","","","",""
"","","","","6162341a644c08d5cca4b7bb","bdp_wmem","Sun Mar 12 2023 17:32:56 GMT-0400 (Eastern Daylight Time)","583980","Match,No Match","html-keyboard-response","123","310882","0.0-7.0-3.17","","null","","<div class='trialBorder'><div class='vertical-center'><img src='img/fixation2_sml.jpg'</img></div></div>","null","DELAY","","","","","","","","","","",""
"","","","","6162341a644c08d5cca4b7bb","bdp_wmem","Sun Mar 12 2023 17:32:56 GMT-0400 (Eastern Daylight Time)","583980","Match,No Match","html-keyboard-response","124","312450","0.0-7.0-4.17","","1567","","<div class='trialBorder'><div class='targDiv'><div class='tc'><img class='introPic' src='trustrating_stim/white_mw042.bmp'><br><font color='green'><strong>Share</strong></font></div></div><div class='respDiv'><div class='respDivL'>Match<br>(e)</div><div class='respDivR'>No Match<br>(i)</div></div></div>","i","TARGET","2","trustrating_stim/white_mw003.bmp,trustrating_stim/white_mw085.bmp","0,1","noMatchFace","i","3000","trustrating_stim/white_mw042.bmp","green","Share","REAL","1"
"","","","","6162341a644c08d5cca4b7bb","bdp_wmem","Sun Mar 12 2023 17:32:56 GMT-0400 (Eastern Daylight Time)","583980","Match,No Match","html-keyboard-response","125","312953","0.0-7.0-5.17","","null","","<div class='trialBorder'><div class='vertical-center'><img src='img/correct.jpg'></div><div class='respDiv'><div class='respDivL'>Match<br>(e)</div><div class='respDivR'><font style='color:orange'>No Match<br>(i)</font></div></div></div>","null","FEEDBACK","","","","","","","","","","",""
"","","","","6162341a644c08d5cca4b7bb","bdp_wmem","Sun Mar 12 2023 17:32:56 GMT-0400 (Eastern Daylight Time)","583980","Match,No Match","html-keyboard-response","126","313454","0.0-7.0-1.18","","null","","<div class='trialBorder'><div class='vertical-center'><img src='img/fixation2_sml.jpg'</img></div></div>","null","FIX","","","","","","","","","","",""
"","","","","6162341a644c08d5cca4b7bb","bdp_wmem","Sun Mar 12 2023 17:32:56 GMT-0400 (Eastern Daylight Time)","583980","Match,No Match","html-keyboard-response","127","314956","0.0-7.0-2.18","","null","","<div class='trialBorder'><div class='vertical-center'><img style='vertical-align:center; align:center' src='img/fixation2_sml.jpg'></div><div class='arrayDiv1'><div class='tc'><img class='introPic' src='trustrating_stim/white_mw070.bmp'><br><font color='red'><strong>Keep</strong></font></div></div></div>","null","ARRAY","1","trustrating_stim/white_mw070.bmp","0","Match","e","1500","","","","",""
"","","","","6162341a644c08d5cca4b7bb","bdp_wmem","Sun Mar 12 2023 17:32:56 GMT-0400 (Eastern Daylight Time)","583980","Match,No Match","html-keyboard-response","128","318958","0.0-7.0-3.18","","null","","<div class='trialBorder'><div class='vertical-center'><img src='img/fixation2_sml.jpg'</img></div></div>","null","DELAY","","","","","","","","","","",""
"","","","","6162341a644c08d5cca4b7bb","bdp_wmem","Sun Mar 12 2023 17:32:56 GMT-0400 (Eastern Daylight Time)","583980","Match,No Match","html-keyboard-response","129","320537","0.0-7.0-4.18","","1579","","<div class='trialBorder'><div class='targDiv'><div class='tc'><img class='introPic' src='trustrating_stim/white_mw070.bmp'><br><font color='red'><strong>Keep</strong></font></div></div><div class='respDiv'><div class='respDivL'>Match<br>(e)</div><div class='respDivR'>No Match<br>(i)</div></div></div>","i","TARGET","1","trustrating_stim/white_mw070.bmp","0","Match","e","1500","trustrating_stim/white_mw070.bmp","red","Keep","REAL","0"
"","","","","6162341a644c08d5cca4b7bb","bdp_wmem","Sun Mar 12 2023 17:32:56 GMT-0400 (Eastern Daylight Time)","583980","Match,No Match","html-keyboard-response","130","321040","0.0-7.0-5.18","","null","","<div class='trialBorder'><div class='vertical-center'><img src='img/error.jpg'></div><div class='respDiv'><div class='respDivL'>Match<br>(e)</div><div class='respDivR'><font style='color:orange'>No Match<br>(i)</font></div></div></div>","null","FEEDBACK","","","","","","","","","","",""
"","","","","6162341a644c08d5cca4b7bb","bdp_wmem","Sun Mar 12 2023 17:32:56 GMT-0400 (Eastern Daylight Time)","583980","Match,No Match","html-keyboard-response","131","321541","0.0-7.0-1.19","","null","","<div class='trialBorder'><div class='vertical-center'><img src='img/fixation2_sml.jpg'</img></div></div>","null","FIX","","","","","","","","","","",""
"","","","","6162341a644c08d5cca4b7bb","bdp_wmem","Sun Mar 12 2023 17:32:56 GMT-0400 (Eastern Daylight Time)","583980","Match,No Match","html-keyboard-response","132","326044","0.0-7.0-2.19","","null","","<div class='trialBorder'><div class='vertical-center'><img style='vertical-align:center; align:center' src='img/fixation2_sml.jpg'></div><div class='arrayDiv3'><div class='tl'><img class='introPic' src='trustrating_stim/white_mw091.bmp'><br><font color='red'><strong>Keep</strong></font></div><div class='tc'><img class='introPic' src='trustrating_stim/white_mw092.bmp'><br><font color='green'><strong>Share</strong></font></div><div class='tr'><img class='introPic' src='trustrating_stim/white_mw070.bmp'><br><font color='red'><strong>Keep</strong></font></div></div></div>","null","ARRAY","3","trustrating_stim/white_mw091.bmp,trustrating_stim/white_mw092.bmp,trustrating_stim/white_mw070.bmp","0,1,0","Match","e","4500","","","","",""
"","","","","6162341a644c08d5cca4b7bb","bdp_wmem","Sun Mar 12 2023 17:32:56 GMT-0400 (Eastern Daylight Time)","583980","Match,No Match","html-keyboard-response","133","330045","0.0-7.0-3.19","","null","","<div class='trialBorder'><div class='vertical-center'><img src='img/fixation2_sml.jpg'</img></div></div>","null","DELAY","","","","","","","","","","",""
"","","","","6162341a644c08d5cca4b7bb","bdp_wmem","Sun Mar 12 2023 17:32:56 GMT-0400 (Eastern Daylight Time)","583980","Match,No Match","html-keyboard-response","134","331212","0.0-7.0-4.19","","1165","","<div class='trialBorder'><div class='targDiv'><div class='tc'><img class='introPic' src='trustrating_stim/white_mw070.bmp'><br><font color='red'><strong>Keep</strong></font></div></div><div class='respDiv'><div class='respDivL'>Match<br>(e)</div><div class='respDivR'>No Match<br>(i)</div></div></div>","i","TARGET","3","trustrating_stim/white_mw091.bmp,trustrating_stim/white_mw092.bmp,trustrating_stim/white_mw070.bmp","0,1,0","Match","e","4500","trustrating_stim/white_mw070.bmp","red","Keep","REAL","0"
"","","","","6162341a644c08d5cca4b7bb","bdp_wmem","Sun Mar 12 2023 17:32:56 GMT-0400 (Eastern Daylight Time)","583980","Match,No Match","html-keyboard-response","135","331713","0.0-7.0-5.19","","null","","<div class='trialBorder'><div class='vertical-center'><img src='img/error.jpg'></div><div class='respDiv'><div class='respDivL'>Match<br>(e)</div><div class='respDivR'><font style='color:orange'>No Match<br>(i)</font></div></div></div>","null","FEEDBACK","","","","","","","","","","",""
"","","","","6162341a644c08d5cca4b7bb","bdp_wmem","Sun Mar 12 2023 17:32:56 GMT-0400 (Eastern Daylight Time)","583980","Match,No Match","html-keyboard-response","136","332214","0.0-7.0-1.20","","null","","<div class='trialBorder'><div class='vertical-center'><img src='img/fixation2_sml.jpg'</img></div></div>","null","FIX","","","","","","","","","","",""
"","","","","6162341a644c08d5cca4b7bb","bdp_wmem","Sun Mar 12 2023 17:32:56 GMT-0400 (Eastern Daylight Time)","583980","Match,No Match","html-keyboard-response","137","335217","0.0-7.0-2.20","","null","","<div class='trialBorder'><div class='vertical-center'><img style='vertical-align:center; align:center' src='img/fixation2_sml.jpg'></div><div class='arrayDiv2'><div class='tl'><img class='introPic' src='trustrating_stim/white_mw013.bmp'><br><font color='green'><strong>Share</strong></font></div><div class='tr'><img class='introPic' src='trustrating_stim/white_mw038.bmp'><br><font color='red'><strong>Keep</strong></font></div></div></div>","null","ARRAY","2","trustrating_stim/white_mw013.bmp,trustrating_stim/white_mw038.bmp","1,0","noMatchOutcome","i","3000","","","","",""
"","","","","6162341a644c08d5cca4b7bb","bdp_wmem","Sun Mar 12 2023 17:32:56 GMT-0400 (Eastern Daylight Time)","583980","Match,No Match","html-keyboard-response","138","339219","0.0-7.0-3.20","","null","","<div class='trialBorder'><div class='vertical-center'><img src='img/fixation2_sml.jpg'</img></div></div>","null","DELAY","","","","","","","","","","",""
"","","","","6162341a644c08d5cca4b7bb","bdp_wmem","Sun Mar 12 2023 17:32:56 GMT-0400 (Eastern Daylight Time)","583980","Match,No Match","html-keyboard-response","139","340870","0.0-7.0-4.20","","1650","","<div class='trialBorder'><div class='targDiv'><div class='tc'><img class='introPic' src='trustrating_stim/white_mw038.bmp'><br><font color='green'><strong>Share</strong></font></div></div><div class='respDiv'><div class='respDivL'>Match<br>(e)</div><div class='respDivR'>No Match<br>(i)</div></div></div>","e","TARGET","2","trustrating_stim/white_mw013.bmp,trustrating_stim/white_mw038.bmp","1,0","noMatchOutcome","i","3000","trustrating_stim/white_mw038.bmp","green","Share","REAL","0"
"","","","","6162341a644c08d5cca4b7bb","bdp_wmem","Sun Mar 12 2023 17:32:56 GMT-0400 (Eastern Daylight Time)","583980","Match,No Match","html-keyboard-response","140","341373","0.0-7.0-5.20","","null","","<div class='trialBorder'><div class='vertical-center'><img src='img/error.jpg'></div><div class='respDiv'><div class='respDivL'><font style='color:orange'>Match<br>(e)</font></div><div class='respDivR'>No Match<br>(i)</div></div></div>","null","FEEDBACK","","","","","","","","","","",""
"","","","","6162341a644c08d5cca4b7bb","bdp_wmem","Sun Mar 12 2023 17:32:56 GMT-0400 (Eastern Daylight Time)","583980","Match,No Match","html-keyboard-response","141","341874","0.0-7.0-1.21","","null","","<div class='trialBorder'><div class='vertical-center'><img src='img/fixation2_sml.jpg'</img></div></div>","null","FIX","","","","","","","","","","",""
"","","","","6162341a644c08d5cca4b7bb","bdp_wmem","Sun Mar 12 2023 17:32:56 GMT-0400 (Eastern Daylight Time)","583980","Match,No Match","html-keyboard-response","142","346376","0.0-7.0-2.21","","null","","<div class='trialBorder'><div class='vertical-center'><img style='vertical-align:center; align:center' src='img/fixation2_sml.jpg'></div><div class='arrayDiv3'><div class='tl'><img class='introPic' src='trustrating_stim/white_mw012.bmp'><br><font color='green'><strong>Share</strong></font></div><div class='tc'><img class='introPic' src='trustrating_stim/white_mw038.bmp'><br><font color='red'><strong>Keep</strong></font></div><div class='tr'><img class='introPic' src='trustrating_stim/white_mw085.bmp'><br><font color='red'><strong>Keep</strong></font></div></div></div>","null","ARRAY","3","trustrating_stim/white_mw012.bmp,trustrating_stim/white_mw038.bmp,trustrating_stim/white_mw085.bmp","1,0,0","noMatchFace","i","4500","","","","",""
"","","","","6162341a644c08d5cca4b7bb","bdp_wmem","Sun Mar 12 2023 17:32:56 GMT-0400 (Eastern Daylight Time)","583980","Match,No Match","html-keyboard-response","143","350380","0.0-7.0-3.21","","null","","<div class='trialBorder'><div class='vertical-center'><img src='img/fixation2_sml.jpg'</img></div></div>","null","DELAY","","","","","","","","","","",""
"","","","","6162341a644c08d5cca4b7bb","bdp_wmem","Sun Mar 12 2023 17:32:56 GMT-0400 (Eastern Daylight Time)","583980","Match,No Match","html-keyboard-response","144","351411","0.0-7.0-4.21","","1024","","<div class='trialBorder'><div class='targDiv'><div class='tc'><img class='introPic' src='trustrating_stim/white_mw070.bmp'><br><font color='red'><strong>Keep</strong></font></div></div><div class='respDiv'><div class='respDivL'>Match<br>(e)</div><div class='respDivR'>No Match<br>(i)</div></div></div>","i","TARGET","3","trustrating_stim/white_mw012.bmp,trustrating_stim/white_mw038.bmp,trustrating_stim/white_mw085.bmp","1,0,0","noMatchFace","i","4500","trustrating_stim/white_mw070.bmp","red","Keep","REAL","1"
"","","","","6162341a644c08d5cca4b7bb","bdp_wmem","Sun Mar 12 2023 17:32:56 GMT-0400 (Eastern Daylight Time)","583980","Match,No Match","html-keyboard-response","145","351914","0.0-7.0-5.21","","null","","<div class='trialBorder'><div class='vertical-center'><img src='img/correct.jpg'></div><div class='respDiv'><div class='respDivL'>Match<br>(e)</div><div class='respDivR'><font style='color:orange'>No Match<br>(i)</font></div></div></div>","null","FEEDBACK","","","","","","","","","","",""
"","","","","6162341a644c08d5cca4b7bb","bdp_wmem","Sun Mar 12 2023 17:32:56 GMT-0400 (Eastern Daylight Time)","583980","Match,No Match","html-keyboard-response","146","352417","0.0-7.0-1.22","","null","","<div class='trialBorder'><div class='vertical-center'><img src='img/fixation2_sml.jpg'</img></div></div>","null","FIX","","","","","","","","","","",""
"","","","","6162341a644c08d5cca4b7bb","bdp_wmem","Sun Mar 12 2023 17:32:56 GMT-0400 (Eastern Daylight Time)","583980","Match,No Match","html-keyboard-response","147","355418","0.0-7.0-2.22","","null","","<div class='trialBorder'><div class='vertical-center'><img style='vertical-align:center; align:center' src='img/fixation2_sml.jpg'></div><div class='arrayDiv2'><div class='tl'><img class='introPic' src='trustrating_stim/white_mw078.bmp'><br><font color='green'><strong>Share</strong></font></div><div class='tr'><img class='introPic' src='trustrating_stim/white_mw091.bmp'><br><font color='red'><strong>Keep</strong></font></div></div></div>","null","ARRAY","2","trustrating_stim/white_mw078.bmp,trustrating_stim/white_mw091.bmp","1,0","Match","e","3000","","","","",""
"","","","","6162341a644c08d5cca4b7bb","bdp_wmem","Sun Mar 12 2023 17:32:56 GMT-0400 (Eastern Daylight Time)","583980","Match,No Match","html-keyboard-response","148","359420","0.0-7.0-3.22","","null","","<div class='trialBorder'><div class='vertical-center'><img src='img/fixation2_sml.jpg'</img></div></div>","null","DELAY","","","","","","","","","","",""
"","","","","6162341a644c08d5cca4b7bb","bdp_wmem","Sun Mar 12 2023 17:32:56 GMT-0400 (Eastern Daylight Time)","583980","Match,No Match","html-keyboard-response","149","361235","0.0-7.0-4.22","","1813","","<div class='trialBorder'><div class='targDiv'><div class='tc'><img class='introPic' src='trustrating_stim/white_mw091.bmp'><br><font color='red'><strong>Keep</strong></font></div></div><div class='respDiv'><div class='respDivL'>Match<br>(e)</div><div class='respDivR'>No Match<br>(i)</div></div></div>","i","TARGET","2","trustrating_stim/white_mw078.bmp,trustrating_stim/white_mw091.bmp","1,0","Match","e","3000","trustrating_stim/white_mw091.bmp","red","Keep","REAL","0"
"","","","","6162341a644c08d5cca4b7bb","bdp_wmem","Sun Mar 12 2023 17:32:56 GMT-0400 (Eastern Daylight Time)","583980","Match,No Match","html-keyboard-response","150","361736","0.0-7.0-5.22","","null","","<div class='trialBorder'><div class='vertical-center'><img src='img/error.jpg'></div><div class='respDiv'><div class='respDivL'>Match<br>(e)</div><div class='respDivR'><font style='color:orange'>No Match<br>(i)</font></div></div></div>","null","FEEDBACK","","","","","","","","","","",""
"","","","","6162341a644c08d5cca4b7bb","bdp_wmem","Sun Mar 12 2023 17:32:56 GMT-0400 (Eastern Daylight Time)","583980","Match,No Match","html-keyboard-response","151","362237","0.0-7.0-1.23","","null","","<div class='trialBorder'><div class='vertical-center'><img src='img/fixation2_sml.jpg'</img></div></div>","null","FIX","","","","","","","","","","",""
"","","","","6162341a644c08d5cca4b7bb","bdp_wmem","Sun Mar 12 2023 17:32:56 GMT-0400 (Eastern Daylight Time)","583980","Match,No Match","html-keyboard-response","152","365240","0.0-7.0-2.23","","null","","<div class='trialBorder'><div class='vertical-center'><img style='vertical-align:center; align:center' src='img/fixation2_sml.jpg'></div><div class='arrayDiv2'><div class='tl'><img class='introPic' src='trustrating_stim/white_mw078.bmp'><br><font color='red'><strong>Keep</strong></font></div><div class='tr'><img class='introPic' src='trustrating_stim/white_mw010.bmp'><br><font color='green'><strong>Share</strong></font></div></div></div>","null","ARRAY","2","trustrating_stim/white_mw078.bmp,trustrating_stim/white_mw010.bmp","0,1","noMatchFace","i","3000","","","","",""
"","","","","6162341a644c08d5cca4b7bb","bdp_wmem","Sun Mar 12 2023 17:32:56 GMT-0400 (Eastern Daylight Time)","583980","Match,No Match","html-keyboard-response","153","369243","0.0-7.0-3.23","","null","","<div class='trialBorder'><div class='vertical-center'><img src='img/fixation2_sml.jpg'</img></div></div>","null","DELAY","","","","","","","","","","",""
"","","","","6162341a644c08d5cca4b7bb","bdp_wmem","Sun Mar 12 2023 17:32:56 GMT-0400 (Eastern Daylight Time)","583980","Match,No Match","html-keyboard-response","154","370327","0.0-7.0-4.23","","1083","","<div class='trialBorder'><div class='targDiv'><div class='tc'><img class='introPic' src='trustrating_stim/white_mw042.bmp'><br><font color='red'><strong>Keep</strong></font></div></div><div class='respDiv'><div class='respDivL'>Match<br>(e)</div><div class='respDivR'>No Match<br>(i)</div></div></div>","i","TARGET","2","trustrating_stim/white_mw078.bmp,trustrating_stim/white_mw010.bmp","0,1","noMatchFace","i","3000","trustrating_stim/white_mw042.bmp","red","Keep","REAL","1"
"","","","","6162341a644c08d5cca4b7bb","bdp_wmem","Sun Mar 12 2023 17:32:56 GMT-0400 (Eastern Daylight Time)","583980","Match,No Match","html-keyboard-response","155","370829","0.0-7.0-5.23","","null","","<div class='trialBorder'><div class='vertical-center'><img src='img/correct.jpg'></div><div class='respDiv'><div class='respDivL'>Match<br>(e)</div><div class='respDivR'><font style='color:orange'>No Match<br>(i)</font></div></div></div>","null","FEEDBACK","","","","","","","","","","",""
"","","","","6162341a644c08d5cca4b7bb","bdp_wmem","Sun Mar 12 2023 17:32:56 GMT-0400 (Eastern Daylight Time)","583980","Match,No Match","html-keyboard-response","156","371330","0.0-7.0-1.24","","null","","<div class='trialBorder'><div class='vertical-center'><img src='img/fixation2_sml.jpg'</img></div></div>","null","FIX","","","","","","","","","","",""
"","","","","6162341a644c08d5cca4b7bb","bdp_wmem","Sun Mar 12 2023 17:32:56 GMT-0400 (Eastern Daylight Time)","583980","Match,No Match","html-keyboard-response","157","372831","0.0-7.0-2.24","","null","","<div class='trialBorder'><div class='vertical-center'><img style='vertical-align:center; align:center' src='img/fixation2_sml.jpg'></div><div class='arrayDiv1'><div class='tc'><img class='introPic' src='trustrating_stim/white_mw070.bmp'><br><font color='green'><strong>Share</strong></font></div></div></div>","null","ARRAY","1","trustrating_stim/white_mw070.bmp","1","noMatchFace","i","1500","","","","",""
"","","","","6162341a644c08d5cca4b7bb","bdp_wmem","Sun Mar 12 2023 17:32:56 GMT-0400 (Eastern Daylight Time)","583980","Match,No Match","html-keyboard-response","158","376833","0.0-7.0-3.24","","null","","<div class='trialBorder'><div class='vertical-center'><img src='img/fixation2_sml.jpg'</img></div></div>","null","DELAY","","","","","","","","","","",""
"","","","","6162341a644c08d5cca4b7bb","bdp_wmem","Sun Mar 12 2023 17:32:56 GMT-0400 (Eastern Daylight Time)","583980","Match,No Match","html-keyboard-response","159","377727","0.0-7.0-4.24","","893","","<div class='trialBorder'><div class='targDiv'><div class='tc'><img class='introPic' src='trustrating_stim/white_mw010.bmp'><br><font color='green'><strong>Share</strong></font></div></div><div class='respDiv'><div class='respDivL'>Match<br>(e)</div><div class='respDivR'>No Match<br>(i)</div></div></div>","i","TARGET","1","trustrating_stim/white_mw070.bmp","1","noMatchFace","i","1500","trustrating_stim/white_mw010.bmp","green","Share","REAL","1"
"","","","","6162341a644c08d5cca4b7bb","bdp_wmem","Sun Mar 12 2023 17:32:56 GMT-0400 (Eastern Daylight Time)","583980","Match,No Match","html-keyboard-response","160","378229","0.0-7.0-5.24","","null","","<div class='trialBorder'><div class='vertical-center'><img src='img/correct.jpg'></div><div class='respDiv'><div class='respDivL'>Match<br>(e)</div><div class='respDivR'><font style='color:orange'>No Match<br>(i)</font></div></div></div>","null","FEEDBACK","","","","","","","","","","",""
"","","","","6162341a644c08d5cca4b7bb","bdp_wmem","Sun Mar 12 2023 17:32:56 GMT-0400 (Eastern Daylight Time)","583980","Match,No Match","html-keyboard-response","161","378728","0.0-7.0-1.25","","null","","<div class='trialBorder'><div class='vertical-center'><img src='img/fixation2_sml.jpg'</img></div></div>","null","FIX","","","","","","","","","","",""
"","","","","6162341a644c08d5cca4b7bb","bdp_wmem","Sun Mar 12 2023 17:32:56 GMT-0400 (Eastern Daylight Time)","583980","Match,No Match","html-keyboard-response","162","383231","0.0-7.0-2.25","","null","","<div class='trialBorder'><div class='vertical-center'><img style='vertical-align:center; align:center' src='img/fixation2_sml.jpg'></div><div class='arrayDiv3'><div class='tl'><img class='introPic' src='trustrating_stim/white_mw092.bmp'><br><font color='green'><strong>Share</strong></font></div><div class='tc'><img class='introPic' src='trustrating_stim/white_mw070.bmp'><br><font color='red'><strong>Keep</strong></font></div><div class='tr'><img class='introPic' src='trustrating_stim/white_mw091.bmp'><br><font color='red'><strong>Keep</strong></font></div></div></div>","null","ARRAY","3","trustrating_stim/white_mw092.bmp,trustrating_stim/white_mw070.bmp,trustrating_stim/white_mw091.bmp","1,0,0","Match","e","4500","","","","",""
"","","","","6162341a644c08d5cca4b7bb","bdp_wmem","Sun Mar 12 2023 17:32:56 GMT-0400 (Eastern Daylight Time)","583980","Match,No Match","html-keyboard-response","163","387232","0.0-7.0-3.25","","null","","<div class='trialBorder'><div class='vertical-center'><img src='img/fixation2_sml.jpg'</img></div></div>","null","DELAY","","","","","","","","","","",""
"","","","","6162341a644c08d5cca4b7bb","bdp_wmem","Sun Mar 12 2023 17:32:56 GMT-0400 (Eastern Daylight Time)","583980","Match,No Match","html-keyboard-response","164","388701","0.0-7.0-4.25","","1468","","<div class='trialBorder'><div class='targDiv'><div class='tc'><img class='introPic' src='trustrating_stim/white_mw070.bmp'><br><font color='red'><strong>Keep</strong></font></div></div><div class='respDiv'><div class='respDivL'>Match<br>(e)</div><div class='respDivR'>No Match<br>(i)</div></div></div>","i","TARGET","3","trustrating_stim/white_mw092.bmp,trustrating_stim/white_mw070.bmp,trustrating_stim/white_mw091.bmp","1,0,0","Match","e","4500","trustrating_stim/white_mw070.bmp","red","Keep","REAL","0"
"","","","","6162341a644c08d5cca4b7bb","bdp_wmem","Sun Mar 12 2023 17:32:56 GMT-0400 (Eastern Daylight Time)","583980","Match,No Match","html-keyboard-response","165","389202","0.0-7.0-5.25","","null","","<div class='trialBorder'><div class='vertical-center'><img src='img/error.jpg'></div><div class='respDiv'><div class='respDivL'>Match<br>(e)</div><div class='respDivR'><font style='color:orange'>No Match<br>(i)</font></div></div></div>","null","FEEDBACK","","","","","","","","","","",""
"","","","","6162341a644c08d5cca4b7bb","bdp_wmem","Sun Mar 12 2023 17:32:56 GMT-0400 (Eastern Daylight Time)","583980","Match,No Match","html-keyboard-response","166","389703","0.0-7.0-1.26","","null","","<div class='trialBorder'><div class='vertical-center'><img src='img/fixation2_sml.jpg'</img></div></div>","null","FIX","","","","","","","","","","",""
"","","","","6162341a644c08d5cca4b7bb","bdp_wmem","Sun Mar 12 2023 17:32:56 GMT-0400 (Eastern Daylight Time)","583980","Match,No Match","html-keyboard-response","167","392704","0.0-7.0-2.26","","null","","<div class='trialBorder'><div class='vertical-center'><img style='vertical-align:center; align:center' src='img/fixation2_sml.jpg'></div><div class='arrayDiv2'><div class='tl'><img class='introPic' src='trustrating_stim/white_mw085.bmp'><br><font color='red'><strong>Keep</strong></font></div><div class='tr'><img class='introPic' src='trustrating_stim/white_mw010.bmp'><br><font color='green'><strong>Share</strong></font></div></div></div>","null","ARRAY","2","trustrating_stim/white_mw085.bmp,trustrating_stim/white_mw010.bmp","0,1","noMatchOutcome","i","3000","","","","",""
"","","","","6162341a644c08d5cca4b7bb","bdp_wmem","Sun Mar 12 2023 17:32:56 GMT-0400 (Eastern Daylight Time)","583980","Match,No Match","html-keyboard-response","168","396706","0.0-7.0-3.26","","null","","<div class='trialBorder'><div class='vertical-center'><img src='img/fixation2_sml.jpg'</img></div></div>","null","DELAY","","","","","","","","","","",""
"","","","","6162341a644c08d5cca4b7bb","bdp_wmem","Sun Mar 12 2023 17:32:56 GMT-0400 (Eastern Daylight Time)","583980","Match,No Match","html-keyboard-response","169","397696","0.0-7.0-4.26","","989","","<div class='trialBorder'><div class='targDiv'><div class='tc'><img class='introPic' src='trustrating_stim/white_mw085.bmp'><br><font color='green'><strong>Share</strong></font></div></div><div class='respDiv'><div class='respDivL'>Match<br>(e)</div><div class='respDivR'>No Match<br>(i)</div></div></div>","e","TARGET","2","trustrating_stim/white_mw085.bmp,trustrating_stim/white_mw010.bmp","0,1","noMatchOutcome","i","3000","trustrating_stim/white_mw085.bmp","green","Share","REAL","0"
"","","","","6162341a644c08d5cca4b7bb","bdp_wmem","Sun Mar 12 2023 17:32:56 GMT-0400 (Eastern Daylight Time)","583980","Match,No Match","html-keyboard-response","170","398197","0.0-7.0-5.26","","null","","<div class='trialBorder'><div class='vertical-center'><img src='img/error.jpg'></div><div class='respDiv'><div class='respDivL'><font style='color:orange'>Match<br>(e)</font></div><div class='respDivR'>No Match<br>(i)</div></div></div>","null","FEEDBACK","","","","","","","","","","",""
"","","","","6162341a644c08d5cca4b7bb","bdp_wmem","Sun Mar 12 2023 17:32:56 GMT-0400 (Eastern Daylight Time)","583980","Match,No Match","html-keyboard-response","171","398700","0.0-7.0-1.27","","null","","<div class='trialBorder'><div class='vertical-center'><img src='img/fixation2_sml.jpg'</img></div></div>","null","FIX","","","","","","","","","","",""
"","","","","6162341a644c08d5cca4b7bb","bdp_wmem","Sun Mar 12 2023 17:32:56 GMT-0400 (Eastern Daylight Time)","583980","Match,No Match","html-keyboard-response","172","401703","0.0-7.0-2.27","","null","","<div class='trialBorder'><div class='vertical-center'><img style='vertical-align:center; align:center' src='img/fixation2_sml.jpg'></div><div class='arrayDiv2'><div class='tl'><img class='introPic' src='trustrating_stim/white_mw040.bmp'><br><font color='green'><strong>Share</strong></font></div><div class='tr'><img class='introPic' src='trustrating_stim/white_mw091.bmp'><br><font color='red'><strong>Keep</strong></font></div></div></div>","null","ARRAY","2","trustrating_stim/white_mw040.bmp,trustrating_stim/white_mw091.bmp","1,0","noMatchFace","i","3000","","","","",""
"","","","","6162341a644c08d5cca4b7bb","bdp_wmem","Sun Mar 12 2023 17:32:56 GMT-0400 (Eastern Daylight Time)","583980","Match,No Match","html-keyboard-response","173","405704","0.0-7.0-3.27","","null","","<div class='trialBorder'><div class='vertical-center'><img src='img/fixation2_sml.jpg'</img></div></div>","null","DELAY","","","","","","","","","","",""
"","","","","6162341a644c08d5cca4b7bb","bdp_wmem","Sun Mar 12 2023 17:32:56 GMT-0400 (Eastern Daylight Time)","583980","Match,No Match","html-keyboard-response","174","406774","0.0-7.0-4.27","","1067","","<div class='trialBorder'><div class='targDiv'><div class='tc'><img class='introPic' src='trustrating_stim/white_mw078.bmp'><br><font color='red'><strong>Keep</strong></font></div></div><div class='respDiv'><div class='respDivL'>Match<br>(e)</div><div class='respDivR'>No Match<br>(i)</div></div></div>","i","TARGET","2","trustrating_stim/white_mw040.bmp,trustrating_stim/white_mw091.bmp","1,0","noMatchFace","i","3000","trustrating_stim/white_mw078.bmp","red","Keep","REAL","1"
"","","","","6162341a644c08d5cca4b7bb","bdp_wmem","Sun Mar 12 2023 17:32:56 GMT-0400 (Eastern Daylight Time)","583980","Match,No Match","html-keyboard-response","175","407275","0.0-7.0-5.27","","null","","<div class='trialBorder'><div class='vertical-center'><img src='img/correct.jpg'></div><div class='respDiv'><div class='respDivL'>Match<br>(e)</div><div class='respDivR'><font style='color:orange'>No Match<br>(i)</font></div></div></div>","null","FEEDBACK","","","","","","","","","","",""
"","","","","6162341a644c08d5cca4b7bb","bdp_wmem","Sun Mar 12 2023 17:32:56 GMT-0400 (Eastern Daylight Time)","583980","Match,No Match","html-keyboard-response","176","407777","0.0-7.0-1.28","","null","","<div class='trialBorder'><div class='vertical-center'><img src='img/fixation2_sml.jpg'</img></div></div>","null","FIX","","","","","","","","","","",""
"","","","","6162341a644c08d5cca4b7bb","bdp_wmem","Sun Mar 12 2023 17:32:56 GMT-0400 (Eastern Daylight Time)","583980","Match,No Match","html-keyboard-response","177","409280","0.0-7.0-2.28","","null","","<div class='trialBorder'><div class='vertical-center'><img style='vertical-align:center; align:center' src='img/fixation2_sml.jpg'></div><div class='arrayDiv1'><div class='tc'><img class='introPic' src='trustrating_stim/white_mw078.bmp'><br><font color='green'><strong>Share</strong></font></div></div></div>","null","ARRAY","1","trustrating_stim/white_mw078.bmp","1","Match","e","1500","","","","",""
"","","","","6162341a644c08d5cca4b7bb","bdp_wmem","Sun Mar 12 2023 17:32:56 GMT-0400 (Eastern Daylight Time)","583980","Match,No Match","html-keyboard-response","178","413282","0.0-7.0-3.28","","null","","<div class='trialBorder'><div class='vertical-center'><img src='img/fixation2_sml.jpg'</img></div></div>","null","DELAY","","","","","","","","","","",""
"","","","","6162341a644c08d5cca4b7bb","bdp_wmem","Sun Mar 12 2023 17:32:56 GMT-0400 (Eastern Daylight Time)","583980","Match,No Match","html-keyboard-response","179","413984","0.0-7.0-4.28","","697","","<div class='trialBorder'><div class='targDiv'><div class='tc'><img class='introPic' src='trustrating_stim/white_mw078.bmp'><br><font color='green'><strong>Share</strong></font></div></div><div class='respDiv'><div class='respDivL'>Match<br>(e)</div><div class='respDivR'>No Match<br>(i)</div></div></div>","e","TARGET","1","trustrating_stim/white_mw078.bmp","1","Match","e","1500","trustrating_stim/white_mw078.bmp","green","Share","REAL","1"
"","","","","6162341a644c08d5cca4b7bb","bdp_wmem","Sun Mar 12 2023 17:32:56 GMT-0400 (Eastern Daylight Time)","583980","Match,No Match","html-keyboard-response","180","414486","0.0-7.0-5.28","","null","","<div class='trialBorder'><div class='vertical-center'><img src='img/correct.jpg'></div><div class='respDiv'><div class='respDivL'><font style='color:orange'>Match<br>(e)</font></div><div class='respDivR'>No Match<br>(i)</div></div></div>","null","FEEDBACK","","","","","","","","","","",""
"","","","","6162341a644c08d5cca4b7bb","bdp_wmem","Sun Mar 12 2023 17:32:56 GMT-0400 (Eastern Daylight Time)","583980","Match,No Match","html-keyboard-response","181","414988","0.0-7.0-1.29","","null","","<div class='trialBorder'><div class='vertical-center'><img src='img/fixation2_sml.jpg'</img></div></div>","null","FIX","","","","","","","","","","",""
"","","","","6162341a644c08d5cca4b7bb","bdp_wmem","Sun Mar 12 2023 17:32:56 GMT-0400 (Eastern Daylight Time)","583980","Match,No Match","html-keyboard-response","182","417990","0.0-7.0-2.29","","null","","<div class='trialBorder'><div class='vertical-center'><img style='vertical-align:center; align:center' src='img/fixation2_sml.jpg'></div><div class='arrayDiv2'><div class='tl'><img class='introPic' src='trustrating_stim/white_mw010.bmp'><br><font color='green'><strong>Share</strong></font></div><div class='tr'><img class='introPic' src='trustrating_stim/white_mw070.bmp'><br><font color='red'><strong>Keep</strong></font></div></div></div>","null","ARRAY","2","trustrating_stim/white_mw010.bmp,trustrating_stim/white_mw070.bmp","1,0","Match","e","3000","","","","",""
"","","","","6162341a644c08d5cca4b7bb","bdp_wmem","Sun Mar 12 2023 17:32:56 GMT-0400 (Eastern Daylight Time)","583980","Match,No Match","html-keyboard-response","183","421994","0.0-7.0-3.29","","null","","<div class='trialBorder'><div class='vertical-center'><img src='img/fixation2_sml.jpg'</img></div></div>","null","DELAY","","","","","","","","","","",""
"","","","","6162341a644c08d5cca4b7bb","bdp_wmem","Sun Mar 12 2023 17:32:56 GMT-0400 (Eastern Daylight Time)","583980","Match,No Match","html-keyboard-response","184","422848","0.0-7.0-4.29","","852","","<div class='trialBorder'><div class='targDiv'><div class='tc'><img class='introPic' src='trustrating_stim/white_mw010.bmp'><br><font color='green'><strong>Share</strong></font></div></div><div class='respDiv'><div class='respDivL'>Match<br>(e)</div><div class='respDivR'>No Match<br>(i)</div></div></div>","e","TARGET","2","trustrating_stim/white_mw010.bmp,trustrating_stim/white_mw070.bmp","1,0","Match","e","3000","trustrating_stim/white_mw010.bmp","green","Share","REAL","1"
"","","","","6162341a644c08d5cca4b7bb","bdp_wmem","Sun Mar 12 2023 17:32:56 GMT-0400 (Eastern Daylight Time)","583980","Match,No Match","html-keyboard-response","185","423351","0.0-7.0-5.29","","null","","<div class='trialBorder'><div class='vertical-center'><img src='img/correct.jpg'></div><div class='respDiv'><div class='respDivL'><font style='color:orange'>Match<br>(e)</font></div><div class='respDivR'>No Match<br>(i)</div></div></div>","null","FEEDBACK","","","","","","","","","","",""
"","","","","6162341a644c08d5cca4b7bb","bdp_wmem","Sun Mar 12 2023 17:32:56 GMT-0400 (Eastern Daylight Time)","583980","Match,No Match","html-keyboard-response","186","423852","0.0-7.0-1.30","","null","","<div class='trialBorder'><div class='vertical-center'><img src='img/fixation2_sml.jpg'</img></div></div>","null","FIX","","","","","","","","","","",""
