"trial_type","trial_index","time_elapsed","internal_node_id","subject_id","task","startTime","totalTime","labels","view_history","rt","event","trial","time","trialtype","success","stimulus","key_press","stimType","arraySize","arrayFaces","arrayOutcomes","matchType","corrResp","arrayDur","targFace","targCol","targOutcome","trialType","corr","numBlurs"
"pavlovia","0","7","0.0-0.0","6400d9235287137e7b62fd29","bdp_wmem","Sat Apr 08 2023 09:14:34 GMT-0700 (Pacific Daylight Time)","538822","Match,No Match","","","","","","","","","","","","","","","","","","","","","",""
"instructions","1","8091","0.0-1.0","6400d9235287137e7b62fd29","bdp_wmem","Sat Apr 08 2023 09:14:34 GMT-0700 (Pacific Daylight Time)","538822","Match,No Match","[{""page_index"":0,""viewing_time"":8082}]","8083","","","","","","","","","","","","","","","","","","","",""
"","","","","6400d9235287137e7b62fd29","bdp_wmem","Sat Apr 08 2023 09:14:34 GMT-0700 (Pacific Daylight Time)","538822","Match,No Match","","","fullscreenenter","2","9831","fullscreenenter","","","","","","","","","","","","","","","",""
"fullscreen","2","10783","0.0-2.0","6400d9235287137e7b62fd29","bdp_wmem","Sat Apr 08 2023 09:14:34 GMT-0700 (Pacific Daylight Time)","538822","Match,No Match","","","","","","","true","","","","","","","","","","","","","","",""
"instructions","3","40786","0.0-4.0","6400d9235287137e7b62fd29","bdp_wmem","Sat Apr 08 2023 09:14:34 GMT-0700 (Pacific Daylight Time)","538822","Match,No Match","[{""page_index"":0,""viewing_time"":15392},{""page_index"":1,""viewing_time"":6842},{""page_index"":2,""viewing_time"":3303},{""page_index"":3,""viewing_time"":1191},{""page_index"":4,""viewing_time"":3272}]","30000","","","","","","","","","","","","","","","","","","","",""
"html-keyboard-response","4","41294","0.0-5.0-1.0","6400d9235287137e7b62fd29","bdp_wmem","Sat Apr 08 2023 09:14:34 GMT-0700 (Pacific Daylight Time)","538822","Match,No Match","","null","","","","","","<div class='trialBorder'><div class='vertical-center'><img src='img/fixation2_sml.jpg'</img></div></div>","null","FIX","","","","","","","","","","","",""
"html-keyboard-response","5","45800","0.0-5.0-2.0","6400d9235287137e7b62fd29","bdp_wmem","Sat Apr 08 2023 09:14:34 GMT-0700 (Pacific Daylight Time)","538822","Match,No Match","","null","","","","","","<div class='trialBorder'><div class='vertical-center'><img style='vertical-align:center; align:center' src='img/fixation2_sml.jpg'></div><div class='arrayDiv3'><div class='tl'><img class='introPic' src='trustrating_stim/white_mw042.bmp'><br><font color='red'><strong>Keep</strong></font></div><div class='tc'><img class='introPic' src='trustrating_stim/white_mw078.bmp'><br><font color='red'><strong>Keep</strong></font></div><div class='tr'><img class='introPic' src='trustrating_stim/white_mw085.bmp'><br><font color='green'><strong>Share</strong></font></div></div></div>","null","ARRAY","3","trustrating_stim/white_mw042.bmp,trustrating_stim/white_mw078.bmp,trustrating_stim/white_mw085.bmp","0,0,1","noMatchOutcome","i","4500","","","","","",""
"html-keyboard-response","6","49806","0.0-5.0-3.0","6400d9235287137e7b62fd29","bdp_wmem","Sat Apr 08 2023 09:14:34 GMT-0700 (Pacific Daylight Time)","538822","Match,No Match","","null","","","","","","<div class='trialBorder'><div class='vertical-center'><img src='img/fixation2_sml.jpg'</img></div></div>","null","DELAY","","","","","","","","","","","",""
"html-keyboard-response","7","52180","0.0-5.0-4.0","6400d9235287137e7b62fd29","bdp_wmem","Sat Apr 08 2023 09:14:34 GMT-0700 (Pacific Daylight Time)","538822","Match,No Match","","2372","","","","","","<div class='trialBorder'><div class='targDiv'><div class='tc'><img class='introPic' src='trustrating_stim/white_mw085.bmp'><br><font color='red'><strong>Keep</strong></font></div></div><div class='respDiv'><div class='respDivL'>Match<br>(e)</div><div class='respDivR'>No Match<br>(i)</div></div></div>","i","TARGET","3","trustrating_stim/white_mw042.bmp,trustrating_stim/white_mw078.bmp,trustrating_stim/white_mw085.bmp","0,0,1","noMatchOutcome","i","4500","trustrating_stim/white_mw085.bmp","red","Keep","PRACTICE","1",""
"html-keyboard-response","8","52690","0.0-5.0-5.0","6400d9235287137e7b62fd29","bdp_wmem","Sat Apr 08 2023 09:14:34 GMT-0700 (Pacific Daylight Time)","538822","Match,No Match","","null","","","","","","<div class='trialBorder'><div class='vertical-center'><img src='img/correct.jpg'></div><div class='respDiv'><div class='respDivL'>Match<br>(e)</div><div class='respDivR'><font style='color:orange'>No Match<br>(i)</font></div></div></div>","null","FEEDBACK","","","","","","","","","","","",""
"html-keyboard-response","9","53193","0.0-5.0-1.1","6400d9235287137e7b62fd29","bdp_wmem","Sat Apr 08 2023 09:14:34 GMT-0700 (Pacific Daylight Time)","538822","Match,No Match","","null","","","","","","<div class='trialBorder'><div class='vertical-center'><img src='img/fixation2_sml.jpg'</img></div></div>","null","FIX","","","","","","","","","","","",""
"html-keyboard-response","10","56197","0.0-5.0-2.1","6400d9235287137e7b62fd29","bdp_wmem","Sat Apr 08 2023 09:14:34 GMT-0700 (Pacific Daylight Time)","538822","Match,No Match","","null","","","","","","<div class='trialBorder'><div class='vertical-center'><img style='vertical-align:center; align:center' src='img/fixation2_sml.jpg'></div><div class='arrayDiv2'><div class='tl'><img class='introPic' src='trustrating_stim/white_mw085.bmp'><br><font color='green'><strong>Share</strong></font></div><div class='tr'><img class='introPic' src='trustrating_stim/white_mw042.bmp'><br><font color='red'><strong>Keep</strong></font></div></div></div>","null","ARRAY","2","trustrating_stim/white_mw085.bmp,trustrating_stim/white_mw042.bmp","1,0","noMatchOutcome","i","3000","","","","","",""
"html-keyboard-response","11","60204","0.0-5.0-3.1","6400d9235287137e7b62fd29","bdp_wmem","Sat Apr 08 2023 09:14:34 GMT-0700 (Pacific Daylight Time)","538822","Match,No Match","","null","","","","","","<div class='trialBorder'><div class='vertical-center'><img src='img/fixation2_sml.jpg'</img></div></div>","null","DELAY","","","","","","","","","","","",""
"html-keyboard-response","12","61088","0.0-5.0-4.1","6400d9235287137e7b62fd29","bdp_wmem","Sat Apr 08 2023 09:14:34 GMT-0700 (Pacific Daylight Time)","538822","Match,No Match","","881","","","","","","<div class='trialBorder'><div class='targDiv'><div class='tc'><img class='introPic' src='trustrating_stim/white_mw085.bmp'><br><font color='red'><strong>Keep</strong></font></div></div><div class='respDiv'><div class='respDivL'>Match<br>(e)</div><div class='respDivR'>No Match<br>(i)</div></div></div>","i","TARGET","2","trustrating_stim/white_mw085.bmp,trustrating_stim/white_mw042.bmp","1,0","noMatchOutcome","i","3000","trustrating_stim/white_mw085.bmp","red","Keep","PRACTICE","1",""
"html-keyboard-response","13","61594","0.0-5.0-5.1","6400d9235287137e7b62fd29","bdp_wmem","Sat Apr 08 2023 09:14:34 GMT-0700 (Pacific Daylight Time)","538822","Match,No Match","","null","","","","","","<div class='trialBorder'><div class='vertical-center'><img src='img/correct.jpg'></div><div class='respDiv'><div class='respDivL'>Match<br>(e)</div><div class='respDivR'><font style='color:orange'>No Match<br>(i)</font></div></div></div>","null","FEEDBACK","","","","","","","","","","","",""
"html-keyboard-response","14","62102","0.0-5.0-1.2","6400d9235287137e7b62fd29","bdp_wmem","Sat Apr 08 2023 09:14:34 GMT-0700 (Pacific Daylight Time)","538822","Match,No Match","","null","","","","","","<div class='trialBorder'><div class='vertical-center'><img src='img/fixation2_sml.jpg'</img></div></div>","null","FIX","","","","","","","","","","","",""
"html-keyboard-response","15","66607","0.0-5.0-2.2","6400d9235287137e7b62fd29","bdp_wmem","Sat Apr 08 2023 09:14:34 GMT-0700 (Pacific Daylight Time)","538822","Match,No Match","","null","","","","","","<div class='trialBorder'><div class='vertical-center'><img style='vertical-align:center; align:center' src='img/fixation2_sml.jpg'></div><div class='arrayDiv3'><div class='tl'><img class='introPic' src='trustrating_stim/white_mw085.bmp'><br><font color='green'><strong>Share</strong></font></div><div class='tc'><img class='introPic' src='trustrating_stim/white_mw070.bmp'><br><font color='green'><strong>Share</strong></font></div><div class='tr'><img class='introPic' src='trustrating_stim/white_mw012.bmp'><br><font color='red'><strong>Keep</strong></font></div></div></div>","null","ARRAY","3","trustrating_stim/white_mw085.bmp,trustrating_stim/white_mw070.bmp,trustrating_stim/white_mw012.bmp","1,1,0","Match","e","4500","","","","","",""
"html-keyboard-response","16","70615","0.0-5.0-3.2","6400d9235287137e7b62fd29","bdp_wmem","Sat Apr 08 2023 09:14:34 GMT-0700 (Pacific Daylight Time)","538822","Match,No Match","","null","","","","","","<div class='trialBorder'><div class='vertical-center'><img src='img/fixation2_sml.jpg'</img></div></div>","null","DELAY","","","","","","","","","","","",""
"html-keyboard-response","17","71072","0.0-5.0-4.2","6400d9235287137e7b62fd29","bdp_wmem","Sat Apr 08 2023 09:14:34 GMT-0700 (Pacific Daylight Time)","538822","Match,No Match","","454","","","","","","<div class='trialBorder'><div class='targDiv'><div class='tc'><img class='introPic' src='trustrating_stim/white_mw085.bmp'><br><font color='green'><strong>Share</strong></font></div></div><div class='respDiv'><div class='respDivL'>Match<br>(e)</div><div class='respDivR'>No Match<br>(i)</div></div></div>","i","TARGET","3","trustrating_stim/white_mw085.bmp,trustrating_stim/white_mw070.bmp,trustrating_stim/white_mw012.bmp","1,1,0","Match","e","4500","trustrating_stim/white_mw085.bmp","green","Share","PRACTICE","0",""
"html-keyboard-response","18","71579","0.0-5.0-5.2","6400d9235287137e7b62fd29","bdp_wmem","Sat Apr 08 2023 09:14:34 GMT-0700 (Pacific Daylight Time)","538822","Match,No Match","","null","","","","","","<div class='trialBorder'><div class='vertical-center'><img src='img/error.jpg'></div><div class='respDiv'><div class='respDivL'>Match<br>(e)</div><div class='respDivR'><font style='color:orange'>No Match<br>(i)</font></div></div></div>","null","FEEDBACK","","","","","","","","","","","",""
"html-keyboard-response","19","72087","0.0-5.0-1.3","6400d9235287137e7b62fd29","bdp_wmem","Sat Apr 08 2023 09:14:34 GMT-0700 (Pacific Daylight Time)","538822","Match,No Match","","null","","","","","","<div class='trialBorder'><div class='vertical-center'><img src='img/fixation2_sml.jpg'</img></div></div>","null","FIX","","","","","","","","","","","",""
"html-keyboard-response","20","75099","0.0-5.0-2.3","6400d9235287137e7b62fd29","bdp_wmem","Sat Apr 08 2023 09:14:34 GMT-0700 (Pacific Daylight Time)","538822","Match,No Match","","null","","","","","","<div class='trialBorder'><div class='vertical-center'><img style='vertical-align:center; align:center' src='img/fixation2_sml.jpg'></div><div class='arrayDiv2'><div class='tl'><img class='introPic' src='trustrating_stim/white_mw085.bmp'><br><font color='green'><strong>Share</strong></font></div><div class='tr'><img class='introPic' src='trustrating_stim/white_mw042.bmp'><br><font color='red'><strong>Keep</strong></font></div></div></div>","null","ARRAY","2","trustrating_stim/white_mw085.bmp,trustrating_stim/white_mw042.bmp","1,0","Match","e","3000","","","","","",""
"html-keyboard-response","21","79107","0.0-5.0-3.3","6400d9235287137e7b62fd29","bdp_wmem","Sat Apr 08 2023 09:14:34 GMT-0700 (Pacific Daylight Time)","538822","Match,No Match","","null","","","","","","<div class='trialBorder'><div class='vertical-center'><img src='img/fixation2_sml.jpg'</img></div></div>","null","DELAY","","","","","","","","","","","",""
"html-keyboard-response","22","79389","0.0-5.0-4.3","6400d9235287137e7b62fd29","bdp_wmem","Sat Apr 08 2023 09:14:34 GMT-0700 (Pacific Daylight Time)","538822","Match,No Match","","280","","","","","","<div class='trialBorder'><div class='targDiv'><div class='tc'><img class='introPic' src='trustrating_stim/white_mw085.bmp'><br><font color='green'><strong>Share</strong></font></div></div><div class='respDiv'><div class='respDivL'>Match<br>(e)</div><div class='respDivR'>No Match<br>(i)</div></div></div>","e","TARGET","2","trustrating_stim/white_mw085.bmp,trustrating_stim/white_mw042.bmp","1,0","Match","e","3000","trustrating_stim/white_mw085.bmp","green","Share","PRACTICE","1",""
"html-keyboard-response","23","79896","0.0-5.0-5.3","6400d9235287137e7b62fd29","bdp_wmem","Sat Apr 08 2023 09:14:34 GMT-0700 (Pacific Daylight Time)","538822","Match,No Match","","null","","","","","","<div class='trialBorder'><div class='vertical-center'><img src='img/correct.jpg'></div><div class='respDiv'><div class='respDivL'><font style='color:orange'>Match<br>(e)</font></div><div class='respDivR'>No Match<br>(i)</div></div></div>","null","FEEDBACK","","","","","","","","","","","",""
"html-keyboard-response","24","80405","0.0-5.0-1.4","6400d9235287137e7b62fd29","bdp_wmem","Sat Apr 08 2023 09:14:34 GMT-0700 (Pacific Daylight Time)","538822","Match,No Match","","null","","","","","","<div class='trialBorder'><div class='vertical-center'><img src='img/fixation2_sml.jpg'</img></div></div>","null","FIX","","","","","","","","","","","",""
"html-keyboard-response","25","81912","0.0-5.0-2.4","6400d9235287137e7b62fd29","bdp_wmem","Sat Apr 08 2023 09:14:34 GMT-0700 (Pacific Daylight Time)","538822","Match,No Match","","null","","","","","","<div class='trialBorder'><div class='vertical-center'><img style='vertical-align:center; align:center' src='img/fixation2_sml.jpg'></div><div class='arrayDiv1'><div class='tc'><img class='introPic' src='trustrating_stim/white_mw070.bmp'><br><font color='red'><strong>Keep</strong></font></div></div></div>","null","ARRAY","1","trustrating_stim/white_mw070.bmp","0","Match","e","1500","","","","","",""
"html-keyboard-response","26","85916","0.0-5.0-3.4","6400d9235287137e7b62fd29","bdp_wmem","Sat Apr 08 2023 09:14:34 GMT-0700 (Pacific Daylight Time)","538822","Match,No Match","","null","","","","","","<div class='trialBorder'><div class='vertical-center'><img src='img/fixation2_sml.jpg'</img></div></div>","null","DELAY","","","","","","","","","","","",""
"html-keyboard-response","27","86954","0.0-5.0-4.4","6400d9235287137e7b62fd29","bdp_wmem","Sat Apr 08 2023 09:14:34 GMT-0700 (Pacific Daylight Time)","538822","Match,No Match","","1036","","","","","","<div class='trialBorder'><div class='targDiv'><div class='tc'><img class='introPic' src='trustrating_stim/white_mw070.bmp'><br><font color='red'><strong>Keep</strong></font></div></div><div class='respDiv'><div class='respDivL'>Match<br>(e)</div><div class='respDivR'>No Match<br>(i)</div></div></div>","e","TARGET","1","trustrating_stim/white_mw070.bmp","0","Match","e","1500","trustrating_stim/white_mw070.bmp","red","Keep","PRACTICE","1",""
"html-keyboard-response","28","87456","0.0-5.0-5.4","6400d9235287137e7b62fd29","bdp_wmem","Sat Apr 08 2023 09:14:34 GMT-0700 (Pacific Daylight Time)","538822","Match,No Match","","null","","","","","","<div class='trialBorder'><div class='vertical-center'><img src='img/correct.jpg'></div><div class='respDiv'><div class='respDivL'><font style='color:orange'>Match<br>(e)</font></div><div class='respDivR'>No Match<br>(i)</div></div></div>","null","FEEDBACK","","","","","","","","","","","",""
"html-keyboard-response","29","87964","0.0-5.0-1.5","6400d9235287137e7b62fd29","bdp_wmem","Sat Apr 08 2023 09:14:34 GMT-0700 (Pacific Daylight Time)","538822","Match,No Match","","null","","","","","","<div class='trialBorder'><div class='vertical-center'><img src='img/fixation2_sml.jpg'</img></div></div>","null","FIX","","","","","","","","","","","",""
"html-keyboard-response","30","89473","0.0-5.0-2.5","6400d9235287137e7b62fd29","bdp_wmem","Sat Apr 08 2023 09:14:34 GMT-0700 (Pacific Daylight Time)","538822","Match,No Match","","null","","","","","","<div class='trialBorder'><div class='vertical-center'><img style='vertical-align:center; align:center' src='img/fixation2_sml.jpg'></div><div class='arrayDiv1'><div class='tc'><img class='introPic' src='trustrating_stim/white_mw010.bmp'><br><font color='red'><strong>Keep</strong></font></div></div></div>","null","ARRAY","1","trustrating_stim/white_mw010.bmp","0","noMatchFace","i","1500","","","","","",""
"html-keyboard-response","31","93476","0.0-5.0-3.5","6400d9235287137e7b62fd29","bdp_wmem","Sat Apr 08 2023 09:14:34 GMT-0700 (Pacific Daylight Time)","538822","Match,No Match","","null","","","","","","<div class='trialBorder'><div class='vertical-center'><img src='img/fixation2_sml.jpg'</img></div></div>","null","DELAY","","","","","","","","","","","",""
"html-keyboard-response","32","94808","0.0-5.0-4.5","6400d9235287137e7b62fd29","bdp_wmem","Sat Apr 08 2023 09:14:34 GMT-0700 (Pacific Daylight Time)","538822","Match,No Match","","1330","","","","","","<div class='trialBorder'><div class='targDiv'><div class='tc'><img class='introPic' src='trustrating_stim/white_mw038.bmp'><br><font color='red'><strong>Keep</strong></font></div></div><div class='respDiv'><div class='respDivL'>Match<br>(e)</div><div class='respDivR'>No Match<br>(i)</div></div></div>","i","TARGET","1","trustrating_stim/white_mw010.bmp","0","noMatchFace","i","1500","trustrating_stim/white_mw038.bmp","red","Keep","PRACTICE","1",""
"html-keyboard-response","33","95313","0.0-5.0-5.5","6400d9235287137e7b62fd29","bdp_wmem","Sat Apr 08 2023 09:14:34 GMT-0700 (Pacific Daylight Time)","538822","Match,No Match","","null","","","","","","<div class='trialBorder'><div class='vertical-center'><img src='img/correct.jpg'></div><div class='respDiv'><div class='respDivL'>Match<br>(e)</div><div class='respDivR'><font style='color:orange'>No Match<br>(i)</font></div></div></div>","null","FEEDBACK","","","","","","","","","","","",""
"instructions","34","99199","0.0-6.0","6400d9235287137e7b62fd29","bdp_wmem","Sat Apr 08 2023 09:14:34 GMT-0700 (Pacific Daylight Time)","538822","Match,No Match","[{""page_index"":0,""viewing_time"":3886}]","3886","","","","","","","","","","","","","","","","","","","",""
"html-keyboard-response","35","99702","0.0-7.0-1.0","6400d9235287137e7b62fd29","bdp_wmem","Sat Apr 08 2023 09:14:34 GMT-0700 (Pacific Daylight Time)","538822","Match,No Match","","null","","","","","","<div class='trialBorder'><div class='vertical-center'><img src='img/fixation2_sml.jpg'</img></div></div>","null","FIX","","","","","","","","","","","",""
"html-keyboard-response","36","104210","0.0-7.0-2.0","6400d9235287137e7b62fd29","bdp_wmem","Sat Apr 08 2023 09:14:34 GMT-0700 (Pacific Daylight Time)","538822","Match,No Match","","null","","","","","","<div class='trialBorder'><div class='vertical-center'><img style='vertical-align:center; align:center' src='img/fixation2_sml.jpg'></div><div class='arrayDiv3'><div class='tl'><img class='introPic' src='trustrating_stim/white_mw042.bmp'><br><font color='red'><strong>Keep</strong></font></div><div class='tc'><img class='introPic' src='trustrating_stim/white_mw092.bmp'><br><font color='green'><strong>Share</strong></font></div><div class='tr'><img class='introPic' src='trustrating_stim/white_mw091.bmp'><br><font color='green'><strong>Share</strong></font></div></div></div>","null","ARRAY","3","trustrating_stim/white_mw042.bmp,trustrating_stim/white_mw092.bmp,trustrating_stim/white_mw091.bmp","0,1,1","noMatchFace","i","4500","","","","","",""
"html-keyboard-response","37","108212","0.0-7.0-3.0","6400d9235287137e7b62fd29","bdp_wmem","Sat Apr 08 2023 09:14:34 GMT-0700 (Pacific Daylight Time)","538822","Match,No Match","","null","","","","","","<div class='trialBorder'><div class='vertical-center'><img src='img/fixation2_sml.jpg'</img></div></div>","null","DELAY","","","","","","","","","","","",""
"html-keyboard-response","38","108880","0.0-7.0-4.0","6400d9235287137e7b62fd29","bdp_wmem","Sat Apr 08 2023 09:14:34 GMT-0700 (Pacific Daylight Time)","538822","Match,No Match","","665","","","","","","<div class='trialBorder'><div class='targDiv'><div class='tc'><img class='introPic' src='trustrating_stim/white_mw038.bmp'><br><font color='green'><strong>Share</strong></font></div></div><div class='respDiv'><div class='respDivL'>Match<br>(e)</div><div class='respDivR'>No Match<br>(i)</div></div></div>","e","TARGET","3","trustrating_stim/white_mw042.bmp,trustrating_stim/white_mw092.bmp,trustrating_stim/white_mw091.bmp","0,1,1","noMatchFace","i","4500","trustrating_stim/white_mw038.bmp","green","Share","REAL","0",""
"html-keyboard-response","39","109385","0.0-7.0-5.0","6400d9235287137e7b62fd29","bdp_wmem","Sat Apr 08 2023 09:14:34 GMT-0700 (Pacific Daylight Time)","538822","Match,No Match","","null","","","","","","<div class='trialBorder'><div class='vertical-center'><img src='img/error.jpg'></div><div class='respDiv'><div class='respDivL'><font style='color:orange'>Match<br>(e)</font></div><div class='respDivR'>No Match<br>(i)</div></div></div>","null","FEEDBACK","","","","","","","","","","","",""
"html-keyboard-response","40","109893","0.0-7.0-1.1","6400d9235287137e7b62fd29","bdp_wmem","Sat Apr 08 2023 09:14:34 GMT-0700 (Pacific Daylight Time)","538822","Match,No Match","","null","","","","","","<div class='trialBorder'><div class='vertical-center'><img src='img/fixation2_sml.jpg'</img></div></div>","null","FIX","","","","","","","","","","","",""
"html-keyboard-response","41","111400","0.0-7.0-2.1","6400d9235287137e7b62fd29","bdp_wmem","Sat Apr 08 2023 09:14:34 GMT-0700 (Pacific Daylight Time)","538822","Match,No Match","","null","","","","","","<div class='trialBorder'><div class='vertical-center'><img style='vertical-align:center; align:center' src='img/fixation2_sml.jpg'></div><div class='arrayDiv1'><div class='tc'><img class='introPic' src='trustrating_stim/white_mw070.bmp'><br><font color='red'><strong>Keep</strong></font></div></div></div>","null","ARRAY","1","trustrating_stim/white_mw070.bmp","0","Match","e","1500","","","","","",""
"html-keyboard-response","42","115409","0.0-7.0-3.1","6400d9235287137e7b62fd29","bdp_wmem","Sat Apr 08 2023 09:14:34 GMT-0700 (Pacific Daylight Time)","538822","Match,No Match","","null","","","","","","<div class='trialBorder'><div class='vertical-center'><img src='img/fixation2_sml.jpg'</img></div></div>","null","DELAY","","","","","","","","","","","",""
"html-keyboard-response","43","115858","0.0-7.0-4.1","6400d9235287137e7b62fd29","bdp_wmem","Sat Apr 08 2023 09:14:34 GMT-0700 (Pacific Daylight Time)","538822","Match,No Match","","447","","","","","","<div class='trialBorder'><div class='targDiv'><div class='tc'><img class='introPic' src='trustrating_stim/white_mw070.bmp'><br><font color='red'><strong>Keep</strong></font></div></div><div class='respDiv'><div class='respDivL'>Match<br>(e)</div><div class='respDivR'>No Match<br>(i)</div></div></div>","i","TARGET","1","trustrating_stim/white_mw070.bmp","0","Match","e","1500","trustrating_stim/white_mw070.bmp","red","Keep","REAL","0",""
"html-keyboard-response","44","116366","0.0-7.0-5.1","6400d9235287137e7b62fd29","bdp_wmem","Sat Apr 08 2023 09:14:34 GMT-0700 (Pacific Daylight Time)","538822","Match,No Match","","null","","","","","","<div class='trialBorder'><div class='vertical-center'><img src='img/error.jpg'></div><div class='respDiv'><div class='respDivL'>Match<br>(e)</div><div class='respDivR'><font style='color:orange'>No Match<br>(i)</font></div></div></div>","null","FEEDBACK","","","","","","","","","","","",""
"html-keyboard-response","45","116874","0.0-7.0-1.2","6400d9235287137e7b62fd29","bdp_wmem","Sat Apr 08 2023 09:14:34 GMT-0700 (Pacific Daylight Time)","538822","Match,No Match","","null","","","","","","<div class='trialBorder'><div class='vertical-center'><img src='img/fixation2_sml.jpg'</img></div></div>","null","FIX","","","","","","","","","","","",""
"html-keyboard-response","46","118384","0.0-7.0-2.2","6400d9235287137e7b62fd29","bdp_wmem","Sat Apr 08 2023 09:14:34 GMT-0700 (Pacific Daylight Time)","538822","Match,No Match","","null","","","","","","<div class='trialBorder'><div class='vertical-center'><img style='vertical-align:center; align:center' src='img/fixation2_sml.jpg'></div><div class='arrayDiv1'><div class='tc'><img class='introPic' src='trustrating_stim/white_mw038.bmp'><br><font color='red'><strong>Keep</strong></font></div></div></div>","null","ARRAY","1","trustrating_stim/white_mw038.bmp","0","Match","e","1500","","","","","",""
"html-keyboard-response","47","122389","0.0-7.0-3.2","6400d9235287137e7b62fd29","bdp_wmem","Sat Apr 08 2023 09:14:34 GMT-0700 (Pacific Daylight Time)","538822","Match,No Match","","null","","","","","","<div class='trialBorder'><div class='vertical-center'><img src='img/fixation2_sml.jpg'</img></div></div>","null","DELAY","","","","","","","","","","","",""
"html-keyboard-response","48","122866","0.0-7.0-4.2","6400d9235287137e7b62fd29","bdp_wmem","Sat Apr 08 2023 09:14:34 GMT-0700 (Pacific Daylight Time)","538822","Match,No Match","","474","","","","","","<div class='trialBorder'><div class='targDiv'><div class='tc'><img class='introPic' src='trustrating_stim/white_mw038.bmp'><br><font color='red'><strong>Keep</strong></font></div></div><div class='respDiv'><div class='respDivL'>Match<br>(e)</div><div class='respDivR'>No Match<br>(i)</div></div></div>","e","TARGET","1","trustrating_stim/white_mw038.bmp","0","Match","e","1500","trustrating_stim/white_mw038.bmp","red","Keep","REAL","1",""
"html-keyboard-response","49","123377","0.0-7.0-5.2","6400d9235287137e7b62fd29","bdp_wmem","Sat Apr 08 2023 09:14:34 GMT-0700 (Pacific Daylight Time)","538822","Match,No Match","","null","","","","","","<div class='trialBorder'><div class='vertical-center'><img src='img/correct.jpg'></div><div class='respDiv'><div class='respDivL'><font style='color:orange'>Match<br>(e)</font></div><div class='respDivR'>No Match<br>(i)</div></div></div>","null","FEEDBACK","","","","","","","","","","","",""
"html-keyboard-response","50","123884","0.0-7.0-1.3","6400d9235287137e7b62fd29","bdp_wmem","Sat Apr 08 2023 09:14:34 GMT-0700 (Pacific Daylight Time)","538822","Match,No Match","","null","","","","","","<div class='trialBorder'><div class='vertical-center'><img src='img/fixation2_sml.jpg'</img></div></div>","null","FIX","","","","","","","","","","","",""
"html-keyboard-response","51","126890","0.0-7.0-2.3","6400d9235287137e7b62fd29","bdp_wmem","Sat Apr 08 2023 09:14:34 GMT-0700 (Pacific Daylight Time)","538822","Match,No Match","","null","","","","","","<div class='trialBorder'><div class='vertical-center'><img style='vertical-align:center; align:center' src='img/fixation2_sml.jpg'></div><div class='arrayDiv2'><div class='tl'><img class='introPic' src='trustrating_stim/white_mw070.bmp'><br><font color='green'><strong>Share</strong></font></div><div class='tr'><img class='introPic' src='trustrating_stim/white_mw012.bmp'><br><font color='red'><strong>Keep</strong></font></div></div></div>","null","ARRAY","2","trustrating_stim/white_mw070.bmp,trustrating_stim/white_mw012.bmp","1,0","noMatchOutcome","i","3000","","","","","",""
"html-keyboard-response","52","130899","0.0-7.0-3.3","6400d9235287137e7b62fd29","bdp_wmem","Sat Apr 08 2023 09:14:34 GMT-0700 (Pacific Daylight Time)","538822","Match,No Match","","null","","","","","","<div class='trialBorder'><div class='vertical-center'><img src='img/fixation2_sml.jpg'</img></div></div>","null","DELAY","","","","","","","","","","","",""
"html-keyboard-response","53","131315","0.0-7.0-4.3","6400d9235287137e7b62fd29","bdp_wmem","Sat Apr 08 2023 09:14:34 GMT-0700 (Pacific Daylight Time)","538822","Match,No Match","","414","","","","","","<div class='trialBorder'><div class='targDiv'><div class='tc'><img class='introPic' src='trustrating_stim/white_mw070.bmp'><br><font color='red'><strong>Keep</strong></font></div></div><div class='respDiv'><div class='respDivL'>Match<br>(e)</div><div class='respDivR'>No Match<br>(i)</div></div></div>","e","TARGET","2","trustrating_stim/white_mw070.bmp,trustrating_stim/white_mw012.bmp","1,0","noMatchOutcome","i","3000","trustrating_stim/white_mw070.bmp","red","Keep","REAL","0",""
"html-keyboard-response","54","131823","0.0-7.0-5.3","6400d9235287137e7b62fd29","bdp_wmem","Sat Apr 08 2023 09:14:34 GMT-0700 (Pacific Daylight Time)","538822","Match,No Match","","null","","","","","","<div class='trialBorder'><div class='vertical-center'><img src='img/error.jpg'></div><div class='respDiv'><div class='respDivL'><font style='color:orange'>Match<br>(e)</font></div><div class='respDivR'>No Match<br>(i)</div></div></div>","null","FEEDBACK","","","","","","","","","","","",""
"html-keyboard-response","55","132330","0.0-7.0-1.4","6400d9235287137e7b62fd29","bdp_wmem","Sat Apr 08 2023 09:14:34 GMT-0700 (Pacific Daylight Time)","538822","Match,No Match","","null","","","","","","<div class='trialBorder'><div class='vertical-center'><img src='img/fixation2_sml.jpg'</img></div></div>","null","FIX","","","","","","","","","","","",""
"html-keyboard-response","56","136834","0.0-7.0-2.4","6400d9235287137e7b62fd29","bdp_wmem","Sat Apr 08 2023 09:14:34 GMT-0700 (Pacific Daylight Time)","538822","Match,No Match","","null","","","","","","<div class='trialBorder'><div class='vertical-center'><img style='vertical-align:center; align:center' src='img/fixation2_sml.jpg'></div><div class='arrayDiv3'><div class='tl'><img class='introPic' src='trustrating_stim/white_mw040.bmp'><br><font color='red'><strong>Keep</strong></font></div><div class='tc'><img class='introPic' src='trustrating_stim/white_mw091.bmp'><br><font color='red'><strong>Keep</strong></font></div><div class='tr'><img class='introPic' src='trustrating_stim/white_mw085.bmp'><br><font color='green'><strong>Share</strong></font></div></div></div>","null","ARRAY","3","trustrating_stim/white_mw040.bmp,trustrating_stim/white_mw091.bmp,trustrating_stim/white_mw085.bmp","0,0,1","noMatchOutcome","i","4500","","","","","",""
"html-keyboard-response","57","140836","0.0-7.0-3.4","6400d9235287137e7b62fd29","bdp_wmem","Sat Apr 08 2023 09:14:34 GMT-0700 (Pacific Daylight Time)","538822","Match,No Match","","null","","","","","","<div class='trialBorder'><div class='vertical-center'><img src='img/fixation2_sml.jpg'</img></div></div>","null","DELAY","","","","","","","","","","","",""
"html-keyboard-response","58","141277","0.0-7.0-4.4","6400d9235287137e7b62fd29","bdp_wmem","Sat Apr 08 2023 09:14:34 GMT-0700 (Pacific Daylight Time)","538822","Match,No Match","","438","","","","","","<div class='trialBorder'><div class='targDiv'><div class='tc'><img class='introPic' src='trustrating_stim/white_mw091.bmp'><br><font color='green'><strong>Share</strong></font></div></div><div class='respDiv'><div class='respDivL'>Match<br>(e)</div><div class='respDivR'>No Match<br>(i)</div></div></div>","i","TARGET","3","trustrating_stim/white_mw040.bmp,trustrating_stim/white_mw091.bmp,trustrating_stim/white_mw085.bmp","0,0,1","noMatchOutcome","i","4500","trustrating_stim/white_mw091.bmp","green","Share","REAL","1",""
"html-keyboard-response","59","141786","0.0-7.0-5.4","6400d9235287137e7b62fd29","bdp_wmem","Sat Apr 08 2023 09:14:34 GMT-0700 (Pacific Daylight Time)","538822","Match,No Match","","null","","","","","","<div class='trialBorder'><div class='vertical-center'><img src='img/correct.jpg'></div><div class='respDiv'><div class='respDivL'>Match<br>(e)</div><div class='respDivR'><font style='color:orange'>No Match<br>(i)</font></div></div></div>","null","FEEDBACK","","","","","","","","","","","",""
"html-keyboard-response","60","142292","0.0-7.0-1.5","6400d9235287137e7b62fd29","bdp_wmem","Sat Apr 08 2023 09:14:34 GMT-0700 (Pacific Daylight Time)","538822","Match,No Match","","null","","","","","","<div class='trialBorder'><div class='vertical-center'><img src='img/fixation2_sml.jpg'</img></div></div>","null","FIX","","","","","","","","","","","",""
"html-keyboard-response","61","145296","0.0-7.0-2.5","6400d9235287137e7b62fd29","bdp_wmem","Sat Apr 08 2023 09:14:34 GMT-0700 (Pacific Daylight Time)","538822","Match,No Match","","null","","","","","","<div class='trialBorder'><div class='vertical-center'><img style='vertical-align:center; align:center' src='img/fixation2_sml.jpg'></div><div class='arrayDiv2'><div class='tl'><img class='introPic' src='trustrating_stim/white_mw085.bmp'><br><font color='green'><strong>Share</strong></font></div><div class='tr'><img class='introPic' src='trustrating_stim/white_mw010.bmp'><br><font color='red'><strong>Keep</strong></font></div></div></div>","null","ARRAY","2","trustrating_stim/white_mw085.bmp,trustrating_stim/white_mw010.bmp","1,0","noMatchOutcome","i","3000","","","","","",""
"html-keyboard-response","62","149303","0.0-7.0-3.5","6400d9235287137e7b62fd29","bdp_wmem","Sat Apr 08 2023 09:14:34 GMT-0700 (Pacific Daylight Time)","538822","Match,No Match","","null","","","","","","<div class='trialBorder'><div class='vertical-center'><img src='img/fixation2_sml.jpg'</img></div></div>","null","DELAY","","","","","","","","","","","",""
"html-keyboard-response","63","149606","0.0-7.0-4.5","6400d9235287137e7b62fd29","bdp_wmem","Sat Apr 08 2023 09:14:34 GMT-0700 (Pacific Daylight Time)","538822","Match,No Match","","300","","","","","","<div class='trialBorder'><div class='targDiv'><div class='tc'><img class='introPic' src='trustrating_stim/white_mw085.bmp'><br><font color='red'><strong>Keep</strong></font></div></div><div class='respDiv'><div class='respDivL'>Match<br>(e)</div><div class='respDivR'>No Match<br>(i)</div></div></div>","e","TARGET","2","trustrating_stim/white_mw085.bmp,trustrating_stim/white_mw010.bmp","1,0","noMatchOutcome","i","3000","trustrating_stim/white_mw085.bmp","red","Keep","REAL","0",""
"html-keyboard-response","64","150112","0.0-7.0-5.5","6400d9235287137e7b62fd29","bdp_wmem","Sat Apr 08 2023 09:14:34 GMT-0700 (Pacific Daylight Time)","538822","Match,No Match","","null","","","","","","<div class='trialBorder'><div class='vertical-center'><img src='img/error.jpg'></div><div class='respDiv'><div class='respDivL'><font style='color:orange'>Match<br>(e)</font></div><div class='respDivR'>No Match<br>(i)</div></div></div>","null","FEEDBACK","","","","","","","","","","","",""
"html-keyboard-response","65","150620","0.0-7.0-1.6","6400d9235287137e7b62fd29","bdp_wmem","Sat Apr 08 2023 09:14:34 GMT-0700 (Pacific Daylight Time)","538822","Match,No Match","","null","","","","","","<div class='trialBorder'><div class='vertical-center'><img src='img/fixation2_sml.jpg'</img></div></div>","null","FIX","","","","","","","","","","","",""
"html-keyboard-response","66","152128","0.0-7.0-2.6","6400d9235287137e7b62fd29","bdp_wmem","Sat Apr 08 2023 09:14:34 GMT-0700 (Pacific Daylight Time)","538822","Match,No Match","","null","","","","","","<div class='trialBorder'><div class='vertical-center'><img style='vertical-align:center; align:center' src='img/fixation2_sml.jpg'></div><div class='arrayDiv1'><div class='tc'><img class='introPic' src='trustrating_stim/white_mw012.bmp'><br><font color='green'><strong>Share</strong></font></div></div></div>","null","ARRAY","1","trustrating_stim/white_mw012.bmp","1","noMatchFace","i","1500","","","","","",""
"html-keyboard-response","67","156135","0.0-7.0-3.6","6400d9235287137e7b62fd29","bdp_wmem","Sat Apr 08 2023 09:14:34 GMT-0700 (Pacific Daylight Time)","538822","Match,No Match","","null","","","","","","<div class='trialBorder'><div class='vertical-center'><img src='img/fixation2_sml.jpg'</img></div></div>","null","DELAY","","","","","","","","","","","",""
"html-keyboard-response","68","156170","0.0-7.0-4.6","6400d9235287137e7b62fd29","bdp_wmem","Sat Apr 08 2023 09:14:34 GMT-0700 (Pacific Daylight Time)","538822","Match,No Match","","33","","","","","","<div class='trialBorder'><div class='targDiv'><div class='tc'><img class='introPic' src='trustrating_stim/white_mw010.bmp'><br><font color='green'><strong>Share</strong></font></div></div><div class='respDiv'><div class='respDivL'>Match<br>(e)</div><div class='respDivR'>No Match<br>(i)</div></div></div>","i","TARGET","1","trustrating_stim/white_mw012.bmp","1","noMatchFace","i","1500","trustrating_stim/white_mw010.bmp","green","Share","REAL","1",""
"html-keyboard-response","69","156678","0.0-7.0-5.6","6400d9235287137e7b62fd29","bdp_wmem","Sat Apr 08 2023 09:14:34 GMT-0700 (Pacific Daylight Time)","538822","Match,No Match","","null","","","","","","<div class='trialBorder'><div class='vertical-center'><img src='img/correct.jpg'></div><div class='respDiv'><div class='respDivL'>Match<br>(e)</div><div class='respDivR'><font style='color:orange'>No Match<br>(i)</font></div></div></div>","null","FEEDBACK","","","","","","","","","","","",""
"html-keyboard-response","70","157185","0.0-7.0-1.7","6400d9235287137e7b62fd29","bdp_wmem","Sat Apr 08 2023 09:14:34 GMT-0700 (Pacific Daylight Time)","538822","Match,No Match","","null","","","","","","<div class='trialBorder'><div class='vertical-center'><img src='img/fixation2_sml.jpg'</img></div></div>","null","FIX","","","","","","","","","","","",""
"html-keyboard-response","71","161694","0.0-7.0-2.7","6400d9235287137e7b62fd29","bdp_wmem","Sat Apr 08 2023 09:14:34 GMT-0700 (Pacific Daylight Time)","538822","Match,No Match","","null","","","","","","<div class='trialBorder'><div class='vertical-center'><img style='vertical-align:center; align:center' src='img/fixation2_sml.jpg'></div><div class='arrayDiv3'><div class='tl'><img class='introPic' src='trustrating_stim/white_mw040.bmp'><br><font color='green'><strong>Share</strong></font></div><div class='tc'><img class='introPic' src='trustrating_stim/white_mw091.bmp'><br><font color='green'><strong>Share</strong></font></div><div class='tr'><img class='introPic' src='trustrating_stim/white_mw012.bmp'><br><font color='red'><strong>Keep</strong></font></div></div></div>","null","ARRAY","3","trustrating_stim/white_mw040.bmp,trustrating_stim/white_mw091.bmp,trustrating_stim/white_mw012.bmp","1,1,0","Match","e","4500","","","","","",""
"html-keyboard-response","72","165701","0.0-7.0-3.7","6400d9235287137e7b62fd29","bdp_wmem","Sat Apr 08 2023 09:14:34 GMT-0700 (Pacific Daylight Time)","538822","Match,No Match","","null","","","","","","<div class='trialBorder'><div class='vertical-center'><img src='img/fixation2_sml.jpg'</img></div></div>","null","DELAY","","","","","","","","","","","",""
"html-keyboard-response","73","166041","0.0-7.0-4.7","6400d9235287137e7b62fd29","bdp_wmem","Sat Apr 08 2023 09:14:34 GMT-0700 (Pacific Daylight Time)","538822","Match,No Match","","337","","","","","","<div class='trialBorder'><div class='targDiv'><div class='tc'><img class='introPic' src='trustrating_stim/white_mw091.bmp'><br><font color='green'><strong>Share</strong></font></div></div><div class='respDiv'><div class='respDivL'>Match<br>(e)</div><div class='respDivR'>No Match<br>(i)</div></div></div>","i","TARGET","3","trustrating_stim/white_mw040.bmp,trustrating_stim/white_mw091.bmp,trustrating_stim/white_mw012.bmp","1,1,0","Match","e","4500","trustrating_stim/white_mw091.bmp","green","Share","REAL","0",""
"html-keyboard-response","74","166547","0.0-7.0-5.7","6400d9235287137e7b62fd29","bdp_wmem","Sat Apr 08 2023 09:14:34 GMT-0700 (Pacific Daylight Time)","538822","Match,No Match","","null","","","","","","<div class='trialBorder'><div class='vertical-center'><img src='img/error.jpg'></div><div class='respDiv'><div class='respDivL'>Match<br>(e)</div><div class='respDivR'><font style='color:orange'>No Match<br>(i)</font></div></div></div>","null","FEEDBACK","","","","","","","","","","","",""
"html-keyboard-response","75","167051","0.0-7.0-1.8","6400d9235287137e7b62fd29","bdp_wmem","Sat Apr 08 2023 09:14:34 GMT-0700 (Pacific Daylight Time)","538822","Match,No Match","","null","","","","","","<div class='trialBorder'><div class='vertical-center'><img src='img/fixation2_sml.jpg'</img></div></div>","null","FIX","","","","","","","","","","","",""
"html-keyboard-response","76","171558","0.0-7.0-2.8","6400d9235287137e7b62fd29","bdp_wmem","Sat Apr 08 2023 09:14:34 GMT-0700 (Pacific Daylight Time)","538822","Match,No Match","","null","","","","","","<div class='trialBorder'><div class='vertical-center'><img style='vertical-align:center; align:center' src='img/fixation2_sml.jpg'></div><div class='arrayDiv3'><div class='tl'><img class='introPic' src='trustrating_stim/white_mw003.bmp'><br><font color='green'><strong>Share</strong></font></div><div class='tc'><img class='introPic' src='trustrating_stim/white_mw042.bmp'><br><font color='red'><strong>Keep</strong></font></div><div class='tr'><img class='introPic' src='trustrating_stim/white_mw091.bmp'><br><font color='red'><strong>Keep</strong></font></div></div></div>","null","ARRAY","3","trustrating_stim/white_mw003.bmp,trustrating_stim/white_mw042.bmp,trustrating_stim/white_mw091.bmp","1,0,0","Match","e","4500","","","","","",""
"html-keyboard-response","77","175565","0.0-7.0-3.8","6400d9235287137e7b62fd29","bdp_wmem","Sat Apr 08 2023 09:14:34 GMT-0700 (Pacific Daylight Time)","538822","Match,No Match","","null","","","","","","<div class='trialBorder'><div class='vertical-center'><img src='img/fixation2_sml.jpg'</img></div></div>","null","DELAY","","","","","","","","","","","",""
"html-keyboard-response","78","176510","0.0-7.0-4.8","6400d9235287137e7b62fd29","bdp_wmem","Sat Apr 08 2023 09:14:34 GMT-0700 (Pacific Daylight Time)","538822","Match,No Match","","942","","","","","","<div class='trialBorder'><div class='targDiv'><div class='tc'><img class='introPic' src='trustrating_stim/white_mw042.bmp'><br><font color='red'><strong>Keep</strong></font></div></div><div class='respDiv'><div class='respDivL'>Match<br>(e)</div><div class='respDivR'>No Match<br>(i)</div></div></div>","e","TARGET","3","trustrating_stim/white_mw003.bmp,trustrating_stim/white_mw042.bmp,trustrating_stim/white_mw091.bmp","1,0,0","Match","e","4500","trustrating_stim/white_mw042.bmp","red","Keep","REAL","1",""
"html-keyboard-response","79","177016","0.0-7.0-5.8","6400d9235287137e7b62fd29","bdp_wmem","Sat Apr 08 2023 09:14:34 GMT-0700 (Pacific Daylight Time)","538822","Match,No Match","","null","","","","","","<div class='trialBorder'><div class='vertical-center'><img src='img/correct.jpg'></div><div class='respDiv'><div class='respDivL'><font style='color:orange'>Match<br>(e)</font></div><div class='respDivR'>No Match<br>(i)</div></div></div>","null","FEEDBACK","","","","","","","","","","","",""
"html-keyboard-response","80","177524","0.0-7.0-1.9","6400d9235287137e7b62fd29","bdp_wmem","Sat Apr 08 2023 09:14:34 GMT-0700 (Pacific Daylight Time)","538822","Match,No Match","","null","","","","","","<div class='trialBorder'><div class='vertical-center'><img src='img/fixation2_sml.jpg'</img></div></div>","null","FIX","","","","","","","","","","","",""
"html-keyboard-response","81","179032","0.0-7.0-2.9","6400d9235287137e7b62fd29","bdp_wmem","Sat Apr 08 2023 09:14:34 GMT-0700 (Pacific Daylight Time)","538822","Match,No Match","","null","","","","","","<div class='trialBorder'><div class='vertical-center'><img style='vertical-align:center; align:center' src='img/fixation2_sml.jpg'></div><div class='arrayDiv1'><div class='tc'><img class='introPic' src='trustrating_stim/white_mw010.bmp'><br><font color='green'><strong>Share</strong></font></div></div></div>","null","ARRAY","1","trustrating_stim/white_mw010.bmp","1","noMatchFace","i","1500","","","","","",""
"html-keyboard-response","82","183040","0.0-7.0-3.9","6400d9235287137e7b62fd29","bdp_wmem","Sat Apr 08 2023 09:14:34 GMT-0700 (Pacific Daylight Time)","538822","Match,No Match","","null","","","","","","<div class='trialBorder'><div class='vertical-center'><img src='img/fixation2_sml.jpg'</img></div></div>","null","DELAY","","","","","","","","","","","",""
"html-keyboard-response","83","184187","0.0-7.0-4.9","6400d9235287137e7b62fd29","bdp_wmem","Sat Apr 08 2023 09:14:34 GMT-0700 (Pacific Daylight Time)","538822","Match,No Match","","1145","","","","","","<div class='trialBorder'><div class='targDiv'><div class='tc'><img class='introPic' src='trustrating_stim/white_mw078.bmp'><br><font color='green'><strong>Share</strong></font></div></div><div class='respDiv'><div class='respDivL'>Match<br>(e)</div><div class='respDivR'>No Match<br>(i)</div></div></div>","i","TARGET","1","trustrating_stim/white_mw010.bmp","1","noMatchFace","i","1500","trustrating_stim/white_mw078.bmp","green","Share","REAL","1",""
"html-keyboard-response","84","184690","0.0-7.0-5.9","6400d9235287137e7b62fd29","bdp_wmem","Sat Apr 08 2023 09:14:34 GMT-0700 (Pacific Daylight Time)","538822","Match,No Match","","null","","","","","","<div class='trialBorder'><div class='vertical-center'><img src='img/correct.jpg'></div><div class='respDiv'><div class='respDivL'>Match<br>(e)</div><div class='respDivR'><font style='color:orange'>No Match<br>(i)</font></div></div></div>","null","FEEDBACK","","","","","","","","","","","",""
"html-keyboard-response","85","185197","0.0-7.0-1.10","6400d9235287137e7b62fd29","bdp_wmem","Sat Apr 08 2023 09:14:34 GMT-0700 (Pacific Daylight Time)","538822","Match,No Match","","null","","","","","","<div class='trialBorder'><div class='vertical-center'><img src='img/fixation2_sml.jpg'</img></div></div>","null","FIX","","","","","","","","","","","",""
"html-keyboard-response","86","189709","0.0-7.0-2.10","6400d9235287137e7b62fd29","bdp_wmem","Sat Apr 08 2023 09:14:34 GMT-0700 (Pacific Daylight Time)","538822","Match,No Match","","null","","","","","","<div class='trialBorder'><div class='vertical-center'><img style='vertical-align:center; align:center' src='img/fixation2_sml.jpg'></div><div class='arrayDiv3'><div class='tl'><img class='introPic' src='trustrating_stim/white_mw070.bmp'><br><font color='red'><strong>Keep</strong></font></div><div class='tc'><img class='introPic' src='trustrating_stim/white_mw012.bmp'><br><font color='green'><strong>Share</strong></font></div><div class='tr'><img class='introPic' src='trustrating_stim/white_mw038.bmp'><br><font color='green'><strong>Share</strong></font></div></div></div>","null","ARRAY","3","trustrating_stim/white_mw070.bmp,trustrating_stim/white_mw012.bmp,trustrating_stim/white_mw038.bmp","0,1,1","Match","e","4500","","","","","",""
"html-keyboard-response","87","193711","0.0-7.0-3.10","6400d9235287137e7b62fd29","bdp_wmem","Sat Apr 08 2023 09:14:34 GMT-0700 (Pacific Daylight Time)","538822","Match,No Match","","null","","","","","","<div class='trialBorder'><div class='vertical-center'><img src='img/fixation2_sml.jpg'</img></div></div>","null","DELAY","","","","","","","","","","","",""
"html-keyboard-response","88","194580","0.0-7.0-4.10","6400d9235287137e7b62fd29","bdp_wmem","Sat Apr 08 2023 09:14:34 GMT-0700 (Pacific Daylight Time)","538822","Match,No Match","","867","","","","","","<div class='trialBorder'><div class='targDiv'><div class='tc'><img class='introPic' src='trustrating_stim/white_mw070.bmp'><br><font color='red'><strong>Keep</strong></font></div></div><div class='respDiv'><div class='respDivL'>Match<br>(e)</div><div class='respDivR'>No Match<br>(i)</div></div></div>","e","TARGET","3","trustrating_stim/white_mw070.bmp,trustrating_stim/white_mw012.bmp,trustrating_stim/white_mw038.bmp","0,1,1","Match","e","4500","trustrating_stim/white_mw070.bmp","red","Keep","REAL","1",""
"html-keyboard-response","89","195089","0.0-7.0-5.10","6400d9235287137e7b62fd29","bdp_wmem","Sat Apr 08 2023 09:14:34 GMT-0700 (Pacific Daylight Time)","538822","Match,No Match","","null","","","","","","<div class='trialBorder'><div class='vertical-center'><img src='img/correct.jpg'></div><div class='respDiv'><div class='respDivL'><font style='color:orange'>Match<br>(e)</font></div><div class='respDivR'>No Match<br>(i)</div></div></div>","null","FEEDBACK","","","","","","","","","","","",""
"html-keyboard-response","90","195596","0.0-7.0-1.11","6400d9235287137e7b62fd29","bdp_wmem","Sat Apr 08 2023 09:14:34 GMT-0700 (Pacific Daylight Time)","538822","Match,No Match","","null","","","","","","<div class='trialBorder'><div class='vertical-center'><img src='img/fixation2_sml.jpg'</img></div></div>","null","FIX","","","","","","","","","","","",""
"html-keyboard-response","91","198605","0.0-7.0-2.11","6400d9235287137e7b62fd29","bdp_wmem","Sat Apr 08 2023 09:14:34 GMT-0700 (Pacific Daylight Time)","538822","Match,No Match","","null","","","","","","<div class='trialBorder'><div class='vertical-center'><img style='vertical-align:center; align:center' src='img/fixation2_sml.jpg'></div><div class='arrayDiv2'><div class='tl'><img class='introPic' src='trustrating_stim/white_mw012.bmp'><br><font color='red'><strong>Keep</strong></font></div><div class='tr'><img class='introPic' src='trustrating_stim/white_mw078.bmp'><br><font color='green'><strong>Share</strong></font></div></div></div>","null","ARRAY","2","trustrating_stim/white_mw012.bmp,trustrating_stim/white_mw078.bmp","0,1","noMatchFace","i","3000","","","","","",""
"html-keyboard-response","92","202612","0.0-7.0-3.11","6400d9235287137e7b62fd29","bdp_wmem","Sat Apr 08 2023 09:14:34 GMT-0700 (Pacific Daylight Time)","538822","Match,No Match","","null","","","","","","<div class='trialBorder'><div class='vertical-center'><img src='img/fixation2_sml.jpg'</img></div></div>","null","DELAY","","","","","","","","","","","",""
"html-keyboard-response","93","203809","0.0-7.0-4.11","6400d9235287137e7b62fd29","bdp_wmem","Sat Apr 08 2023 09:14:34 GMT-0700 (Pacific Daylight Time)","538822","Match,No Match","","1194","","","","","","<div class='trialBorder'><div class='targDiv'><div class='tc'><img class='introPic' src='trustrating_stim/white_mw038.bmp'><br><font color='red'><strong>Keep</strong></font></div></div><div class='respDiv'><div class='respDivL'>Match<br>(e)</div><div class='respDivR'>No Match<br>(i)</div></div></div>","e","TARGET","2","trustrating_stim/white_mw012.bmp,trustrating_stim/white_mw078.bmp","0,1","noMatchFace","i","3000","trustrating_stim/white_mw038.bmp","red","Keep","REAL","0",""
"html-keyboard-response","94","204312","0.0-7.0-5.11","6400d9235287137e7b62fd29","bdp_wmem","Sat Apr 08 2023 09:14:34 GMT-0700 (Pacific Daylight Time)","538822","Match,No Match","","null","","","","","","<div class='trialBorder'><div class='vertical-center'><img src='img/error.jpg'></div><div class='respDiv'><div class='respDivL'><font style='color:orange'>Match<br>(e)</font></div><div class='respDivR'>No Match<br>(i)</div></div></div>","null","FEEDBACK","","","","","","","","","","","",""
"html-keyboard-response","95","204821","0.0-7.0-1.12","6400d9235287137e7b62fd29","bdp_wmem","Sat Apr 08 2023 09:14:34 GMT-0700 (Pacific Daylight Time)","538822","Match,No Match","","null","","","","","","<div class='trialBorder'><div class='vertical-center'><img src='img/fixation2_sml.jpg'</img></div></div>","null","FIX","","","","","","","","","","","",""
"html-keyboard-response","96","206324","0.0-7.0-2.12","6400d9235287137e7b62fd29","bdp_wmem","Sat Apr 08 2023 09:14:34 GMT-0700 (Pacific Daylight Time)","538822","Match,No Match","","null","","","","","","<div class='trialBorder'><div class='vertical-center'><img style='vertical-align:center; align:center' src='img/fixation2_sml.jpg'></div><div class='arrayDiv1'><div class='tc'><img class='introPic' src='trustrating_stim/white_mw010.bmp'><br><font color='red'><strong>Keep</strong></font></div></div></div>","null","ARRAY","1","trustrating_stim/white_mw010.bmp","0","noMatchFace","i","1500","","","","","",""
"html-keyboard-response","97","210328","0.0-7.0-3.12","6400d9235287137e7b62fd29","bdp_wmem","Sat Apr 08 2023 09:14:34 GMT-0700 (Pacific Daylight Time)","538822","Match,No Match","","null","","","","","","<div class='trialBorder'><div class='vertical-center'><img src='img/fixation2_sml.jpg'</img></div></div>","null","DELAY","","","","","","","","","","","",""
"html-keyboard-response","98","210919","0.0-7.0-4.12","6400d9235287137e7b62fd29","bdp_wmem","Sat Apr 08 2023 09:14:34 GMT-0700 (Pacific Daylight Time)","538822","Match,No Match","","588","","","","","","<div class='trialBorder'><div class='targDiv'><div class='tc'><img class='introPic' src='trustrating_stim/white_mw070.bmp'><br><font color='red'><strong>Keep</strong></font></div></div><div class='respDiv'><div class='respDivL'>Match<br>(e)</div><div class='respDivR'>No Match<br>(i)</div></div></div>","i","TARGET","1","trustrating_stim/white_mw010.bmp","0","noMatchFace","i","1500","trustrating_stim/white_mw070.bmp","red","Keep","REAL","1",""
"html-keyboard-response","99","211429","0.0-7.0-5.12","6400d9235287137e7b62fd29","bdp_wmem","Sat Apr 08 2023 09:14:34 GMT-0700 (Pacific Daylight Time)","538822","Match,No Match","","null","","","","","","<div class='trialBorder'><div class='vertical-center'><img src='img/correct.jpg'></div><div class='respDiv'><div class='respDivL'>Match<br>(e)</div><div class='respDivR'><font style='color:orange'>No Match<br>(i)</font></div></div></div>","null","FEEDBACK","","","","","","","","","","","",""
"html-keyboard-response","100","211935","0.0-7.0-1.13","6400d9235287137e7b62fd29","bdp_wmem","Sat Apr 08 2023 09:14:34 GMT-0700 (Pacific Daylight Time)","538822","Match,No Match","","null","","","","","","<div class='trialBorder'><div class='vertical-center'><img src='img/fixation2_sml.jpg'</img></div></div>","null","FIX","","","","","","","","","","","",""
"html-keyboard-response","101","214944","0.0-7.0-2.13","6400d9235287137e7b62fd29","bdp_wmem","Sat Apr 08 2023 09:14:34 GMT-0700 (Pacific Daylight Time)","538822","Match,No Match","","null","","","","","","<div class='trialBorder'><div class='vertical-center'><img style='vertical-align:center; align:center' src='img/fixation2_sml.jpg'></div><div class='arrayDiv2'><div class='tl'><img class='introPic' src='trustrating_stim/white_mw010.bmp'><br><font color='red'><strong>Keep</strong></font></div><div class='tr'><img class='introPic' src='trustrating_stim/white_mw012.bmp'><br><font color='green'><strong>Share</strong></font></div></div></div>","null","ARRAY","2","trustrating_stim/white_mw010.bmp,trustrating_stim/white_mw012.bmp","0,1","Match","e","3000","","","","","",""
"html-keyboard-response","102","218950","0.0-7.0-3.13","6400d9235287137e7b62fd29","bdp_wmem","Sat Apr 08 2023 09:14:34 GMT-0700 (Pacific Daylight Time)","538822","Match,No Match","","null","","","","","","<div class='trialBorder'><div class='vertical-center'><img src='img/fixation2_sml.jpg'</img></div></div>","null","DELAY","","","","","","","","","","","",""
"html-keyboard-response","103","220247","0.0-7.0-4.13","6400d9235287137e7b62fd29","bdp_wmem","Sat Apr 08 2023 09:14:34 GMT-0700 (Pacific Daylight Time)","538822","Match,No Match","","1294","","","","","","<div class='trialBorder'><div class='targDiv'><div class='tc'><img class='introPic' src='trustrating_stim/white_mw012.bmp'><br><font color='green'><strong>Share</strong></font></div></div><div class='respDiv'><div class='respDivL'>Match<br>(e)</div><div class='respDivR'>No Match<br>(i)</div></div></div>","e","TARGET","2","trustrating_stim/white_mw010.bmp,trustrating_stim/white_mw012.bmp","0,1","Match","e","3000","trustrating_stim/white_mw012.bmp","green","Share","REAL","1",""
"html-keyboard-response","104","220752","0.0-7.0-5.13","6400d9235287137e7b62fd29","bdp_wmem","Sat Apr 08 2023 09:14:34 GMT-0700 (Pacific Daylight Time)","538822","Match,No Match","","null","","","","","","<div class='trialBorder'><div class='vertical-center'><img src='img/correct.jpg'></div><div class='respDiv'><div class='respDivL'><font style='color:orange'>Match<br>(e)</font></div><div class='respDivR'>No Match<br>(i)</div></div></div>","null","FEEDBACK","","","","","","","","","","","",""
"html-keyboard-response","105","221259","0.0-7.0-1.14","6400d9235287137e7b62fd29","bdp_wmem","Sat Apr 08 2023 09:14:34 GMT-0700 (Pacific Daylight Time)","538822","Match,No Match","","null","","","","","","<div class='trialBorder'><div class='vertical-center'><img src='img/fixation2_sml.jpg'</img></div></div>","null","FIX","","","","","","","","","","","",""
"html-keyboard-response","106","224263","0.0-7.0-2.14","6400d9235287137e7b62fd29","bdp_wmem","Sat Apr 08 2023 09:14:34 GMT-0700 (Pacific Daylight Time)","538822","Match,No Match","","null","","","","","","<div class='trialBorder'><div class='vertical-center'><img style='vertical-align:center; align:center' src='img/fixation2_sml.jpg'></div><div class='arrayDiv2'><div class='tl'><img class='introPic' src='trustrating_stim/white_mw040.bmp'><br><font color='red'><strong>Keep</strong></font></div><div class='tr'><img class='introPic' src='trustrating_stim/white_mw003.bmp'><br><font color='green'><strong>Share</strong></font></div></div></div>","null","ARRAY","2","trustrating_stim/white_mw040.bmp,trustrating_stim/white_mw003.bmp","0,1","noMatchOutcome","i","3000","","","","","",""
"html-keyboard-response","107","228266","0.0-7.0-3.14","6400d9235287137e7b62fd29","bdp_wmem","Sat Apr 08 2023 09:14:34 GMT-0700 (Pacific Daylight Time)","538822","Match,No Match","","null","","","","","","<div class='trialBorder'><div class='vertical-center'><img src='img/fixation2_sml.jpg'</img></div></div>","null","DELAY","","","","","","","","","","","",""
"html-keyboard-response","108","228846","0.0-7.0-4.14","6400d9235287137e7b62fd29","bdp_wmem","Sat Apr 08 2023 09:14:34 GMT-0700 (Pacific Daylight Time)","538822","Match,No Match","","578","","","","","","<div class='trialBorder'><div class='targDiv'><div class='tc'><img class='introPic' src='trustrating_stim/white_mw003.bmp'><br><font color='red'><strong>Keep</strong></font></div></div><div class='respDiv'><div class='respDivL'>Match<br>(e)</div><div class='respDivR'>No Match<br>(i)</div></div></div>","i","TARGET","2","trustrating_stim/white_mw040.bmp,trustrating_stim/white_mw003.bmp","0,1","noMatchOutcome","i","3000","trustrating_stim/white_mw003.bmp","red","Keep","REAL","1",""
"html-keyboard-response","109","229350","0.0-7.0-5.14","6400d9235287137e7b62fd29","bdp_wmem","Sat Apr 08 2023 09:14:34 GMT-0700 (Pacific Daylight Time)","538822","Match,No Match","","null","","","","","","<div class='trialBorder'><div class='vertical-center'><img src='img/correct.jpg'></div><div class='respDiv'><div class='respDivL'>Match<br>(e)</div><div class='respDivR'><font style='color:orange'>No Match<br>(i)</font></div></div></div>","null","FEEDBACK","","","","","","","","","","","",""
"html-keyboard-response","110","229861","0.0-7.0-1.15","6400d9235287137e7b62fd29","bdp_wmem","Sat Apr 08 2023 09:14:34 GMT-0700 (Pacific Daylight Time)","538822","Match,No Match","","null","","","","","","<div class='trialBorder'><div class='vertical-center'><img src='img/fixation2_sml.jpg'</img></div></div>","null","FIX","","","","","","","","","","","",""
"html-keyboard-response","111","231366","0.0-7.0-2.15","6400d9235287137e7b62fd29","bdp_wmem","Sat Apr 08 2023 09:14:34 GMT-0700 (Pacific Daylight Time)","538822","Match,No Match","","null","","","","","","<div class='trialBorder'><div class='vertical-center'><img style='vertical-align:center; align:center' src='img/fixation2_sml.jpg'></div><div class='arrayDiv1'><div class='tc'><img class='introPic' src='trustrating_stim/white_mw085.bmp'><br><font color='green'><strong>Share</strong></font></div></div></div>","null","ARRAY","1","trustrating_stim/white_mw085.bmp","1","Match","e","1500","","","","","",""
"html-keyboard-response","112","235368","0.0-7.0-3.15","6400d9235287137e7b62fd29","bdp_wmem","Sat Apr 08 2023 09:14:34 GMT-0700 (Pacific Daylight Time)","538822","Match,No Match","","null","","","","","","<div class='trialBorder'><div class='vertical-center'><img src='img/fixation2_sml.jpg'</img></div></div>","null","DELAY","","","","","","","","","","","",""
"html-keyboard-response","113","236252","0.0-7.0-4.15","6400d9235287137e7b62fd29","bdp_wmem","Sat Apr 08 2023 09:14:34 GMT-0700 (Pacific Daylight Time)","538822","Match,No Match","","883","","","","","","<div class='trialBorder'><div class='targDiv'><div class='tc'><img class='introPic' src='trustrating_stim/white_mw085.bmp'><br><font color='green'><strong>Share</strong></font></div></div><div class='respDiv'><div class='respDivL'>Match<br>(e)</div><div class='respDivR'>No Match<br>(i)</div></div></div>","e","TARGET","1","trustrating_stim/white_mw085.bmp","1","Match","e","1500","trustrating_stim/white_mw085.bmp","green","Share","REAL","1",""
"html-keyboard-response","114","236768","0.0-7.0-5.15","6400d9235287137e7b62fd29","bdp_wmem","Sat Apr 08 2023 09:14:34 GMT-0700 (Pacific Daylight Time)","538822","Match,No Match","","null","","","","","","<div class='trialBorder'><div class='vertical-center'><img src='img/correct.jpg'></div><div class='respDiv'><div class='respDivL'><font style='color:orange'>Match<br>(e)</font></div><div class='respDivR'>No Match<br>(i)</div></div></div>","null","FEEDBACK","","","","","","","","","","","",""
"html-keyboard-response","115","237274","0.0-7.0-1.16","6400d9235287137e7b62fd29","bdp_wmem","Sat Apr 08 2023 09:14:34 GMT-0700 (Pacific Daylight Time)","538822","Match,No Match","","null","","","","","","<div class='trialBorder'><div class='vertical-center'><img src='img/fixation2_sml.jpg'</img></div></div>","null","FIX","","","","","","","","","","","",""
"html-keyboard-response","116","241784","0.0-7.0-2.16","6400d9235287137e7b62fd29","bdp_wmem","Sat Apr 08 2023 09:14:34 GMT-0700 (Pacific Daylight Time)","538822","Match,No Match","","null","","","","","","<div class='trialBorder'><div class='vertical-center'><img style='vertical-align:center; align:center' src='img/fixation2_sml.jpg'></div><div class='arrayDiv3'><div class='tl'><img class='introPic' src='trustrating_stim/white_mw070.bmp'><br><font color='green'><strong>Share</strong></font></div><div class='tc'><img class='introPic' src='trustrating_stim/white_mw042.bmp'><br><font color='red'><strong>Keep</strong></font></div><div class='tr'><img class='introPic' src='trustrating_stim/white_mw040.bmp'><br><font color='green'><strong>Share</strong></font></div></div></div>","null","ARRAY","3","trustrating_stim/white_mw070.bmp,trustrating_stim/white_mw042.bmp,trustrating_stim/white_mw040.bmp","1,0,1","noMatchFace","i","4500","","","","","",""
"html-keyboard-response","117","245788","0.0-7.0-3.16","6400d9235287137e7b62fd29","bdp_wmem","Sat Apr 08 2023 09:14:34 GMT-0700 (Pacific Daylight Time)","538822","Match,No Match","","null","","","","","","<div class='trialBorder'><div class='vertical-center'><img src='img/fixation2_sml.jpg'</img></div></div>","null","DELAY","","","","","","","","","","","",""
"html-keyboard-response","118","246184","0.0-7.0-4.16","6400d9235287137e7b62fd29","bdp_wmem","Sat Apr 08 2023 09:14:34 GMT-0700 (Pacific Daylight Time)","538822","Match,No Match","","393","","","","","","<div class='trialBorder'><div class='targDiv'><div class='tc'><img class='introPic' src='trustrating_stim/white_mw010.bmp'><br><font color='green'><strong>Share</strong></font></div></div><div class='respDiv'><div class='respDivL'>Match<br>(e)</div><div class='respDivR'>No Match<br>(i)</div></div></div>","i","TARGET","3","trustrating_stim/white_mw070.bmp,trustrating_stim/white_mw042.bmp,trustrating_stim/white_mw040.bmp","1,0,1","noMatchFace","i","4500","trustrating_stim/white_mw010.bmp","green","Share","REAL","1",""
"html-keyboard-response","119","246691","0.0-7.0-5.16","6400d9235287137e7b62fd29","bdp_wmem","Sat Apr 08 2023 09:14:34 GMT-0700 (Pacific Daylight Time)","538822","Match,No Match","","null","","","","","","<div class='trialBorder'><div class='vertical-center'><img src='img/correct.jpg'></div><div class='respDiv'><div class='respDivL'>Match<br>(e)</div><div class='respDivR'><font style='color:orange'>No Match<br>(i)</font></div></div></div>","null","FEEDBACK","","","","","","","","","","","",""
"html-keyboard-response","120","247197","0.0-7.0-1.17","6400d9235287137e7b62fd29","bdp_wmem","Sat Apr 08 2023 09:14:34 GMT-0700 (Pacific Daylight Time)","538822","Match,No Match","","null","","","","","","<div class='trialBorder'><div class='vertical-center'><img src='img/fixation2_sml.jpg'</img></div></div>","null","FIX","","","","","","","","","","","",""
"html-keyboard-response","121","251705","0.0-7.0-2.17","6400d9235287137e7b62fd29","bdp_wmem","Sat Apr 08 2023 09:14:34 GMT-0700 (Pacific Daylight Time)","538822","Match,No Match","","null","","","","","","<div class='trialBorder'><div class='vertical-center'><img style='vertical-align:center; align:center' src='img/fixation2_sml.jpg'></div><div class='arrayDiv3'><div class='tl'><img class='introPic' src='trustrating_stim/white_mw003.bmp'><br><font color='green'><strong>Share</strong></font></div><div class='tc'><img class='introPic' src='trustrating_stim/white_mw040.bmp'><br><font color='green'><strong>Share</strong></font></div><div class='tr'><img class='introPic' src='trustrating_stim/white_mw078.bmp'><br><font color='red'><strong>Keep</strong></font></div></div></div>","null","ARRAY","3","trustrating_stim/white_mw003.bmp,trustrating_stim/white_mw040.bmp,trustrating_stim/white_mw078.bmp","1,1,0","noMatchOutcome","i","4500","","","","","",""
"html-keyboard-response","122","255714","0.0-7.0-3.17","6400d9235287137e7b62fd29","bdp_wmem","Sat Apr 08 2023 09:14:34 GMT-0700 (Pacific Daylight Time)","538822","Match,No Match","","null","","","","","","<div class='trialBorder'><div class='vertical-center'><img src='img/fixation2_sml.jpg'</img></div></div>","null","DELAY","","","","","","","","","","","",""
"html-keyboard-response","123","257878","0.0-7.0-4.17","6400d9235287137e7b62fd29","bdp_wmem","Sat Apr 08 2023 09:14:34 GMT-0700 (Pacific Daylight Time)","538822","Match,No Match","","2162","","","","","","<div class='trialBorder'><div class='targDiv'><div class='tc'><img class='introPic' src='trustrating_stim/white_mw040.bmp'><br><font color='red'><strong>Keep</strong></font></div></div><div class='respDiv'><div class='respDivL'>Match<br>(e)</div><div class='respDivR'>No Match<br>(i)</div></div></div>","i","TARGET","3","trustrating_stim/white_mw003.bmp,trustrating_stim/white_mw040.bmp,trustrating_stim/white_mw078.bmp","1,1,0","noMatchOutcome","i","4500","trustrating_stim/white_mw040.bmp","red","Keep","REAL","1",""
"html-keyboard-response","124","258381","0.0-7.0-5.17","6400d9235287137e7b62fd29","bdp_wmem","Sat Apr 08 2023 09:14:34 GMT-0700 (Pacific Daylight Time)","538822","Match,No Match","","null","","","","","","<div class='trialBorder'><div class='vertical-center'><img src='img/correct.jpg'></div><div class='respDiv'><div class='respDivL'>Match<br>(e)</div><div class='respDivR'><font style='color:orange'>No Match<br>(i)</font></div></div></div>","null","FEEDBACK","","","","","","","","","","","",""
"html-keyboard-response","125","258897","0.0-7.0-1.18","6400d9235287137e7b62fd29","bdp_wmem","Sat Apr 08 2023 09:14:34 GMT-0700 (Pacific Daylight Time)","538822","Match,No Match","","null","","","","","","<div class='trialBorder'><div class='vertical-center'><img src='img/fixation2_sml.jpg'</img></div></div>","null","FIX","","","","","","","","","","","",""
"html-keyboard-response","126","263407","0.0-7.0-2.18","6400d9235287137e7b62fd29","bdp_wmem","Sat Apr 08 2023 09:14:34 GMT-0700 (Pacific Daylight Time)","538822","Match,No Match","","null","","","","","","<div class='trialBorder'><div class='vertical-center'><img style='vertical-align:center; align:center' src='img/fixation2_sml.jpg'></div><div class='arrayDiv3'><div class='tl'><img class='introPic' src='trustrating_stim/white_mw012.bmp'><br><font color='red'><strong>Keep</strong></font></div><div class='tc'><img class='introPic' src='trustrating_stim/white_mw042.bmp'><br><font color='green'><strong>Share</strong></font></div><div class='tr'><img class='introPic' src='trustrating_stim/white_mw013.bmp'><br><font color='red'><strong>Keep</strong></font></div></div></div>","null","ARRAY","3","trustrating_stim/white_mw012.bmp,trustrating_stim/white_mw042.bmp,trustrating_stim/white_mw013.bmp","0,1,0","noMatchOutcome","i","4500","","","","","",""
"html-keyboard-response","127","267415","0.0-7.0-3.18","6400d9235287137e7b62fd29","bdp_wmem","Sat Apr 08 2023 09:14:34 GMT-0700 (Pacific Daylight Time)","538822","Match,No Match","","null","","","","","","<div class='trialBorder'><div class='vertical-center'><img src='img/fixation2_sml.jpg'</img></div></div>","null","DELAY","","","","","","","","","","","",""
"html-keyboard-response","128","269472","0.0-7.0-4.18","6400d9235287137e7b62fd29","bdp_wmem","Sat Apr 08 2023 09:14:34 GMT-0700 (Pacific Daylight Time)","538822","Match,No Match","","2054","","","","","","<div class='trialBorder'><div class='targDiv'><div class='tc'><img class='introPic' src='trustrating_stim/white_mw042.bmp'><br><font color='red'><strong>Keep</strong></font></div></div><div class='respDiv'><div class='respDivL'>Match<br>(e)</div><div class='respDivR'>No Match<br>(i)</div></div></div>","e","TARGET","3","trustrating_stim/white_mw012.bmp,trustrating_stim/white_mw042.bmp,trustrating_stim/white_mw013.bmp","0,1,0","noMatchOutcome","i","4500","trustrating_stim/white_mw042.bmp","red","Keep","REAL","0",""
"html-keyboard-response","129","269976","0.0-7.0-5.18","6400d9235287137e7b62fd29","bdp_wmem","Sat Apr 08 2023 09:14:34 GMT-0700 (Pacific Daylight Time)","538822","Match,No Match","","null","","","","","","<div class='trialBorder'><div class='vertical-center'><img src='img/error.jpg'></div><div class='respDiv'><div class='respDivL'><font style='color:orange'>Match<br>(e)</font></div><div class='respDivR'>No Match<br>(i)</div></div></div>","null","FEEDBACK","","","","","","","","","","","",""
"html-keyboard-response","130","270483","0.0-7.0-1.19","6400d9235287137e7b62fd29","bdp_wmem","Sat Apr 08 2023 09:14:34 GMT-0700 (Pacific Daylight Time)","538822","Match,No Match","","null","","","","","","<div class='trialBorder'><div class='vertical-center'><img src='img/fixation2_sml.jpg'</img></div></div>","null","FIX","","","","","","","","","","","",""
"html-keyboard-response","131","273486","0.0-7.0-2.19","6400d9235287137e7b62fd29","bdp_wmem","Sat Apr 08 2023 09:14:34 GMT-0700 (Pacific Daylight Time)","538822","Match,No Match","","null","","","","","","<div class='trialBorder'><div class='vertical-center'><img style='vertical-align:center; align:center' src='img/fixation2_sml.jpg'></div><div class='arrayDiv2'><div class='tl'><img class='introPic' src='trustrating_stim/white_mw085.bmp'><br><font color='green'><strong>Share</strong></font></div><div class='tr'><img class='introPic' src='trustrating_stim/white_mw013.bmp'><br><font color='red'><strong>Keep</strong></font></div></div></div>","null","ARRAY","2","trustrating_stim/white_mw085.bmp,trustrating_stim/white_mw013.bmp","1,0","Match","e","3000","","","","","",""
"html-keyboard-response","132","277490","0.0-7.0-3.19","6400d9235287137e7b62fd29","bdp_wmem","Sat Apr 08 2023 09:14:34 GMT-0700 (Pacific Daylight Time)","538822","Match,No Match","","null","","","","","","<div class='trialBorder'><div class='vertical-center'><img src='img/fixation2_sml.jpg'</img></div></div>","null","DELAY","","","","","","","","","","","",""
"html-keyboard-response","133","278236","0.0-7.0-4.19","6400d9235287137e7b62fd29","bdp_wmem","Sat Apr 08 2023 09:14:34 GMT-0700 (Pacific Daylight Time)","538822","Match,No Match","","743","","","","","","<div class='trialBorder'><div class='targDiv'><div class='tc'><img class='introPic' src='trustrating_stim/white_mw013.bmp'><br><font color='red'><strong>Keep</strong></font></div></div><div class='respDiv'><div class='respDivL'>Match<br>(e)</div><div class='respDivR'>No Match<br>(i)</div></div></div>","i","TARGET","2","trustrating_stim/white_mw085.bmp,trustrating_stim/white_mw013.bmp","1,0","Match","e","3000","trustrating_stim/white_mw013.bmp","red","Keep","REAL","0",""
"html-keyboard-response","134","278742","0.0-7.0-5.19","6400d9235287137e7b62fd29","bdp_wmem","Sat Apr 08 2023 09:14:34 GMT-0700 (Pacific Daylight Time)","538822","Match,No Match","","null","","","","","","<div class='trialBorder'><div class='vertical-center'><img src='img/error.jpg'></div><div class='respDiv'><div class='respDivL'>Match<br>(e)</div><div class='respDivR'><font style='color:orange'>No Match<br>(i)</font></div></div></div>","null","FEEDBACK","","","","","","","","","","","",""
"html-keyboard-response","135","279250","0.0-7.0-1.20","6400d9235287137e7b62fd29","bdp_wmem","Sat Apr 08 2023 09:14:34 GMT-0700 (Pacific Daylight Time)","538822","Match,No Match","","null","","","","","","<div class='trialBorder'><div class='vertical-center'><img src='img/fixation2_sml.jpg'</img></div></div>","null","FIX","","","","","","","","","","","",""
"html-keyboard-response","136","280752","0.0-7.0-2.20","6400d9235287137e7b62fd29","bdp_wmem","Sat Apr 08 2023 09:14:34 GMT-0700 (Pacific Daylight Time)","538822","Match,No Match","","null","","","","","","<div class='trialBorder'><div class='vertical-center'><img style='vertical-align:center; align:center' src='img/fixation2_sml.jpg'></div><div class='arrayDiv1'><div class='tc'><img class='introPic' src='trustrating_stim/white_mw042.bmp'><br><font color='red'><strong>Keep</strong></font></div></div></div>","null","ARRAY","1","trustrating_stim/white_mw042.bmp","0","noMatchOutcome","i","1500","","","","","",""
"","","","","6400d9235287137e7b62fd29","bdp_wmem","Sat Apr 08 2023 09:14:34 GMT-0700 (Pacific Daylight Time)","538822","Match,No Match","","","blur","137","281433","blurevent","","","","","","","","","","","","","","","","1"
"","","","","6400d9235287137e7b62fd29","bdp_wmem","Sat Apr 08 2023 09:14:34 GMT-0700 (Pacific Daylight Time)","538822","Match,No Match","","","focus","137","284237","focusevent","","","","","","","","","","","","","","","",""
"html-keyboard-response","137","284760","0.0-7.0-3.20","6400d9235287137e7b62fd29","bdp_wmem","Sat Apr 08 2023 09:14:34 GMT-0700 (Pacific Daylight Time)","538822","Match,No Match","","null","blur","137","281433","","","<div class='trialBorder'><div class='vertical-center'><img src='img/fixation2_sml.jpg'</img></div></div>","null","DELAY","","","","","","","","","","","","1"
"html-keyboard-response","138","285887","0.0-7.0-4.20","6400d9235287137e7b62fd29","bdp_wmem","Sat Apr 08 2023 09:14:34 GMT-0700 (Pacific Daylight Time)","538822","Match,No Match","","1125","blur","137","281433","","","<div class='trialBorder'><div class='targDiv'><div class='tc'><img class='introPic' src='trustrating_stim/white_mw042.bmp'><br><font color='green'><strong>Share</strong></font></div></div><div class='respDiv'><div class='respDivL'>Match<br>(e)</div><div class='respDivR'>No Match<br>(i)</div></div></div>","i","TARGET","1","trustrating_stim/white_mw042.bmp","0","noMatchOutcome","i","1500","trustrating_stim/white_mw042.bmp","green","Share","REAL","1","1"
"html-keyboard-response","139","286389","0.0-7.0-5.20","6400d9235287137e7b62fd29","bdp_wmem","Sat Apr 08 2023 09:14:34 GMT-0700 (Pacific Daylight Time)","538822","Match,No Match","","null","blur","137","281433","","","<div class='trialBorder'><div class='vertical-center'><img src='img/correct.jpg'></div><div class='respDiv'><div class='respDivL'>Match<br>(e)</div><div class='respDivR'><font style='color:orange'>No Match<br>(i)</font></div></div></div>","null","FEEDBACK","","","","","","","","","","","","1"
"image-keyboard-response","140","292313","0.0-7.0-0.21-0.21","6400d9235287137e7b62fd29","bdp_wmem","Sat Apr 08 2023 09:14:34 GMT-0700 (Pacific Daylight Time)","538822","Match,No Match","","5922","","","","blurwarn","","","49","","","","","","","","","","","","","1"
"html-keyboard-response","141","293074","0.0-7.0-1.21","6400d9235287137e7b62fd29","bdp_wmem","Sat Apr 08 2023 09:14:34 GMT-0700 (Pacific Daylight Time)","538822","Match,No Match","","null","","","","","","<div class='trialBorder'><div class='vertical-center'><img src='img/fixation2_sml.jpg'</img></div></div>","null","FIX","","","","","","","","","","","",""
"html-keyboard-response","142","294585","0.0-7.0-2.21","6400d9235287137e7b62fd29","bdp_wmem","Sat Apr 08 2023 09:14:34 GMT-0700 (Pacific Daylight Time)","538822","Match,No Match","","null","","","","","","<div class='trialBorder'><div class='vertical-center'><img style='vertical-align:center; align:center' src='img/fixation2_sml.jpg'></div><div class='arrayDiv1'><div class='tc'><img class='introPic' src='trustrating_stim/white_mw070.bmp'><br><font color='green'><strong>Share</strong></font></div></div></div>","null","ARRAY","1","trustrating_stim/white_mw070.bmp","1","Match","e","1500","","","","","",""
"html-keyboard-response","143","298591","0.0-7.0-3.21","6400d9235287137e7b62fd29","bdp_wmem","Sat Apr 08 2023 09:14:34 GMT-0700 (Pacific Daylight Time)","538822","Match,No Match","","null","","","","","","<div class='trialBorder'><div class='vertical-center'><img src='img/fixation2_sml.jpg'</img></div></div>","null","DELAY","","","","","","","","","","","",""
"html-keyboard-response","144","299480","0.0-7.0-4.21","6400d9235287137e7b62fd29","bdp_wmem","Sat Apr 08 2023 09:14:34 GMT-0700 (Pacific Daylight Time)","538822","Match,No Match","","886","","","","","","<div class='trialBorder'><div class='targDiv'><div class='tc'><img class='introPic' src='trustrating_stim/white_mw070.bmp'><br><font color='green'><strong>Share</strong></font></div></div><div class='respDiv'><div class='respDivL'>Match<br>(e)</div><div class='respDivR'>No Match<br>(i)</div></div></div>","i","TARGET","1","trustrating_stim/white_mw070.bmp","1","Match","e","1500","trustrating_stim/white_mw070.bmp","green","Share","REAL","0",""
"html-keyboard-response","145","299989","0.0-7.0-5.21","6400d9235287137e7b62fd29","bdp_wmem","Sat Apr 08 2023 09:14:34 GMT-0700 (Pacific Daylight Time)","538822","Match,No Match","","null","","","","","","<div class='trialBorder'><div class='vertical-center'><img src='img/error.jpg'></div><div class='respDiv'><div class='respDivL'>Match<br>(e)</div><div class='respDivR'><font style='color:orange'>No Match<br>(i)</font></div></div></div>","null","FEEDBACK","","","","","","","","","","","",""
"html-keyboard-response","146","300498","0.0-7.0-1.22","6400d9235287137e7b62fd29","bdp_wmem","Sat Apr 08 2023 09:14:34 GMT-0700 (Pacific Daylight Time)","538822","Match,No Match","","null","","","","","","<div class='trialBorder'><div class='vertical-center'><img src='img/fixation2_sml.jpg'</img></div></div>","null","FIX","","","","","","","","","","","",""
"html-keyboard-response","147","302006","0.0-7.0-2.22","6400d9235287137e7b62fd29","bdp_wmem","Sat Apr 08 2023 09:14:34 GMT-0700 (Pacific Daylight Time)","538822","Match,No Match","","null","","","","","","<div class='trialBorder'><div class='vertical-center'><img style='vertical-align:center; align:center' src='img/fixation2_sml.jpg'></div><div class='arrayDiv1'><div class='tc'><img class='introPic' src='trustrating_stim/white_mw042.bmp'><br><font color='green'><strong>Share</strong></font></div></div></div>","null","ARRAY","1","trustrating_stim/white_mw042.bmp","1","Match","e","1500","","","","","",""
"html-keyboard-response","148","306015","0.0-7.0-3.22","6400d9235287137e7b62fd29","bdp_wmem","Sat Apr 08 2023 09:14:34 GMT-0700 (Pacific Daylight Time)","538822","Match,No Match","","null","","","","","","<div class='trialBorder'><div class='vertical-center'><img src='img/fixation2_sml.jpg'</img></div></div>","null","DELAY","","","","","","","","","","","",""
"html-keyboard-response","149","307279","0.0-7.0-4.22","6400d9235287137e7b62fd29","bdp_wmem","Sat Apr 08 2023 09:14:34 GMT-0700 (Pacific Daylight Time)","538822","Match,No Match","","1260","","","","","","<div class='trialBorder'><div class='targDiv'><div class='tc'><img class='introPic' src='trustrating_stim/white_mw042.bmp'><br><font color='green'><strong>Share</strong></font></div></div><div class='respDiv'><div class='respDivL'>Match<br>(e)</div><div class='respDivR'>No Match<br>(i)</div></div></div>","e","TARGET","1","trustrating_stim/white_mw042.bmp","1","Match","e","1500","trustrating_stim/white_mw042.bmp","green","Share","REAL","1",""
"html-keyboard-response","150","307782","0.0-7.0-5.22","6400d9235287137e7b62fd29","bdp_wmem","Sat Apr 08 2023 09:14:34 GMT-0700 (Pacific Daylight Time)","538822","Match,No Match","","null","","","","","","<div class='trialBorder'><div class='vertical-center'><img src='img/correct.jpg'></div><div class='respDiv'><div class='respDivL'><font style='color:orange'>Match<br>(e)</font></div><div class='respDivR'>No Match<br>(i)</div></div></div>","null","FEEDBACK","","","","","","","","","","","",""
"html-keyboard-response","151","308288","0.0-7.0-1.23","6400d9235287137e7b62fd29","bdp_wmem","Sat Apr 08 2023 09:14:34 GMT-0700 (Pacific Daylight Time)","538822","Match,No Match","","null","","","","","","<div class='trialBorder'><div class='vertical-center'><img src='img/fixation2_sml.jpg'</img></div></div>","null","FIX","","","","","","","","","","","",""
"html-keyboard-response","152","311302","0.0-7.0-2.23","6400d9235287137e7b62fd29","bdp_wmem","Sat Apr 08 2023 09:14:34 GMT-0700 (Pacific Daylight Time)","538822","Match,No Match","","null","","","","","","<div class='trialBorder'><div class='vertical-center'><img style='vertical-align:center; align:center' src='img/fixation2_sml.jpg'></div><div class='arrayDiv2'><div class='tl'><img class='introPic' src='trustrating_stim/white_mw038.bmp'><br><font color='red'><strong>Keep</strong></font></div><div class='tr'><img class='introPic' src='trustrating_stim/white_mw092.bmp'><br><font color='green'><strong>Share</strong></font></div></div></div>","null","ARRAY","2","trustrating_stim/white_mw038.bmp,trustrating_stim/white_mw092.bmp","0,1","noMatchOutcome","i","3000","","","","","",""
"html-keyboard-response","153","315305","0.0-7.0-3.23","6400d9235287137e7b62fd29","bdp_wmem","Sat Apr 08 2023 09:14:34 GMT-0700 (Pacific Daylight Time)","538822","Match,No Match","","null","","","","","","<div class='trialBorder'><div class='vertical-center'><img src='img/fixation2_sml.jpg'</img></div></div>","null","DELAY","","","","","","","","","","","",""
"html-keyboard-response","154","316321","0.0-7.0-4.23","6400d9235287137e7b62fd29","bdp_wmem","Sat Apr 08 2023 09:14:34 GMT-0700 (Pacific Daylight Time)","538822","Match,No Match","","1013","","","","","","<div class='trialBorder'><div class='targDiv'><div class='tc'><img class='introPic' src='trustrating_stim/white_mw092.bmp'><br><font color='red'><strong>Keep</strong></font></div></div><div class='respDiv'><div class='respDivL'>Match<br>(e)</div><div class='respDivR'>No Match<br>(i)</div></div></div>","e","TARGET","2","trustrating_stim/white_mw038.bmp,trustrating_stim/white_mw092.bmp","0,1","noMatchOutcome","i","3000","trustrating_stim/white_mw092.bmp","red","Keep","REAL","0",""
"html-keyboard-response","155","316824","0.0-7.0-5.23","6400d9235287137e7b62fd29","bdp_wmem","Sat Apr 08 2023 09:14:34 GMT-0700 (Pacific Daylight Time)","538822","Match,No Match","","null","","","","","","<div class='trialBorder'><div class='vertical-center'><img src='img/error.jpg'></div><div class='respDiv'><div class='respDivL'><font style='color:orange'>Match<br>(e)</font></div><div class='respDivR'>No Match<br>(i)</div></div></div>","null","FEEDBACK","","","","","","","","","","","",""
"html-keyboard-response","156","317332","0.0-7.0-1.24","6400d9235287137e7b62fd29","bdp_wmem","Sat Apr 08 2023 09:14:34 GMT-0700 (Pacific Daylight Time)","538822","Match,No Match","","null","","","","","","<div class='trialBorder'><div class='vertical-center'><img src='img/fixation2_sml.jpg'</img></div></div>","null","FIX","","","","","","","","","","","",""
"html-keyboard-response","157","320341","0.0-7.0-2.24","6400d9235287137e7b62fd29","bdp_wmem","Sat Apr 08 2023 09:14:34 GMT-0700 (Pacific Daylight Time)","538822","Match,No Match","","null","","","","","","<div class='trialBorder'><div class='vertical-center'><img style='vertical-align:center; align:center' src='img/fixation2_sml.jpg'></div><div class='arrayDiv2'><div class='tl'><img class='introPic' src='trustrating_stim/white_mw038.bmp'><br><font color='green'><strong>Share</strong></font></div><div class='tr'><img class='introPic' src='trustrating_stim/white_mw078.bmp'><br><font color='red'><strong>Keep</strong></font></div></div></div>","null","ARRAY","2","trustrating_stim/white_mw038.bmp,trustrating_stim/white_mw078.bmp","1,0","Match","e","3000","","","","","",""
"html-keyboard-response","158","324348","0.0-7.0-3.24","6400d9235287137e7b62fd29","bdp_wmem","Sat Apr 08 2023 09:14:34 GMT-0700 (Pacific Daylight Time)","538822","Match,No Match","","null","","","","","","<div class='trialBorder'><div class='vertical-center'><img src='img/fixation2_sml.jpg'</img></div></div>","null","DELAY","","","","","","","","","","","",""
"html-keyboard-response","159","326551","0.0-7.0-4.24","6400d9235287137e7b62fd29","bdp_wmem","Sat Apr 08 2023 09:14:34 GMT-0700 (Pacific Daylight Time)","538822","Match,No Match","","2200","","","","","","<div class='trialBorder'><div class='targDiv'><div class='tc'><img class='introPic' src='trustrating_stim/white_mw078.bmp'><br><font color='red'><strong>Keep</strong></font></div></div><div class='respDiv'><div class='respDivL'>Match<br>(e)</div><div class='respDivR'>No Match<br>(i)</div></div></div>","i","TARGET","2","trustrating_stim/white_mw038.bmp,trustrating_stim/white_mw078.bmp","1,0","Match","e","3000","trustrating_stim/white_mw078.bmp","red","Keep","REAL","0",""
"html-keyboard-response","160","327055","0.0-7.0-5.24","6400d9235287137e7b62fd29","bdp_wmem","Sat Apr 08 2023 09:14:34 GMT-0700 (Pacific Daylight Time)","538822","Match,No Match","","null","","","","","","<div class='trialBorder'><div class='vertical-center'><img src='img/error.jpg'></div><div class='respDiv'><div class='respDivL'>Match<br>(e)</div><div class='respDivR'><font style='color:orange'>No Match<br>(i)</font></div></div></div>","null","FEEDBACK","","","","","","","","","","","",""
"html-keyboard-response","161","327562","0.0-7.0-1.25","6400d9235287137e7b62fd29","bdp_wmem","Sat Apr 08 2023 09:14:34 GMT-0700 (Pacific Daylight Time)","538822","Match,No Match","","null","","","","","","<div class='trialBorder'><div class='vertical-center'><img src='img/fixation2_sml.jpg'</img></div></div>","null","FIX","","","","","","","","","","","",""
"html-keyboard-response","162","332071","0.0-7.0-2.25","6400d9235287137e7b62fd29","bdp_wmem","Sat Apr 08 2023 09:14:34 GMT-0700 (Pacific Daylight Time)","538822","Match,No Match","","null","","","","","","<div class='trialBorder'><div class='vertical-center'><img style='vertical-align:center; align:center' src='img/fixation2_sml.jpg'></div><div class='arrayDiv3'><div class='tl'><img class='introPic' src='trustrating_stim/white_mw070.bmp'><br><font color='red'><strong>Keep</strong></font></div><div class='tc'><img class='introPic' src='trustrating_stim/white_mw091.bmp'><br><font color='green'><strong>Share</strong></font></div><div class='tr'><img class='introPic' src='trustrating_stim/white_mw013.bmp'><br><font color='green'><strong>Share</strong></font></div></div></div>","null","ARRAY","3","trustrating_stim/white_mw070.bmp,trustrating_stim/white_mw091.bmp,trustrating_stim/white_mw013.bmp","0,1,1","noMatchOutcome","i","4500","","","","","",""
"html-keyboard-response","163","336076","0.0-7.0-3.25","6400d9235287137e7b62fd29","bdp_wmem","Sat Apr 08 2023 09:14:34 GMT-0700 (Pacific Daylight Time)","538822","Match,No Match","","null","","","","","","<div class='trialBorder'><div class='vertical-center'><img src='img/fixation2_sml.jpg'</img></div></div>","null","DELAY","","","","","","","","","","","",""
"html-keyboard-response","164","337147","0.0-7.0-4.25","6400d9235287137e7b62fd29","bdp_wmem","Sat Apr 08 2023 09:14:34 GMT-0700 (Pacific Daylight Time)","538822","Match,No Match","","1069","","","","","","<div class='trialBorder'><div class='targDiv'><div class='tc'><img class='introPic' src='trustrating_stim/white_mw013.bmp'><br><font color='red'><strong>Keep</strong></font></div></div><div class='respDiv'><div class='respDivL'>Match<br>(e)</div><div class='respDivR'>No Match<br>(i)</div></div></div>","e","TARGET","3","trustrating_stim/white_mw070.bmp,trustrating_stim/white_mw091.bmp,trustrating_stim/white_mw013.bmp","0,1,1","noMatchOutcome","i","4500","trustrating_stim/white_mw013.bmp","red","Keep","REAL","0",""
"html-keyboard-response","165","337654","0.0-7.0-5.25","6400d9235287137e7b62fd29","bdp_wmem","Sat Apr 08 2023 09:14:34 GMT-0700 (Pacific Daylight Time)","538822","Match,No Match","","null","","","","","","<div class='trialBorder'><div class='vertical-center'><img src='img/error.jpg'></div><div class='respDiv'><div class='respDivL'><font style='color:orange'>Match<br>(e)</font></div><div class='respDivR'>No Match<br>(i)</div></div></div>","null","FEEDBACK","","","","","","","","","","","",""
"html-keyboard-response","166","338163","0.0-7.0-1.26","6400d9235287137e7b62fd29","bdp_wmem","Sat Apr 08 2023 09:14:34 GMT-0700 (Pacific Daylight Time)","538822","Match,No Match","","null","","","","","","<div class='trialBorder'><div class='vertical-center'><img src='img/fixation2_sml.jpg'</img></div></div>","null","FIX","","","","","","","","","","","",""
"html-keyboard-response","167","341170","0.0-7.0-2.26","6400d9235287137e7b62fd29","bdp_wmem","Sat Apr 08 2023 09:14:34 GMT-0700 (Pacific Daylight Time)","538822","Match,No Match","","null","","","","","","<div class='trialBorder'><div class='vertical-center'><img style='vertical-align:center; align:center' src='img/fixation2_sml.jpg'></div><div class='arrayDiv2'><div class='tl'><img class='introPic' src='trustrating_stim/white_mw091.bmp'><br><font color='red'><strong>Keep</strong></font></div><div class='tr'><img class='introPic' src='trustrating_stim/white_mw070.bmp'><br><font color='green'><strong>Share</strong></font></div></div></div>","null","ARRAY","2","trustrating_stim/white_mw091.bmp,trustrating_stim/white_mw070.bmp","0,1","Match","e","3000","","","","","",""
"html-keyboard-response","168","345172","0.0-7.0-3.26","6400d9235287137e7b62fd29","bdp_wmem","Sat Apr 08 2023 09:14:34 GMT-0700 (Pacific Daylight Time)","538822","Match,No Match","","null","","","","","","<div class='trialBorder'><div class='vertical-center'><img src='img/fixation2_sml.jpg'</img></div></div>","null","DELAY","","","","","","","","","","","",""
"html-keyboard-response","169","346179","0.0-7.0-4.26","6400d9235287137e7b62fd29","bdp_wmem","Sat Apr 08 2023 09:14:34 GMT-0700 (Pacific Daylight Time)","538822","Match,No Match","","1004","","","","","","<div class='trialBorder'><div class='targDiv'><div class='tc'><img class='introPic' src='trustrating_stim/white_mw070.bmp'><br><font color='green'><strong>Share</strong></font></div></div><div class='respDiv'><div class='respDivL'>Match<br>(e)</div><div class='respDivR'>No Match<br>(i)</div></div></div>","e","TARGET","2","trustrating_stim/white_mw091.bmp,trustrating_stim/white_mw070.bmp","0,1","Match","e","3000","trustrating_stim/white_mw070.bmp","green","Share","REAL","1",""
"html-keyboard-response","170","346688","0.0-7.0-5.26","6400d9235287137e7b62fd29","bdp_wmem","Sat Apr 08 2023 09:14:34 GMT-0700 (Pacific Daylight Time)","538822","Match,No Match","","null","","","","","","<div class='trialBorder'><div class='vertical-center'><img src='img/correct.jpg'></div><div class='respDiv'><div class='respDivL'><font style='color:orange'>Match<br>(e)</font></div><div class='respDivR'>No Match<br>(i)</div></div></div>","null","FEEDBACK","","","","","","","","","","","",""
"html-keyboard-response","171","347204","0.0-7.0-1.27","6400d9235287137e7b62fd29","bdp_wmem","Sat Apr 08 2023 09:14:34 GMT-0700 (Pacific Daylight Time)","538822","Match,No Match","","null","","","","","","<div class='trialBorder'><div class='vertical-center'><img src='img/fixation2_sml.jpg'</img></div></div>","null","FIX","","","","","","","","","","","",""
"html-keyboard-response","172","350210","0.0-7.0-2.27","6400d9235287137e7b62fd29","bdp_wmem","Sat Apr 08 2023 09:14:34 GMT-0700 (Pacific Daylight Time)","538822","Match,No Match","","null","","","","","","<div class='trialBorder'><div class='vertical-center'><img style='vertical-align:center; align:center' src='img/fixation2_sml.jpg'></div><div class='arrayDiv2'><div class='tl'><img class='introPic' src='trustrating_stim/white_mw003.bmp'><br><font color='red'><strong>Keep</strong></font></div><div class='tr'><img class='introPic' src='trustrating_stim/white_mw042.bmp'><br><font color='green'><strong>Share</strong></font></div></div></div>","null","ARRAY","2","trustrating_stim/white_mw003.bmp,trustrating_stim/white_mw042.bmp","0,1","Match","e","3000","","","","","",""
"html-keyboard-response","173","354225","0.0-7.0-3.27","6400d9235287137e7b62fd29","bdp_wmem","Sat Apr 08 2023 09:14:34 GMT-0700 (Pacific Daylight Time)","538822","Match,No Match","","null","","","","","","<div class='trialBorder'><div class='vertical-center'><img src='img/fixation2_sml.jpg'</img></div></div>","null","DELAY","","","","","","","","","","","",""
"html-keyboard-response","174","354961","0.0-7.0-4.27","6400d9235287137e7b62fd29","bdp_wmem","Sat Apr 08 2023 09:14:34 GMT-0700 (Pacific Daylight Time)","538822","Match,No Match","","734","","","","","","<div class='trialBorder'><div class='targDiv'><div class='tc'><img class='introPic' src='trustrating_stim/white_mw042.bmp'><br><font color='green'><strong>Share</strong></font></div></div><div class='respDiv'><div class='respDivL'>Match<br>(e)</div><div class='respDivR'>No Match<br>(i)</div></div></div>","i","TARGET","2","trustrating_stim/white_mw003.bmp,trustrating_stim/white_mw042.bmp","0,1","Match","e","3000","trustrating_stim/white_mw042.bmp","green","Share","REAL","0",""
"html-keyboard-response","175","355468","0.0-7.0-5.27","6400d9235287137e7b62fd29","bdp_wmem","Sat Apr 08 2023 09:14:34 GMT-0700 (Pacific Daylight Time)","538822","Match,No Match","","null","","","","","","<div class='trialBorder'><div class='vertical-center'><img src='img/error.jpg'></div><div class='respDiv'><div class='respDivL'>Match<br>(e)</div><div class='respDivR'><font style='color:orange'>No Match<br>(i)</font></div></div></div>","null","FEEDBACK","","","","","","","","","","","",""
"html-keyboard-response","176","355974","0.0-7.0-1.28","6400d9235287137e7b62fd29","bdp_wmem","Sat Apr 08 2023 09:14:34 GMT-0700 (Pacific Daylight Time)","538822","Match,No Match","","null","","","","","","<div class='trialBorder'><div class='vertical-center'><img src='img/fixation2_sml.jpg'</img></div></div>","null","FIX","","","","","","","","","","","",""
"html-keyboard-response","177","360481","0.0-7.0-2.28","6400d9235287137e7b62fd29","bdp_wmem","Sat Apr 08 2023 09:14:34 GMT-0700 (Pacific Daylight Time)","538822","Match,No Match","","null","","","","","","<div class='trialBorder'><div class='vertical-center'><img style='vertical-align:center; align:center' src='img/fixation2_sml.jpg'></div><div class='arrayDiv3'><div class='tl'><img class='introPic' src='trustrating_stim/white_mw010.bmp'><br><font color='green'><strong>Share</strong></font></div><div class='tc'><img class='introPic' src='trustrating_stim/white_mw078.bmp'><br><font color='red'><strong>Keep</strong></font></div><div class='tr'><img class='introPic' src='trustrating_stim/white_mw013.bmp'><br><font color='red'><strong>Keep</strong></font></div></div></div>","null","ARRAY","3","trustrating_stim/white_mw010.bmp,trustrating_stim/white_mw078.bmp,trustrating_stim/white_mw013.bmp","1,0,0","Match","e","4500","","","","","",""
"html-keyboard-response","178","364486","0.0-7.0-3.28","6400d9235287137e7b62fd29","bdp_wmem","Sat Apr 08 2023 09:14:34 GMT-0700 (Pacific Daylight Time)","538822","Match,No Match","","null","","","","","","<div class='trialBorder'><div class='vertical-center'><img src='img/fixation2_sml.jpg'</img></div></div>","null","DELAY","","","","","","","","","","","",""
"html-keyboard-response","179","365075","0.0-7.0-4.28","6400d9235287137e7b62fd29","bdp_wmem","Sat Apr 08 2023 09:14:34 GMT-0700 (Pacific Daylight Time)","538822","Match,No Match","","586","","","","","","<div class='trialBorder'><div class='targDiv'><div class='tc'><img class='introPic' src='trustrating_stim/white_mw013.bmp'><br><font color='red'><strong>Keep</strong></font></div></div><div class='respDiv'><div class='respDivL'>Match<br>(e)</div><div class='respDivR'>No Match<br>(i)</div></div></div>","e","TARGET","3","trustrating_stim/white_mw010.bmp,trustrating_stim/white_mw078.bmp,trustrating_stim/white_mw013.bmp","1,0,0","Match","e","4500","trustrating_stim/white_mw013.bmp","red","Keep","REAL","1",""
"html-keyboard-response","180","365584","0.0-7.0-5.28","6400d9235287137e7b62fd29","bdp_wmem","Sat Apr 08 2023 09:14:34 GMT-0700 (Pacific Daylight Time)","538822","Match,No Match","","null","","","","","","<div class='trialBorder'><div class='vertical-center'><img src='img/correct.jpg'></div><div class='respDiv'><div class='respDivL'><font style='color:orange'>Match<br>(e)</font></div><div class='respDivR'>No Match<br>(i)</div></div></div>","null","FEEDBACK","","","","","","","","","","","",""
"html-keyboard-response","181","366102","0.0-7.0-1.29","6400d9235287137e7b62fd29","bdp_wmem","Sat Apr 08 2023 09:14:34 GMT-0700 (Pacific Daylight Time)","538822","Match,No Match","","null","","","","","","<div class='trialBorder'><div class='vertical-center'><img src='img/fixation2_sml.jpg'</img></div></div>","null","FIX","","","","","","","","","","","",""
"html-keyboard-response","182","367606","0.0-7.0-2.29","6400d9235287137e7b62fd29","bdp_wmem","Sat Apr 08 2023 09:14:34 GMT-0700 (Pacific Daylight Time)","538822","Match,No Match","","null","","","","","","<div class='trialBorder'><div class='vertical-center'><img style='vertical-align:center; align:center' src='img/fixation2_sml.jpg'></div><div class='arrayDiv1'><div class='tc'><img class='introPic' src='trustrating_stim/white_mw078.bmp'><br><font color='green'><strong>Share</strong></font></div></div></div>","null","ARRAY","1","trustrating_stim/white_mw078.bmp","1","Match","e","1500","","","","","",""
"html-keyboard-response","183","371616","0.0-7.0-3.29","6400d9235287137e7b62fd29","bdp_wmem","Sat Apr 08 2023 09:14:34 GMT-0700 (Pacific Daylight Time)","538822","Match,No Match","","null","","","","","","<div class='trialBorder'><div class='vertical-center'><img src='img/fixation2_sml.jpg'</img></div></div>","null","DELAY","","","","","","","","","","","",""
"html-keyboard-response","184","373183","0.0-7.0-4.29","6400d9235287137e7b62fd29","bdp_wmem","Sat Apr 08 2023 09:14:34 GMT-0700 (Pacific Daylight Time)","538822","Match,No Match","","1565","","","","","","<div class='trialBorder'><div class='targDiv'><div class='tc'><img class='introPic' src='trustrating_stim/white_mw078.bmp'><br><font color='green'><strong>Share</strong></font></div></div><div class='respDiv'><div class='respDivL'>Match<br>(e)</div><div class='respDivR'>No Match<br>(i)</div></div></div>","e","TARGET","1","trustrating_stim/white_mw078.bmp","1","Match","e","1500","trustrating_stim/white_mw078.bmp","green","Share","REAL","1",""
"html-keyboard-response","185","373690","0.0-7.0-5.29","6400d9235287137e7b62fd29","bdp_wmem","Sat Apr 08 2023 09:14:34 GMT-0700 (Pacific Daylight Time)","538822","Match,No Match","","null","","","","","","<div class='trialBorder'><div class='vertical-center'><img src='img/correct.jpg'></div><div class='respDiv'><div class='respDivL'><font style='color:orange'>Match<br>(e)</font></div><div class='respDivR'>No Match<br>(i)</div></div></div>","null","FEEDBACK","","","","","","","","","","","",""
"html-keyboard-response","186","374198","0.0-7.0-1.30","6400d9235287137e7b62fd29","bdp_wmem","Sat Apr 08 2023 09:14:34 GMT-0700 (Pacific Daylight Time)","538822","Match,No Match","","null","","","","","","<div class='trialBorder'><div class='vertical-center'><img src='img/fixation2_sml.jpg'</img></div></div>","null","FIX","","","","","","","","","","","",""
