"event","trial","time","trialtype","subject_id","task","startTime","totalTime","labels","trial_type","trial_index","time_elapsed","internal_node_id","view_history","rt","success","stimulus","key_press","stimType","arraySize","arrayFaces","arrayOutcomes","matchType","corrResp","arrayDur","targFace","targCol","targOutcome","trialType","corr"
"focus","0","0","focusevent","dfghdfgh","bdp_wmem","Tue Oct 05 2021 13:27:08 GMT-0400 (Eastern Daylight Time)","468877","Match,No Match","","","","","","","","","","","","","","","","","","","","",""
"","","","","dfghdfgh","bdp_wmem","Tue Oct 05 2021 13:27:08 GMT-0400 (Eastern Daylight Time)","468877","Match,No Match","pavlovia","0","2","0.0-0.0","","","","","","","","","","","","","","","","",""
"","","","","dfghdfgh","bdp_wmem","Tue Oct 05 2021 13:27:08 GMT-0400 (Eastern Daylight Time)","468877","Match,No Match","instructions","1","1669","0.0-1.0","[{""page_index"":0,""viewing_time"":1666}]","1667","","","","","","","","","","","","","","",""
"fullscreenexit","2","3723","fullscreenexit","dfghdfgh","bdp_wmem","Tue Oct 05 2021 13:27:08 GMT-0400 (Eastern Daylight Time)","468877","Match,No Match","","","","","","","","","","","","","","","","","","","","",""
"","","","","dfghdfgh","bdp_wmem","Tue Oct 05 2021 13:27:08 GMT-0400 (Eastern Daylight Time)","468877","Match,No Match","fullscreen","2","4502","0.0-2.0","","","true","","","","","","","","","","","","","",""
"","","","fullscreenfail","dfghdfgh","bdp_wmem","Tue Oct 05 2021 13:27:08 GMT-0400 (Eastern Daylight Time)","468877","Match,No Match","image-keyboard-response","3","4640","0.0-3.0-0.0","","137","","","32","","","","","","","","","","","",""
"","","","","dfghdfgh","bdp_wmem","Tue Oct 05 2021 13:27:08 GMT-0400 (Eastern Daylight Time)","468877","Match,No Match","instructions","4","8270","0.0-4.0","[{""page_index"":0,""viewing_time"":728},{""page_index"":1,""viewing_time"":548},{""page_index"":2,""viewing_time"":508},{""page_index"":3,""viewing_time"":555},{""page_index"":4,""viewing_time"":1039}]","3378","","","","","","","","","","","","","","",""
"","","","","dfghdfgh","bdp_wmem","Tue Oct 05 2021 13:27:08 GMT-0400 (Eastern Daylight Time)","468877","Match,No Match","html-keyboard-response","5","8772","0.0-5.0-1.0","","null","","<div class='trialBorder'><div class='vertical-center'><img src='img/fixation2_sml.jpg'</img></div></div>","null","FIX","","","","","","","","","","",""
"","","","","dfghdfgh","bdp_wmem","Tue Oct 05 2021 13:27:08 GMT-0400 (Eastern Daylight Time)","468877","Match,No Match","html-keyboard-response","6","11773","0.0-5.0-2.0","","null","","<div class='trialBorder'><div class='vertical-center'><img style='vertical-align:center; align:center' src='img/fixation2_sml.jpg'></div><div class='arrayDiv2'><div class='tl'><img class='introPic' src='trustrating_stim/white_mw015.bmp'><br><font color='green'><strong>Share</strong></font></div><div class='tr'><img class='introPic' src='trustrating_stim/white_mw012.bmp'><br><font color='red'><strong>Keep</strong></font></div></div></div>","null","ARRAY","2","trustrating_stim/white_mw015.bmp,trustrating_stim/white_mw012.bmp","1,0","noMatchOutcome","i","3000","","","","",""
"","","","","dfghdfgh","bdp_wmem","Tue Oct 05 2021 13:27:08 GMT-0400 (Eastern Daylight Time)","468877","Match,No Match","html-keyboard-response","7","15775","0.0-5.0-3.0","","null","","<div class='trialBorder'><div class='vertical-center'><img src='img/fixation2_sml.jpg'</img></div></div>","null","DELAY","","","","","","","","","","",""
"","","","","dfghdfgh","bdp_wmem","Tue Oct 05 2021 13:27:08 GMT-0400 (Eastern Daylight Time)","468877","Match,No Match","html-keyboard-response","8","17932","0.0-5.0-4.0","","2156","","<div class='trialBorder'><div class='targDiv'><div class='tc'><img class='introPic' src='trustrating_stim/white_mw012.bmp'><br><font color='green'><strong>Share</strong></font></div></div><div class='respDiv'><div class='respDivL'>Match<br>(e)</div><div class='respDivR'>No Match<br>(i)</div></div></div>","e","TARGET","2","trustrating_stim/white_mw015.bmp,trustrating_stim/white_mw012.bmp","1,0","noMatchOutcome","i","3000","trustrating_stim/white_mw012.bmp","green","Share","PRACTICE","0"
"","","","","dfghdfgh","bdp_wmem","Tue Oct 05 2021 13:27:08 GMT-0400 (Eastern Daylight Time)","468877","Match,No Match","html-keyboard-response","9","18434","0.0-5.0-5.0","","null","","<div class='trialBorder'><div class='vertical-center'><img src='img/error.jpg'></div><div class='respDiv'><div class='respDivL'><font style='color:orange'>Match<br>(e)</font></div><div class='respDivR'>No Match<br>(i)</div></div></div>","null","FEEDBACK","","","","","","","","","","",""
"","","","","dfghdfgh","bdp_wmem","Tue Oct 05 2021 13:27:08 GMT-0400 (Eastern Daylight Time)","468877","Match,No Match","html-keyboard-response","10","18936","0.0-5.0-1.1","","null","","<div class='trialBorder'><div class='vertical-center'><img src='img/fixation2_sml.jpg'</img></div></div>","null","FIX","","","","","","","","","","",""
"","","","","dfghdfgh","bdp_wmem","Tue Oct 05 2021 13:27:08 GMT-0400 (Eastern Daylight Time)","468877","Match,No Match","html-keyboard-response","11","21937","0.0-5.0-2.1","","null","","<div class='trialBorder'><div class='vertical-center'><img style='vertical-align:center; align:center' src='img/fixation2_sml.jpg'></div><div class='arrayDiv2'><div class='tl'><img class='introPic' src='trustrating_stim/white_mw040.bmp'><br><font color='red'><strong>Keep</strong></font></div><div class='tr'><img class='introPic' src='trustrating_stim/white_00807_941205_fb_edt.bmp'><br><font color='green'><strong>Share</strong></font></div></div></div>","null","ARRAY","2","trustrating_stim/white_mw040.bmp,trustrating_stim/white_00807_941205_fb_edt.bmp","0,1","Match","e","3000","","","","",""
"","","","","dfghdfgh","bdp_wmem","Tue Oct 05 2021 13:27:08 GMT-0400 (Eastern Daylight Time)","468877","Match,No Match","html-keyboard-response","12","25937","0.0-5.0-3.1","","null","","<div class='trialBorder'><div class='vertical-center'><img src='img/fixation2_sml.jpg'</img></div></div>","null","DELAY","","","","","","","","","","",""
"","","","","dfghdfgh","bdp_wmem","Tue Oct 05 2021 13:27:08 GMT-0400 (Eastern Daylight Time)","468877","Match,No Match","html-keyboard-response","13","25995","0.0-5.0-4.1","","58","","<div class='trialBorder'><div class='targDiv'><div class='tc'><img class='introPic' src='trustrating_stim/white_mw040.bmp'><br><font color='red'><strong>Keep</strong></font></div></div><div class='respDiv'><div class='respDivL'>Match<br>(e)</div><div class='respDivR'>No Match<br>(i)</div></div></div>","e","TARGET","2","trustrating_stim/white_mw040.bmp,trustrating_stim/white_00807_941205_fb_edt.bmp","0,1","Match","e","3000","trustrating_stim/white_mw040.bmp","red","Keep","PRACTICE","1"
"","","","","dfghdfgh","bdp_wmem","Tue Oct 05 2021 13:27:08 GMT-0400 (Eastern Daylight Time)","468877","Match,No Match","html-keyboard-response","14","26496","0.0-5.0-5.1","","null","","<div class='trialBorder'><div class='vertical-center'><img src='img/correct.jpg'></div><div class='respDiv'><div class='respDivL'><font style='color:orange'>Match<br>(e)</font></div><div class='respDivR'>No Match<br>(i)</div></div></div>","null","FEEDBACK","","","","","","","","","","",""
"","","","","dfghdfgh","bdp_wmem","Tue Oct 05 2021 13:27:08 GMT-0400 (Eastern Daylight Time)","468877","Match,No Match","html-keyboard-response","15","26997","0.0-5.0-1.2","","null","","<div class='trialBorder'><div class='vertical-center'><img src='img/fixation2_sml.jpg'</img></div></div>","null","FIX","","","","","","","","","","",""
"","","","","dfghdfgh","bdp_wmem","Tue Oct 05 2021 13:27:08 GMT-0400 (Eastern Daylight Time)","468877","Match,No Match","html-keyboard-response","16","28499","0.0-5.0-2.2","","null","","<div class='trialBorder'><div class='vertical-center'><img style='vertical-align:center; align:center' src='img/fixation2_sml.jpg'></div><div class='arrayDiv1'><div class='tc'><img class='introPic' src='trustrating_stim/white_mw070.bmp'><br><font color='red'><strong>Keep</strong></font></div></div></div>","null","ARRAY","1","trustrating_stim/white_mw070.bmp","0","noMatchFace","i","1500","","","","",""
"","","","","dfghdfgh","bdp_wmem","Tue Oct 05 2021 13:27:08 GMT-0400 (Eastern Daylight Time)","468877","Match,No Match","html-keyboard-response","17","32499","0.0-5.0-3.2","","null","","<div class='trialBorder'><div class='vertical-center'><img src='img/fixation2_sml.jpg'</img></div></div>","null","DELAY","","","","","","","","","","",""
"","","","","dfghdfgh","bdp_wmem","Tue Oct 05 2021 13:27:08 GMT-0400 (Eastern Daylight Time)","468877","Match,No Match","html-keyboard-response","18","32687","0.0-5.0-4.2","","187","","<div class='trialBorder'><div class='targDiv'><div class='tc'><img class='introPic' src='trustrating_stim/white_00050_931230_fa_edt.bmp'><br><font color='red'><strong>Keep</strong></font></div></div><div class='respDiv'><div class='respDivL'>Match<br>(e)</div><div class='respDivR'>No Match<br>(i)</div></div></div>","e","TARGET","1","trustrating_stim/white_mw070.bmp","0","noMatchFace","i","1500","trustrating_stim/white_00050_931230_fa_edt.bmp","red","Keep","PRACTICE","0"
"","","","","dfghdfgh","bdp_wmem","Tue Oct 05 2021 13:27:08 GMT-0400 (Eastern Daylight Time)","468877","Match,No Match","html-keyboard-response","19","33188","0.0-5.0-5.2","","null","","<div class='trialBorder'><div class='vertical-center'><img src='img/error.jpg'></div><div class='respDiv'><div class='respDivL'><font style='color:orange'>Match<br>(e)</font></div><div class='respDivR'>No Match<br>(i)</div></div></div>","null","FEEDBACK","","","","","","","","","","",""
"","","","","dfghdfgh","bdp_wmem","Tue Oct 05 2021 13:27:08 GMT-0400 (Eastern Daylight Time)","468877","Match,No Match","html-keyboard-response","20","33688","0.0-5.0-1.3","","null","","<div class='trialBorder'><div class='vertical-center'><img src='img/fixation2_sml.jpg'</img></div></div>","null","FIX","","","","","","","","","","",""
"","","","","dfghdfgh","bdp_wmem","Tue Oct 05 2021 13:27:08 GMT-0400 (Eastern Daylight Time)","468877","Match,No Match","html-keyboard-response","21","38190","0.0-5.0-2.3","","null","","<div class='trialBorder'><div class='vertical-center'><img style='vertical-align:center; align:center' src='img/fixation2_sml.jpg'></div><div class='arrayDiv3'><div class='tl'><img class='introPic' src='trustrating_stim/white_mw012.bmp'><br><font color='green'><strong>Share</strong></font></div><div class='tc'><img class='introPic' src='trustrating_stim/white_mw091.bmp'><br><font color='green'><strong>Share</strong></font></div><div class='tr'><img class='introPic' src='trustrating_stim/white_00050_931230_fa_edt.bmp'><br><font color='red'><strong>Keep</strong></font></div></div></div>","null","ARRAY","3","trustrating_stim/white_mw012.bmp,trustrating_stim/white_mw091.bmp,trustrating_stim/white_00050_931230_fa_edt.bmp","1,1,0","Match","e","4500","","","","",""
"","","","","dfghdfgh","bdp_wmem","Tue Oct 05 2021 13:27:08 GMT-0400 (Eastern Daylight Time)","468877","Match,No Match","html-keyboard-response","22","42192","0.0-5.0-3.3","","null","","<div class='trialBorder'><div class='vertical-center'><img src='img/fixation2_sml.jpg'</img></div></div>","null","DELAY","","","","","","","","","","",""
"","","","","dfghdfgh","bdp_wmem","Tue Oct 05 2021 13:27:08 GMT-0400 (Eastern Daylight Time)","468877","Match,No Match","html-keyboard-response","23","42227","0.0-5.0-4.3","","34","","<div class='trialBorder'><div class='targDiv'><div class='tc'><img class='introPic' src='trustrating_stim/white_mw012.bmp'><br><font color='green'><strong>Share</strong></font></div></div><div class='respDiv'><div class='respDivL'>Match<br>(e)</div><div class='respDivR'>No Match<br>(i)</div></div></div>","e","TARGET","3","trustrating_stim/white_mw012.bmp,trustrating_stim/white_mw091.bmp,trustrating_stim/white_00050_931230_fa_edt.bmp","1,1,0","Match","e","4500","trustrating_stim/white_mw012.bmp","green","Share","PRACTICE","1"
"","","","","dfghdfgh","bdp_wmem","Tue Oct 05 2021 13:27:08 GMT-0400 (Eastern Daylight Time)","468877","Match,No Match","html-keyboard-response","24","42729","0.0-5.0-5.3","","null","","<div class='trialBorder'><div class='vertical-center'><img src='img/correct.jpg'></div><div class='respDiv'><div class='respDivL'><font style='color:orange'>Match<br>(e)</font></div><div class='respDivR'>No Match<br>(i)</div></div></div>","null","FEEDBACK","","","","","","","","","","",""
"","","","","dfghdfgh","bdp_wmem","Tue Oct 05 2021 13:27:08 GMT-0400 (Eastern Daylight Time)","468877","Match,No Match","html-keyboard-response","25","43230","0.0-5.0-1.4","","null","","<div class='trialBorder'><div class='vertical-center'><img src='img/fixation2_sml.jpg'</img></div></div>","null","FIX","","","","","","","","","","",""
"","","","","dfghdfgh","bdp_wmem","Tue Oct 05 2021 13:27:08 GMT-0400 (Eastern Daylight Time)","468877","Match,No Match","html-keyboard-response","26","44730","0.0-5.0-2.4","","null","","<div class='trialBorder'><div class='vertical-center'><img style='vertical-align:center; align:center' src='img/fixation2_sml.jpg'></div><div class='arrayDiv1'><div class='tc'><img class='introPic' src='trustrating_stim/white_00050_931230_fa_edt.bmp'><br><font color='red'><strong>Keep</strong></font></div></div></div>","null","ARRAY","1","trustrating_stim/white_00050_931230_fa_edt.bmp","0","Match","e","1500","","","","",""
"","","","","dfghdfgh","bdp_wmem","Tue Oct 05 2021 13:27:08 GMT-0400 (Eastern Daylight Time)","468877","Match,No Match","html-keyboard-response","27","48730","0.0-5.0-3.4","","null","","<div class='trialBorder'><div class='vertical-center'><img src='img/fixation2_sml.jpg'</img></div></div>","null","DELAY","","","","","","","","","","",""
"","","","","dfghdfgh","bdp_wmem","Tue Oct 05 2021 13:27:08 GMT-0400 (Eastern Daylight Time)","468877","Match,No Match","html-keyboard-response","28","48749","0.0-5.0-4.4","","17","","<div class='trialBorder'><div class='targDiv'><div class='tc'><img class='introPic' src='trustrating_stim/white_00050_931230_fa_edt.bmp'><br><font color='red'><strong>Keep</strong></font></div></div><div class='respDiv'><div class='respDivL'>Match<br>(e)</div><div class='respDivR'>No Match<br>(i)</div></div></div>","e","TARGET","1","trustrating_stim/white_00050_931230_fa_edt.bmp","0","Match","e","1500","trustrating_stim/white_00050_931230_fa_edt.bmp","red","Keep","PRACTICE","1"
"","","","","dfghdfgh","bdp_wmem","Tue Oct 05 2021 13:27:08 GMT-0400 (Eastern Daylight Time)","468877","Match,No Match","html-keyboard-response","29","49249","0.0-5.0-5.4","","null","","<div class='trialBorder'><div class='vertical-center'><img src='img/correct.jpg'></div><div class='respDiv'><div class='respDivL'><font style='color:orange'>Match<br>(e)</font></div><div class='respDivR'>No Match<br>(i)</div></div></div>","null","FEEDBACK","","","","","","","","","","",""
"","","","","dfghdfgh","bdp_wmem","Tue Oct 05 2021 13:27:08 GMT-0400 (Eastern Daylight Time)","468877","Match,No Match","html-keyboard-response","30","49751","0.0-5.0-1.5","","null","","<div class='trialBorder'><div class='vertical-center'><img src='img/fixation2_sml.jpg'</img></div></div>","null","FIX","","","","","","","","","","",""
"","","","","dfghdfgh","bdp_wmem","Tue Oct 05 2021 13:27:08 GMT-0400 (Eastern Daylight Time)","468877","Match,No Match","html-keyboard-response","31","54252","0.0-5.0-2.5","","null","","<div class='trialBorder'><div class='vertical-center'><img style='vertical-align:center; align:center' src='img/fixation2_sml.jpg'></div><div class='arrayDiv3'><div class='tl'><img class='introPic' src='trustrating_stim/white_mw015.bmp'><br><font color='red'><strong>Keep</strong></font></div><div class='tc'><img class='introPic' src='trustrating_stim/white_00050_931230_fa_edt.bmp'><br><font color='green'><strong>Share</strong></font></div><div class='tr'><img class='introPic' src='trustrating_stim/white_mw012.bmp'><br><font color='red'><strong>Keep</strong></font></div></div></div>","null","ARRAY","3","trustrating_stim/white_mw015.bmp,trustrating_stim/white_00050_931230_fa_edt.bmp,trustrating_stim/white_mw012.bmp","0,1,0","noMatchOutcome","i","4500","","","","",""
"","","","","dfghdfgh","bdp_wmem","Tue Oct 05 2021 13:27:08 GMT-0400 (Eastern Daylight Time)","468877","Match,No Match","html-keyboard-response","32","58253","0.0-5.0-3.5","","null","","<div class='trialBorder'><div class='vertical-center'><img src='img/fixation2_sml.jpg'</img></div></div>","null","DELAY","","","","","","","","","","",""
"","","","","dfghdfgh","bdp_wmem","Tue Oct 05 2021 13:27:08 GMT-0400 (Eastern Daylight Time)","468877","Match,No Match","html-keyboard-response","33","58412","0.0-5.0-4.5","","159","","<div class='trialBorder'><div class='targDiv'><div class='tc'><img class='introPic' src='trustrating_stim/white_mw015.bmp'><br><font color='green'><strong>Share</strong></font></div></div><div class='respDiv'><div class='respDivL'>Match<br>(e)</div><div class='respDivR'>No Match<br>(i)</div></div></div>","e","TARGET","3","trustrating_stim/white_mw015.bmp,trustrating_stim/white_00050_931230_fa_edt.bmp,trustrating_stim/white_mw012.bmp","0,1,0","noMatchOutcome","i","4500","trustrating_stim/white_mw015.bmp","green","Share","PRACTICE","0"
"","","","","dfghdfgh","bdp_wmem","Tue Oct 05 2021 13:27:08 GMT-0400 (Eastern Daylight Time)","468877","Match,No Match","html-keyboard-response","34","58913","0.0-5.0-5.5","","null","","<div class='trialBorder'><div class='vertical-center'><img src='img/error.jpg'></div><div class='respDiv'><div class='respDivL'><font style='color:orange'>Match<br>(e)</font></div><div class='respDivR'>No Match<br>(i)</div></div></div>","null","FEEDBACK","","","","","","","","","","",""
"","","","","dfghdfgh","bdp_wmem","Tue Oct 05 2021 13:27:08 GMT-0400 (Eastern Daylight Time)","468877","Match,No Match","instructions","35","76664","0.0-6.0","[{""page_index"":0,""viewing_time"":17751}]","17751","","","","","","","","","","","","","","",""
"","","","","dfghdfgh","bdp_wmem","Tue Oct 05 2021 13:27:08 GMT-0400 (Eastern Daylight Time)","468877","Match,No Match","html-keyboard-response","36","77165","0.0-7.0-1.0","","null","","<div class='trialBorder'><div class='vertical-center'><img src='img/fixation2_sml.jpg'</img></div></div>","null","FIX","","","","","","","","","","",""
"","","","","dfghdfgh","bdp_wmem","Tue Oct 05 2021 13:27:08 GMT-0400 (Eastern Daylight Time)","468877","Match,No Match","html-keyboard-response","37","81666","0.0-7.0-2.0","","null","","<div class='trialBorder'><div class='vertical-center'><img style='vertical-align:center; align:center' src='img/fixation2_sml.jpg'></div><div class='arrayDiv3'><div class='tl'><img class='introPic' src='trustrating_stim/white_mw012.bmp'><br><font color='green'><strong>Share</strong></font></div><div class='tc'><img class='introPic' src='trustrating_stim/white_00807_941205_fb_edt.bmp'><br><font color='green'><strong>Share</strong></font></div><div class='tr'><img class='introPic' src='trustrating_stim/white_mw070.bmp'><br><font color='red'><strong>Keep</strong></font></div></div></div>","null","ARRAY","3","trustrating_stim/white_mw012.bmp,trustrating_stim/white_00807_941205_fb_edt.bmp,trustrating_stim/white_mw070.bmp","1,1,0","Match","e","4500","","","","",""
"","","","","dfghdfgh","bdp_wmem","Tue Oct 05 2021 13:27:08 GMT-0400 (Eastern Daylight Time)","468877","Match,No Match","html-keyboard-response","38","85667","0.0-7.0-3.0","","null","","<div class='trialBorder'><div class='vertical-center'><img src='img/fixation2_sml.jpg'</img></div></div>","null","DELAY","","","","","","","","","","",""
"","","","","dfghdfgh","bdp_wmem","Tue Oct 05 2021 13:27:08 GMT-0400 (Eastern Daylight Time)","468877","Match,No Match","html-keyboard-response","39","85707","0.0-7.0-4.0","","40","","<div class='trialBorder'><div class='targDiv'><div class='tc'><img class='introPic' src='trustrating_stim/white_mw012.bmp'><br><font color='green'><strong>Share</strong></font></div></div><div class='respDiv'><div class='respDivL'>Match<br>(e)</div><div class='respDivR'>No Match<br>(i)</div></div></div>","e","TARGET","3","trustrating_stim/white_mw012.bmp,trustrating_stim/white_00807_941205_fb_edt.bmp,trustrating_stim/white_mw070.bmp","1,1,0","Match","e","4500","trustrating_stim/white_mw012.bmp","green","Share","REAL","1"
"","","","","dfghdfgh","bdp_wmem","Tue Oct 05 2021 13:27:08 GMT-0400 (Eastern Daylight Time)","468877","Match,No Match","html-keyboard-response","40","86209","0.0-7.0-5.0","","null","","<div class='trialBorder'><div class='vertical-center'><img src='img/correct.jpg'></div><div class='respDiv'><div class='respDivL'><font style='color:orange'>Match<br>(e)</font></div><div class='respDivR'>No Match<br>(i)</div></div></div>","null","FEEDBACK","","","","","","","","","","",""
"","","","","dfghdfgh","bdp_wmem","Tue Oct 05 2021 13:27:08 GMT-0400 (Eastern Daylight Time)","468877","Match,No Match","html-keyboard-response","41","86710","0.0-7.0-1.1","","null","","<div class='trialBorder'><div class='vertical-center'><img src='img/fixation2_sml.jpg'</img></div></div>","null","FIX","","","","","","","","","","",""
"","","","","dfghdfgh","bdp_wmem","Tue Oct 05 2021 13:27:08 GMT-0400 (Eastern Daylight Time)","468877","Match,No Match","html-keyboard-response","42","89711","0.0-7.0-2.1","","null","","<div class='trialBorder'><div class='vertical-center'><img style='vertical-align:center; align:center' src='img/fixation2_sml.jpg'></div><div class='arrayDiv2'><div class='tl'><img class='introPic' src='trustrating_stim/white_00807_941205_fb_edt.bmp'><br><font color='green'><strong>Share</strong></font></div><div class='tr'><img class='introPic' src='trustrating_stim/white_mw015.bmp'><br><font color='red'><strong>Keep</strong></font></div></div></div>","null","ARRAY","2","trustrating_stim/white_00807_941205_fb_edt.bmp,trustrating_stim/white_mw015.bmp","1,0","Match","e","3000","","","","",""
"","","","","dfghdfgh","bdp_wmem","Tue Oct 05 2021 13:27:08 GMT-0400 (Eastern Daylight Time)","468877","Match,No Match","html-keyboard-response","43","93713","0.0-7.0-3.1","","null","","<div class='trialBorder'><div class='vertical-center'><img src='img/fixation2_sml.jpg'</img></div></div>","null","DELAY","","","","","","","","","","",""
"","","","","dfghdfgh","bdp_wmem","Tue Oct 05 2021 13:27:08 GMT-0400 (Eastern Daylight Time)","468877","Match,No Match","html-keyboard-response","44","93886","0.0-7.0-4.1","","172","","<div class='trialBorder'><div class='targDiv'><div class='tc'><img class='introPic' src='trustrating_stim/white_00807_941205_fb_edt.bmp'><br><font color='green'><strong>Share</strong></font></div></div><div class='respDiv'><div class='respDivL'>Match<br>(e)</div><div class='respDivR'>No Match<br>(i)</div></div></div>","e","TARGET","2","trustrating_stim/white_00807_941205_fb_edt.bmp,trustrating_stim/white_mw015.bmp","1,0","Match","e","3000","trustrating_stim/white_00807_941205_fb_edt.bmp","green","Share","REAL","1"
"","","","","dfghdfgh","bdp_wmem","Tue Oct 05 2021 13:27:08 GMT-0400 (Eastern Daylight Time)","468877","Match,No Match","html-keyboard-response","45","94389","0.0-7.0-5.1","","null","","<div class='trialBorder'><div class='vertical-center'><img src='img/correct.jpg'></div><div class='respDiv'><div class='respDivL'><font style='color:orange'>Match<br>(e)</font></div><div class='respDivR'>No Match<br>(i)</div></div></div>","null","FEEDBACK","","","","","","","","","","",""
"","","","","dfghdfgh","bdp_wmem","Tue Oct 05 2021 13:27:08 GMT-0400 (Eastern Daylight Time)","468877","Match,No Match","html-keyboard-response","46","94890","0.0-7.0-1.2","","null","","<div class='trialBorder'><div class='vertical-center'><img src='img/fixation2_sml.jpg'</img></div></div>","null","FIX","","","","","","","","","","",""
"","","","","dfghdfgh","bdp_wmem","Tue Oct 05 2021 13:27:08 GMT-0400 (Eastern Daylight Time)","468877","Match,No Match","html-keyboard-response","47","97892","0.0-7.0-2.2","","null","","<div class='trialBorder'><div class='vertical-center'><img style='vertical-align:center; align:center' src='img/fixation2_sml.jpg'></div><div class='arrayDiv2'><div class='tl'><img class='introPic' src='trustrating_stim/white_mw040.bmp'><br><font color='green'><strong>Share</strong></font></div><div class='tr'><img class='introPic' src='trustrating_stim/white_00050_931230_fa_edt.bmp'><br><font color='red'><strong>Keep</strong></font></div></div></div>","null","ARRAY","2","trustrating_stim/white_mw040.bmp,trustrating_stim/white_00050_931230_fa_edt.bmp","1,0","noMatchFace","i","3000","","","","",""
"","","","","dfghdfgh","bdp_wmem","Tue Oct 05 2021 13:27:08 GMT-0400 (Eastern Daylight Time)","468877","Match,No Match","html-keyboard-response","48","101894","0.0-7.0-3.2","","null","","<div class='trialBorder'><div class='vertical-center'><img src='img/fixation2_sml.jpg'</img></div></div>","null","DELAY","","","","","","","","","","",""
"","","","","dfghdfgh","bdp_wmem","Tue Oct 05 2021 13:27:08 GMT-0400 (Eastern Daylight Time)","468877","Match,No Match","html-keyboard-response","49","102093","0.0-7.0-4.2","","198","","<div class='trialBorder'><div class='targDiv'><div class='tc'><img class='introPic' src='trustrating_stim/white_mw015.bmp'><br><font color='green'><strong>Share</strong></font></div></div><div class='respDiv'><div class='respDivL'>Match<br>(e)</div><div class='respDivR'>No Match<br>(i)</div></div></div>","e","TARGET","2","trustrating_stim/white_mw040.bmp,trustrating_stim/white_00050_931230_fa_edt.bmp","1,0","noMatchFace","i","3000","trustrating_stim/white_mw015.bmp","green","Share","REAL","0"
"","","","","dfghdfgh","bdp_wmem","Tue Oct 05 2021 13:27:08 GMT-0400 (Eastern Daylight Time)","468877","Match,No Match","html-keyboard-response","50","102594","0.0-7.0-5.2","","null","","<div class='trialBorder'><div class='vertical-center'><img src='img/error.jpg'></div><div class='respDiv'><div class='respDivL'><font style='color:orange'>Match<br>(e)</font></div><div class='respDivR'>No Match<br>(i)</div></div></div>","null","FEEDBACK","","","","","","","","","","",""
"","","","","dfghdfgh","bdp_wmem","Tue Oct 05 2021 13:27:08 GMT-0400 (Eastern Daylight Time)","468877","Match,No Match","html-keyboard-response","51","103095","0.0-7.0-1.3","","null","","<div class='trialBorder'><div class='vertical-center'><img src='img/fixation2_sml.jpg'</img></div></div>","null","FIX","","","","","","","","","","",""
"","","","","dfghdfgh","bdp_wmem","Tue Oct 05 2021 13:27:08 GMT-0400 (Eastern Daylight Time)","468877","Match,No Match","html-keyboard-response","52","104596","0.0-7.0-2.3","","null","","<div class='trialBorder'><div class='vertical-center'><img style='vertical-align:center; align:center' src='img/fixation2_sml.jpg'></div><div class='arrayDiv1'><div class='tc'><img class='introPic' src='trustrating_stim/white_mw092.bmp'><br><font color='red'><strong>Keep</strong></font></div></div></div>","null","ARRAY","1","trustrating_stim/white_mw092.bmp","0","noMatchOutcome","i","1500","","","","",""
"","","","","dfghdfgh","bdp_wmem","Tue Oct 05 2021 13:27:08 GMT-0400 (Eastern Daylight Time)","468877","Match,No Match","html-keyboard-response","53","108597","0.0-7.0-3.3","","null","","<div class='trialBorder'><div class='vertical-center'><img src='img/fixation2_sml.jpg'</img></div></div>","null","DELAY","","","","","","","","","","",""
"","","","","dfghdfgh","bdp_wmem","Tue Oct 05 2021 13:27:08 GMT-0400 (Eastern Daylight Time)","468877","Match,No Match","html-keyboard-response","54","108665","0.0-7.0-4.3","","68","","<div class='trialBorder'><div class='targDiv'><div class='tc'><img class='introPic' src='trustrating_stim/white_mw092.bmp'><br><font color='green'><strong>Share</strong></font></div></div><div class='respDiv'><div class='respDivL'>Match<br>(e)</div><div class='respDivR'>No Match<br>(i)</div></div></div>","e","TARGET","1","trustrating_stim/white_mw092.bmp","0","noMatchOutcome","i","1500","trustrating_stim/white_mw092.bmp","green","Share","REAL","0"
"","","","","dfghdfgh","bdp_wmem","Tue Oct 05 2021 13:27:08 GMT-0400 (Eastern Daylight Time)","468877","Match,No Match","html-keyboard-response","55","109166","0.0-7.0-5.3","","null","","<div class='trialBorder'><div class='vertical-center'><img src='img/error.jpg'></div><div class='respDiv'><div class='respDivL'><font style='color:orange'>Match<br>(e)</font></div><div class='respDivR'>No Match<br>(i)</div></div></div>","null","FEEDBACK","","","","","","","","","","",""
"","","","","dfghdfgh","bdp_wmem","Tue Oct 05 2021 13:27:08 GMT-0400 (Eastern Daylight Time)","468877","Match,No Match","html-keyboard-response","56","109669","0.0-7.0-1.4","","null","","<div class='trialBorder'><div class='vertical-center'><img src='img/fixation2_sml.jpg'</img></div></div>","null","FIX","","","","","","","","","","",""
"","","","","dfghdfgh","bdp_wmem","Tue Oct 05 2021 13:27:08 GMT-0400 (Eastern Daylight Time)","468877","Match,No Match","html-keyboard-response","57","114169","0.0-7.0-2.4","","null","","<div class='trialBorder'><div class='vertical-center'><img style='vertical-align:center; align:center' src='img/fixation2_sml.jpg'></div><div class='arrayDiv3'><div class='tl'><img class='introPic' src='trustrating_stim/white_mw003.bmp'><br><font color='green'><strong>Share</strong></font></div><div class='tc'><img class='introPic' src='trustrating_stim/white_00050_931230_fa_edt.bmp'><br><font color='red'><strong>Keep</strong></font></div><div class='tr'><img class='introPic' src='trustrating_stim/white_mw013.bmp'><br><font color='red'><strong>Keep</strong></font></div></div></div>","null","ARRAY","3","trustrating_stim/white_mw003.bmp,trustrating_stim/white_00050_931230_fa_edt.bmp,trustrating_stim/white_mw013.bmp","1,0,0","Match","e","4500","","","","",""
"","","","","dfghdfgh","bdp_wmem","Tue Oct 05 2021 13:27:08 GMT-0400 (Eastern Daylight Time)","468877","Match,No Match","html-keyboard-response","58","118171","0.0-7.0-3.4","","null","","<div class='trialBorder'><div class='vertical-center'><img src='img/fixation2_sml.jpg'</img></div></div>","null","DELAY","","","","","","","","","","",""
"","","","","dfghdfgh","bdp_wmem","Tue Oct 05 2021 13:27:08 GMT-0400 (Eastern Daylight Time)","468877","Match,No Match","html-keyboard-response","59","118369","0.0-7.0-4.4","","197","","<div class='trialBorder'><div class='targDiv'><div class='tc'><img class='introPic' src='trustrating_stim/white_00050_931230_fa_edt.bmp'><br><font color='red'><strong>Keep</strong></font></div></div><div class='respDiv'><div class='respDivL'>Match<br>(e)</div><div class='respDivR'>No Match<br>(i)</div></div></div>","e","TARGET","3","trustrating_stim/white_mw003.bmp,trustrating_stim/white_00050_931230_fa_edt.bmp,trustrating_stim/white_mw013.bmp","1,0,0","Match","e","4500","trustrating_stim/white_00050_931230_fa_edt.bmp","red","Keep","REAL","1"
"","","","","dfghdfgh","bdp_wmem","Tue Oct 05 2021 13:27:08 GMT-0400 (Eastern Daylight Time)","468877","Match,No Match","html-keyboard-response","60","118869","0.0-7.0-5.4","","null","","<div class='trialBorder'><div class='vertical-center'><img src='img/correct.jpg'></div><div class='respDiv'><div class='respDivL'><font style='color:orange'>Match<br>(e)</font></div><div class='respDivR'>No Match<br>(i)</div></div></div>","null","FEEDBACK","","","","","","","","","","",""
"","","","","dfghdfgh","bdp_wmem","Tue Oct 05 2021 13:27:08 GMT-0400 (Eastern Daylight Time)","468877","Match,No Match","html-keyboard-response","61","119370","0.0-7.0-1.5","","null","","<div class='trialBorder'><div class='vertical-center'><img src='img/fixation2_sml.jpg'</img></div></div>","null","FIX","","","","","","","","","","",""
"","","","","dfghdfgh","bdp_wmem","Tue Oct 05 2021 13:27:08 GMT-0400 (Eastern Daylight Time)","468877","Match,No Match","html-keyboard-response","62","122370","0.0-7.0-2.5","","null","","<div class='trialBorder'><div class='vertical-center'><img style='vertical-align:center; align:center' src='img/fixation2_sml.jpg'></div><div class='arrayDiv2'><div class='tl'><img class='introPic' src='trustrating_stim/white_mw040.bmp'><br><font color='red'><strong>Keep</strong></font></div><div class='tr'><img class='introPic' src='trustrating_stim/white_00807_941205_fb_edt.bmp'><br><font color='green'><strong>Share</strong></font></div></div></div>","null","ARRAY","2","trustrating_stim/white_mw040.bmp,trustrating_stim/white_00807_941205_fb_edt.bmp","0,1","Match","e","3000","","","","",""
"","","","","dfghdfgh","bdp_wmem","Tue Oct 05 2021 13:27:08 GMT-0400 (Eastern Daylight Time)","468877","Match,No Match","html-keyboard-response","63","126372","0.0-7.0-3.5","","null","","<div class='trialBorder'><div class='vertical-center'><img src='img/fixation2_sml.jpg'</img></div></div>","null","DELAY","","","","","","","","","","",""
"","","","","dfghdfgh","bdp_wmem","Tue Oct 05 2021 13:27:08 GMT-0400 (Eastern Daylight Time)","468877","Match,No Match","html-keyboard-response","64","126551","0.0-7.0-4.5","","179","","<div class='trialBorder'><div class='targDiv'><div class='tc'><img class='introPic' src='trustrating_stim/white_00807_941205_fb_edt.bmp'><br><font color='green'><strong>Share</strong></font></div></div><div class='respDiv'><div class='respDivL'>Match<br>(e)</div><div class='respDivR'>No Match<br>(i)</div></div></div>","e","TARGET","2","trustrating_stim/white_mw040.bmp,trustrating_stim/white_00807_941205_fb_edt.bmp","0,1","Match","e","3000","trustrating_stim/white_00807_941205_fb_edt.bmp","green","Share","REAL","1"
"","","","","dfghdfgh","bdp_wmem","Tue Oct 05 2021 13:27:08 GMT-0400 (Eastern Daylight Time)","468877","Match,No Match","html-keyboard-response","65","127052","0.0-7.0-5.5","","null","","<div class='trialBorder'><div class='vertical-center'><img src='img/correct.jpg'></div><div class='respDiv'><div class='respDivL'><font style='color:orange'>Match<br>(e)</font></div><div class='respDivR'>No Match<br>(i)</div></div></div>","null","FEEDBACK","","","","","","","","","","",""
"","","","","dfghdfgh","bdp_wmem","Tue Oct 05 2021 13:27:08 GMT-0400 (Eastern Daylight Time)","468877","Match,No Match","html-keyboard-response","66","127552","0.0-7.0-1.6","","null","","<div class='trialBorder'><div class='vertical-center'><img src='img/fixation2_sml.jpg'</img></div></div>","null","FIX","","","","","","","","","","",""
"","","","","dfghdfgh","bdp_wmem","Tue Oct 05 2021 13:27:08 GMT-0400 (Eastern Daylight Time)","468877","Match,No Match","html-keyboard-response","67","129054","0.0-7.0-2.6","","null","","<div class='trialBorder'><div class='vertical-center'><img style='vertical-align:center; align:center' src='img/fixation2_sml.jpg'></div><div class='arrayDiv1'><div class='tc'><img class='introPic' src='trustrating_stim/white_mw091.bmp'><br><font color='green'><strong>Share</strong></font></div></div></div>","null","ARRAY","1","trustrating_stim/white_mw091.bmp","1","Match","e","1500","","","","",""
"","","","","dfghdfgh","bdp_wmem","Tue Oct 05 2021 13:27:08 GMT-0400 (Eastern Daylight Time)","468877","Match,No Match","html-keyboard-response","68","133056","0.0-7.0-3.6","","null","","<div class='trialBorder'><div class='vertical-center'><img src='img/fixation2_sml.jpg'</img></div></div>","null","DELAY","","","","","","","","","","",""
"","","","","dfghdfgh","bdp_wmem","Tue Oct 05 2021 13:27:08 GMT-0400 (Eastern Daylight Time)","468877","Match,No Match","html-keyboard-response","69","133107","0.0-7.0-4.6","","51","","<div class='trialBorder'><div class='targDiv'><div class='tc'><img class='introPic' src='trustrating_stim/white_mw091.bmp'><br><font color='green'><strong>Share</strong></font></div></div><div class='respDiv'><div class='respDivL'>Match<br>(e)</div><div class='respDivR'>No Match<br>(i)</div></div></div>","e","TARGET","1","trustrating_stim/white_mw091.bmp","1","Match","e","1500","trustrating_stim/white_mw091.bmp","green","Share","REAL","1"
"","","","","dfghdfgh","bdp_wmem","Tue Oct 05 2021 13:27:08 GMT-0400 (Eastern Daylight Time)","468877","Match,No Match","html-keyboard-response","70","133608","0.0-7.0-5.6","","null","","<div class='trialBorder'><div class='vertical-center'><img src='img/correct.jpg'></div><div class='respDiv'><div class='respDivL'><font style='color:orange'>Match<br>(e)</font></div><div class='respDivR'>No Match<br>(i)</div></div></div>","null","FEEDBACK","","","","","","","","","","",""
"","","","","dfghdfgh","bdp_wmem","Tue Oct 05 2021 13:27:08 GMT-0400 (Eastern Daylight Time)","468877","Match,No Match","html-keyboard-response","71","134110","0.0-7.0-1.7","","null","","<div class='trialBorder'><div class='vertical-center'><img src='img/fixation2_sml.jpg'</img></div></div>","null","FIX","","","","","","","","","","",""
"","","","","dfghdfgh","bdp_wmem","Tue Oct 05 2021 13:27:08 GMT-0400 (Eastern Daylight Time)","468877","Match,No Match","html-keyboard-response","72","138610","0.0-7.0-2.7","","null","","<div class='trialBorder'><div class='vertical-center'><img style='vertical-align:center; align:center' src='img/fixation2_sml.jpg'></div><div class='arrayDiv3'><div class='tl'><img class='introPic' src='trustrating_stim/white_mw070.bmp'><br><font color='red'><strong>Keep</strong></font></div><div class='tc'><img class='introPic' src='trustrating_stim/white_mw091.bmp'><br><font color='green'><strong>Share</strong></font></div><div class='tr'><img class='introPic' src='trustrating_stim/white_mw040.bmp'><br><font color='green'><strong>Share</strong></font></div></div></div>","null","ARRAY","3","trustrating_stim/white_mw070.bmp,trustrating_stim/white_mw091.bmp,trustrating_stim/white_mw040.bmp","0,1,1","noMatchFace","i","4500","","","","",""
"","","","","dfghdfgh","bdp_wmem","Tue Oct 05 2021 13:27:08 GMT-0400 (Eastern Daylight Time)","468877","Match,No Match","html-keyboard-response","73","142611","0.0-7.0-3.7","","null","","<div class='trialBorder'><div class='vertical-center'><img src='img/fixation2_sml.jpg'</img></div></div>","null","DELAY","","","","","","","","","","",""
"","","","","dfghdfgh","bdp_wmem","Tue Oct 05 2021 13:27:08 GMT-0400 (Eastern Daylight Time)","468877","Match,No Match","html-keyboard-response","74","142719","0.0-7.0-4.7","","108","","<div class='trialBorder'><div class='targDiv'><div class='tc'><img class='introPic' src='trustrating_stim/white_mw015.bmp'><br><font color='green'><strong>Share</strong></font></div></div><div class='respDiv'><div class='respDivL'>Match<br>(e)</div><div class='respDivR'>No Match<br>(i)</div></div></div>","e","TARGET","3","trustrating_stim/white_mw070.bmp,trustrating_stim/white_mw091.bmp,trustrating_stim/white_mw040.bmp","0,1,1","noMatchFace","i","4500","trustrating_stim/white_mw015.bmp","green","Share","REAL","0"
"","","","","dfghdfgh","bdp_wmem","Tue Oct 05 2021 13:27:08 GMT-0400 (Eastern Daylight Time)","468877","Match,No Match","html-keyboard-response","75","143220","0.0-7.0-5.7","","null","","<div class='trialBorder'><div class='vertical-center'><img src='img/error.jpg'></div><div class='respDiv'><div class='respDivL'><font style='color:orange'>Match<br>(e)</font></div><div class='respDivR'>No Match<br>(i)</div></div></div>","null","FEEDBACK","","","","","","","","","","",""
"","","","","dfghdfgh","bdp_wmem","Tue Oct 05 2021 13:27:08 GMT-0400 (Eastern Daylight Time)","468877","Match,No Match","html-keyboard-response","76","143722","0.0-7.0-1.8","","null","","<div class='trialBorder'><div class='vertical-center'><img src='img/fixation2_sml.jpg'</img></div></div>","null","FIX","","","","","","","","","","",""
"","","","","dfghdfgh","bdp_wmem","Tue Oct 05 2021 13:27:08 GMT-0400 (Eastern Daylight Time)","468877","Match,No Match","html-keyboard-response","77","146724","0.0-7.0-2.8","","null","","<div class='trialBorder'><div class='vertical-center'><img style='vertical-align:center; align:center' src='img/fixation2_sml.jpg'></div><div class='arrayDiv2'><div class='tl'><img class='introPic' src='trustrating_stim/white_00050_931230_fa_edt.bmp'><br><font color='green'><strong>Share</strong></font></div><div class='tr'><img class='introPic' src='trustrating_stim/white_mw015.bmp'><br><font color='red'><strong>Keep</strong></font></div></div></div>","null","ARRAY","2","trustrating_stim/white_00050_931230_fa_edt.bmp,trustrating_stim/white_mw015.bmp","1,0","noMatchOutcome","i","3000","","","","",""
"","","","","dfghdfgh","bdp_wmem","Tue Oct 05 2021 13:27:08 GMT-0400 (Eastern Daylight Time)","468877","Match,No Match","html-keyboard-response","78","150724","0.0-7.0-3.8","","null","","<div class='trialBorder'><div class='vertical-center'><img src='img/fixation2_sml.jpg'</img></div></div>","null","DELAY","","","","","","","","","","",""
"","","","","dfghdfgh","bdp_wmem","Tue Oct 05 2021 13:27:08 GMT-0400 (Eastern Daylight Time)","468877","Match,No Match","html-keyboard-response","79","150789","0.0-7.0-4.8","","64","","<div class='trialBorder'><div class='targDiv'><div class='tc'><img class='introPic' src='trustrating_stim/white_mw015.bmp'><br><font color='green'><strong>Share</strong></font></div></div><div class='respDiv'><div class='respDivL'>Match<br>(e)</div><div class='respDivR'>No Match<br>(i)</div></div></div>","e","TARGET","2","trustrating_stim/white_00050_931230_fa_edt.bmp,trustrating_stim/white_mw015.bmp","1,0","noMatchOutcome","i","3000","trustrating_stim/white_mw015.bmp","green","Share","REAL","0"
"","","","","dfghdfgh","bdp_wmem","Tue Oct 05 2021 13:27:08 GMT-0400 (Eastern Daylight Time)","468877","Match,No Match","html-keyboard-response","80","151291","0.0-7.0-5.8","","null","","<div class='trialBorder'><div class='vertical-center'><img src='img/error.jpg'></div><div class='respDiv'><div class='respDivL'><font style='color:orange'>Match<br>(e)</font></div><div class='respDivR'>No Match<br>(i)</div></div></div>","null","FEEDBACK","","","","","","","","","","",""
"","","","","dfghdfgh","bdp_wmem","Tue Oct 05 2021 13:27:08 GMT-0400 (Eastern Daylight Time)","468877","Match,No Match","html-keyboard-response","81","151792","0.0-7.0-1.9","","null","","<div class='trialBorder'><div class='vertical-center'><img src='img/fixation2_sml.jpg'</img></div></div>","null","FIX","","","","","","","","","","",""
"","","","","dfghdfgh","bdp_wmem","Tue Oct 05 2021 13:27:08 GMT-0400 (Eastern Daylight Time)","468877","Match,No Match","html-keyboard-response","82","153292","0.0-7.0-2.9","","null","","<div class='trialBorder'><div class='vertical-center'><img style='vertical-align:center; align:center' src='img/fixation2_sml.jpg'></div><div class='arrayDiv1'><div class='tc'><img class='introPic' src='trustrating_stim/white_mw091.bmp'><br><font color='red'><strong>Keep</strong></font></div></div></div>","null","ARRAY","1","trustrating_stim/white_mw091.bmp","0","Match","e","1500","","","","",""
"","","","","dfghdfgh","bdp_wmem","Tue Oct 05 2021 13:27:08 GMT-0400 (Eastern Daylight Time)","468877","Match,No Match","html-keyboard-response","83","157294","0.0-7.0-3.9","","null","","<div class='trialBorder'><div class='vertical-center'><img src='img/fixation2_sml.jpg'</img></div></div>","null","DELAY","","","","","","","","","","",""
"","","","","dfghdfgh","bdp_wmem","Tue Oct 05 2021 13:27:08 GMT-0400 (Eastern Daylight Time)","468877","Match,No Match","html-keyboard-response","84","157375","0.0-7.0-4.9","","80","","<div class='trialBorder'><div class='targDiv'><div class='tc'><img class='introPic' src='trustrating_stim/white_mw091.bmp'><br><font color='red'><strong>Keep</strong></font></div></div><div class='respDiv'><div class='respDivL'>Match<br>(e)</div><div class='respDivR'>No Match<br>(i)</div></div></div>","e","TARGET","1","trustrating_stim/white_mw091.bmp","0","Match","e","1500","trustrating_stim/white_mw091.bmp","red","Keep","REAL","1"
"","","","","dfghdfgh","bdp_wmem","Tue Oct 05 2021 13:27:08 GMT-0400 (Eastern Daylight Time)","468877","Match,No Match","html-keyboard-response","85","157876","0.0-7.0-5.9","","null","","<div class='trialBorder'><div class='vertical-center'><img src='img/correct.jpg'></div><div class='respDiv'><div class='respDivL'><font style='color:orange'>Match<br>(e)</font></div><div class='respDivR'>No Match<br>(i)</div></div></div>","null","FEEDBACK","","","","","","","","","","",""
"","","","","dfghdfgh","bdp_wmem","Tue Oct 05 2021 13:27:08 GMT-0400 (Eastern Daylight Time)","468877","Match,No Match","html-keyboard-response","86","158377","0.0-7.0-1.10","","null","","<div class='trialBorder'><div class='vertical-center'><img src='img/fixation2_sml.jpg'</img></div></div>","null","FIX","","","","","","","","","","",""
"","","","","dfghdfgh","bdp_wmem","Tue Oct 05 2021 13:27:08 GMT-0400 (Eastern Daylight Time)","468877","Match,No Match","html-keyboard-response","87","159879","0.0-7.0-2.10","","null","","<div class='trialBorder'><div class='vertical-center'><img style='vertical-align:center; align:center' src='img/fixation2_sml.jpg'></div><div class='arrayDiv1'><div class='tc'><img class='introPic' src='trustrating_stim/white_00807_941205_fb_edt.bmp'><br><font color='red'><strong>Keep</strong></font></div></div></div>","null","ARRAY","1","trustrating_stim/white_00807_941205_fb_edt.bmp","0","Match","e","1500","","","","",""
"","","","","dfghdfgh","bdp_wmem","Tue Oct 05 2021 13:27:08 GMT-0400 (Eastern Daylight Time)","468877","Match,No Match","html-keyboard-response","88","163879","0.0-7.0-3.10","","null","","<div class='trialBorder'><div class='vertical-center'><img src='img/fixation2_sml.jpg'</img></div></div>","null","DELAY","","","","","","","","","","",""
"","","","","dfghdfgh","bdp_wmem","Tue Oct 05 2021 13:27:08 GMT-0400 (Eastern Daylight Time)","468877","Match,No Match","html-keyboard-response","89","163880","0.0-7.0-4.10","","1","","<div class='trialBorder'><div class='targDiv'><div class='tc'><img class='introPic' src='trustrating_stim/white_00807_941205_fb_edt.bmp'><br><font color='red'><strong>Keep</strong></font></div></div><div class='respDiv'><div class='respDivL'>Match<br>(e)</div><div class='respDivR'>No Match<br>(i)</div></div></div>","e","TARGET","1","trustrating_stim/white_00807_941205_fb_edt.bmp","0","Match","e","1500","trustrating_stim/white_00807_941205_fb_edt.bmp","red","Keep","REAL","1"
"","","","","dfghdfgh","bdp_wmem","Tue Oct 05 2021 13:27:08 GMT-0400 (Eastern Daylight Time)","468877","Match,No Match","html-keyboard-response","90","164382","0.0-7.0-5.10","","null","","<div class='trialBorder'><div class='vertical-center'><img src='img/correct.jpg'></div><div class='respDiv'><div class='respDivL'><font style='color:orange'>Match<br>(e)</font></div><div class='respDivR'>No Match<br>(i)</div></div></div>","null","FEEDBACK","","","","","","","","","","",""
"","","","","dfghdfgh","bdp_wmem","Tue Oct 05 2021 13:27:08 GMT-0400 (Eastern Daylight Time)","468877","Match,No Match","html-keyboard-response","91","164884","0.0-7.0-1.11","","null","","<div class='trialBorder'><div class='vertical-center'><img src='img/fixation2_sml.jpg'</img></div></div>","null","FIX","","","","","","","","","","",""
"","","","","dfghdfgh","bdp_wmem","Tue Oct 05 2021 13:27:08 GMT-0400 (Eastern Daylight Time)","468877","Match,No Match","html-keyboard-response","92","167886","0.0-7.0-2.11","","null","","<div class='trialBorder'><div class='vertical-center'><img style='vertical-align:center; align:center' src='img/fixation2_sml.jpg'></div><div class='arrayDiv2'><div class='tl'><img class='introPic' src='trustrating_stim/white_mw092.bmp'><br><font color='red'><strong>Keep</strong></font></div><div class='tr'><img class='introPic' src='trustrating_stim/white_mw040.bmp'><br><font color='green'><strong>Share</strong></font></div></div></div>","null","ARRAY","2","trustrating_stim/white_mw092.bmp,trustrating_stim/white_mw040.bmp","0,1","noMatchOutcome","i","3000","","","","",""
"","","","","dfghdfgh","bdp_wmem","Tue Oct 05 2021 13:27:08 GMT-0400 (Eastern Daylight Time)","468877","Match,No Match","html-keyboard-response","93","171887","0.0-7.0-3.11","","null","","<div class='trialBorder'><div class='vertical-center'><img src='img/fixation2_sml.jpg'</img></div></div>","null","DELAY","","","","","","","","","","",""
"","","","","dfghdfgh","bdp_wmem","Tue Oct 05 2021 13:27:08 GMT-0400 (Eastern Daylight Time)","468877","Match,No Match","html-keyboard-response","94","172056","0.0-7.0-4.11","","169","","<div class='trialBorder'><div class='targDiv'><div class='tc'><img class='introPic' src='trustrating_stim/white_mw040.bmp'><br><font color='red'><strong>Keep</strong></font></div></div><div class='respDiv'><div class='respDivL'>Match<br>(e)</div><div class='respDivR'>No Match<br>(i)</div></div></div>","e","TARGET","2","trustrating_stim/white_mw092.bmp,trustrating_stim/white_mw040.bmp","0,1","noMatchOutcome","i","3000","trustrating_stim/white_mw040.bmp","red","Keep","REAL","0"
"","","","","dfghdfgh","bdp_wmem","Tue Oct 05 2021 13:27:08 GMT-0400 (Eastern Daylight Time)","468877","Match,No Match","html-keyboard-response","95","172557","0.0-7.0-5.11","","null","","<div class='trialBorder'><div class='vertical-center'><img src='img/error.jpg'></div><div class='respDiv'><div class='respDivL'><font style='color:orange'>Match<br>(e)</font></div><div class='respDivR'>No Match<br>(i)</div></div></div>","null","FEEDBACK","","","","","","","","","","",""
"","","","","dfghdfgh","bdp_wmem","Tue Oct 05 2021 13:27:08 GMT-0400 (Eastern Daylight Time)","468877","Match,No Match","html-keyboard-response","96","173059","0.0-7.0-1.12","","null","","<div class='trialBorder'><div class='vertical-center'><img src='img/fixation2_sml.jpg'</img></div></div>","null","FIX","","","","","","","","","","",""
"","","","","dfghdfgh","bdp_wmem","Tue Oct 05 2021 13:27:08 GMT-0400 (Eastern Daylight Time)","468877","Match,No Match","html-keyboard-response","97","174561","0.0-7.0-2.12","","null","","<div class='trialBorder'><div class='vertical-center'><img style='vertical-align:center; align:center' src='img/fixation2_sml.jpg'></div><div class='arrayDiv1'><div class='tc'><img class='introPic' src='trustrating_stim/white_mw012.bmp'><br><font color='red'><strong>Keep</strong></font></div></div></div>","null","ARRAY","1","trustrating_stim/white_mw012.bmp","0","Match","e","1500","","","","",""
"","","","","dfghdfgh","bdp_wmem","Tue Oct 05 2021 13:27:08 GMT-0400 (Eastern Daylight Time)","468877","Match,No Match","html-keyboard-response","98","178563","0.0-7.0-3.12","","null","","<div class='trialBorder'><div class='vertical-center'><img src='img/fixation2_sml.jpg'</img></div></div>","null","DELAY","","","","","","","","","","",""
"","","","","dfghdfgh","bdp_wmem","Tue Oct 05 2021 13:27:08 GMT-0400 (Eastern Daylight Time)","468877","Match,No Match","html-keyboard-response","99","178800","0.0-7.0-4.12","","237","","<div class='trialBorder'><div class='targDiv'><div class='tc'><img class='introPic' src='trustrating_stim/white_mw012.bmp'><br><font color='red'><strong>Keep</strong></font></div></div><div class='respDiv'><div class='respDivL'>Match<br>(e)</div><div class='respDivR'>No Match<br>(i)</div></div></div>","e","TARGET","1","trustrating_stim/white_mw012.bmp","0","Match","e","1500","trustrating_stim/white_mw012.bmp","red","Keep","REAL","1"
"","","","","dfghdfgh","bdp_wmem","Tue Oct 05 2021 13:27:08 GMT-0400 (Eastern Daylight Time)","468877","Match,No Match","html-keyboard-response","100","179301","0.0-7.0-5.12","","null","","<div class='trialBorder'><div class='vertical-center'><img src='img/correct.jpg'></div><div class='respDiv'><div class='respDivL'><font style='color:orange'>Match<br>(e)</font></div><div class='respDivR'>No Match<br>(i)</div></div></div>","null","FEEDBACK","","","","","","","","","","",""
"","","","","dfghdfgh","bdp_wmem","Tue Oct 05 2021 13:27:08 GMT-0400 (Eastern Daylight Time)","468877","Match,No Match","html-keyboard-response","101","179803","0.0-7.0-1.13","","null","","<div class='trialBorder'><div class='vertical-center'><img src='img/fixation2_sml.jpg'</img></div></div>","null","FIX","","","","","","","","","","",""
"","","","","dfghdfgh","bdp_wmem","Tue Oct 05 2021 13:27:08 GMT-0400 (Eastern Daylight Time)","468877","Match,No Match","html-keyboard-response","102","181303","0.0-7.0-2.13","","null","","<div class='trialBorder'><div class='vertical-center'><img style='vertical-align:center; align:center' src='img/fixation2_sml.jpg'></div><div class='arrayDiv1'><div class='tc'><img class='introPic' src='trustrating_stim/white_mw040.bmp'><br><font color='green'><strong>Share</strong></font></div></div></div>","null","ARRAY","1","trustrating_stim/white_mw040.bmp","1","Match","e","1500","","","","",""
"","","","","dfghdfgh","bdp_wmem","Tue Oct 05 2021 13:27:08 GMT-0400 (Eastern Daylight Time)","468877","Match,No Match","html-keyboard-response","103","185304","0.0-7.0-3.13","","null","","<div class='trialBorder'><div class='vertical-center'><img src='img/fixation2_sml.jpg'</img></div></div>","null","DELAY","","","","","","","","","","",""
"","","","","dfghdfgh","bdp_wmem","Tue Oct 05 2021 13:27:08 GMT-0400 (Eastern Daylight Time)","468877","Match,No Match","html-keyboard-response","104","185328","0.0-7.0-4.13","","24","","<div class='trialBorder'><div class='targDiv'><div class='tc'><img class='introPic' src='trustrating_stim/white_mw040.bmp'><br><font color='green'><strong>Share</strong></font></div></div><div class='respDiv'><div class='respDivL'>Match<br>(e)</div><div class='respDivR'>No Match<br>(i)</div></div></div>","e","TARGET","1","trustrating_stim/white_mw040.bmp","1","Match","e","1500","trustrating_stim/white_mw040.bmp","green","Share","REAL","1"
"","","","","dfghdfgh","bdp_wmem","Tue Oct 05 2021 13:27:08 GMT-0400 (Eastern Daylight Time)","468877","Match,No Match","html-keyboard-response","105","185828","0.0-7.0-5.13","","null","","<div class='trialBorder'><div class='vertical-center'><img src='img/correct.jpg'></div><div class='respDiv'><div class='respDivL'><font style='color:orange'>Match<br>(e)</font></div><div class='respDivR'>No Match<br>(i)</div></div></div>","null","FEEDBACK","","","","","","","","","","",""
"","","","","dfghdfgh","bdp_wmem","Tue Oct 05 2021 13:27:08 GMT-0400 (Eastern Daylight Time)","468877","Match,No Match","html-keyboard-response","106","186328","0.0-7.0-1.14","","null","","<div class='trialBorder'><div class='vertical-center'><img src='img/fixation2_sml.jpg'</img></div></div>","null","FIX","","","","","","","","","","",""
"","","","","dfghdfgh","bdp_wmem","Tue Oct 05 2021 13:27:08 GMT-0400 (Eastern Daylight Time)","468877","Match,No Match","html-keyboard-response","107","189328","0.0-7.0-2.14","","null","","<div class='trialBorder'><div class='vertical-center'><img style='vertical-align:center; align:center' src='img/fixation2_sml.jpg'></div><div class='arrayDiv2'><div class='tl'><img class='introPic' src='trustrating_stim/white_mw038.bmp'><br><font color='green'><strong>Share</strong></font></div><div class='tr'><img class='introPic' src='trustrating_stim/white_mw015.bmp'><br><font color='red'><strong>Keep</strong></font></div></div></div>","null","ARRAY","2","trustrating_stim/white_mw038.bmp,trustrating_stim/white_mw015.bmp","1,0","noMatchOutcome","i","3000","","","","",""
"","","","","dfghdfgh","bdp_wmem","Tue Oct 05 2021 13:27:08 GMT-0400 (Eastern Daylight Time)","468877","Match,No Match","html-keyboard-response","108","193329","0.0-7.0-3.14","","null","","<div class='trialBorder'><div class='vertical-center'><img src='img/fixation2_sml.jpg'</img></div></div>","null","DELAY","","","","","","","","","","",""
"","","","","dfghdfgh","bdp_wmem","Tue Oct 05 2021 13:27:08 GMT-0400 (Eastern Daylight Time)","468877","Match,No Match","html-keyboard-response","109","193413","0.0-7.0-4.14","","83","","<div class='trialBorder'><div class='targDiv'><div class='tc'><img class='introPic' src='trustrating_stim/white_mw015.bmp'><br><font color='green'><strong>Share</strong></font></div></div><div class='respDiv'><div class='respDivL'>Match<br>(e)</div><div class='respDivR'>No Match<br>(i)</div></div></div>","e","TARGET","2","trustrating_stim/white_mw038.bmp,trustrating_stim/white_mw015.bmp","1,0","noMatchOutcome","i","3000","trustrating_stim/white_mw015.bmp","green","Share","REAL","0"
"","","","","dfghdfgh","bdp_wmem","Tue Oct 05 2021 13:27:08 GMT-0400 (Eastern Daylight Time)","468877","Match,No Match","html-keyboard-response","110","193915","0.0-7.0-5.14","","null","","<div class='trialBorder'><div class='vertical-center'><img src='img/error.jpg'></div><div class='respDiv'><div class='respDivL'><font style='color:orange'>Match<br>(e)</font></div><div class='respDivR'>No Match<br>(i)</div></div></div>","null","FEEDBACK","","","","","","","","","","",""
"","","","","dfghdfgh","bdp_wmem","Tue Oct 05 2021 13:27:08 GMT-0400 (Eastern Daylight Time)","468877","Match,No Match","html-keyboard-response","111","194415","0.0-7.0-1.15","","null","","<div class='trialBorder'><div class='vertical-center'><img src='img/fixation2_sml.jpg'</img></div></div>","null","FIX","","","","","","","","","","",""
"","","","","dfghdfgh","bdp_wmem","Tue Oct 05 2021 13:27:08 GMT-0400 (Eastern Daylight Time)","468877","Match,No Match","html-keyboard-response","112","198914","0.0-7.0-2.15","","null","","<div class='trialBorder'><div class='vertical-center'><img style='vertical-align:center; align:center' src='img/fixation2_sml.jpg'></div><div class='arrayDiv3'><div class='tl'><img class='introPic' src='trustrating_stim/white_mw092.bmp'><br><font color='green'><strong>Share</strong></font></div><div class='tc'><img class='introPic' src='trustrating_stim/white_mw012.bmp'><br><font color='red'><strong>Keep</strong></font></div><div class='tr'><img class='introPic' src='trustrating_stim/white_mw070.bmp'><br><font color='red'><strong>Keep</strong></font></div></div></div>","null","ARRAY","3","trustrating_stim/white_mw092.bmp,trustrating_stim/white_mw012.bmp,trustrating_stim/white_mw070.bmp","1,0,0","noMatchOutcome","i","4500","","","","",""
"","","","","dfghdfgh","bdp_wmem","Tue Oct 05 2021 13:27:08 GMT-0400 (Eastern Daylight Time)","468877","Match,No Match","html-keyboard-response","113","202916","0.0-7.0-3.15","","null","","<div class='trialBorder'><div class='vertical-center'><img src='img/fixation2_sml.jpg'</img></div></div>","null","DELAY","","","","","","","","","","",""
"","","","","dfghdfgh","bdp_wmem","Tue Oct 05 2021 13:27:08 GMT-0400 (Eastern Daylight Time)","468877","Match,No Match","html-keyboard-response","114","202983","0.0-7.0-4.15","","66","","<div class='trialBorder'><div class='targDiv'><div class='tc'><img class='introPic' src='trustrating_stim/white_mw092.bmp'><br><font color='red'><strong>Keep</strong></font></div></div><div class='respDiv'><div class='respDivL'>Match<br>(e)</div><div class='respDivR'>No Match<br>(i)</div></div></div>","e","TARGET","3","trustrating_stim/white_mw092.bmp,trustrating_stim/white_mw012.bmp,trustrating_stim/white_mw070.bmp","1,0,0","noMatchOutcome","i","4500","trustrating_stim/white_mw092.bmp","red","Keep","REAL","0"
"","","","","dfghdfgh","bdp_wmem","Tue Oct 05 2021 13:27:08 GMT-0400 (Eastern Daylight Time)","468877","Match,No Match","html-keyboard-response","115","203484","0.0-7.0-5.15","","null","","<div class='trialBorder'><div class='vertical-center'><img src='img/error.jpg'></div><div class='respDiv'><div class='respDivL'><font style='color:orange'>Match<br>(e)</font></div><div class='respDivR'>No Match<br>(i)</div></div></div>","null","FEEDBACK","","","","","","","","","","",""
"","","","","dfghdfgh","bdp_wmem","Tue Oct 05 2021 13:27:08 GMT-0400 (Eastern Daylight Time)","468877","Match,No Match","html-keyboard-response","116","203986","0.0-7.0-1.16","","null","","<div class='trialBorder'><div class='vertical-center'><img src='img/fixation2_sml.jpg'</img></div></div>","null","FIX","","","","","","","","","","",""
"","","","","dfghdfgh","bdp_wmem","Tue Oct 05 2021 13:27:08 GMT-0400 (Eastern Daylight Time)","468877","Match,No Match","html-keyboard-response","117","208486","0.0-7.0-2.16","","null","","<div class='trialBorder'><div class='vertical-center'><img style='vertical-align:center; align:center' src='img/fixation2_sml.jpg'></div><div class='arrayDiv3'><div class='tl'><img class='introPic' src='trustrating_stim/white_mw040.bmp'><br><font color='red'><strong>Keep</strong></font></div><div class='tc'><img class='introPic' src='trustrating_stim/white_00807_941205_fb_edt.bmp'><br><font color='green'><strong>Share</strong></font></div><div class='tr'><img class='introPic' src='trustrating_stim/white_mw038.bmp'><br><font color='green'><strong>Share</strong></font></div></div></div>","null","ARRAY","3","trustrating_stim/white_mw040.bmp,trustrating_stim/white_00807_941205_fb_edt.bmp,trustrating_stim/white_mw038.bmp","0,1,1","noMatchOutcome","i","4500","","","","",""
"","","","","dfghdfgh","bdp_wmem","Tue Oct 05 2021 13:27:08 GMT-0400 (Eastern Daylight Time)","468877","Match,No Match","html-keyboard-response","118","212487","0.0-7.0-3.16","","null","","<div class='trialBorder'><div class='vertical-center'><img src='img/fixation2_sml.jpg'</img></div></div>","null","DELAY","","","","","","","","","","",""
"","","","","dfghdfgh","bdp_wmem","Tue Oct 05 2021 13:27:08 GMT-0400 (Eastern Daylight Time)","468877","Match,No Match","html-keyboard-response","119","212603","0.0-7.0-4.16","","116","","<div class='trialBorder'><div class='targDiv'><div class='tc'><img class='introPic' src='trustrating_stim/white_00807_941205_fb_edt.bmp'><br><font color='red'><strong>Keep</strong></font></div></div><div class='respDiv'><div class='respDivL'>Match<br>(e)</div><div class='respDivR'>No Match<br>(i)</div></div></div>","e","TARGET","3","trustrating_stim/white_mw040.bmp,trustrating_stim/white_00807_941205_fb_edt.bmp,trustrating_stim/white_mw038.bmp","0,1,1","noMatchOutcome","i","4500","trustrating_stim/white_00807_941205_fb_edt.bmp","red","Keep","REAL","0"
"","","","","dfghdfgh","bdp_wmem","Tue Oct 05 2021 13:27:08 GMT-0400 (Eastern Daylight Time)","468877","Match,No Match","html-keyboard-response","120","213104","0.0-7.0-5.16","","null","","<div class='trialBorder'><div class='vertical-center'><img src='img/error.jpg'></div><div class='respDiv'><div class='respDivL'><font style='color:orange'>Match<br>(e)</font></div><div class='respDivR'>No Match<br>(i)</div></div></div>","null","FEEDBACK","","","","","","","","","","",""
"","","","","dfghdfgh","bdp_wmem","Tue Oct 05 2021 13:27:08 GMT-0400 (Eastern Daylight Time)","468877","Match,No Match","html-keyboard-response","121","213605","0.0-7.0-1.17","","null","","<div class='trialBorder'><div class='vertical-center'><img src='img/fixation2_sml.jpg'</img></div></div>","null","FIX","","","","","","","","","","",""
"","","","","dfghdfgh","bdp_wmem","Tue Oct 05 2021 13:27:08 GMT-0400 (Eastern Daylight Time)","468877","Match,No Match","html-keyboard-response","122","218105","0.0-7.0-2.17","","null","","<div class='trialBorder'><div class='vertical-center'><img style='vertical-align:center; align:center' src='img/fixation2_sml.jpg'></div><div class='arrayDiv3'><div class='tl'><img class='introPic' src='trustrating_stim/white_00807_941205_fb_edt.bmp'><br><font color='green'><strong>Share</strong></font></div><div class='tc'><img class='introPic' src='trustrating_stim/white_mw091.bmp'><br><font color='green'><strong>Share</strong></font></div><div class='tr'><img class='introPic' src='trustrating_stim/white_mw038.bmp'><br><font color='red'><strong>Keep</strong></font></div></div></div>","null","ARRAY","3","trustrating_stim/white_00807_941205_fb_edt.bmp,trustrating_stim/white_mw091.bmp,trustrating_stim/white_mw038.bmp","1,1,0","noMatchFace","i","4500","","","","",""
"","","","","dfghdfgh","bdp_wmem","Tue Oct 05 2021 13:27:08 GMT-0400 (Eastern Daylight Time)","468877","Match,No Match","html-keyboard-response","123","222107","0.0-7.0-3.17","","null","","<div class='trialBorder'><div class='vertical-center'><img src='img/fixation2_sml.jpg'</img></div></div>","null","DELAY","","","","","","","","","","",""
"","","","","dfghdfgh","bdp_wmem","Tue Oct 05 2021 13:27:08 GMT-0400 (Eastern Daylight Time)","468877","Match,No Match","html-keyboard-response","124","222209","0.0-7.0-4.17","","102","","<div class='trialBorder'><div class='targDiv'><div class='tc'><img class='introPic' src='trustrating_stim/white_mw012.bmp'><br><font color='green'><strong>Share</strong></font></div></div><div class='respDiv'><div class='respDivL'>Match<br>(e)</div><div class='respDivR'>No Match<br>(i)</div></div></div>","e","TARGET","3","trustrating_stim/white_00807_941205_fb_edt.bmp,trustrating_stim/white_mw091.bmp,trustrating_stim/white_mw038.bmp","1,1,0","noMatchFace","i","4500","trustrating_stim/white_mw012.bmp","green","Share","REAL","0"
"","","","","dfghdfgh","bdp_wmem","Tue Oct 05 2021 13:27:08 GMT-0400 (Eastern Daylight Time)","468877","Match,No Match","html-keyboard-response","125","222710","0.0-7.0-5.17","","null","","<div class='trialBorder'><div class='vertical-center'><img src='img/error.jpg'></div><div class='respDiv'><div class='respDivL'><font style='color:orange'>Match<br>(e)</font></div><div class='respDivR'>No Match<br>(i)</div></div></div>","null","FEEDBACK","","","","","","","","","","",""
"","","","","dfghdfgh","bdp_wmem","Tue Oct 05 2021 13:27:08 GMT-0400 (Eastern Daylight Time)","468877","Match,No Match","html-keyboard-response","126","223211","0.0-7.0-1.18","","null","","<div class='trialBorder'><div class='vertical-center'><img src='img/fixation2_sml.jpg'</img></div></div>","null","FIX","","","","","","","","","","",""
"","","","","dfghdfgh","bdp_wmem","Tue Oct 05 2021 13:27:08 GMT-0400 (Eastern Daylight Time)","468877","Match,No Match","html-keyboard-response","127","224714","0.0-7.0-2.18","","null","","<div class='trialBorder'><div class='vertical-center'><img style='vertical-align:center; align:center' src='img/fixation2_sml.jpg'></div><div class='arrayDiv1'><div class='tc'><img class='introPic' src='trustrating_stim/white_mw012.bmp'><br><font color='red'><strong>Keep</strong></font></div></div></div>","null","ARRAY","1","trustrating_stim/white_mw012.bmp","0","noMatchFace","i","1500","","","","",""
"","","","","dfghdfgh","bdp_wmem","Tue Oct 05 2021 13:27:08 GMT-0400 (Eastern Daylight Time)","468877","Match,No Match","html-keyboard-response","128","228714","0.0-7.0-3.18","","null","","<div class='trialBorder'><div class='vertical-center'><img src='img/fixation2_sml.jpg'</img></div></div>","null","DELAY","","","","","","","","","","",""
"","","","","dfghdfgh","bdp_wmem","Tue Oct 05 2021 13:27:08 GMT-0400 (Eastern Daylight Time)","468877","Match,No Match","html-keyboard-response","129","229062","0.0-7.0-4.18","","348","","<div class='trialBorder'><div class='targDiv'><div class='tc'><img class='introPic' src='trustrating_stim/white_mw040.bmp'><br><font color='red'><strong>Keep</strong></font></div></div><div class='respDiv'><div class='respDivL'>Match<br>(e)</div><div class='respDivR'>No Match<br>(i)</div></div></div>","e","TARGET","1","trustrating_stim/white_mw012.bmp","0","noMatchFace","i","1500","trustrating_stim/white_mw040.bmp","red","Keep","REAL","0"
"","","","","dfghdfgh","bdp_wmem","Tue Oct 05 2021 13:27:08 GMT-0400 (Eastern Daylight Time)","468877","Match,No Match","html-keyboard-response","130","229563","0.0-7.0-5.18","","null","","<div class='trialBorder'><div class='vertical-center'><img src='img/error.jpg'></div><div class='respDiv'><div class='respDivL'><font style='color:orange'>Match<br>(e)</font></div><div class='respDivR'>No Match<br>(i)</div></div></div>","null","FEEDBACK","","","","","","","","","","",""
"","","","","dfghdfgh","bdp_wmem","Tue Oct 05 2021 13:27:08 GMT-0400 (Eastern Daylight Time)","468877","Match,No Match","html-keyboard-response","131","230064","0.0-7.0-1.19","","null","","<div class='trialBorder'><div class='vertical-center'><img src='img/fixation2_sml.jpg'</img></div></div>","null","FIX","","","","","","","","","","",""
"","","","","dfghdfgh","bdp_wmem","Tue Oct 05 2021 13:27:08 GMT-0400 (Eastern Daylight Time)","468877","Match,No Match","html-keyboard-response","132","231564","0.0-7.0-2.19","","null","","<div class='trialBorder'><div class='vertical-center'><img style='vertical-align:center; align:center' src='img/fixation2_sml.jpg'></div><div class='arrayDiv1'><div class='tc'><img class='introPic' src='trustrating_stim/white_mw003.bmp'><br><font color='red'><strong>Keep</strong></font></div></div></div>","null","ARRAY","1","trustrating_stim/white_mw003.bmp","0","Match","e","1500","","","","",""
"","","","","dfghdfgh","bdp_wmem","Tue Oct 05 2021 13:27:08 GMT-0400 (Eastern Daylight Time)","468877","Match,No Match","html-keyboard-response","133","235566","0.0-7.0-3.19","","null","","<div class='trialBorder'><div class='vertical-center'><img src='img/fixation2_sml.jpg'</img></div></div>","null","DELAY","","","","","","","","","","",""
"","","","","dfghdfgh","bdp_wmem","Tue Oct 05 2021 13:27:08 GMT-0400 (Eastern Daylight Time)","468877","Match,No Match","html-keyboard-response","134","235793","0.0-7.0-4.19","","227","","<div class='trialBorder'><div class='targDiv'><div class='tc'><img class='introPic' src='trustrating_stim/white_mw003.bmp'><br><font color='red'><strong>Keep</strong></font></div></div><div class='respDiv'><div class='respDivL'>Match<br>(e)</div><div class='respDivR'>No Match<br>(i)</div></div></div>","e","TARGET","1","trustrating_stim/white_mw003.bmp","0","Match","e","1500","trustrating_stim/white_mw003.bmp","red","Keep","REAL","1"
"","","","","dfghdfgh","bdp_wmem","Tue Oct 05 2021 13:27:08 GMT-0400 (Eastern Daylight Time)","468877","Match,No Match","html-keyboard-response","135","236293","0.0-7.0-5.19","","null","","<div class='trialBorder'><div class='vertical-center'><img src='img/correct.jpg'></div><div class='respDiv'><div class='respDivL'><font style='color:orange'>Match<br>(e)</font></div><div class='respDivR'>No Match<br>(i)</div></div></div>","null","FEEDBACK","","","","","","","","","","",""
"","","","","dfghdfgh","bdp_wmem","Tue Oct 05 2021 13:27:08 GMT-0400 (Eastern Daylight Time)","468877","Match,No Match","html-keyboard-response","136","236795","0.0-7.0-1.20","","null","","<div class='trialBorder'><div class='vertical-center'><img src='img/fixation2_sml.jpg'</img></div></div>","null","FIX","","","","","","","","","","",""
"","","","","dfghdfgh","bdp_wmem","Tue Oct 05 2021 13:27:08 GMT-0400 (Eastern Daylight Time)","468877","Match,No Match","html-keyboard-response","137","241295","0.0-7.0-2.20","","null","","<div class='trialBorder'><div class='vertical-center'><img style='vertical-align:center; align:center' src='img/fixation2_sml.jpg'></div><div class='arrayDiv3'><div class='tl'><img class='introPic' src='trustrating_stim/white_mw013.bmp'><br><font color='green'><strong>Share</strong></font></div><div class='tc'><img class='introPic' src='trustrating_stim/white_mw015.bmp'><br><font color='green'><strong>Share</strong></font></div><div class='tr'><img class='introPic' src='trustrating_stim/white_mw091.bmp'><br><font color='red'><strong>Keep</strong></font></div></div></div>","null","ARRAY","3","trustrating_stim/white_mw013.bmp,trustrating_stim/white_mw015.bmp,trustrating_stim/white_mw091.bmp","1,1,0","Match","e","4500","","","","",""
"","","","","dfghdfgh","bdp_wmem","Tue Oct 05 2021 13:27:08 GMT-0400 (Eastern Daylight Time)","468877","Match,No Match","html-keyboard-response","138","245296","0.0-7.0-3.20","","null","","<div class='trialBorder'><div class='vertical-center'><img src='img/fixation2_sml.jpg'</img></div></div>","null","DELAY","","","","","","","","","","",""
"","","","","dfghdfgh","bdp_wmem","Tue Oct 05 2021 13:27:08 GMT-0400 (Eastern Daylight Time)","468877","Match,No Match","html-keyboard-response","139","245502","0.0-7.0-4.20","","206","","<div class='trialBorder'><div class='targDiv'><div class='tc'><img class='introPic' src='trustrating_stim/white_mw091.bmp'><br><font color='red'><strong>Keep</strong></font></div></div><div class='respDiv'><div class='respDivL'>Match<br>(e)</div><div class='respDivR'>No Match<br>(i)</div></div></div>","e","TARGET","3","trustrating_stim/white_mw013.bmp,trustrating_stim/white_mw015.bmp,trustrating_stim/white_mw091.bmp","1,1,0","Match","e","4500","trustrating_stim/white_mw091.bmp","red","Keep","REAL","1"
"","","","","dfghdfgh","bdp_wmem","Tue Oct 05 2021 13:27:08 GMT-0400 (Eastern Daylight Time)","468877","Match,No Match","html-keyboard-response","140","246004","0.0-7.0-5.20","","null","","<div class='trialBorder'><div class='vertical-center'><img src='img/correct.jpg'></div><div class='respDiv'><div class='respDivL'><font style='color:orange'>Match<br>(e)</font></div><div class='respDivR'>No Match<br>(i)</div></div></div>","null","FEEDBACK","","","","","","","","","","",""
"","","","","dfghdfgh","bdp_wmem","Tue Oct 05 2021 13:27:08 GMT-0400 (Eastern Daylight Time)","468877","Match,No Match","html-keyboard-response","141","246504","0.0-7.0-1.21","","null","","<div class='trialBorder'><div class='vertical-center'><img src='img/fixation2_sml.jpg'</img></div></div>","null","FIX","","","","","","","","","","",""
"","","","","dfghdfgh","bdp_wmem","Tue Oct 05 2021 13:27:08 GMT-0400 (Eastern Daylight Time)","468877","Match,No Match","html-keyboard-response","142","248005","0.0-7.0-2.21","","null","","<div class='trialBorder'><div class='vertical-center'><img style='vertical-align:center; align:center' src='img/fixation2_sml.jpg'></div><div class='arrayDiv1'><div class='tc'><img class='introPic' src='trustrating_stim/white_00050_931230_fa_edt.bmp'><br><font color='green'><strong>Share</strong></font></div></div></div>","null","ARRAY","1","trustrating_stim/white_00050_931230_fa_edt.bmp","1","Match","e","1500","","","","",""
"","","","","dfghdfgh","bdp_wmem","Tue Oct 05 2021 13:27:08 GMT-0400 (Eastern Daylight Time)","468877","Match,No Match","html-keyboard-response","143","252006","0.0-7.0-3.21","","null","","<div class='trialBorder'><div class='vertical-center'><img src='img/fixation2_sml.jpg'</img></div></div>","null","DELAY","","","","","","","","","","",""
"","","","","dfghdfgh","bdp_wmem","Tue Oct 05 2021 13:27:08 GMT-0400 (Eastern Daylight Time)","468877","Match,No Match","html-keyboard-response","144","252079","0.0-7.0-4.21","","73","","<div class='trialBorder'><div class='targDiv'><div class='tc'><img class='introPic' src='trustrating_stim/white_00050_931230_fa_edt.bmp'><br><font color='green'><strong>Share</strong></font></div></div><div class='respDiv'><div class='respDivL'>Match<br>(e)</div><div class='respDivR'>No Match<br>(i)</div></div></div>","e","TARGET","1","trustrating_stim/white_00050_931230_fa_edt.bmp","1","Match","e","1500","trustrating_stim/white_00050_931230_fa_edt.bmp","green","Share","REAL","1"
"","","","","dfghdfgh","bdp_wmem","Tue Oct 05 2021 13:27:08 GMT-0400 (Eastern Daylight Time)","468877","Match,No Match","html-keyboard-response","145","252580","0.0-7.0-5.21","","null","","<div class='trialBorder'><div class='vertical-center'><img src='img/correct.jpg'></div><div class='respDiv'><div class='respDivL'><font style='color:orange'>Match<br>(e)</font></div><div class='respDivR'>No Match<br>(i)</div></div></div>","null","FEEDBACK","","","","","","","","","","",""
"","","","","dfghdfgh","bdp_wmem","Tue Oct 05 2021 13:27:08 GMT-0400 (Eastern Daylight Time)","468877","Match,No Match","html-keyboard-response","146","253082","0.0-7.0-1.22","","null","","<div class='trialBorder'><div class='vertical-center'><img src='img/fixation2_sml.jpg'</img></div></div>","null","FIX","","","","","","","","","","",""
"","","","","dfghdfgh","bdp_wmem","Tue Oct 05 2021 13:27:08 GMT-0400 (Eastern Daylight Time)","468877","Match,No Match","html-keyboard-response","147","256082","0.0-7.0-2.22","","null","","<div class='trialBorder'><div class='vertical-center'><img style='vertical-align:center; align:center' src='img/fixation2_sml.jpg'></div><div class='arrayDiv2'><div class='tl'><img class='introPic' src='trustrating_stim/white_00050_931230_fa_edt.bmp'><br><font color='red'><strong>Keep</strong></font></div><div class='tr'><img class='introPic' src='trustrating_stim/white_mw015.bmp'><br><font color='green'><strong>Share</strong></font></div></div></div>","null","ARRAY","2","trustrating_stim/white_00050_931230_fa_edt.bmp,trustrating_stim/white_mw015.bmp","0,1","Match","e","3000","","","","",""
"","","","","dfghdfgh","bdp_wmem","Tue Oct 05 2021 13:27:08 GMT-0400 (Eastern Daylight Time)","468877","Match,No Match","html-keyboard-response","148","260083","0.0-7.0-3.22","","null","","<div class='trialBorder'><div class='vertical-center'><img src='img/fixation2_sml.jpg'</img></div></div>","null","DELAY","","","","","","","","","","",""
"","","","","dfghdfgh","bdp_wmem","Tue Oct 05 2021 13:27:08 GMT-0400 (Eastern Daylight Time)","468877","Match,No Match","html-keyboard-response","149","260278","0.0-7.0-4.22","","194","","<div class='trialBorder'><div class='targDiv'><div class='tc'><img class='introPic' src='trustrating_stim/white_mw015.bmp'><br><font color='green'><strong>Share</strong></font></div></div><div class='respDiv'><div class='respDivL'>Match<br>(e)</div><div class='respDivR'>No Match<br>(i)</div></div></div>","e","TARGET","2","trustrating_stim/white_00050_931230_fa_edt.bmp,trustrating_stim/white_mw015.bmp","0,1","Match","e","3000","trustrating_stim/white_mw015.bmp","green","Share","REAL","1"
"","","","","dfghdfgh","bdp_wmem","Tue Oct 05 2021 13:27:08 GMT-0400 (Eastern Daylight Time)","468877","Match,No Match","html-keyboard-response","150","260777","0.0-7.0-5.22","","null","","<div class='trialBorder'><div class='vertical-center'><img src='img/correct.jpg'></div><div class='respDiv'><div class='respDivL'><font style='color:orange'>Match<br>(e)</font></div><div class='respDivR'>No Match<br>(i)</div></div></div>","null","FEEDBACK","","","","","","","","","","",""
"","","","","dfghdfgh","bdp_wmem","Tue Oct 05 2021 13:27:08 GMT-0400 (Eastern Daylight Time)","468877","Match,No Match","html-keyboard-response","151","261280","0.0-7.0-1.23","","null","","<div class='trialBorder'><div class='vertical-center'><img src='img/fixation2_sml.jpg'</img></div></div>","null","FIX","","","","","","","","","","",""
"","","","","dfghdfgh","bdp_wmem","Tue Oct 05 2021 13:27:08 GMT-0400 (Eastern Daylight Time)","468877","Match,No Match","html-keyboard-response","152","265781","0.0-7.0-2.23","","null","","<div class='trialBorder'><div class='vertical-center'><img style='vertical-align:center; align:center' src='img/fixation2_sml.jpg'></div><div class='arrayDiv3'><div class='tl'><img class='introPic' src='trustrating_stim/white_mw012.bmp'><br><font color='red'><strong>Keep</strong></font></div><div class='tc'><img class='introPic' src='trustrating_stim/white_00807_941205_fb_edt.bmp'><br><font color='red'><strong>Keep</strong></font></div><div class='tr'><img class='introPic' src='trustrating_stim/white_mw092.bmp'><br><font color='green'><strong>Share</strong></font></div></div></div>","null","ARRAY","3","trustrating_stim/white_mw012.bmp,trustrating_stim/white_00807_941205_fb_edt.bmp,trustrating_stim/white_mw092.bmp","0,0,1","noMatchFace","i","4500","","","","",""
"","","","","dfghdfgh","bdp_wmem","Tue Oct 05 2021 13:27:08 GMT-0400 (Eastern Daylight Time)","468877","Match,No Match","html-keyboard-response","153","269782","0.0-7.0-3.23","","null","","<div class='trialBorder'><div class='vertical-center'><img src='img/fixation2_sml.jpg'</img></div></div>","null","DELAY","","","","","","","","","","",""
"","","","","dfghdfgh","bdp_wmem","Tue Oct 05 2021 13:27:08 GMT-0400 (Eastern Daylight Time)","468877","Match,No Match","html-keyboard-response","154","269936","0.0-7.0-4.23","","152","","<div class='trialBorder'><div class='targDiv'><div class='tc'><img class='introPic' src='trustrating_stim/white_mw015.bmp'><br><font color='red'><strong>Keep</strong></font></div></div><div class='respDiv'><div class='respDivL'>Match<br>(e)</div><div class='respDivR'>No Match<br>(i)</div></div></div>","e","TARGET","3","trustrating_stim/white_mw012.bmp,trustrating_stim/white_00807_941205_fb_edt.bmp,trustrating_stim/white_mw092.bmp","0,0,1","noMatchFace","i","4500","trustrating_stim/white_mw015.bmp","red","Keep","REAL","0"
"","","","","dfghdfgh","bdp_wmem","Tue Oct 05 2021 13:27:08 GMT-0400 (Eastern Daylight Time)","468877","Match,No Match","html-keyboard-response","155","270436","0.0-7.0-5.23","","null","","<div class='trialBorder'><div class='vertical-center'><img src='img/error.jpg'></div><div class='respDiv'><div class='respDivL'><font style='color:orange'>Match<br>(e)</font></div><div class='respDivR'>No Match<br>(i)</div></div></div>","null","FEEDBACK","","","","","","","","","","",""
"","","","","dfghdfgh","bdp_wmem","Tue Oct 05 2021 13:27:08 GMT-0400 (Eastern Daylight Time)","468877","Match,No Match","html-keyboard-response","156","270937","0.0-7.0-1.24","","null","","<div class='trialBorder'><div class='vertical-center'><img src='img/fixation2_sml.jpg'</img></div></div>","null","FIX","","","","","","","","","","",""
"","","","","dfghdfgh","bdp_wmem","Tue Oct 05 2021 13:27:08 GMT-0400 (Eastern Daylight Time)","468877","Match,No Match","html-keyboard-response","157","275438","0.0-7.0-2.24","","null","","<div class='trialBorder'><div class='vertical-center'><img style='vertical-align:center; align:center' src='img/fixation2_sml.jpg'></div><div class='arrayDiv3'><div class='tl'><img class='introPic' src='trustrating_stim/white_mw070.bmp'><br><font color='red'><strong>Keep</strong></font></div><div class='tc'><img class='introPic' src='trustrating_stim/white_mw091.bmp'><br><font color='green'><strong>Share</strong></font></div><div class='tr'><img class='introPic' src='trustrating_stim/white_mw015.bmp'><br><font color='red'><strong>Keep</strong></font></div></div></div>","null","ARRAY","3","trustrating_stim/white_mw070.bmp,trustrating_stim/white_mw091.bmp,trustrating_stim/white_mw015.bmp","0,1,0","noMatchOutcome","i","4500","","","","",""
"","","","","dfghdfgh","bdp_wmem","Tue Oct 05 2021 13:27:08 GMT-0400 (Eastern Daylight Time)","468877","Match,No Match","html-keyboard-response","158","279441","0.0-7.0-3.24","","null","","<div class='trialBorder'><div class='vertical-center'><img src='img/fixation2_sml.jpg'</img></div></div>","null","DELAY","","","","","","","","","","",""
"","","","","dfghdfgh","bdp_wmem","Tue Oct 05 2021 13:27:08 GMT-0400 (Eastern Daylight Time)","468877","Match,No Match","html-keyboard-response","159","279665","0.0-7.0-4.24","","224","","<div class='trialBorder'><div class='targDiv'><div class='tc'><img class='introPic' src='trustrating_stim/white_mw070.bmp'><br><font color='green'><strong>Share</strong></font></div></div><div class='respDiv'><div class='respDivL'>Match<br>(e)</div><div class='respDivR'>No Match<br>(i)</div></div></div>","e","TARGET","3","trustrating_stim/white_mw070.bmp,trustrating_stim/white_mw091.bmp,trustrating_stim/white_mw015.bmp","0,1,0","noMatchOutcome","i","4500","trustrating_stim/white_mw070.bmp","green","Share","REAL","0"
"","","","","dfghdfgh","bdp_wmem","Tue Oct 05 2021 13:27:08 GMT-0400 (Eastern Daylight Time)","468877","Match,No Match","html-keyboard-response","160","280166","0.0-7.0-5.24","","null","","<div class='trialBorder'><div class='vertical-center'><img src='img/error.jpg'></div><div class='respDiv'><div class='respDivL'><font style='color:orange'>Match<br>(e)</font></div><div class='respDivR'>No Match<br>(i)</div></div></div>","null","FEEDBACK","","","","","","","","","","",""
"","","","","dfghdfgh","bdp_wmem","Tue Oct 05 2021 13:27:08 GMT-0400 (Eastern Daylight Time)","468877","Match,No Match","html-keyboard-response","161","280667","0.0-7.0-1.25","","null","","<div class='trialBorder'><div class='vertical-center'><img src='img/fixation2_sml.jpg'</img></div></div>","null","FIX","","","","","","","","","","",""
"","","","","dfghdfgh","bdp_wmem","Tue Oct 05 2021 13:27:08 GMT-0400 (Eastern Daylight Time)","468877","Match,No Match","html-keyboard-response","162","285169","0.0-7.0-2.25","","null","","<div class='trialBorder'><div class='vertical-center'><img style='vertical-align:center; align:center' src='img/fixation2_sml.jpg'></div><div class='arrayDiv3'><div class='tl'><img class='introPic' src='trustrating_stim/white_mw040.bmp'><br><font color='green'><strong>Share</strong></font></div><div class='tc'><img class='introPic' src='trustrating_stim/white_mw013.bmp'><br><font color='red'><strong>Keep</strong></font></div><div class='tr'><img class='introPic' src='trustrating_stim/white_mw012.bmp'><br><font color='green'><strong>Share</strong></font></div></div></div>","null","ARRAY","3","trustrating_stim/white_mw040.bmp,trustrating_stim/white_mw013.bmp,trustrating_stim/white_mw012.bmp","1,0,1","Match","e","4500","","","","",""
"","","","","dfghdfgh","bdp_wmem","Tue Oct 05 2021 13:27:08 GMT-0400 (Eastern Daylight Time)","468877","Match,No Match","html-keyboard-response","163","289169","0.0-7.0-3.25","","null","","<div class='trialBorder'><div class='vertical-center'><img src='img/fixation2_sml.jpg'</img></div></div>","null","DELAY","","","","","","","","","","",""
"","","","","dfghdfgh","bdp_wmem","Tue Oct 05 2021 13:27:08 GMT-0400 (Eastern Daylight Time)","468877","Match,No Match","html-keyboard-response","164","289262","0.0-7.0-4.25","","93","","<div class='trialBorder'><div class='targDiv'><div class='tc'><img class='introPic' src='trustrating_stim/white_mw012.bmp'><br><font color='green'><strong>Share</strong></font></div></div><div class='respDiv'><div class='respDivL'>Match<br>(e)</div><div class='respDivR'>No Match<br>(i)</div></div></div>","e","TARGET","3","trustrating_stim/white_mw040.bmp,trustrating_stim/white_mw013.bmp,trustrating_stim/white_mw012.bmp","1,0,1","Match","e","4500","trustrating_stim/white_mw012.bmp","green","Share","REAL","1"
"","","","","dfghdfgh","bdp_wmem","Tue Oct 05 2021 13:27:08 GMT-0400 (Eastern Daylight Time)","468877","Match,No Match","html-keyboard-response","165","289764","0.0-7.0-5.25","","null","","<div class='trialBorder'><div class='vertical-center'><img src='img/correct.jpg'></div><div class='respDiv'><div class='respDivL'><font style='color:orange'>Match<br>(e)</font></div><div class='respDivR'>No Match<br>(i)</div></div></div>","null","FEEDBACK","","","","","","","","","","",""
"","","","","dfghdfgh","bdp_wmem","Tue Oct 05 2021 13:27:08 GMT-0400 (Eastern Daylight Time)","468877","Match,No Match","html-keyboard-response","166","290264","0.0-7.0-1.26","","null","","<div class='trialBorder'><div class='vertical-center'><img src='img/fixation2_sml.jpg'</img></div></div>","null","FIX","","","","","","","","","","",""
"","","","","dfghdfgh","bdp_wmem","Tue Oct 05 2021 13:27:08 GMT-0400 (Eastern Daylight Time)","468877","Match,No Match","html-keyboard-response","167","293264","0.0-7.0-2.26","","null","","<div class='trialBorder'><div class='vertical-center'><img style='vertical-align:center; align:center' src='img/fixation2_sml.jpg'></div><div class='arrayDiv2'><div class='tl'><img class='introPic' src='trustrating_stim/white_00050_931230_fa_edt.bmp'><br><font color='green'><strong>Share</strong></font></div><div class='tr'><img class='introPic' src='trustrating_stim/white_mw003.bmp'><br><font color='red'><strong>Keep</strong></font></div></div></div>","null","ARRAY","2","trustrating_stim/white_00050_931230_fa_edt.bmp,trustrating_stim/white_mw003.bmp","1,0","noMatchFace","i","3000","","","","",""
"","","","","dfghdfgh","bdp_wmem","Tue Oct 05 2021 13:27:08 GMT-0400 (Eastern Daylight Time)","468877","Match,No Match","html-keyboard-response","168","297265","0.0-7.0-3.26","","null","","<div class='trialBorder'><div class='vertical-center'><img src='img/fixation2_sml.jpg'</img></div></div>","null","DELAY","","","","","","","","","","",""
"","","","","dfghdfgh","bdp_wmem","Tue Oct 05 2021 13:27:08 GMT-0400 (Eastern Daylight Time)","468877","Match,No Match","html-keyboard-response","169","297340","0.0-7.0-4.26","","74","","<div class='trialBorder'><div class='targDiv'><div class='tc'><img class='introPic' src='trustrating_stim/white_mw013.bmp'><br><font color='red'><strong>Keep</strong></font></div></div><div class='respDiv'><div class='respDivL'>Match<br>(e)</div><div class='respDivR'>No Match<br>(i)</div></div></div>","e","TARGET","2","trustrating_stim/white_00050_931230_fa_edt.bmp,trustrating_stim/white_mw003.bmp","1,0","noMatchFace","i","3000","trustrating_stim/white_mw013.bmp","red","Keep","REAL","0"
"","","","","dfghdfgh","bdp_wmem","Tue Oct 05 2021 13:27:08 GMT-0400 (Eastern Daylight Time)","468877","Match,No Match","html-keyboard-response","170","297841","0.0-7.0-5.26","","null","","<div class='trialBorder'><div class='vertical-center'><img src='img/error.jpg'></div><div class='respDiv'><div class='respDivL'><font style='color:orange'>Match<br>(e)</font></div><div class='respDivR'>No Match<br>(i)</div></div></div>","null","FEEDBACK","","","","","","","","","","",""
"","","","","dfghdfgh","bdp_wmem","Tue Oct 05 2021 13:27:08 GMT-0400 (Eastern Daylight Time)","468877","Match,No Match","html-keyboard-response","171","298342","0.0-7.0-1.27","","null","","<div class='trialBorder'><div class='vertical-center'><img src='img/fixation2_sml.jpg'</img></div></div>","null","FIX","","","","","","","","","","",""
"","","","","dfghdfgh","bdp_wmem","Tue Oct 05 2021 13:27:08 GMT-0400 (Eastern Daylight Time)","468877","Match,No Match","html-keyboard-response","172","302842","0.0-7.0-2.27","","null","","<div class='trialBorder'><div class='vertical-center'><img style='vertical-align:center; align:center' src='img/fixation2_sml.jpg'></div><div class='arrayDiv3'><div class='tl'><img class='introPic' src='trustrating_stim/white_mw092.bmp'><br><font color='green'><strong>Share</strong></font></div><div class='tc'><img class='introPic' src='trustrating_stim/white_00050_931230_fa_edt.bmp'><br><font color='green'><strong>Share</strong></font></div><div class='tr'><img class='introPic' src='trustrating_stim/white_00807_941205_fb_edt.bmp'><br><font color='red'><strong>Keep</strong></font></div></div></div>","null","ARRAY","3","trustrating_stim/white_mw092.bmp,trustrating_stim/white_00050_931230_fa_edt.bmp,trustrating_stim/white_00807_941205_fb_edt.bmp","1,1,0","Match","e","4500","","","","",""
"","","","","dfghdfgh","bdp_wmem","Tue Oct 05 2021 13:27:08 GMT-0400 (Eastern Daylight Time)","468877","Match,No Match","html-keyboard-response","173","306843","0.0-7.0-3.27","","null","","<div class='trialBorder'><div class='vertical-center'><img src='img/fixation2_sml.jpg'</img></div></div>","null","DELAY","","","","","","","","","","",""
"","","","","dfghdfgh","bdp_wmem","Tue Oct 05 2021 13:27:08 GMT-0400 (Eastern Daylight Time)","468877","Match,No Match","html-keyboard-response","174","306994","0.0-7.0-4.27","","151","","<div class='trialBorder'><div class='targDiv'><div class='tc'><img class='introPic' src='trustrating_stim/white_mw092.bmp'><br><font color='green'><strong>Share</strong></font></div></div><div class='respDiv'><div class='respDivL'>Match<br>(e)</div><div class='respDivR'>No Match<br>(i)</div></div></div>","e","TARGET","3","trustrating_stim/white_mw092.bmp,trustrating_stim/white_00050_931230_fa_edt.bmp,trustrating_stim/white_00807_941205_fb_edt.bmp","1,1,0","Match","e","4500","trustrating_stim/white_mw092.bmp","green","Share","REAL","1"
"","","","","dfghdfgh","bdp_wmem","Tue Oct 05 2021 13:27:08 GMT-0400 (Eastern Daylight Time)","468877","Match,No Match","html-keyboard-response","175","307495","0.0-7.0-5.27","","null","","<div class='trialBorder'><div class='vertical-center'><img src='img/correct.jpg'></div><div class='respDiv'><div class='respDivL'><font style='color:orange'>Match<br>(e)</font></div><div class='respDivR'>No Match<br>(i)</div></div></div>","null","FEEDBACK","","","","","","","","","","",""
"","","","","dfghdfgh","bdp_wmem","Tue Oct 05 2021 13:27:08 GMT-0400 (Eastern Daylight Time)","468877","Match,No Match","html-keyboard-response","176","307995","0.0-7.0-1.28","","null","","<div class='trialBorder'><div class='vertical-center'><img src='img/fixation2_sml.jpg'</img></div></div>","null","FIX","","","","","","","","","","",""
"","","","","dfghdfgh","bdp_wmem","Tue Oct 05 2021 13:27:08 GMT-0400 (Eastern Daylight Time)","468877","Match,No Match","html-keyboard-response","177","309496","0.0-7.0-2.28","","null","","<div class='trialBorder'><div class='vertical-center'><img style='vertical-align:center; align:center' src='img/fixation2_sml.jpg'></div><div class='arrayDiv1'><div class='tc'><img class='introPic' src='trustrating_stim/white_mw033.bmp'><br><font color='green'><strong>Share</strong></font></div></div></div>","null","ARRAY","1","trustrating_stim/white_mw033.bmp","1","noMatchOutcome","i","1500","","","","",""
"","","","","dfghdfgh","bdp_wmem","Tue Oct 05 2021 13:27:08 GMT-0400 (Eastern Daylight Time)","468877","Match,No Match","html-keyboard-response","178","313496","0.0-7.0-3.28","","null","","<div class='trialBorder'><div class='vertical-center'><img src='img/fixation2_sml.jpg'</img></div></div>","null","DELAY","","","","","","","","","","",""
"","","","","dfghdfgh","bdp_wmem","Tue Oct 05 2021 13:27:08 GMT-0400 (Eastern Daylight Time)","468877","Match,No Match","html-keyboard-response","179","313636","0.0-7.0-4.28","","140","","<div class='trialBorder'><div class='targDiv'><div class='tc'><img class='introPic' src='trustrating_stim/white_mw033.bmp'><br><font color='red'><strong>Keep</strong></font></div></div><div class='respDiv'><div class='respDivL'>Match<br>(e)</div><div class='respDivR'>No Match<br>(i)</div></div></div>","e","TARGET","1","trustrating_stim/white_mw033.bmp","1","noMatchOutcome","i","1500","trustrating_stim/white_mw033.bmp","red","Keep","REAL","0"
"","","","","dfghdfgh","bdp_wmem","Tue Oct 05 2021 13:27:08 GMT-0400 (Eastern Daylight Time)","468877","Match,No Match","html-keyboard-response","180","314138","0.0-7.0-5.28","","null","","<div class='trialBorder'><div class='vertical-center'><img src='img/error.jpg'></div><div class='respDiv'><div class='respDivL'><font style='color:orange'>Match<br>(e)</font></div><div class='respDivR'>No Match<br>(i)</div></div></div>","null","FEEDBACK","","","","","","","","","","",""
"","","","","dfghdfgh","bdp_wmem","Tue Oct 05 2021 13:27:08 GMT-0400 (Eastern Daylight Time)","468877","Match,No Match","html-keyboard-response","181","314639","0.0-7.0-1.29","","null","","<div class='trialBorder'><div class='vertical-center'><img src='img/fixation2_sml.jpg'</img></div></div>","null","FIX","","","","","","","","","","",""
"","","","","dfghdfgh","bdp_wmem","Tue Oct 05 2021 13:27:08 GMT-0400 (Eastern Daylight Time)","468877","Match,No Match","html-keyboard-response","182","317639","0.0-7.0-2.29","","null","","<div class='trialBorder'><div class='vertical-center'><img style='vertical-align:center; align:center' src='img/fixation2_sml.jpg'></div><div class='arrayDiv2'><div class='tl'><img class='introPic' src='trustrating_stim/white_mw040.bmp'><br><font color='green'><strong>Share</strong></font></div><div class='tr'><img class='introPic' src='trustrating_stim/white_mw015.bmp'><br><font color='red'><strong>Keep</strong></font></div></div></div>","null","ARRAY","2","trustrating_stim/white_mw040.bmp,trustrating_stim/white_mw015.bmp","1,0","noMatchOutcome","i","3000","","","","",""
"","","","","dfghdfgh","bdp_wmem","Tue Oct 05 2021 13:27:08 GMT-0400 (Eastern Daylight Time)","468877","Match,No Match","html-keyboard-response","183","321642","0.0-7.0-3.29","","null","","<div class='trialBorder'><div class='vertical-center'><img src='img/fixation2_sml.jpg'</img></div></div>","null","DELAY","","","","","","","","","","",""
"","","","","dfghdfgh","bdp_wmem","Tue Oct 05 2021 13:27:08 GMT-0400 (Eastern Daylight Time)","468877","Match,No Match","html-keyboard-response","184","321735","0.0-7.0-4.29","","93","","<div class='trialBorder'><div class='targDiv'><div class='tc'><img class='introPic' src='trustrating_stim/white_mw015.bmp'><br><font color='green'><strong>Share</strong></font></div></div><div class='respDiv'><div class='respDivL'>Match<br>(e)</div><div class='respDivR'>No Match<br>(i)</div></div></div>","e","TARGET","2","trustrating_stim/white_mw040.bmp,trustrating_stim/white_mw015.bmp","1,0","noMatchOutcome","i","3000","trustrating_stim/white_mw015.bmp","green","Share","REAL","0"
"","","","","dfghdfgh","bdp_wmem","Tue Oct 05 2021 13:27:08 GMT-0400 (Eastern Daylight Time)","468877","Match,No Match","html-keyboard-response","185","322236","0.0-7.0-5.29","","null","","<div class='trialBorder'><div class='vertical-center'><img src='img/error.jpg'></div><div class='respDiv'><div class='respDivL'><font style='color:orange'>Match<br>(e)</font></div><div class='respDivR'>No Match<br>(i)</div></div></div>","null","FEEDBACK","","","","","","","","","","",""
"","","","","dfghdfgh","bdp_wmem","Tue Oct 05 2021 13:27:08 GMT-0400 (Eastern Daylight Time)","468877","Match,No Match","html-keyboard-response","186","322736","0.0-7.0-1.30","","null","","<div class='trialBorder'><div class='vertical-center'><img src='img/fixation2_sml.jpg'</img></div></div>","null","FIX","","","","","","","","","","",""
"","","","","dfghdfgh","bdp_wmem","Tue Oct 05 2021 13:27:08 GMT-0400 (Eastern Daylight Time)","468877","Match,No Match","html-keyboard-response","187","324239","0.0-7.0-2.30","","null","","<div class='trialBorder'><div class='vertical-center'><img style='vertical-align:center; align:center' src='img/fixation2_sml.jpg'></div><div class='arrayDiv1'><div class='tc'><img class='introPic' src='trustrating_stim/white_mw013.bmp'><br><font color='green'><strong>Share</strong></font></div></div></div>","null","ARRAY","1","trustrating_stim/white_mw013.bmp","1","noMatchFace","i","1500","","","","",""
"","","","","dfghdfgh","bdp_wmem","Tue Oct 05 2021 13:27:08 GMT-0400 (Eastern Daylight Time)","468877","Match,No Match","html-keyboard-response","188","328239","0.0-7.0-3.30","","null","","<div class='trialBorder'><div class='vertical-center'><img src='img/fixation2_sml.jpg'</img></div></div>","null","DELAY","","","","","","","","","","",""
"","","","","dfghdfgh","bdp_wmem","Tue Oct 05 2021 13:27:08 GMT-0400 (Eastern Daylight Time)","468877","Match,No Match","html-keyboard-response","189","328327","0.0-7.0-4.30","","87","","<div class='trialBorder'><div class='targDiv'><div class='tc'><img class='introPic' src='trustrating_stim/white_00807_941205_fb_edt.bmp'><br><font color='green'><strong>Share</strong></font></div></div><div class='respDiv'><div class='respDivL'>Match<br>(e)</div><div class='respDivR'>No Match<br>(i)</div></div></div>","e","TARGET","1","trustrating_stim/white_mw013.bmp","1","noMatchFace","i","1500","trustrating_stim/white_00807_941205_fb_edt.bmp","green","Share","REAL","0"
"","","","","dfghdfgh","bdp_wmem","Tue Oct 05 2021 13:27:08 GMT-0400 (Eastern Daylight Time)","468877","Match,No Match","html-keyboard-response","190","328829","0.0-7.0-5.30","","null","","<div class='trialBorder'><div class='vertical-center'><img src='img/error.jpg'></div><div class='respDiv'><div class='respDivL'><font style='color:orange'>Match<br>(e)</font></div><div class='respDivR'>No Match<br>(i)</div></div></div>","null","FEEDBACK","","","","","","","","","","",""
"","","","","dfghdfgh","bdp_wmem","Tue Oct 05 2021 13:27:08 GMT-0400 (Eastern Daylight Time)","468877","Match,No Match","html-keyboard-response","191","329331","0.0-7.0-1.31","","null","","<div class='trialBorder'><div class='vertical-center'><img src='img/fixation2_sml.jpg'</img></div></div>","null","FIX","","","","","","","","","","",""
