"trial_type","trial_index","time_elapsed","internal_node_id","subject_id","task","startTime","totalTime","labels","view_history","rt","event","trial","time","trialtype","success","stimulus","key_press","stimType","arraySize","arrayFaces","arrayOutcomes","matchType","corrResp","arrayDur","targFace","targCol","targOutcome","trialType","corr","numBlurs"
"pavlovia","0","3","0.0-0.0","62ded68be9e12bf448a7ffdb","bdp_wmem","Wed Mar 15 2023 20:08:20 GMT-0700 (Pacific Daylight Time)","605255","Match,No Match","","","","","","","","","","","","","","","","","","","","","",""
"instructions","1","2205","0.0-1.0","62ded68be9e12bf448a7ffdb","bdp_wmem","Wed Mar 15 2023 20:08:20 GMT-0700 (Pacific Daylight Time)","605255","Match,No Match","[{""page_index"":0,""viewing_time"":2201}]","2202","","","","","","","","","","","","","","","","","","","",""
"","","","","62ded68be9e12bf448a7ffdb","bdp_wmem","Wed Mar 15 2023 20:08:20 GMT-0700 (Pacific Daylight Time)","605255","Match,No Match","","","fullscreenenter","2","4474","fullscreenenter","","","","","","","","","","","","","","","",""
"fullscreen","2","5432","0.0-2.0","62ded68be9e12bf448a7ffdb","bdp_wmem","Wed Mar 15 2023 20:08:20 GMT-0700 (Pacific Daylight Time)","605255","Match,No Match","","","","","","","true","","","","","","","","","","","","","","",""
"instructions","3","63627","0.0-4.0","62ded68be9e12bf448a7ffdb","bdp_wmem","Wed Mar 15 2023 20:08:20 GMT-0700 (Pacific Daylight Time)","605255","Match,No Match","[{""page_index"":0,""viewing_time"":23149},{""page_index"":1,""viewing_time"":21481},{""page_index"":2,""viewing_time"":6685},{""page_index"":3,""viewing_time"":2774},{""page_index"":4,""viewing_time"":4100}]","58192","","","","","","","","","","","","","","","","","","","",""
"html-keyboard-response","4","64130","0.0-5.0-1.0","62ded68be9e12bf448a7ffdb","bdp_wmem","Wed Mar 15 2023 20:08:20 GMT-0700 (Pacific Daylight Time)","605255","Match,No Match","","null","","","","","","<div class='trialBorder'><div class='vertical-center'><img src='img/fixation2_sml.jpg'</img></div></div>","null","FIX","","","","","","","","","","","",""
"html-keyboard-response","5","68636","0.0-5.0-2.0","62ded68be9e12bf448a7ffdb","bdp_wmem","Wed Mar 15 2023 20:08:20 GMT-0700 (Pacific Daylight Time)","605255","Match,No Match","","null","","","","","","<div class='trialBorder'><div class='vertical-center'><img style='vertical-align:center; align:center' src='img/fixation2_sml.jpg'></div><div class='arrayDiv3'><div class='tl'><img class='introPic' src='trustrating_stim/white_mw010.bmp'><br><font color='red'><strong>Keep</strong></font></div><div class='tc'><img class='introPic' src='trustrating_stim/white_mw070.bmp'><br><font color='green'><strong>Share</strong></font></div><div class='tr'><img class='introPic' src='trustrating_stim/white_mw092.bmp'><br><font color='red'><strong>Keep</strong></font></div></div></div>","null","ARRAY","3","trustrating_stim/white_mw010.bmp,trustrating_stim/white_mw070.bmp,trustrating_stim/white_mw092.bmp","0,1,0","Match","e","4500","","","","","",""
"html-keyboard-response","6","72640","0.0-5.0-3.0","62ded68be9e12bf448a7ffdb","bdp_wmem","Wed Mar 15 2023 20:08:20 GMT-0700 (Pacific Daylight Time)","605255","Match,No Match","","null","","","","","","<div class='trialBorder'><div class='vertical-center'><img src='img/fixation2_sml.jpg'</img></div></div>","null","DELAY","","","","","","","","","","","",""
"html-keyboard-response","7","74375","0.0-5.0-4.0","62ded68be9e12bf448a7ffdb","bdp_wmem","Wed Mar 15 2023 20:08:20 GMT-0700 (Pacific Daylight Time)","605255","Match,No Match","","1731","","","","","","<div class='trialBorder'><div class='targDiv'><div class='tc'><img class='introPic' src='trustrating_stim/white_mw010.bmp'><br><font color='red'><strong>Keep</strong></font></div></div><div class='respDiv'><div class='respDivL'>Match<br>(e)</div><div class='respDivR'>No Match<br>(i)</div></div></div>","e","TARGET","3","trustrating_stim/white_mw010.bmp,trustrating_stim/white_mw070.bmp,trustrating_stim/white_mw092.bmp","0,1,0","Match","e","4500","trustrating_stim/white_mw010.bmp","red","Keep","PRACTICE","1",""
"html-keyboard-response","8","74879","0.0-5.0-5.0","62ded68be9e12bf448a7ffdb","bdp_wmem","Wed Mar 15 2023 20:08:20 GMT-0700 (Pacific Daylight Time)","605255","Match,No Match","","null","","","","","","<div class='trialBorder'><div class='vertical-center'><img src='img/correct.jpg'></div><div class='respDiv'><div class='respDivL'><font style='color:orange'>Match<br>(e)</font></div><div class='respDivR'>No Match<br>(i)</div></div></div>","null","FEEDBACK","","","","","","","","","","","",""
"html-keyboard-response","9","75384","0.0-5.0-1.1","62ded68be9e12bf448a7ffdb","bdp_wmem","Wed Mar 15 2023 20:08:20 GMT-0700 (Pacific Daylight Time)","605255","Match,No Match","","null","","","","","","<div class='trialBorder'><div class='vertical-center'><img src='img/fixation2_sml.jpg'</img></div></div>","null","FIX","","","","","","","","","","","",""
"html-keyboard-response","10","78389","0.0-5.0-2.1","62ded68be9e12bf448a7ffdb","bdp_wmem","Wed Mar 15 2023 20:08:20 GMT-0700 (Pacific Daylight Time)","605255","Match,No Match","","null","","","","","","<div class='trialBorder'><div class='vertical-center'><img style='vertical-align:center; align:center' src='img/fixation2_sml.jpg'></div><div class='arrayDiv2'><div class='tl'><img class='introPic' src='trustrating_stim/white_mw040.bmp'><br><font color='green'><strong>Share</strong></font></div><div class='tr'><img class='introPic' src='trustrating_stim/white_mw070.bmp'><br><font color='red'><strong>Keep</strong></font></div></div></div>","null","ARRAY","2","trustrating_stim/white_mw040.bmp,trustrating_stim/white_mw070.bmp","1,0","noMatchFace","i","3000","","","","","",""
"html-keyboard-response","11","82394","0.0-5.0-3.1","62ded68be9e12bf448a7ffdb","bdp_wmem","Wed Mar 15 2023 20:08:20 GMT-0700 (Pacific Daylight Time)","605255","Match,No Match","","null","","","","","","<div class='trialBorder'><div class='vertical-center'><img src='img/fixation2_sml.jpg'</img></div></div>","null","DELAY","","","","","","","","","","","",""
"html-keyboard-response","12","83529","0.0-5.0-4.1","62ded68be9e12bf448a7ffdb","bdp_wmem","Wed Mar 15 2023 20:08:20 GMT-0700 (Pacific Daylight Time)","605255","Match,No Match","","1131","","","","","","<div class='trialBorder'><div class='targDiv'><div class='tc'><img class='introPic' src='trustrating_stim/white_mw078.bmp'><br><font color='green'><strong>Share</strong></font></div></div><div class='respDiv'><div class='respDivL'>Match<br>(e)</div><div class='respDivR'>No Match<br>(i)</div></div></div>","i","TARGET","2","trustrating_stim/white_mw040.bmp,trustrating_stim/white_mw070.bmp","1,0","noMatchFace","i","3000","trustrating_stim/white_mw078.bmp","green","Share","PRACTICE","1",""
"html-keyboard-response","13","84033","0.0-5.0-5.1","62ded68be9e12bf448a7ffdb","bdp_wmem","Wed Mar 15 2023 20:08:20 GMT-0700 (Pacific Daylight Time)","605255","Match,No Match","","null","","","","","","<div class='trialBorder'><div class='vertical-center'><img src='img/correct.jpg'></div><div class='respDiv'><div class='respDivL'>Match<br>(e)</div><div class='respDivR'><font style='color:orange'>No Match<br>(i)</font></div></div></div>","null","FEEDBACK","","","","","","","","","","","",""
"html-keyboard-response","14","84536","0.0-5.0-1.2","62ded68be9e12bf448a7ffdb","bdp_wmem","Wed Mar 15 2023 20:08:20 GMT-0700 (Pacific Daylight Time)","605255","Match,No Match","","null","","","","","","<div class='trialBorder'><div class='vertical-center'><img src='img/fixation2_sml.jpg'</img></div></div>","null","FIX","","","","","","","","","","","",""
"html-keyboard-response","15","86040","0.0-5.0-2.2","62ded68be9e12bf448a7ffdb","bdp_wmem","Wed Mar 15 2023 20:08:20 GMT-0700 (Pacific Daylight Time)","605255","Match,No Match","","null","","","","","","<div class='trialBorder'><div class='vertical-center'><img style='vertical-align:center; align:center' src='img/fixation2_sml.jpg'></div><div class='arrayDiv1'><div class='tc'><img class='introPic' src='trustrating_stim/white_mw012.bmp'><br><font color='red'><strong>Keep</strong></font></div></div></div>","null","ARRAY","1","trustrating_stim/white_mw012.bmp","0","noMatchFace","i","1500","","","","","",""
"html-keyboard-response","16","90044","0.0-5.0-3.2","62ded68be9e12bf448a7ffdb","bdp_wmem","Wed Mar 15 2023 20:08:20 GMT-0700 (Pacific Daylight Time)","605255","Match,No Match","","null","","","","","","<div class='trialBorder'><div class='vertical-center'><img src='img/fixation2_sml.jpg'</img></div></div>","null","DELAY","","","","","","","","","","","",""
"html-keyboard-response","17","90963","0.0-5.0-4.2","62ded68be9e12bf448a7ffdb","bdp_wmem","Wed Mar 15 2023 20:08:20 GMT-0700 (Pacific Daylight Time)","605255","Match,No Match","","915","","","","","","<div class='trialBorder'><div class='targDiv'><div class='tc'><img class='introPic' src='trustrating_stim/white_mw092.bmp'><br><font color='red'><strong>Keep</strong></font></div></div><div class='respDiv'><div class='respDivL'>Match<br>(e)</div><div class='respDivR'>No Match<br>(i)</div></div></div>","i","TARGET","1","trustrating_stim/white_mw012.bmp","0","noMatchFace","i","1500","trustrating_stim/white_mw092.bmp","red","Keep","PRACTICE","1",""
"html-keyboard-response","18","91466","0.0-5.0-5.2","62ded68be9e12bf448a7ffdb","bdp_wmem","Wed Mar 15 2023 20:08:20 GMT-0700 (Pacific Daylight Time)","605255","Match,No Match","","null","","","","","","<div class='trialBorder'><div class='vertical-center'><img src='img/correct.jpg'></div><div class='respDiv'><div class='respDivL'>Match<br>(e)</div><div class='respDivR'><font style='color:orange'>No Match<br>(i)</font></div></div></div>","null","FEEDBACK","","","","","","","","","","","",""
"html-keyboard-response","19","91971","0.0-5.0-1.3","62ded68be9e12bf448a7ffdb","bdp_wmem","Wed Mar 15 2023 20:08:20 GMT-0700 (Pacific Daylight Time)","605255","Match,No Match","","null","","","","","","<div class='trialBorder'><div class='vertical-center'><img src='img/fixation2_sml.jpg'</img></div></div>","null","FIX","","","","","","","","","","","",""
"html-keyboard-response","20","96475","0.0-5.0-2.3","62ded68be9e12bf448a7ffdb","bdp_wmem","Wed Mar 15 2023 20:08:20 GMT-0700 (Pacific Daylight Time)","605255","Match,No Match","","null","","","","","","<div class='trialBorder'><div class='vertical-center'><img style='vertical-align:center; align:center' src='img/fixation2_sml.jpg'></div><div class='arrayDiv3'><div class='tl'><img class='introPic' src='trustrating_stim/white_mw085.bmp'><br><font color='green'><strong>Share</strong></font></div><div class='tc'><img class='introPic' src='trustrating_stim/white_mw003.bmp'><br><font color='red'><strong>Keep</strong></font></div><div class='tr'><img class='introPic' src='trustrating_stim/white_mw092.bmp'><br><font color='red'><strong>Keep</strong></font></div></div></div>","null","ARRAY","3","trustrating_stim/white_mw085.bmp,trustrating_stim/white_mw003.bmp,trustrating_stim/white_mw092.bmp","1,0,0","noMatchOutcome","i","4500","","","","","",""
"html-keyboard-response","21","100478","0.0-5.0-3.3","62ded68be9e12bf448a7ffdb","bdp_wmem","Wed Mar 15 2023 20:08:20 GMT-0700 (Pacific Daylight Time)","605255","Match,No Match","","null","","","","","","<div class='trialBorder'><div class='vertical-center'><img src='img/fixation2_sml.jpg'</img></div></div>","null","DELAY","","","","","","","","","","","",""
"html-keyboard-response","22","103482","0.0-5.0-4.3","62ded68be9e12bf448a7ffdb","bdp_wmem","Wed Mar 15 2023 20:08:20 GMT-0700 (Pacific Daylight Time)","605255","Match,No Match","","3000","","","","","","<div class='trialBorder'><div class='targDiv'><div class='tc'><img class='introPic' src='trustrating_stim/white_mw003.bmp'><br><font color='green'><strong>Share</strong></font></div></div><div class='respDiv'><div class='respDivL'>Match<br>(e)</div><div class='respDivR'>No Match<br>(i)</div></div></div>","e","TARGET","3","trustrating_stim/white_mw085.bmp,trustrating_stim/white_mw003.bmp,trustrating_stim/white_mw092.bmp","1,0,0","noMatchOutcome","i","4500","trustrating_stim/white_mw003.bmp","green","Share","PRACTICE","0",""
"html-keyboard-response","23","103986","0.0-5.0-5.3","62ded68be9e12bf448a7ffdb","bdp_wmem","Wed Mar 15 2023 20:08:20 GMT-0700 (Pacific Daylight Time)","605255","Match,No Match","","null","","","","","","<div class='trialBorder'><div class='vertical-center'><img src='img/error.jpg'></div><div class='respDiv'><div class='respDivL'><font style='color:orange'>Match<br>(e)</font></div><div class='respDivR'>No Match<br>(i)</div></div></div>","null","FEEDBACK","","","","","","","","","","","",""
"html-keyboard-response","24","104488","0.0-5.0-1.4","62ded68be9e12bf448a7ffdb","bdp_wmem","Wed Mar 15 2023 20:08:20 GMT-0700 (Pacific Daylight Time)","605255","Match,No Match","","null","","","","","","<div class='trialBorder'><div class='vertical-center'><img src='img/fixation2_sml.jpg'</img></div></div>","null","FIX","","","","","","","","","","","",""
"html-keyboard-response","25","107492","0.0-5.0-2.4","62ded68be9e12bf448a7ffdb","bdp_wmem","Wed Mar 15 2023 20:08:20 GMT-0700 (Pacific Daylight Time)","605255","Match,No Match","","null","","","","","","<div class='trialBorder'><div class='vertical-center'><img style='vertical-align:center; align:center' src='img/fixation2_sml.jpg'></div><div class='arrayDiv2'><div class='tl'><img class='introPic' src='trustrating_stim/white_mw091.bmp'><br><font color='red'><strong>Keep</strong></font></div><div class='tr'><img class='introPic' src='trustrating_stim/white_mw092.bmp'><br><font color='green'><strong>Share</strong></font></div></div></div>","null","ARRAY","2","trustrating_stim/white_mw091.bmp,trustrating_stim/white_mw092.bmp","0,1","Match","e","3000","","","","","",""
"html-keyboard-response","26","111496","0.0-5.0-3.4","62ded68be9e12bf448a7ffdb","bdp_wmem","Wed Mar 15 2023 20:08:20 GMT-0700 (Pacific Daylight Time)","605255","Match,No Match","","null","","","","","","<div class='trialBorder'><div class='vertical-center'><img src='img/fixation2_sml.jpg'</img></div></div>","null","DELAY","","","","","","","","","","","",""
"html-keyboard-response","27","114722","0.0-5.0-4.4","62ded68be9e12bf448a7ffdb","bdp_wmem","Wed Mar 15 2023 20:08:20 GMT-0700 (Pacific Daylight Time)","605255","Match,No Match","","3222","","","","","","<div class='trialBorder'><div class='targDiv'><div class='tc'><img class='introPic' src='trustrating_stim/white_mw092.bmp'><br><font color='green'><strong>Share</strong></font></div></div><div class='respDiv'><div class='respDivL'>Match<br>(e)</div><div class='respDivR'>No Match<br>(i)</div></div></div>","e","TARGET","2","trustrating_stim/white_mw091.bmp,trustrating_stim/white_mw092.bmp","0,1","Match","e","3000","trustrating_stim/white_mw092.bmp","green","Share","PRACTICE","1",""
"html-keyboard-response","28","115225","0.0-5.0-5.4","62ded68be9e12bf448a7ffdb","bdp_wmem","Wed Mar 15 2023 20:08:20 GMT-0700 (Pacific Daylight Time)","605255","Match,No Match","","null","","","","","","<div class='trialBorder'><div class='vertical-center'><img src='img/correct.jpg'></div><div class='respDiv'><div class='respDivL'><font style='color:orange'>Match<br>(e)</font></div><div class='respDivR'>No Match<br>(i)</div></div></div>","null","FEEDBACK","","","","","","","","","","","",""
"html-keyboard-response","29","115729","0.0-5.0-1.5","62ded68be9e12bf448a7ffdb","bdp_wmem","Wed Mar 15 2023 20:08:20 GMT-0700 (Pacific Daylight Time)","605255","Match,No Match","","null","","","","","","<div class='trialBorder'><div class='vertical-center'><img src='img/fixation2_sml.jpg'</img></div></div>","null","FIX","","","","","","","","","","","",""
"html-keyboard-response","30","117233","0.0-5.0-2.5","62ded68be9e12bf448a7ffdb","bdp_wmem","Wed Mar 15 2023 20:08:20 GMT-0700 (Pacific Daylight Time)","605255","Match,No Match","","null","","","","","","<div class='trialBorder'><div class='vertical-center'><img style='vertical-align:center; align:center' src='img/fixation2_sml.jpg'></div><div class='arrayDiv1'><div class='tc'><img class='introPic' src='trustrating_stim/white_mw003.bmp'><br><font color='red'><strong>Keep</strong></font></div></div></div>","null","ARRAY","1","trustrating_stim/white_mw003.bmp","0","Match","e","1500","","","","","",""
"html-keyboard-response","31","121236","0.0-5.0-3.5","62ded68be9e12bf448a7ffdb","bdp_wmem","Wed Mar 15 2023 20:08:20 GMT-0700 (Pacific Daylight Time)","605255","Match,No Match","","null","","","","","","<div class='trialBorder'><div class='vertical-center'><img src='img/fixation2_sml.jpg'</img></div></div>","null","DELAY","","","","","","","","","","","",""
"html-keyboard-response","32","122389","0.0-5.0-4.5","62ded68be9e12bf448a7ffdb","bdp_wmem","Wed Mar 15 2023 20:08:20 GMT-0700 (Pacific Daylight Time)","605255","Match,No Match","","1150","","","","","","<div class='trialBorder'><div class='targDiv'><div class='tc'><img class='introPic' src='trustrating_stim/white_mw003.bmp'><br><font color='red'><strong>Keep</strong></font></div></div><div class='respDiv'><div class='respDivL'>Match<br>(e)</div><div class='respDivR'>No Match<br>(i)</div></div></div>","e","TARGET","1","trustrating_stim/white_mw003.bmp","0","Match","e","1500","trustrating_stim/white_mw003.bmp","red","Keep","PRACTICE","1",""
"html-keyboard-response","33","122893","0.0-5.0-5.5","62ded68be9e12bf448a7ffdb","bdp_wmem","Wed Mar 15 2023 20:08:20 GMT-0700 (Pacific Daylight Time)","605255","Match,No Match","","null","","","","","","<div class='trialBorder'><div class='vertical-center'><img src='img/correct.jpg'></div><div class='respDiv'><div class='respDivL'><font style='color:orange'>Match<br>(e)</font></div><div class='respDivR'>No Match<br>(i)</div></div></div>","null","FEEDBACK","","","","","","","","","","","",""
"instructions","34","129932","0.0-6.0","62ded68be9e12bf448a7ffdb","bdp_wmem","Wed Mar 15 2023 20:08:20 GMT-0700 (Pacific Daylight Time)","605255","Match,No Match","[{""page_index"":0,""viewing_time"":7037}]","7037","","","","","","","","","","","","","","","","","","","",""
"html-keyboard-response","35","130435","0.0-7.0-1.0","62ded68be9e12bf448a7ffdb","bdp_wmem","Wed Mar 15 2023 20:08:20 GMT-0700 (Pacific Daylight Time)","605255","Match,No Match","","null","","","","","","<div class='trialBorder'><div class='vertical-center'><img src='img/fixation2_sml.jpg'</img></div></div>","null","FIX","","","","","","","","","","","",""
"html-keyboard-response","36","131939","0.0-7.0-2.0","62ded68be9e12bf448a7ffdb","bdp_wmem","Wed Mar 15 2023 20:08:20 GMT-0700 (Pacific Daylight Time)","605255","Match,No Match","","null","","","","","","<div class='trialBorder'><div class='vertical-center'><img style='vertical-align:center; align:center' src='img/fixation2_sml.jpg'></div><div class='arrayDiv1'><div class='tc'><img class='introPic' src='trustrating_stim/white_mw091.bmp'><br><font color='red'><strong>Keep</strong></font></div></div></div>","null","ARRAY","1","trustrating_stim/white_mw091.bmp","0","Match","e","1500","","","","","",""
"html-keyboard-response","37","135942","0.0-7.0-3.0","62ded68be9e12bf448a7ffdb","bdp_wmem","Wed Mar 15 2023 20:08:20 GMT-0700 (Pacific Daylight Time)","605255","Match,No Match","","null","","","","","","<div class='trialBorder'><div class='vertical-center'><img src='img/fixation2_sml.jpg'</img></div></div>","null","DELAY","","","","","","","","","","","",""
"html-keyboard-response","38","136693","0.0-7.0-4.0","62ded68be9e12bf448a7ffdb","bdp_wmem","Wed Mar 15 2023 20:08:20 GMT-0700 (Pacific Daylight Time)","605255","Match,No Match","","747","","","","","","<div class='trialBorder'><div class='targDiv'><div class='tc'><img class='introPic' src='trustrating_stim/white_mw091.bmp'><br><font color='red'><strong>Keep</strong></font></div></div><div class='respDiv'><div class='respDivL'>Match<br>(e)</div><div class='respDivR'>No Match<br>(i)</div></div></div>","e","TARGET","1","trustrating_stim/white_mw091.bmp","0","Match","e","1500","trustrating_stim/white_mw091.bmp","red","Keep","REAL","1",""
"html-keyboard-response","39","137195","0.0-7.0-5.0","62ded68be9e12bf448a7ffdb","bdp_wmem","Wed Mar 15 2023 20:08:20 GMT-0700 (Pacific Daylight Time)","605255","Match,No Match","","null","","","","","","<div class='trialBorder'><div class='vertical-center'><img src='img/correct.jpg'></div><div class='respDiv'><div class='respDivL'><font style='color:orange'>Match<br>(e)</font></div><div class='respDivR'>No Match<br>(i)</div></div></div>","null","FEEDBACK","","","","","","","","","","","",""
"html-keyboard-response","40","137699","0.0-7.0-1.1","62ded68be9e12bf448a7ffdb","bdp_wmem","Wed Mar 15 2023 20:08:20 GMT-0700 (Pacific Daylight Time)","605255","Match,No Match","","null","","","","","","<div class='trialBorder'><div class='vertical-center'><img src='img/fixation2_sml.jpg'</img></div></div>","null","FIX","","","","","","","","","","","",""
"html-keyboard-response","41","140702","0.0-7.0-2.1","62ded68be9e12bf448a7ffdb","bdp_wmem","Wed Mar 15 2023 20:08:20 GMT-0700 (Pacific Daylight Time)","605255","Match,No Match","","null","","","","","","<div class='trialBorder'><div class='vertical-center'><img style='vertical-align:center; align:center' src='img/fixation2_sml.jpg'></div><div class='arrayDiv2'><div class='tl'><img class='introPic' src='trustrating_stim/white_mw070.bmp'><br><font color='red'><strong>Keep</strong></font></div><div class='tr'><img class='introPic' src='trustrating_stim/white_mw091.bmp'><br><font color='green'><strong>Share</strong></font></div></div></div>","null","ARRAY","2","trustrating_stim/white_mw070.bmp,trustrating_stim/white_mw091.bmp","0,1","Match","e","3000","","","","","",""
"html-keyboard-response","42","144706","0.0-7.0-3.1","62ded68be9e12bf448a7ffdb","bdp_wmem","Wed Mar 15 2023 20:08:20 GMT-0700 (Pacific Daylight Time)","605255","Match,No Match","","null","","","","","","<div class='trialBorder'><div class='vertical-center'><img src='img/fixation2_sml.jpg'</img></div></div>","null","DELAY","","","","","","","","","","","",""
"html-keyboard-response","43","145791","0.0-7.0-4.1","62ded68be9e12bf448a7ffdb","bdp_wmem","Wed Mar 15 2023 20:08:20 GMT-0700 (Pacific Daylight Time)","605255","Match,No Match","","1083","","","","","","<div class='trialBorder'><div class='targDiv'><div class='tc'><img class='introPic' src='trustrating_stim/white_mw070.bmp'><br><font color='red'><strong>Keep</strong></font></div></div><div class='respDiv'><div class='respDivL'>Match<br>(e)</div><div class='respDivR'>No Match<br>(i)</div></div></div>","e","TARGET","2","trustrating_stim/white_mw070.bmp,trustrating_stim/white_mw091.bmp","0,1","Match","e","3000","trustrating_stim/white_mw070.bmp","red","Keep","REAL","1",""
"html-keyboard-response","44","146296","0.0-7.0-5.1","62ded68be9e12bf448a7ffdb","bdp_wmem","Wed Mar 15 2023 20:08:20 GMT-0700 (Pacific Daylight Time)","605255","Match,No Match","","null","","","","","","<div class='trialBorder'><div class='vertical-center'><img src='img/correct.jpg'></div><div class='respDiv'><div class='respDivL'><font style='color:orange'>Match<br>(e)</font></div><div class='respDivR'>No Match<br>(i)</div></div></div>","null","FEEDBACK","","","","","","","","","","","",""
"html-keyboard-response","45","146799","0.0-7.0-1.2","62ded68be9e12bf448a7ffdb","bdp_wmem","Wed Mar 15 2023 20:08:20 GMT-0700 (Pacific Daylight Time)","605255","Match,No Match","","null","","","","","","<div class='trialBorder'><div class='vertical-center'><img src='img/fixation2_sml.jpg'</img></div></div>","null","FIX","","","","","","","","","","","",""
"html-keyboard-response","46","149802","0.0-7.0-2.2","62ded68be9e12bf448a7ffdb","bdp_wmem","Wed Mar 15 2023 20:08:20 GMT-0700 (Pacific Daylight Time)","605255","Match,No Match","","null","","","","","","<div class='trialBorder'><div class='vertical-center'><img style='vertical-align:center; align:center' src='img/fixation2_sml.jpg'></div><div class='arrayDiv2'><div class='tl'><img class='introPic' src='trustrating_stim/white_mw085.bmp'><br><font color='green'><strong>Share</strong></font></div><div class='tr'><img class='introPic' src='trustrating_stim/white_mw078.bmp'><br><font color='red'><strong>Keep</strong></font></div></div></div>","null","ARRAY","2","trustrating_stim/white_mw085.bmp,trustrating_stim/white_mw078.bmp","1,0","Match","e","3000","","","","","",""
"html-keyboard-response","47","153806","0.0-7.0-3.2","62ded68be9e12bf448a7ffdb","bdp_wmem","Wed Mar 15 2023 20:08:20 GMT-0700 (Pacific Daylight Time)","605255","Match,No Match","","null","","","","","","<div class='trialBorder'><div class='vertical-center'><img src='img/fixation2_sml.jpg'</img></div></div>","null","DELAY","","","","","","","","","","","",""
"html-keyboard-response","48","155611","0.0-7.0-4.2","62ded68be9e12bf448a7ffdb","bdp_wmem","Wed Mar 15 2023 20:08:20 GMT-0700 (Pacific Daylight Time)","605255","Match,No Match","","1803","","","","","","<div class='trialBorder'><div class='targDiv'><div class='tc'><img class='introPic' src='trustrating_stim/white_mw078.bmp'><br><font color='red'><strong>Keep</strong></font></div></div><div class='respDiv'><div class='respDivL'>Match<br>(e)</div><div class='respDivR'>No Match<br>(i)</div></div></div>","e","TARGET","2","trustrating_stim/white_mw085.bmp,trustrating_stim/white_mw078.bmp","1,0","Match","e","3000","trustrating_stim/white_mw078.bmp","red","Keep","REAL","1",""
"html-keyboard-response","49","156115","0.0-7.0-5.2","62ded68be9e12bf448a7ffdb","bdp_wmem","Wed Mar 15 2023 20:08:20 GMT-0700 (Pacific Daylight Time)","605255","Match,No Match","","null","","","","","","<div class='trialBorder'><div class='vertical-center'><img src='img/correct.jpg'></div><div class='respDiv'><div class='respDivL'><font style='color:orange'>Match<br>(e)</font></div><div class='respDivR'>No Match<br>(i)</div></div></div>","null","FEEDBACK","","","","","","","","","","","",""
"html-keyboard-response","50","156618","0.0-7.0-1.3","62ded68be9e12bf448a7ffdb","bdp_wmem","Wed Mar 15 2023 20:08:20 GMT-0700 (Pacific Daylight Time)","605255","Match,No Match","","null","","","","","","<div class='trialBorder'><div class='vertical-center'><img src='img/fixation2_sml.jpg'</img></div></div>","null","FIX","","","","","","","","","","","",""
"html-keyboard-response","51","161122","0.0-7.0-2.3","62ded68be9e12bf448a7ffdb","bdp_wmem","Wed Mar 15 2023 20:08:20 GMT-0700 (Pacific Daylight Time)","605255","Match,No Match","","null","","","","","","<div class='trialBorder'><div class='vertical-center'><img style='vertical-align:center; align:center' src='img/fixation2_sml.jpg'></div><div class='arrayDiv3'><div class='tl'><img class='introPic' src='trustrating_stim/white_mw013.bmp'><br><font color='red'><strong>Keep</strong></font></div><div class='tc'><img class='introPic' src='trustrating_stim/white_mw078.bmp'><br><font color='green'><strong>Share</strong></font></div><div class='tr'><img class='introPic' src='trustrating_stim/white_mw092.bmp'><br><font color='green'><strong>Share</strong></font></div></div></div>","null","ARRAY","3","trustrating_stim/white_mw013.bmp,trustrating_stim/white_mw078.bmp,trustrating_stim/white_mw092.bmp","0,1,1","noMatchFace","i","4500","","","","","",""
"html-keyboard-response","52","165126","0.0-7.0-3.3","62ded68be9e12bf448a7ffdb","bdp_wmem","Wed Mar 15 2023 20:08:20 GMT-0700 (Pacific Daylight Time)","605255","Match,No Match","","null","","","","","","<div class='trialBorder'><div class='vertical-center'><img src='img/fixation2_sml.jpg'</img></div></div>","null","DELAY","","","","","","","","","","","",""
"html-keyboard-response","53","166770","0.0-7.0-4.3","62ded68be9e12bf448a7ffdb","bdp_wmem","Wed Mar 15 2023 20:08:20 GMT-0700 (Pacific Daylight Time)","605255","Match,No Match","","1641","","","","","","<div class='trialBorder'><div class='targDiv'><div class='tc'><img class='introPic' src='trustrating_stim/white_mw010.bmp'><br><font color='green'><strong>Share</strong></font></div></div><div class='respDiv'><div class='respDivL'>Match<br>(e)</div><div class='respDivR'>No Match<br>(i)</div></div></div>","i","TARGET","3","trustrating_stim/white_mw013.bmp,trustrating_stim/white_mw078.bmp,trustrating_stim/white_mw092.bmp","0,1,1","noMatchFace","i","4500","trustrating_stim/white_mw010.bmp","green","Share","REAL","1",""
"html-keyboard-response","54","167274","0.0-7.0-5.3","62ded68be9e12bf448a7ffdb","bdp_wmem","Wed Mar 15 2023 20:08:20 GMT-0700 (Pacific Daylight Time)","605255","Match,No Match","","null","","","","","","<div class='trialBorder'><div class='vertical-center'><img src='img/correct.jpg'></div><div class='respDiv'><div class='respDivL'>Match<br>(e)</div><div class='respDivR'><font style='color:orange'>No Match<br>(i)</font></div></div></div>","null","FEEDBACK","","","","","","","","","","","",""
"html-keyboard-response","55","167777","0.0-7.0-1.4","62ded68be9e12bf448a7ffdb","bdp_wmem","Wed Mar 15 2023 20:08:20 GMT-0700 (Pacific Daylight Time)","605255","Match,No Match","","null","","","","","","<div class='trialBorder'><div class='vertical-center'><img src='img/fixation2_sml.jpg'</img></div></div>","null","FIX","","","","","","","","","","","",""
"html-keyboard-response","56","169282","0.0-7.0-2.4","62ded68be9e12bf448a7ffdb","bdp_wmem","Wed Mar 15 2023 20:08:20 GMT-0700 (Pacific Daylight Time)","605255","Match,No Match","","null","","","","","","<div class='trialBorder'><div class='vertical-center'><img style='vertical-align:center; align:center' src='img/fixation2_sml.jpg'></div><div class='arrayDiv1'><div class='tc'><img class='introPic' src='trustrating_stim/white_mw003.bmp'><br><font color='red'><strong>Keep</strong></font></div></div></div>","null","ARRAY","1","trustrating_stim/white_mw003.bmp","0","Match","e","1500","","","","","",""
"html-keyboard-response","57","173285","0.0-7.0-3.4","62ded68be9e12bf448a7ffdb","bdp_wmem","Wed Mar 15 2023 20:08:20 GMT-0700 (Pacific Daylight Time)","605255","Match,No Match","","null","","","","","","<div class='trialBorder'><div class='vertical-center'><img src='img/fixation2_sml.jpg'</img></div></div>","null","DELAY","","","","","","","","","","","",""
"html-keyboard-response","58","174152","0.0-7.0-4.4","62ded68be9e12bf448a7ffdb","bdp_wmem","Wed Mar 15 2023 20:08:20 GMT-0700 (Pacific Daylight Time)","605255","Match,No Match","","865","","","","","","<div class='trialBorder'><div class='targDiv'><div class='tc'><img class='introPic' src='trustrating_stim/white_mw003.bmp'><br><font color='red'><strong>Keep</strong></font></div></div><div class='respDiv'><div class='respDivL'>Match<br>(e)</div><div class='respDivR'>No Match<br>(i)</div></div></div>","e","TARGET","1","trustrating_stim/white_mw003.bmp","0","Match","e","1500","trustrating_stim/white_mw003.bmp","red","Keep","REAL","1",""
"html-keyboard-response","59","174656","0.0-7.0-5.4","62ded68be9e12bf448a7ffdb","bdp_wmem","Wed Mar 15 2023 20:08:20 GMT-0700 (Pacific Daylight Time)","605255","Match,No Match","","null","","","","","","<div class='trialBorder'><div class='vertical-center'><img src='img/correct.jpg'></div><div class='respDiv'><div class='respDivL'><font style='color:orange'>Match<br>(e)</font></div><div class='respDivR'>No Match<br>(i)</div></div></div>","null","FEEDBACK","","","","","","","","","","","",""
"html-keyboard-response","60","175161","0.0-7.0-1.5","62ded68be9e12bf448a7ffdb","bdp_wmem","Wed Mar 15 2023 20:08:20 GMT-0700 (Pacific Daylight Time)","605255","Match,No Match","","null","","","","","","<div class='trialBorder'><div class='vertical-center'><img src='img/fixation2_sml.jpg'</img></div></div>","null","FIX","","","","","","","","","","","",""
"html-keyboard-response","61","179665","0.0-7.0-2.5","62ded68be9e12bf448a7ffdb","bdp_wmem","Wed Mar 15 2023 20:08:20 GMT-0700 (Pacific Daylight Time)","605255","Match,No Match","","null","","","","","","<div class='trialBorder'><div class='vertical-center'><img style='vertical-align:center; align:center' src='img/fixation2_sml.jpg'></div><div class='arrayDiv3'><div class='tl'><img class='introPic' src='trustrating_stim/white_mw013.bmp'><br><font color='red'><strong>Keep</strong></font></div><div class='tc'><img class='introPic' src='trustrating_stim/white_mw003.bmp'><br><font color='red'><strong>Keep</strong></font></div><div class='tr'><img class='introPic' src='trustrating_stim/white_mw078.bmp'><br><font color='green'><strong>Share</strong></font></div></div></div>","null","ARRAY","3","trustrating_stim/white_mw013.bmp,trustrating_stim/white_mw003.bmp,trustrating_stim/white_mw078.bmp","0,0,1","noMatchOutcome","i","4500","","","","","",""
"html-keyboard-response","62","183668","0.0-7.0-3.5","62ded68be9e12bf448a7ffdb","bdp_wmem","Wed Mar 15 2023 20:08:20 GMT-0700 (Pacific Daylight Time)","605255","Match,No Match","","null","","","","","","<div class='trialBorder'><div class='vertical-center'><img src='img/fixation2_sml.jpg'</img></div></div>","null","DELAY","","","","","","","","","","","",""
"html-keyboard-response","63","185214","0.0-7.0-4.5","62ded68be9e12bf448a7ffdb","bdp_wmem","Wed Mar 15 2023 20:08:20 GMT-0700 (Pacific Daylight Time)","605255","Match,No Match","","1542","","","","","","<div class='trialBorder'><div class='targDiv'><div class='tc'><img class='introPic' src='trustrating_stim/white_mw003.bmp'><br><font color='green'><strong>Share</strong></font></div></div><div class='respDiv'><div class='respDivL'>Match<br>(e)</div><div class='respDivR'>No Match<br>(i)</div></div></div>","i","TARGET","3","trustrating_stim/white_mw013.bmp,trustrating_stim/white_mw003.bmp,trustrating_stim/white_mw078.bmp","0,0,1","noMatchOutcome","i","4500","trustrating_stim/white_mw003.bmp","green","Share","REAL","1",""
"html-keyboard-response","64","185718","0.0-7.0-5.5","62ded68be9e12bf448a7ffdb","bdp_wmem","Wed Mar 15 2023 20:08:20 GMT-0700 (Pacific Daylight Time)","605255","Match,No Match","","null","","","","","","<div class='trialBorder'><div class='vertical-center'><img src='img/correct.jpg'></div><div class='respDiv'><div class='respDivL'>Match<br>(e)</div><div class='respDivR'><font style='color:orange'>No Match<br>(i)</font></div></div></div>","null","FEEDBACK","","","","","","","","","","","",""
"html-keyboard-response","65","186222","0.0-7.0-1.6","62ded68be9e12bf448a7ffdb","bdp_wmem","Wed Mar 15 2023 20:08:20 GMT-0700 (Pacific Daylight Time)","605255","Match,No Match","","null","","","","","","<div class='trialBorder'><div class='vertical-center'><img src='img/fixation2_sml.jpg'</img></div></div>","null","FIX","","","","","","","","","","","",""
"html-keyboard-response","66","189225","0.0-7.0-2.6","62ded68be9e12bf448a7ffdb","bdp_wmem","Wed Mar 15 2023 20:08:20 GMT-0700 (Pacific Daylight Time)","605255","Match,No Match","","null","","","","","","<div class='trialBorder'><div class='vertical-center'><img style='vertical-align:center; align:center' src='img/fixation2_sml.jpg'></div><div class='arrayDiv2'><div class='tl'><img class='introPic' src='trustrating_stim/white_mw040.bmp'><br><font color='red'><strong>Keep</strong></font></div><div class='tr'><img class='introPic' src='trustrating_stim/white_mw091.bmp'><br><font color='green'><strong>Share</strong></font></div></div></div>","null","ARRAY","2","trustrating_stim/white_mw040.bmp,trustrating_stim/white_mw091.bmp","0,1","noMatchFace","i","3000","","","","","",""
"html-keyboard-response","67","193229","0.0-7.0-3.6","62ded68be9e12bf448a7ffdb","bdp_wmem","Wed Mar 15 2023 20:08:20 GMT-0700 (Pacific Daylight Time)","605255","Match,No Match","","null","","","","","","<div class='trialBorder'><div class='vertical-center'><img src='img/fixation2_sml.jpg'</img></div></div>","null","DELAY","","","","","","","","","","","",""
"html-keyboard-response","68","194460","0.0-7.0-4.6","62ded68be9e12bf448a7ffdb","bdp_wmem","Wed Mar 15 2023 20:08:20 GMT-0700 (Pacific Daylight Time)","605255","Match,No Match","","1228","","","","","","<div class='trialBorder'><div class='targDiv'><div class='tc'><img class='introPic' src='trustrating_stim/white_mw038.bmp'><br><font color='green'><strong>Share</strong></font></div></div><div class='respDiv'><div class='respDivL'>Match<br>(e)</div><div class='respDivR'>No Match<br>(i)</div></div></div>","i","TARGET","2","trustrating_stim/white_mw040.bmp,trustrating_stim/white_mw091.bmp","0,1","noMatchFace","i","3000","trustrating_stim/white_mw038.bmp","green","Share","REAL","1",""
"html-keyboard-response","69","194964","0.0-7.0-5.6","62ded68be9e12bf448a7ffdb","bdp_wmem","Wed Mar 15 2023 20:08:20 GMT-0700 (Pacific Daylight Time)","605255","Match,No Match","","null","","","","","","<div class='trialBorder'><div class='vertical-center'><img src='img/correct.jpg'></div><div class='respDiv'><div class='respDivL'>Match<br>(e)</div><div class='respDivR'><font style='color:orange'>No Match<br>(i)</font></div></div></div>","null","FEEDBACK","","","","","","","","","","","",""
"html-keyboard-response","70","195467","0.0-7.0-1.7","62ded68be9e12bf448a7ffdb","bdp_wmem","Wed Mar 15 2023 20:08:20 GMT-0700 (Pacific Daylight Time)","605255","Match,No Match","","null","","","","","","<div class='trialBorder'><div class='vertical-center'><img src='img/fixation2_sml.jpg'</img></div></div>","null","FIX","","","","","","","","","","","",""
"html-keyboard-response","71","196970","0.0-7.0-2.7","62ded68be9e12bf448a7ffdb","bdp_wmem","Wed Mar 15 2023 20:08:20 GMT-0700 (Pacific Daylight Time)","605255","Match,No Match","","null","","","","","","<div class='trialBorder'><div class='vertical-center'><img style='vertical-align:center; align:center' src='img/fixation2_sml.jpg'></div><div class='arrayDiv1'><div class='tc'><img class='introPic' src='trustrating_stim/white_mw070.bmp'><br><font color='red'><strong>Keep</strong></font></div></div></div>","null","ARRAY","1","trustrating_stim/white_mw070.bmp","0","noMatchOutcome","i","1500","","","","","",""
"html-keyboard-response","72","200974","0.0-7.0-3.7","62ded68be9e12bf448a7ffdb","bdp_wmem","Wed Mar 15 2023 20:08:20 GMT-0700 (Pacific Daylight Time)","605255","Match,No Match","","null","","","","","","<div class='trialBorder'><div class='vertical-center'><img src='img/fixation2_sml.jpg'</img></div></div>","null","DELAY","","","","","","","","","","","",""
"html-keyboard-response","73","202827","0.0-7.0-4.7","62ded68be9e12bf448a7ffdb","bdp_wmem","Wed Mar 15 2023 20:08:20 GMT-0700 (Pacific Daylight Time)","605255","Match,No Match","","1851","","","","","","<div class='trialBorder'><div class='targDiv'><div class='tc'><img class='introPic' src='trustrating_stim/white_mw070.bmp'><br><font color='green'><strong>Share</strong></font></div></div><div class='respDiv'><div class='respDivL'>Match<br>(e)</div><div class='respDivR'>No Match<br>(i)</div></div></div>","i","TARGET","1","trustrating_stim/white_mw070.bmp","0","noMatchOutcome","i","1500","trustrating_stim/white_mw070.bmp","green","Share","REAL","1",""
"html-keyboard-response","74","203330","0.0-7.0-5.7","62ded68be9e12bf448a7ffdb","bdp_wmem","Wed Mar 15 2023 20:08:20 GMT-0700 (Pacific Daylight Time)","605255","Match,No Match","","null","","","","","","<div class='trialBorder'><div class='vertical-center'><img src='img/correct.jpg'></div><div class='respDiv'><div class='respDivL'>Match<br>(e)</div><div class='respDivR'><font style='color:orange'>No Match<br>(i)</font></div></div></div>","null","FEEDBACK","","","","","","","","","","","",""
"html-keyboard-response","75","203833","0.0-7.0-1.8","62ded68be9e12bf448a7ffdb","bdp_wmem","Wed Mar 15 2023 20:08:20 GMT-0700 (Pacific Daylight Time)","605255","Match,No Match","","null","","","","","","<div class='trialBorder'><div class='vertical-center'><img src='img/fixation2_sml.jpg'</img></div></div>","null","FIX","","","","","","","","","","","",""
"html-keyboard-response","76","208337","0.0-7.0-2.8","62ded68be9e12bf448a7ffdb","bdp_wmem","Wed Mar 15 2023 20:08:20 GMT-0700 (Pacific Daylight Time)","605255","Match,No Match","","null","","","","","","<div class='trialBorder'><div class='vertical-center'><img style='vertical-align:center; align:center' src='img/fixation2_sml.jpg'></div><div class='arrayDiv3'><div class='tl'><img class='introPic' src='trustrating_stim/white_mw091.bmp'><br><font color='green'><strong>Share</strong></font></div><div class='tc'><img class='introPic' src='trustrating_stim/white_mw003.bmp'><br><font color='red'><strong>Keep</strong></font></div><div class='tr'><img class='introPic' src='trustrating_stim/white_mw042.bmp'><br><font color='red'><strong>Keep</strong></font></div></div></div>","null","ARRAY","3","trustrating_stim/white_mw091.bmp,trustrating_stim/white_mw003.bmp,trustrating_stim/white_mw042.bmp","1,0,0","Match","e","4500","","","","","",""
"html-keyboard-response","77","212341","0.0-7.0-3.8","62ded68be9e12bf448a7ffdb","bdp_wmem","Wed Mar 15 2023 20:08:20 GMT-0700 (Pacific Daylight Time)","605255","Match,No Match","","null","","","","","","<div class='trialBorder'><div class='vertical-center'><img src='img/fixation2_sml.jpg'</img></div></div>","null","DELAY","","","","","","","","","","","",""
"html-keyboard-response","78","214740","0.0-7.0-4.8","62ded68be9e12bf448a7ffdb","bdp_wmem","Wed Mar 15 2023 20:08:20 GMT-0700 (Pacific Daylight Time)","605255","Match,No Match","","2397","","","","","","<div class='trialBorder'><div class='targDiv'><div class='tc'><img class='introPic' src='trustrating_stim/white_mw003.bmp'><br><font color='red'><strong>Keep</strong></font></div></div><div class='respDiv'><div class='respDivL'>Match<br>(e)</div><div class='respDivR'>No Match<br>(i)</div></div></div>","e","TARGET","3","trustrating_stim/white_mw091.bmp,trustrating_stim/white_mw003.bmp,trustrating_stim/white_mw042.bmp","1,0,0","Match","e","4500","trustrating_stim/white_mw003.bmp","red","Keep","REAL","1",""
"html-keyboard-response","79","215244","0.0-7.0-5.8","62ded68be9e12bf448a7ffdb","bdp_wmem","Wed Mar 15 2023 20:08:20 GMT-0700 (Pacific Daylight Time)","605255","Match,No Match","","null","","","","","","<div class='trialBorder'><div class='vertical-center'><img src='img/correct.jpg'></div><div class='respDiv'><div class='respDivL'><font style='color:orange'>Match<br>(e)</font></div><div class='respDivR'>No Match<br>(i)</div></div></div>","null","FEEDBACK","","","","","","","","","","","",""
"html-keyboard-response","80","215747","0.0-7.0-1.9","62ded68be9e12bf448a7ffdb","bdp_wmem","Wed Mar 15 2023 20:08:20 GMT-0700 (Pacific Daylight Time)","605255","Match,No Match","","null","","","","","","<div class='trialBorder'><div class='vertical-center'><img src='img/fixation2_sml.jpg'</img></div></div>","null","FIX","","","","","","","","","","","",""
"html-keyboard-response","81","217251","0.0-7.0-2.9","62ded68be9e12bf448a7ffdb","bdp_wmem","Wed Mar 15 2023 20:08:20 GMT-0700 (Pacific Daylight Time)","605255","Match,No Match","","null","","","","","","<div class='trialBorder'><div class='vertical-center'><img style='vertical-align:center; align:center' src='img/fixation2_sml.jpg'></div><div class='arrayDiv1'><div class='tc'><img class='introPic' src='trustrating_stim/white_mw003.bmp'><br><font color='green'><strong>Share</strong></font></div></div></div>","null","ARRAY","1","trustrating_stim/white_mw003.bmp","1","Match","e","1500","","","","","",""
"html-keyboard-response","82","221254","0.0-7.0-3.9","62ded68be9e12bf448a7ffdb","bdp_wmem","Wed Mar 15 2023 20:08:20 GMT-0700 (Pacific Daylight Time)","605255","Match,No Match","","null","","","","","","<div class='trialBorder'><div class='vertical-center'><img src='img/fixation2_sml.jpg'</img></div></div>","null","DELAY","","","","","","","","","","","",""
"html-keyboard-response","83","221841","0.0-7.0-4.9","62ded68be9e12bf448a7ffdb","bdp_wmem","Wed Mar 15 2023 20:08:20 GMT-0700 (Pacific Daylight Time)","605255","Match,No Match","","584","","","","","","<div class='trialBorder'><div class='targDiv'><div class='tc'><img class='introPic' src='trustrating_stim/white_mw003.bmp'><br><font color='green'><strong>Share</strong></font></div></div><div class='respDiv'><div class='respDivL'>Match<br>(e)</div><div class='respDivR'>No Match<br>(i)</div></div></div>","i","TARGET","1","trustrating_stim/white_mw003.bmp","1","Match","e","1500","trustrating_stim/white_mw003.bmp","green","Share","REAL","0",""
"html-keyboard-response","84","222343","0.0-7.0-5.9","62ded68be9e12bf448a7ffdb","bdp_wmem","Wed Mar 15 2023 20:08:20 GMT-0700 (Pacific Daylight Time)","605255","Match,No Match","","null","","","","","","<div class='trialBorder'><div class='vertical-center'><img src='img/error.jpg'></div><div class='respDiv'><div class='respDivL'>Match<br>(e)</div><div class='respDivR'><font style='color:orange'>No Match<br>(i)</font></div></div></div>","null","FEEDBACK","","","","","","","","","","","",""
"html-keyboard-response","85","222847","0.0-7.0-1.10","62ded68be9e12bf448a7ffdb","bdp_wmem","Wed Mar 15 2023 20:08:20 GMT-0700 (Pacific Daylight Time)","605255","Match,No Match","","null","","","","","","<div class='trialBorder'><div class='vertical-center'><img src='img/fixation2_sml.jpg'</img></div></div>","null","FIX","","","","","","","","","","","",""
"html-keyboard-response","86","227351","0.0-7.0-2.10","62ded68be9e12bf448a7ffdb","bdp_wmem","Wed Mar 15 2023 20:08:20 GMT-0700 (Pacific Daylight Time)","605255","Match,No Match","","null","","","","","","<div class='trialBorder'><div class='vertical-center'><img style='vertical-align:center; align:center' src='img/fixation2_sml.jpg'></div><div class='arrayDiv3'><div class='tl'><img class='introPic' src='trustrating_stim/white_mw013.bmp'><br><font color='green'><strong>Share</strong></font></div><div class='tc'><img class='introPic' src='trustrating_stim/white_mw010.bmp'><br><font color='red'><strong>Keep</strong></font></div><div class='tr'><img class='introPic' src='trustrating_stim/white_mw038.bmp'><br><font color='red'><strong>Keep</strong></font></div></div></div>","null","ARRAY","3","trustrating_stim/white_mw013.bmp,trustrating_stim/white_mw010.bmp,trustrating_stim/white_mw038.bmp","1,0,0","Match","e","4500","","","","","",""
"html-keyboard-response","87","231355","0.0-7.0-3.10","62ded68be9e12bf448a7ffdb","bdp_wmem","Wed Mar 15 2023 20:08:20 GMT-0700 (Pacific Daylight Time)","605255","Match,No Match","","null","","","","","","<div class='trialBorder'><div class='vertical-center'><img src='img/fixation2_sml.jpg'</img></div></div>","null","DELAY","","","","","","","","","","","",""
"html-keyboard-response","88","233189","0.0-7.0-4.10","62ded68be9e12bf448a7ffdb","bdp_wmem","Wed Mar 15 2023 20:08:20 GMT-0700 (Pacific Daylight Time)","605255","Match,No Match","","1833","","","","","","<div class='trialBorder'><div class='targDiv'><div class='tc'><img class='introPic' src='trustrating_stim/white_mw013.bmp'><br><font color='green'><strong>Share</strong></font></div></div><div class='respDiv'><div class='respDivL'>Match<br>(e)</div><div class='respDivR'>No Match<br>(i)</div></div></div>","e","TARGET","3","trustrating_stim/white_mw013.bmp,trustrating_stim/white_mw010.bmp,trustrating_stim/white_mw038.bmp","1,0,0","Match","e","4500","trustrating_stim/white_mw013.bmp","green","Share","REAL","1",""
"html-keyboard-response","89","233692","0.0-7.0-5.10","62ded68be9e12bf448a7ffdb","bdp_wmem","Wed Mar 15 2023 20:08:20 GMT-0700 (Pacific Daylight Time)","605255","Match,No Match","","null","","","","","","<div class='trialBorder'><div class='vertical-center'><img src='img/correct.jpg'></div><div class='respDiv'><div class='respDivL'><font style='color:orange'>Match<br>(e)</font></div><div class='respDivR'>No Match<br>(i)</div></div></div>","null","FEEDBACK","","","","","","","","","","","",""
"html-keyboard-response","90","234195","0.0-7.0-1.11","62ded68be9e12bf448a7ffdb","bdp_wmem","Wed Mar 15 2023 20:08:20 GMT-0700 (Pacific Daylight Time)","605255","Match,No Match","","null","","","","","","<div class='trialBorder'><div class='vertical-center'><img src='img/fixation2_sml.jpg'</img></div></div>","null","FIX","","","","","","","","","","","",""
"html-keyboard-response","91","237198","0.0-7.0-2.11","62ded68be9e12bf448a7ffdb","bdp_wmem","Wed Mar 15 2023 20:08:20 GMT-0700 (Pacific Daylight Time)","605255","Match,No Match","","null","","","","","","<div class='trialBorder'><div class='vertical-center'><img style='vertical-align:center; align:center' src='img/fixation2_sml.jpg'></div><div class='arrayDiv2'><div class='tl'><img class='introPic' src='trustrating_stim/white_mw042.bmp'><br><font color='red'><strong>Keep</strong></font></div><div class='tr'><img class='introPic' src='trustrating_stim/white_mw003.bmp'><br><font color='green'><strong>Share</strong></font></div></div></div>","null","ARRAY","2","trustrating_stim/white_mw042.bmp,trustrating_stim/white_mw003.bmp","0,1","Match","e","3000","","","","","",""
"html-keyboard-response","92","241201","0.0-7.0-3.11","62ded68be9e12bf448a7ffdb","bdp_wmem","Wed Mar 15 2023 20:08:20 GMT-0700 (Pacific Daylight Time)","605255","Match,No Match","","null","","","","","","<div class='trialBorder'><div class='vertical-center'><img src='img/fixation2_sml.jpg'</img></div></div>","null","DELAY","","","","","","","","","","","",""
"html-keyboard-response","93","243033","0.0-7.0-4.11","62ded68be9e12bf448a7ffdb","bdp_wmem","Wed Mar 15 2023 20:08:20 GMT-0700 (Pacific Daylight Time)","605255","Match,No Match","","1830","","","","","","<div class='trialBorder'><div class='targDiv'><div class='tc'><img class='introPic' src='trustrating_stim/white_mw003.bmp'><br><font color='green'><strong>Share</strong></font></div></div><div class='respDiv'><div class='respDivL'>Match<br>(e)</div><div class='respDivR'>No Match<br>(i)</div></div></div>","i","TARGET","2","trustrating_stim/white_mw042.bmp,trustrating_stim/white_mw003.bmp","0,1","Match","e","3000","trustrating_stim/white_mw003.bmp","green","Share","REAL","0",""
"html-keyboard-response","94","243537","0.0-7.0-5.11","62ded68be9e12bf448a7ffdb","bdp_wmem","Wed Mar 15 2023 20:08:20 GMT-0700 (Pacific Daylight Time)","605255","Match,No Match","","null","","","","","","<div class='trialBorder'><div class='vertical-center'><img src='img/error.jpg'></div><div class='respDiv'><div class='respDivL'>Match<br>(e)</div><div class='respDivR'><font style='color:orange'>No Match<br>(i)</font></div></div></div>","null","FEEDBACK","","","","","","","","","","","",""
"html-keyboard-response","95","244041","0.0-7.0-1.12","62ded68be9e12bf448a7ffdb","bdp_wmem","Wed Mar 15 2023 20:08:20 GMT-0700 (Pacific Daylight Time)","605255","Match,No Match","","null","","","","","","<div class='trialBorder'><div class='vertical-center'><img src='img/fixation2_sml.jpg'</img></div></div>","null","FIX","","","","","","","","","","","",""
"html-keyboard-response","96","245546","0.0-7.0-2.12","62ded68be9e12bf448a7ffdb","bdp_wmem","Wed Mar 15 2023 20:08:20 GMT-0700 (Pacific Daylight Time)","605255","Match,No Match","","null","","","","","","<div class='trialBorder'><div class='vertical-center'><img style='vertical-align:center; align:center' src='img/fixation2_sml.jpg'></div><div class='arrayDiv1'><div class='tc'><img class='introPic' src='trustrating_stim/white_mw010.bmp'><br><font color='green'><strong>Share</strong></font></div></div></div>","null","ARRAY","1","trustrating_stim/white_mw010.bmp","1","noMatchOutcome","i","1500","","","","","",""
"html-keyboard-response","97","249549","0.0-7.0-3.12","62ded68be9e12bf448a7ffdb","bdp_wmem","Wed Mar 15 2023 20:08:20 GMT-0700 (Pacific Daylight Time)","605255","Match,No Match","","null","","","","","","<div class='trialBorder'><div class='vertical-center'><img src='img/fixation2_sml.jpg'</img></div></div>","null","DELAY","","","","","","","","","","","",""
"html-keyboard-response","98","251901","0.0-7.0-4.12","62ded68be9e12bf448a7ffdb","bdp_wmem","Wed Mar 15 2023 20:08:20 GMT-0700 (Pacific Daylight Time)","605255","Match,No Match","","2350","","","","","","<div class='trialBorder'><div class='targDiv'><div class='tc'><img class='introPic' src='trustrating_stim/white_mw010.bmp'><br><font color='red'><strong>Keep</strong></font></div></div><div class='respDiv'><div class='respDivL'>Match<br>(e)</div><div class='respDivR'>No Match<br>(i)</div></div></div>","i","TARGET","1","trustrating_stim/white_mw010.bmp","1","noMatchOutcome","i","1500","trustrating_stim/white_mw010.bmp","red","Keep","REAL","1",""
"html-keyboard-response","99","252405","0.0-7.0-5.12","62ded68be9e12bf448a7ffdb","bdp_wmem","Wed Mar 15 2023 20:08:20 GMT-0700 (Pacific Daylight Time)","605255","Match,No Match","","null","","","","","","<div class='trialBorder'><div class='vertical-center'><img src='img/correct.jpg'></div><div class='respDiv'><div class='respDivL'>Match<br>(e)</div><div class='respDivR'><font style='color:orange'>No Match<br>(i)</font></div></div></div>","null","FEEDBACK","","","","","","","","","","","",""
"html-keyboard-response","100","252909","0.0-7.0-1.13","62ded68be9e12bf448a7ffdb","bdp_wmem","Wed Mar 15 2023 20:08:20 GMT-0700 (Pacific Daylight Time)","605255","Match,No Match","","null","","","","","","<div class='trialBorder'><div class='vertical-center'><img src='img/fixation2_sml.jpg'</img></div></div>","null","FIX","","","","","","","","","","","",""
"html-keyboard-response","101","254413","0.0-7.0-2.13","62ded68be9e12bf448a7ffdb","bdp_wmem","Wed Mar 15 2023 20:08:20 GMT-0700 (Pacific Daylight Time)","605255","Match,No Match","","null","","","","","","<div class='trialBorder'><div class='vertical-center'><img style='vertical-align:center; align:center' src='img/fixation2_sml.jpg'></div><div class='arrayDiv1'><div class='tc'><img class='introPic' src='trustrating_stim/white_mw078.bmp'><br><font color='red'><strong>Keep</strong></font></div></div></div>","null","ARRAY","1","trustrating_stim/white_mw078.bmp","0","Match","e","1500","","","","","",""
"html-keyboard-response","102","258416","0.0-7.0-3.13","62ded68be9e12bf448a7ffdb","bdp_wmem","Wed Mar 15 2023 20:08:20 GMT-0700 (Pacific Daylight Time)","605255","Match,No Match","","null","","","","","","<div class='trialBorder'><div class='vertical-center'><img src='img/fixation2_sml.jpg'</img></div></div>","null","DELAY","","","","","","","","","","","",""
"html-keyboard-response","103","260097","0.0-7.0-4.13","62ded68be9e12bf448a7ffdb","bdp_wmem","Wed Mar 15 2023 20:08:20 GMT-0700 (Pacific Daylight Time)","605255","Match,No Match","","1679","","","","","","<div class='trialBorder'><div class='targDiv'><div class='tc'><img class='introPic' src='trustrating_stim/white_mw078.bmp'><br><font color='red'><strong>Keep</strong></font></div></div><div class='respDiv'><div class='respDivL'>Match<br>(e)</div><div class='respDivR'>No Match<br>(i)</div></div></div>","e","TARGET","1","trustrating_stim/white_mw078.bmp","0","Match","e","1500","trustrating_stim/white_mw078.bmp","red","Keep","REAL","1",""
"html-keyboard-response","104","260601","0.0-7.0-5.13","62ded68be9e12bf448a7ffdb","bdp_wmem","Wed Mar 15 2023 20:08:20 GMT-0700 (Pacific Daylight Time)","605255","Match,No Match","","null","","","","","","<div class='trialBorder'><div class='vertical-center'><img src='img/correct.jpg'></div><div class='respDiv'><div class='respDivL'><font style='color:orange'>Match<br>(e)</font></div><div class='respDivR'>No Match<br>(i)</div></div></div>","null","FEEDBACK","","","","","","","","","","","",""
"html-keyboard-response","105","261104","0.0-7.0-1.14","62ded68be9e12bf448a7ffdb","bdp_wmem","Wed Mar 15 2023 20:08:20 GMT-0700 (Pacific Daylight Time)","605255","Match,No Match","","null","","","","","","<div class='trialBorder'><div class='vertical-center'><img src='img/fixation2_sml.jpg'</img></div></div>","null","FIX","","","","","","","","","","","",""
"html-keyboard-response","106","265608","0.0-7.0-2.14","62ded68be9e12bf448a7ffdb","bdp_wmem","Wed Mar 15 2023 20:08:20 GMT-0700 (Pacific Daylight Time)","605255","Match,No Match","","null","","","","","","<div class='trialBorder'><div class='vertical-center'><img style='vertical-align:center; align:center' src='img/fixation2_sml.jpg'></div><div class='arrayDiv3'><div class='tl'><img class='introPic' src='trustrating_stim/white_mw092.bmp'><br><font color='red'><strong>Keep</strong></font></div><div class='tc'><img class='introPic' src='trustrating_stim/white_mw091.bmp'><br><font color='green'><strong>Share</strong></font></div><div class='tr'><img class='introPic' src='trustrating_stim/white_mw012.bmp'><br><font color='green'><strong>Share</strong></font></div></div></div>","null","ARRAY","3","trustrating_stim/white_mw092.bmp,trustrating_stim/white_mw091.bmp,trustrating_stim/white_mw012.bmp","0,1,1","Match","e","4500","","","","","",""
"html-keyboard-response","107","269611","0.0-7.0-3.14","62ded68be9e12bf448a7ffdb","bdp_wmem","Wed Mar 15 2023 20:08:20 GMT-0700 (Pacific Daylight Time)","605255","Match,No Match","","null","","","","","","<div class='trialBorder'><div class='vertical-center'><img src='img/fixation2_sml.jpg'</img></div></div>","null","DELAY","","","","","","","","","","","",""
"html-keyboard-response","108","271580","0.0-7.0-4.14","62ded68be9e12bf448a7ffdb","bdp_wmem","Wed Mar 15 2023 20:08:20 GMT-0700 (Pacific Daylight Time)","605255","Match,No Match","","1967","","","","","","<div class='trialBorder'><div class='targDiv'><div class='tc'><img class='introPic' src='trustrating_stim/white_mw012.bmp'><br><font color='green'><strong>Share</strong></font></div></div><div class='respDiv'><div class='respDivL'>Match<br>(e)</div><div class='respDivR'>No Match<br>(i)</div></div></div>","e","TARGET","3","trustrating_stim/white_mw092.bmp,trustrating_stim/white_mw091.bmp,trustrating_stim/white_mw012.bmp","0,1,1","Match","e","4500","trustrating_stim/white_mw012.bmp","green","Share","REAL","1",""
"html-keyboard-response","109","272083","0.0-7.0-5.14","62ded68be9e12bf448a7ffdb","bdp_wmem","Wed Mar 15 2023 20:08:20 GMT-0700 (Pacific Daylight Time)","605255","Match,No Match","","null","","","","","","<div class='trialBorder'><div class='vertical-center'><img src='img/correct.jpg'></div><div class='respDiv'><div class='respDivL'><font style='color:orange'>Match<br>(e)</font></div><div class='respDivR'>No Match<br>(i)</div></div></div>","null","FEEDBACK","","","","","","","","","","","",""
"html-keyboard-response","110","272587","0.0-7.0-1.15","62ded68be9e12bf448a7ffdb","bdp_wmem","Wed Mar 15 2023 20:08:20 GMT-0700 (Pacific Daylight Time)","605255","Match,No Match","","null","","","","","","<div class='trialBorder'><div class='vertical-center'><img src='img/fixation2_sml.jpg'</img></div></div>","null","FIX","","","","","","","","","","","",""
"html-keyboard-response","111","274092","0.0-7.0-2.15","62ded68be9e12bf448a7ffdb","bdp_wmem","Wed Mar 15 2023 20:08:20 GMT-0700 (Pacific Daylight Time)","605255","Match,No Match","","null","","","","","","<div class='trialBorder'><div class='vertical-center'><img style='vertical-align:center; align:center' src='img/fixation2_sml.jpg'></div><div class='arrayDiv1'><div class='tc'><img class='introPic' src='trustrating_stim/white_mw003.bmp'><br><font color='red'><strong>Keep</strong></font></div></div></div>","null","ARRAY","1","trustrating_stim/white_mw003.bmp","0","Match","e","1500","","","","","",""
"html-keyboard-response","112","278095","0.0-7.0-3.15","62ded68be9e12bf448a7ffdb","bdp_wmem","Wed Mar 15 2023 20:08:20 GMT-0700 (Pacific Daylight Time)","605255","Match,No Match","","null","","","","","","<div class='trialBorder'><div class='vertical-center'><img src='img/fixation2_sml.jpg'</img></div></div>","null","DELAY","","","","","","","","","","","",""
"html-keyboard-response","113","278868","0.0-7.0-4.15","62ded68be9e12bf448a7ffdb","bdp_wmem","Wed Mar 15 2023 20:08:20 GMT-0700 (Pacific Daylight Time)","605255","Match,No Match","","769","","","","","","<div class='trialBorder'><div class='targDiv'><div class='tc'><img class='introPic' src='trustrating_stim/white_mw003.bmp'><br><font color='red'><strong>Keep</strong></font></div></div><div class='respDiv'><div class='respDivL'>Match<br>(e)</div><div class='respDivR'>No Match<br>(i)</div></div></div>","e","TARGET","1","trustrating_stim/white_mw003.bmp","0","Match","e","1500","trustrating_stim/white_mw003.bmp","red","Keep","REAL","1",""
"html-keyboard-response","114","279371","0.0-7.0-5.15","62ded68be9e12bf448a7ffdb","bdp_wmem","Wed Mar 15 2023 20:08:20 GMT-0700 (Pacific Daylight Time)","605255","Match,No Match","","null","","","","","","<div class='trialBorder'><div class='vertical-center'><img src='img/correct.jpg'></div><div class='respDiv'><div class='respDivL'><font style='color:orange'>Match<br>(e)</font></div><div class='respDivR'>No Match<br>(i)</div></div></div>","null","FEEDBACK","","","","","","","","","","","",""
"html-keyboard-response","115","279874","0.0-7.0-1.16","62ded68be9e12bf448a7ffdb","bdp_wmem","Wed Mar 15 2023 20:08:20 GMT-0700 (Pacific Daylight Time)","605255","Match,No Match","","null","","","","","","<div class='trialBorder'><div class='vertical-center'><img src='img/fixation2_sml.jpg'</img></div></div>","null","FIX","","","","","","","","","","","",""
"html-keyboard-response","116","284378","0.0-7.0-2.16","62ded68be9e12bf448a7ffdb","bdp_wmem","Wed Mar 15 2023 20:08:20 GMT-0700 (Pacific Daylight Time)","605255","Match,No Match","","null","","","","","","<div class='trialBorder'><div class='vertical-center'><img style='vertical-align:center; align:center' src='img/fixation2_sml.jpg'></div><div class='arrayDiv3'><div class='tl'><img class='introPic' src='trustrating_stim/white_mw091.bmp'><br><font color='green'><strong>Share</strong></font></div><div class='tc'><img class='introPic' src='trustrating_stim/white_mw013.bmp'><br><font color='red'><strong>Keep</strong></font></div><div class='tr'><img class='introPic' src='trustrating_stim/white_mw042.bmp'><br><font color='red'><strong>Keep</strong></font></div></div></div>","null","ARRAY","3","trustrating_stim/white_mw091.bmp,trustrating_stim/white_mw013.bmp,trustrating_stim/white_mw042.bmp","1,0,0","Match","e","4500","","","","","",""
"html-keyboard-response","117","288382","0.0-7.0-3.16","62ded68be9e12bf448a7ffdb","bdp_wmem","Wed Mar 15 2023 20:08:20 GMT-0700 (Pacific Daylight Time)","605255","Match,No Match","","null","","","","","","<div class='trialBorder'><div class='vertical-center'><img src='img/fixation2_sml.jpg'</img></div></div>","null","DELAY","","","","","","","","","","","",""
"html-keyboard-response","118","289671","0.0-7.0-4.16","62ded68be9e12bf448a7ffdb","bdp_wmem","Wed Mar 15 2023 20:08:20 GMT-0700 (Pacific Daylight Time)","605255","Match,No Match","","1286","","","","","","<div class='trialBorder'><div class='targDiv'><div class='tc'><img class='introPic' src='trustrating_stim/white_mw091.bmp'><br><font color='green'><strong>Share</strong></font></div></div><div class='respDiv'><div class='respDivL'>Match<br>(e)</div><div class='respDivR'>No Match<br>(i)</div></div></div>","e","TARGET","3","trustrating_stim/white_mw091.bmp,trustrating_stim/white_mw013.bmp,trustrating_stim/white_mw042.bmp","1,0,0","Match","e","4500","trustrating_stim/white_mw091.bmp","green","Share","REAL","1",""
"html-keyboard-response","119","290173","0.0-7.0-5.16","62ded68be9e12bf448a7ffdb","bdp_wmem","Wed Mar 15 2023 20:08:20 GMT-0700 (Pacific Daylight Time)","605255","Match,No Match","","null","","","","","","<div class='trialBorder'><div class='vertical-center'><img src='img/correct.jpg'></div><div class='respDiv'><div class='respDivL'><font style='color:orange'>Match<br>(e)</font></div><div class='respDivR'>No Match<br>(i)</div></div></div>","null","FEEDBACK","","","","","","","","","","","",""
"html-keyboard-response","120","290676","0.0-7.0-1.17","62ded68be9e12bf448a7ffdb","bdp_wmem","Wed Mar 15 2023 20:08:20 GMT-0700 (Pacific Daylight Time)","605255","Match,No Match","","null","","","","","","<div class='trialBorder'><div class='vertical-center'><img src='img/fixation2_sml.jpg'</img></div></div>","null","FIX","","","","","","","","","","","",""
"html-keyboard-response","121","295180","0.0-7.0-2.17","62ded68be9e12bf448a7ffdb","bdp_wmem","Wed Mar 15 2023 20:08:20 GMT-0700 (Pacific Daylight Time)","605255","Match,No Match","","null","","","","","","<div class='trialBorder'><div class='vertical-center'><img style='vertical-align:center; align:center' src='img/fixation2_sml.jpg'></div><div class='arrayDiv3'><div class='tl'><img class='introPic' src='trustrating_stim/white_mw040.bmp'><br><font color='green'><strong>Share</strong></font></div><div class='tc'><img class='introPic' src='trustrating_stim/white_mw003.bmp'><br><font color='red'><strong>Keep</strong></font></div><div class='tr'><img class='introPic' src='trustrating_stim/white_mw010.bmp'><br><font color='red'><strong>Keep</strong></font></div></div></div>","null","ARRAY","3","trustrating_stim/white_mw040.bmp,trustrating_stim/white_mw003.bmp,trustrating_stim/white_mw010.bmp","1,0,0","noMatchOutcome","i","4500","","","","","",""
"html-keyboard-response","122","299183","0.0-7.0-3.17","62ded68be9e12bf448a7ffdb","bdp_wmem","Wed Mar 15 2023 20:08:20 GMT-0700 (Pacific Daylight Time)","605255","Match,No Match","","null","","","","","","<div class='trialBorder'><div class='vertical-center'><img src='img/fixation2_sml.jpg'</img></div></div>","null","DELAY","","","","","","","","","","","",""
"html-keyboard-response","123","300750","0.0-7.0-4.17","62ded68be9e12bf448a7ffdb","bdp_wmem","Wed Mar 15 2023 20:08:20 GMT-0700 (Pacific Daylight Time)","605255","Match,No Match","","1565","","","","","","<div class='trialBorder'><div class='targDiv'><div class='tc'><img class='introPic' src='trustrating_stim/white_mw040.bmp'><br><font color='red'><strong>Keep</strong></font></div></div><div class='respDiv'><div class='respDivL'>Match<br>(e)</div><div class='respDivR'>No Match<br>(i)</div></div></div>","e","TARGET","3","trustrating_stim/white_mw040.bmp,trustrating_stim/white_mw003.bmp,trustrating_stim/white_mw010.bmp","1,0,0","noMatchOutcome","i","4500","trustrating_stim/white_mw040.bmp","red","Keep","REAL","0",""
"html-keyboard-response","124","301254","0.0-7.0-5.17","62ded68be9e12bf448a7ffdb","bdp_wmem","Wed Mar 15 2023 20:08:20 GMT-0700 (Pacific Daylight Time)","605255","Match,No Match","","null","","","","","","<div class='trialBorder'><div class='vertical-center'><img src='img/error.jpg'></div><div class='respDiv'><div class='respDivL'><font style='color:orange'>Match<br>(e)</font></div><div class='respDivR'>No Match<br>(i)</div></div></div>","null","FEEDBACK","","","","","","","","","","","",""
"html-keyboard-response","125","301757","0.0-7.0-1.18","62ded68be9e12bf448a7ffdb","bdp_wmem","Wed Mar 15 2023 20:08:20 GMT-0700 (Pacific Daylight Time)","605255","Match,No Match","","null","","","","","","<div class='trialBorder'><div class='vertical-center'><img src='img/fixation2_sml.jpg'</img></div></div>","null","FIX","","","","","","","","","","","",""
"html-keyboard-response","126","306261","0.0-7.0-2.18","62ded68be9e12bf448a7ffdb","bdp_wmem","Wed Mar 15 2023 20:08:20 GMT-0700 (Pacific Daylight Time)","605255","Match,No Match","","null","","","","","","<div class='trialBorder'><div class='vertical-center'><img style='vertical-align:center; align:center' src='img/fixation2_sml.jpg'></div><div class='arrayDiv3'><div class='tl'><img class='introPic' src='trustrating_stim/white_mw042.bmp'><br><font color='green'><strong>Share</strong></font></div><div class='tc'><img class='introPic' src='trustrating_stim/white_mw091.bmp'><br><font color='red'><strong>Keep</strong></font></div><div class='tr'><img class='introPic' src='trustrating_stim/white_mw010.bmp'><br><font color='red'><strong>Keep</strong></font></div></div></div>","null","ARRAY","3","trustrating_stim/white_mw042.bmp,trustrating_stim/white_mw091.bmp,trustrating_stim/white_mw010.bmp","1,0,0","Match","e","4500","","","","","",""
"html-keyboard-response","127","310264","0.0-7.0-3.18","62ded68be9e12bf448a7ffdb","bdp_wmem","Wed Mar 15 2023 20:08:20 GMT-0700 (Pacific Daylight Time)","605255","Match,No Match","","null","","","","","","<div class='trialBorder'><div class='vertical-center'><img src='img/fixation2_sml.jpg'</img></div></div>","null","DELAY","","","","","","","","","","","",""
"html-keyboard-response","128","313082","0.0-7.0-4.18","62ded68be9e12bf448a7ffdb","bdp_wmem","Wed Mar 15 2023 20:08:20 GMT-0700 (Pacific Daylight Time)","605255","Match,No Match","","2815","","","","","","<div class='trialBorder'><div class='targDiv'><div class='tc'><img class='introPic' src='trustrating_stim/white_mw042.bmp'><br><font color='green'><strong>Share</strong></font></div></div><div class='respDiv'><div class='respDivL'>Match<br>(e)</div><div class='respDivR'>No Match<br>(i)</div></div></div>","e","TARGET","3","trustrating_stim/white_mw042.bmp,trustrating_stim/white_mw091.bmp,trustrating_stim/white_mw010.bmp","1,0,0","Match","e","4500","trustrating_stim/white_mw042.bmp","green","Share","REAL","1",""
"html-keyboard-response","129","313586","0.0-7.0-5.18","62ded68be9e12bf448a7ffdb","bdp_wmem","Wed Mar 15 2023 20:08:20 GMT-0700 (Pacific Daylight Time)","605255","Match,No Match","","null","","","","","","<div class='trialBorder'><div class='vertical-center'><img src='img/correct.jpg'></div><div class='respDiv'><div class='respDivL'><font style='color:orange'>Match<br>(e)</font></div><div class='respDivR'>No Match<br>(i)</div></div></div>","null","FEEDBACK","","","","","","","","","","","",""
"html-keyboard-response","130","314089","0.0-7.0-1.19","62ded68be9e12bf448a7ffdb","bdp_wmem","Wed Mar 15 2023 20:08:20 GMT-0700 (Pacific Daylight Time)","605255","Match,No Match","","null","","","","","","<div class='trialBorder'><div class='vertical-center'><img src='img/fixation2_sml.jpg'</img></div></div>","null","FIX","","","","","","","","","","","",""
"html-keyboard-response","131","318594","0.0-7.0-2.19","62ded68be9e12bf448a7ffdb","bdp_wmem","Wed Mar 15 2023 20:08:20 GMT-0700 (Pacific Daylight Time)","605255","Match,No Match","","null","","","","","","<div class='trialBorder'><div class='vertical-center'><img style='vertical-align:center; align:center' src='img/fixation2_sml.jpg'></div><div class='arrayDiv3'><div class='tl'><img class='introPic' src='trustrating_stim/white_mw092.bmp'><br><font color='green'><strong>Share</strong></font></div><div class='tc'><img class='introPic' src='trustrating_stim/white_mw012.bmp'><br><font color='green'><strong>Share</strong></font></div><div class='tr'><img class='introPic' src='trustrating_stim/white_mw070.bmp'><br><font color='red'><strong>Keep</strong></font></div></div></div>","null","ARRAY","3","trustrating_stim/white_mw092.bmp,trustrating_stim/white_mw012.bmp,trustrating_stim/white_mw070.bmp","1,1,0","noMatchOutcome","i","4500","","","","","",""
"html-keyboard-response","132","322597","0.0-7.0-3.19","62ded68be9e12bf448a7ffdb","bdp_wmem","Wed Mar 15 2023 20:08:20 GMT-0700 (Pacific Daylight Time)","605255","Match,No Match","","null","","","","","","<div class='trialBorder'><div class='vertical-center'><img src='img/fixation2_sml.jpg'</img></div></div>","null","DELAY","","","","","","","","","","","",""
"html-keyboard-response","133","325281","0.0-7.0-4.19","62ded68be9e12bf448a7ffdb","bdp_wmem","Wed Mar 15 2023 20:08:20 GMT-0700 (Pacific Daylight Time)","605255","Match,No Match","","2682","","","","","","<div class='trialBorder'><div class='targDiv'><div class='tc'><img class='introPic' src='trustrating_stim/white_mw070.bmp'><br><font color='green'><strong>Share</strong></font></div></div><div class='respDiv'><div class='respDivL'>Match<br>(e)</div><div class='respDivR'>No Match<br>(i)</div></div></div>","i","TARGET","3","trustrating_stim/white_mw092.bmp,trustrating_stim/white_mw012.bmp,trustrating_stim/white_mw070.bmp","1,1,0","noMatchOutcome","i","4500","trustrating_stim/white_mw070.bmp","green","Share","REAL","1",""
"html-keyboard-response","134","325784","0.0-7.0-5.19","62ded68be9e12bf448a7ffdb","bdp_wmem","Wed Mar 15 2023 20:08:20 GMT-0700 (Pacific Daylight Time)","605255","Match,No Match","","null","","","","","","<div class='trialBorder'><div class='vertical-center'><img src='img/correct.jpg'></div><div class='respDiv'><div class='respDivL'>Match<br>(e)</div><div class='respDivR'><font style='color:orange'>No Match<br>(i)</font></div></div></div>","null","FEEDBACK","","","","","","","","","","","",""
"html-keyboard-response","135","326288","0.0-7.0-1.20","62ded68be9e12bf448a7ffdb","bdp_wmem","Wed Mar 15 2023 20:08:20 GMT-0700 (Pacific Daylight Time)","605255","Match,No Match","","null","","","","","","<div class='trialBorder'><div class='vertical-center'><img src='img/fixation2_sml.jpg'</img></div></div>","null","FIX","","","","","","","","","","","",""
"html-keyboard-response","136","330792","0.0-7.0-2.20","62ded68be9e12bf448a7ffdb","bdp_wmem","Wed Mar 15 2023 20:08:20 GMT-0700 (Pacific Daylight Time)","605255","Match,No Match","","null","","","","","","<div class='trialBorder'><div class='vertical-center'><img style='vertical-align:center; align:center' src='img/fixation2_sml.jpg'></div><div class='arrayDiv3'><div class='tl'><img class='introPic' src='trustrating_stim/white_mw010.bmp'><br><font color='red'><strong>Keep</strong></font></div><div class='tc'><img class='introPic' src='trustrating_stim/white_mw092.bmp'><br><font color='red'><strong>Keep</strong></font></div><div class='tr'><img class='introPic' src='trustrating_stim/white_mw085.bmp'><br><font color='green'><strong>Share</strong></font></div></div></div>","null","ARRAY","3","trustrating_stim/white_mw010.bmp,trustrating_stim/white_mw092.bmp,trustrating_stim/white_mw085.bmp","0,0,1","noMatchFace","i","4500","","","","","",""
"html-keyboard-response","137","334797","0.0-7.0-3.20","62ded68be9e12bf448a7ffdb","bdp_wmem","Wed Mar 15 2023 20:08:20 GMT-0700 (Pacific Daylight Time)","605255","Match,No Match","","null","","","","","","<div class='trialBorder'><div class='vertical-center'><img src='img/fixation2_sml.jpg'</img></div></div>","null","DELAY","","","","","","","","","","","",""
"html-keyboard-response","138","337208","0.0-7.0-4.20","62ded68be9e12bf448a7ffdb","bdp_wmem","Wed Mar 15 2023 20:08:20 GMT-0700 (Pacific Daylight Time)","605255","Match,No Match","","2408","","","","","","<div class='trialBorder'><div class='targDiv'><div class='tc'><img class='introPic' src='trustrating_stim/white_mw091.bmp'><br><font color='green'><strong>Share</strong></font></div></div><div class='respDiv'><div class='respDivL'>Match<br>(e)</div><div class='respDivR'>No Match<br>(i)</div></div></div>","i","TARGET","3","trustrating_stim/white_mw010.bmp,trustrating_stim/white_mw092.bmp,trustrating_stim/white_mw085.bmp","0,0,1","noMatchFace","i","4500","trustrating_stim/white_mw091.bmp","green","Share","REAL","1",""
"html-keyboard-response","139","337712","0.0-7.0-5.20","62ded68be9e12bf448a7ffdb","bdp_wmem","Wed Mar 15 2023 20:08:20 GMT-0700 (Pacific Daylight Time)","605255","Match,No Match","","null","","","","","","<div class='trialBorder'><div class='vertical-center'><img src='img/correct.jpg'></div><div class='respDiv'><div class='respDivL'>Match<br>(e)</div><div class='respDivR'><font style='color:orange'>No Match<br>(i)</font></div></div></div>","null","FEEDBACK","","","","","","","","","","","",""
"html-keyboard-response","140","338215","0.0-7.0-1.21","62ded68be9e12bf448a7ffdb","bdp_wmem","Wed Mar 15 2023 20:08:20 GMT-0700 (Pacific Daylight Time)","605255","Match,No Match","","null","","","","","","<div class='trialBorder'><div class='vertical-center'><img src='img/fixation2_sml.jpg'</img></div></div>","null","FIX","","","","","","","","","","","",""
"html-keyboard-response","141","341219","0.0-7.0-2.21","62ded68be9e12bf448a7ffdb","bdp_wmem","Wed Mar 15 2023 20:08:20 GMT-0700 (Pacific Daylight Time)","605255","Match,No Match","","null","","","","","","<div class='trialBorder'><div class='vertical-center'><img style='vertical-align:center; align:center' src='img/fixation2_sml.jpg'></div><div class='arrayDiv2'><div class='tl'><img class='introPic' src='trustrating_stim/white_mw038.bmp'><br><font color='green'><strong>Share</strong></font></div><div class='tr'><img class='introPic' src='trustrating_stim/white_mw010.bmp'><br><font color='red'><strong>Keep</strong></font></div></div></div>","null","ARRAY","2","trustrating_stim/white_mw038.bmp,trustrating_stim/white_mw010.bmp","1,0","noMatchFace","i","3000","","","","","",""
"html-keyboard-response","142","345222","0.0-7.0-3.21","62ded68be9e12bf448a7ffdb","bdp_wmem","Wed Mar 15 2023 20:08:20 GMT-0700 (Pacific Daylight Time)","605255","Match,No Match","","null","","","","","","<div class='trialBorder'><div class='vertical-center'><img src='img/fixation2_sml.jpg'</img></div></div>","null","DELAY","","","","","","","","","","","",""
"html-keyboard-response","143","348622","0.0-7.0-4.21","62ded68be9e12bf448a7ffdb","bdp_wmem","Wed Mar 15 2023 20:08:20 GMT-0700 (Pacific Daylight Time)","605255","Match,No Match","","3397","","","","","","<div class='trialBorder'><div class='targDiv'><div class='tc'><img class='introPic' src='trustrating_stim/white_mw085.bmp'><br><font color='red'><strong>Keep</strong></font></div></div><div class='respDiv'><div class='respDivL'>Match<br>(e)</div><div class='respDivR'>No Match<br>(i)</div></div></div>","e","TARGET","2","trustrating_stim/white_mw038.bmp,trustrating_stim/white_mw010.bmp","1,0","noMatchFace","i","3000","trustrating_stim/white_mw085.bmp","red","Keep","REAL","0",""
"html-keyboard-response","144","349125","0.0-7.0-5.21","62ded68be9e12bf448a7ffdb","bdp_wmem","Wed Mar 15 2023 20:08:20 GMT-0700 (Pacific Daylight Time)","605255","Match,No Match","","null","","","","","","<div class='trialBorder'><div class='vertical-center'><img src='img/error.jpg'></div><div class='respDiv'><div class='respDivL'><font style='color:orange'>Match<br>(e)</font></div><div class='respDivR'>No Match<br>(i)</div></div></div>","null","FEEDBACK","","","","","","","","","","","",""
"html-keyboard-response","145","349628","0.0-7.0-1.22","62ded68be9e12bf448a7ffdb","bdp_wmem","Wed Mar 15 2023 20:08:20 GMT-0700 (Pacific Daylight Time)","605255","Match,No Match","","null","","","","","","<div class='trialBorder'><div class='vertical-center'><img src='img/fixation2_sml.jpg'</img></div></div>","null","FIX","","","","","","","","","","","",""
"html-keyboard-response","146","354132","0.0-7.0-2.22","62ded68be9e12bf448a7ffdb","bdp_wmem","Wed Mar 15 2023 20:08:20 GMT-0700 (Pacific Daylight Time)","605255","Match,No Match","","null","","","","","","<div class='trialBorder'><div class='vertical-center'><img style='vertical-align:center; align:center' src='img/fixation2_sml.jpg'></div><div class='arrayDiv3'><div class='tl'><img class='introPic' src='trustrating_stim/white_mw040.bmp'><br><font color='red'><strong>Keep</strong></font></div><div class='tc'><img class='introPic' src='trustrating_stim/white_mw078.bmp'><br><font color='green'><strong>Share</strong></font></div><div class='tr'><img class='introPic' src='trustrating_stim/white_mw091.bmp'><br><font color='red'><strong>Keep</strong></font></div></div></div>","null","ARRAY","3","trustrating_stim/white_mw040.bmp,trustrating_stim/white_mw078.bmp,trustrating_stim/white_mw091.bmp","0,1,0","Match","e","4500","","","","","",""
"html-keyboard-response","147","358136","0.0-7.0-3.22","62ded68be9e12bf448a7ffdb","bdp_wmem","Wed Mar 15 2023 20:08:20 GMT-0700 (Pacific Daylight Time)","605255","Match,No Match","","null","","","","","","<div class='trialBorder'><div class='vertical-center'><img src='img/fixation2_sml.jpg'</img></div></div>","null","DELAY","","","","","","","","","","","",""
"html-keyboard-response","148","360516","0.0-7.0-4.22","62ded68be9e12bf448a7ffdb","bdp_wmem","Wed Mar 15 2023 20:08:20 GMT-0700 (Pacific Daylight Time)","605255","Match,No Match","","2377","","","","","","<div class='trialBorder'><div class='targDiv'><div class='tc'><img class='introPic' src='trustrating_stim/white_mw091.bmp'><br><font color='red'><strong>Keep</strong></font></div></div><div class='respDiv'><div class='respDivL'>Match<br>(e)</div><div class='respDivR'>No Match<br>(i)</div></div></div>","i","TARGET","3","trustrating_stim/white_mw040.bmp,trustrating_stim/white_mw078.bmp,trustrating_stim/white_mw091.bmp","0,1,0","Match","e","4500","trustrating_stim/white_mw091.bmp","red","Keep","REAL","0",""
"html-keyboard-response","149","361019","0.0-7.0-5.22","62ded68be9e12bf448a7ffdb","bdp_wmem","Wed Mar 15 2023 20:08:20 GMT-0700 (Pacific Daylight Time)","605255","Match,No Match","","null","","","","","","<div class='trialBorder'><div class='vertical-center'><img src='img/error.jpg'></div><div class='respDiv'><div class='respDivL'>Match<br>(e)</div><div class='respDivR'><font style='color:orange'>No Match<br>(i)</font></div></div></div>","null","FEEDBACK","","","","","","","","","","","",""
"html-keyboard-response","150","361522","0.0-7.0-1.23","62ded68be9e12bf448a7ffdb","bdp_wmem","Wed Mar 15 2023 20:08:20 GMT-0700 (Pacific Daylight Time)","605255","Match,No Match","","null","","","","","","<div class='trialBorder'><div class='vertical-center'><img src='img/fixation2_sml.jpg'</img></div></div>","null","FIX","","","","","","","","","","","",""
"html-keyboard-response","151","363026","0.0-7.0-2.23","62ded68be9e12bf448a7ffdb","bdp_wmem","Wed Mar 15 2023 20:08:20 GMT-0700 (Pacific Daylight Time)","605255","Match,No Match","","null","","","","","","<div class='trialBorder'><div class='vertical-center'><img style='vertical-align:center; align:center' src='img/fixation2_sml.jpg'></div><div class='arrayDiv1'><div class='tc'><img class='introPic' src='trustrating_stim/white_mw013.bmp'><br><font color='green'><strong>Share</strong></font></div></div></div>","null","ARRAY","1","trustrating_stim/white_mw013.bmp","1","Match","e","1500","","","","","",""
"html-keyboard-response","152","367030","0.0-7.0-3.23","62ded68be9e12bf448a7ffdb","bdp_wmem","Wed Mar 15 2023 20:08:20 GMT-0700 (Pacific Daylight Time)","605255","Match,No Match","","null","","","","","","<div class='trialBorder'><div class='vertical-center'><img src='img/fixation2_sml.jpg'</img></div></div>","null","DELAY","","","","","","","","","","","",""
"html-keyboard-response","153","368589","0.0-7.0-4.23","62ded68be9e12bf448a7ffdb","bdp_wmem","Wed Mar 15 2023 20:08:20 GMT-0700 (Pacific Daylight Time)","605255","Match,No Match","","1556","","","","","","<div class='trialBorder'><div class='targDiv'><div class='tc'><img class='introPic' src='trustrating_stim/white_mw013.bmp'><br><font color='green'><strong>Share</strong></font></div></div><div class='respDiv'><div class='respDivL'>Match<br>(e)</div><div class='respDivR'>No Match<br>(i)</div></div></div>","e","TARGET","1","trustrating_stim/white_mw013.bmp","1","Match","e","1500","trustrating_stim/white_mw013.bmp","green","Share","REAL","1",""
"html-keyboard-response","154","369092","0.0-7.0-5.23","62ded68be9e12bf448a7ffdb","bdp_wmem","Wed Mar 15 2023 20:08:20 GMT-0700 (Pacific Daylight Time)","605255","Match,No Match","","null","","","","","","<div class='trialBorder'><div class='vertical-center'><img src='img/correct.jpg'></div><div class='respDiv'><div class='respDivL'><font style='color:orange'>Match<br>(e)</font></div><div class='respDivR'>No Match<br>(i)</div></div></div>","null","FEEDBACK","","","","","","","","","","","",""
"html-keyboard-response","155","369595","0.0-7.0-1.24","62ded68be9e12bf448a7ffdb","bdp_wmem","Wed Mar 15 2023 20:08:20 GMT-0700 (Pacific Daylight Time)","605255","Match,No Match","","null","","","","","","<div class='trialBorder'><div class='vertical-center'><img src='img/fixation2_sml.jpg'</img></div></div>","null","FIX","","","","","","","","","","","",""
"html-keyboard-response","156","372599","0.0-7.0-2.24","62ded68be9e12bf448a7ffdb","bdp_wmem","Wed Mar 15 2023 20:08:20 GMT-0700 (Pacific Daylight Time)","605255","Match,No Match","","null","","","","","","<div class='trialBorder'><div class='vertical-center'><img style='vertical-align:center; align:center' src='img/fixation2_sml.jpg'></div><div class='arrayDiv2'><div class='tl'><img class='introPic' src='trustrating_stim/white_mw013.bmp'><br><font color='green'><strong>Share</strong></font></div><div class='tr'><img class='introPic' src='trustrating_stim/white_mw003.bmp'><br><font color='red'><strong>Keep</strong></font></div></div></div>","null","ARRAY","2","trustrating_stim/white_mw013.bmp,trustrating_stim/white_mw003.bmp","1,0","Match","e","3000","","","","","",""
"html-keyboard-response","157","376602","0.0-7.0-3.24","62ded68be9e12bf448a7ffdb","bdp_wmem","Wed Mar 15 2023 20:08:20 GMT-0700 (Pacific Daylight Time)","605255","Match,No Match","","null","","","","","","<div class='trialBorder'><div class='vertical-center'><img src='img/fixation2_sml.jpg'</img></div></div>","null","DELAY","","","","","","","","","","","",""
"html-keyboard-response","158","378273","0.0-7.0-4.24","62ded68be9e12bf448a7ffdb","bdp_wmem","Wed Mar 15 2023 20:08:20 GMT-0700 (Pacific Daylight Time)","605255","Match,No Match","","1669","","","","","","<div class='trialBorder'><div class='targDiv'><div class='tc'><img class='introPic' src='trustrating_stim/white_mw003.bmp'><br><font color='red'><strong>Keep</strong></font></div></div><div class='respDiv'><div class='respDivL'>Match<br>(e)</div><div class='respDivR'>No Match<br>(i)</div></div></div>","e","TARGET","2","trustrating_stim/white_mw013.bmp,trustrating_stim/white_mw003.bmp","1,0","Match","e","3000","trustrating_stim/white_mw003.bmp","red","Keep","REAL","1",""
"html-keyboard-response","159","378775","0.0-7.0-5.24","62ded68be9e12bf448a7ffdb","bdp_wmem","Wed Mar 15 2023 20:08:20 GMT-0700 (Pacific Daylight Time)","605255","Match,No Match","","null","","","","","","<div class='trialBorder'><div class='vertical-center'><img src='img/correct.jpg'></div><div class='respDiv'><div class='respDivL'><font style='color:orange'>Match<br>(e)</font></div><div class='respDivR'>No Match<br>(i)</div></div></div>","null","FEEDBACK","","","","","","","","","","","",""
"html-keyboard-response","160","379279","0.0-7.0-1.25","62ded68be9e12bf448a7ffdb","bdp_wmem","Wed Mar 15 2023 20:08:20 GMT-0700 (Pacific Daylight Time)","605255","Match,No Match","","null","","","","","","<div class='trialBorder'><div class='vertical-center'><img src='img/fixation2_sml.jpg'</img></div></div>","null","FIX","","","","","","","","","","","",""
"html-keyboard-response","161","380782","0.0-7.0-2.25","62ded68be9e12bf448a7ffdb","bdp_wmem","Wed Mar 15 2023 20:08:20 GMT-0700 (Pacific Daylight Time)","605255","Match,No Match","","null","","","","","","<div class='trialBorder'><div class='vertical-center'><img style='vertical-align:center; align:center' src='img/fixation2_sml.jpg'></div><div class='arrayDiv1'><div class='tc'><img class='introPic' src='trustrating_stim/white_mw085.bmp'><br><font color='red'><strong>Keep</strong></font></div></div></div>","null","ARRAY","1","trustrating_stim/white_mw085.bmp","0","noMatchFace","i","1500","","","","","",""
"html-keyboard-response","162","384785","0.0-7.0-3.25","62ded68be9e12bf448a7ffdb","bdp_wmem","Wed Mar 15 2023 20:08:20 GMT-0700 (Pacific Daylight Time)","605255","Match,No Match","","null","","","","","","<div class='trialBorder'><div class='vertical-center'><img src='img/fixation2_sml.jpg'</img></div></div>","null","DELAY","","","","","","","","","","","",""
"html-keyboard-response","163","386127","0.0-7.0-4.25","62ded68be9e12bf448a7ffdb","bdp_wmem","Wed Mar 15 2023 20:08:20 GMT-0700 (Pacific Daylight Time)","605255","Match,No Match","","1339","","","","","","<div class='trialBorder'><div class='targDiv'><div class='tc'><img class='introPic' src='trustrating_stim/white_mw070.bmp'><br><font color='red'><strong>Keep</strong></font></div></div><div class='respDiv'><div class='respDivL'>Match<br>(e)</div><div class='respDivR'>No Match<br>(i)</div></div></div>","i","TARGET","1","trustrating_stim/white_mw085.bmp","0","noMatchFace","i","1500","trustrating_stim/white_mw070.bmp","red","Keep","REAL","1",""
"html-keyboard-response","164","386630","0.0-7.0-5.25","62ded68be9e12bf448a7ffdb","bdp_wmem","Wed Mar 15 2023 20:08:20 GMT-0700 (Pacific Daylight Time)","605255","Match,No Match","","null","","","","","","<div class='trialBorder'><div class='vertical-center'><img src='img/correct.jpg'></div><div class='respDiv'><div class='respDivL'>Match<br>(e)</div><div class='respDivR'><font style='color:orange'>No Match<br>(i)</font></div></div></div>","null","FEEDBACK","","","","","","","","","","","",""
"html-keyboard-response","165","387134","0.0-7.0-1.26","62ded68be9e12bf448a7ffdb","bdp_wmem","Wed Mar 15 2023 20:08:20 GMT-0700 (Pacific Daylight Time)","605255","Match,No Match","","null","","","","","","<div class='trialBorder'><div class='vertical-center'><img src='img/fixation2_sml.jpg'</img></div></div>","null","FIX","","","","","","","","","","","",""
"html-keyboard-response","166","390138","0.0-7.0-2.26","62ded68be9e12bf448a7ffdb","bdp_wmem","Wed Mar 15 2023 20:08:20 GMT-0700 (Pacific Daylight Time)","605255","Match,No Match","","null","","","","","","<div class='trialBorder'><div class='vertical-center'><img style='vertical-align:center; align:center' src='img/fixation2_sml.jpg'></div><div class='arrayDiv2'><div class='tl'><img class='introPic' src='trustrating_stim/white_mw040.bmp'><br><font color='red'><strong>Keep</strong></font></div><div class='tr'><img class='introPic' src='trustrating_stim/white_mw013.bmp'><br><font color='green'><strong>Share</strong></font></div></div></div>","null","ARRAY","2","trustrating_stim/white_mw040.bmp,trustrating_stim/white_mw013.bmp","0,1","Match","e","3000","","","","","",""
"html-keyboard-response","167","394141","0.0-7.0-3.26","62ded68be9e12bf448a7ffdb","bdp_wmem","Wed Mar 15 2023 20:08:20 GMT-0700 (Pacific Daylight Time)","605255","Match,No Match","","null","","","","","","<div class='trialBorder'><div class='vertical-center'><img src='img/fixation2_sml.jpg'</img></div></div>","null","DELAY","","","","","","","","","","","",""
"html-keyboard-response","168","396378","0.0-7.0-4.26","62ded68be9e12bf448a7ffdb","bdp_wmem","Wed Mar 15 2023 20:08:20 GMT-0700 (Pacific Daylight Time)","605255","Match,No Match","","2235","","","","","","<div class='trialBorder'><div class='targDiv'><div class='tc'><img class='introPic' src='trustrating_stim/white_mw013.bmp'><br><font color='green'><strong>Share</strong></font></div></div><div class='respDiv'><div class='respDivL'>Match<br>(e)</div><div class='respDivR'>No Match<br>(i)</div></div></div>","e","TARGET","2","trustrating_stim/white_mw040.bmp,trustrating_stim/white_mw013.bmp","0,1","Match","e","3000","trustrating_stim/white_mw013.bmp","green","Share","REAL","1",""
"html-keyboard-response","169","396882","0.0-7.0-5.26","62ded68be9e12bf448a7ffdb","bdp_wmem","Wed Mar 15 2023 20:08:20 GMT-0700 (Pacific Daylight Time)","605255","Match,No Match","","null","","","","","","<div class='trialBorder'><div class='vertical-center'><img src='img/correct.jpg'></div><div class='respDiv'><div class='respDivL'><font style='color:orange'>Match<br>(e)</font></div><div class='respDivR'>No Match<br>(i)</div></div></div>","null","FEEDBACK","","","","","","","","","","","",""
"html-keyboard-response","170","397385","0.0-7.0-1.27","62ded68be9e12bf448a7ffdb","bdp_wmem","Wed Mar 15 2023 20:08:20 GMT-0700 (Pacific Daylight Time)","605255","Match,No Match","","null","","","","","","<div class='trialBorder'><div class='vertical-center'><img src='img/fixation2_sml.jpg'</img></div></div>","null","FIX","","","","","","","","","","","",""
"html-keyboard-response","171","400389","0.0-7.0-2.27","62ded68be9e12bf448a7ffdb","bdp_wmem","Wed Mar 15 2023 20:08:20 GMT-0700 (Pacific Daylight Time)","605255","Match,No Match","","null","","","","","","<div class='trialBorder'><div class='vertical-center'><img style='vertical-align:center; align:center' src='img/fixation2_sml.jpg'></div><div class='arrayDiv2'><div class='tl'><img class='introPic' src='trustrating_stim/white_mw010.bmp'><br><font color='green'><strong>Share</strong></font></div><div class='tr'><img class='introPic' src='trustrating_stim/white_mw013.bmp'><br><font color='red'><strong>Keep</strong></font></div></div></div>","null","ARRAY","2","trustrating_stim/white_mw010.bmp,trustrating_stim/white_mw013.bmp","1,0","noMatchOutcome","i","3000","","","","","",""
"html-keyboard-response","172","404394","0.0-7.0-3.27","62ded68be9e12bf448a7ffdb","bdp_wmem","Wed Mar 15 2023 20:08:20 GMT-0700 (Pacific Daylight Time)","605255","Match,No Match","","null","","","","","","<div class='trialBorder'><div class='vertical-center'><img src='img/fixation2_sml.jpg'</img></div></div>","null","DELAY","","","","","","","","","","","",""
"html-keyboard-response","173","406995","0.0-7.0-4.27","62ded68be9e12bf448a7ffdb","bdp_wmem","Wed Mar 15 2023 20:08:20 GMT-0700 (Pacific Daylight Time)","605255","Match,No Match","","2600","","","","","","<div class='trialBorder'><div class='targDiv'><div class='tc'><img class='introPic' src='trustrating_stim/white_mw010.bmp'><br><font color='red'><strong>Keep</strong></font></div></div><div class='respDiv'><div class='respDivL'>Match<br>(e)</div><div class='respDivR'>No Match<br>(i)</div></div></div>","i","TARGET","2","trustrating_stim/white_mw010.bmp,trustrating_stim/white_mw013.bmp","1,0","noMatchOutcome","i","3000","trustrating_stim/white_mw010.bmp","red","Keep","REAL","1",""
"html-keyboard-response","174","407499","0.0-7.0-5.27","62ded68be9e12bf448a7ffdb","bdp_wmem","Wed Mar 15 2023 20:08:20 GMT-0700 (Pacific Daylight Time)","605255","Match,No Match","","null","","","","","","<div class='trialBorder'><div class='vertical-center'><img src='img/correct.jpg'></div><div class='respDiv'><div class='respDivL'>Match<br>(e)</div><div class='respDivR'><font style='color:orange'>No Match<br>(i)</font></div></div></div>","null","FEEDBACK","","","","","","","","","","","",""
"html-keyboard-response","175","408002","0.0-7.0-1.28","62ded68be9e12bf448a7ffdb","bdp_wmem","Wed Mar 15 2023 20:08:20 GMT-0700 (Pacific Daylight Time)","605255","Match,No Match","","null","","","","","","<div class='trialBorder'><div class='vertical-center'><img src='img/fixation2_sml.jpg'</img></div></div>","null","FIX","","","","","","","","","","","",""
"html-keyboard-response","176","409506","0.0-7.0-2.28","62ded68be9e12bf448a7ffdb","bdp_wmem","Wed Mar 15 2023 20:08:20 GMT-0700 (Pacific Daylight Time)","605255","Match,No Match","","null","","","","","","<div class='trialBorder'><div class='vertical-center'><img style='vertical-align:center; align:center' src='img/fixation2_sml.jpg'></div><div class='arrayDiv1'><div class='tc'><img class='introPic' src='trustrating_stim/white_mw013.bmp'><br><font color='red'><strong>Keep</strong></font></div></div></div>","null","ARRAY","1","trustrating_stim/white_mw013.bmp","0","noMatchFace","i","1500","","","","","",""
"html-keyboard-response","177","413509","0.0-7.0-3.28","62ded68be9e12bf448a7ffdb","bdp_wmem","Wed Mar 15 2023 20:08:20 GMT-0700 (Pacific Daylight Time)","605255","Match,No Match","","null","","","","","","<div class='trialBorder'><div class='vertical-center'><img src='img/fixation2_sml.jpg'</img></div></div>","null","DELAY","","","","","","","","","","","",""
"html-keyboard-response","178","415039","0.0-7.0-4.28","62ded68be9e12bf448a7ffdb","bdp_wmem","Wed Mar 15 2023 20:08:20 GMT-0700 (Pacific Daylight Time)","605255","Match,No Match","","1528","","","","","","<div class='trialBorder'><div class='targDiv'><div class='tc'><img class='introPic' src='trustrating_stim/white_mw091.bmp'><br><font color='red'><strong>Keep</strong></font></div></div><div class='respDiv'><div class='respDivL'>Match<br>(e)</div><div class='respDivR'>No Match<br>(i)</div></div></div>","i","TARGET","1","trustrating_stim/white_mw013.bmp","0","noMatchFace","i","1500","trustrating_stim/white_mw091.bmp","red","Keep","REAL","1",""
"html-keyboard-response","179","415543","0.0-7.0-5.28","62ded68be9e12bf448a7ffdb","bdp_wmem","Wed Mar 15 2023 20:08:20 GMT-0700 (Pacific Daylight Time)","605255","Match,No Match","","null","","","","","","<div class='trialBorder'><div class='vertical-center'><img src='img/correct.jpg'></div><div class='respDiv'><div class='respDivL'>Match<br>(e)</div><div class='respDivR'><font style='color:orange'>No Match<br>(i)</font></div></div></div>","null","FEEDBACK","","","","","","","","","","","",""
"html-keyboard-response","180","416046","0.0-7.0-1.29","62ded68be9e12bf448a7ffdb","bdp_wmem","Wed Mar 15 2023 20:08:20 GMT-0700 (Pacific Daylight Time)","605255","Match,No Match","","null","","","","","","<div class='trialBorder'><div class='vertical-center'><img src='img/fixation2_sml.jpg'</img></div></div>","null","FIX","","","","","","","","","","","",""
"html-keyboard-response","181","419049","0.0-7.0-2.29","62ded68be9e12bf448a7ffdb","bdp_wmem","Wed Mar 15 2023 20:08:20 GMT-0700 (Pacific Daylight Time)","605255","Match,No Match","","null","","","","","","<div class='trialBorder'><div class='vertical-center'><img style='vertical-align:center; align:center' src='img/fixation2_sml.jpg'></div><div class='arrayDiv2'><div class='tl'><img class='introPic' src='trustrating_stim/white_mw085.bmp'><br><font color='green'><strong>Share</strong></font></div><div class='tr'><img class='introPic' src='trustrating_stim/white_mw042.bmp'><br><font color='red'><strong>Keep</strong></font></div></div></div>","null","ARRAY","2","trustrating_stim/white_mw085.bmp,trustrating_stim/white_mw042.bmp","1,0","noMatchOutcome","i","3000","","","","","",""
"html-keyboard-response","182","423053","0.0-7.0-3.29","62ded68be9e12bf448a7ffdb","bdp_wmem","Wed Mar 15 2023 20:08:20 GMT-0700 (Pacific Daylight Time)","605255","Match,No Match","","null","","","","","","<div class='trialBorder'><div class='vertical-center'><img src='img/fixation2_sml.jpg'</img></div></div>","null","DELAY","","","","","","","","","","","",""
"html-keyboard-response","183","424825","0.0-7.0-4.29","62ded68be9e12bf448a7ffdb","bdp_wmem","Wed Mar 15 2023 20:08:20 GMT-0700 (Pacific Daylight Time)","605255","Match,No Match","","1769","","","","","","<div class='trialBorder'><div class='targDiv'><div class='tc'><img class='introPic' src='trustrating_stim/white_mw085.bmp'><br><font color='red'><strong>Keep</strong></font></div></div><div class='respDiv'><div class='respDivL'>Match<br>(e)</div><div class='respDivR'>No Match<br>(i)</div></div></div>","i","TARGET","2","trustrating_stim/white_mw085.bmp,trustrating_stim/white_mw042.bmp","1,0","noMatchOutcome","i","3000","trustrating_stim/white_mw085.bmp","red","Keep","REAL","1",""
"html-keyboard-response","184","425328","0.0-7.0-5.29","62ded68be9e12bf448a7ffdb","bdp_wmem","Wed Mar 15 2023 20:08:20 GMT-0700 (Pacific Daylight Time)","605255","Match,No Match","","null","","","","","","<div class='trialBorder'><div class='vertical-center'><img src='img/correct.jpg'></div><div class='respDiv'><div class='respDivL'>Match<br>(e)</div><div class='respDivR'><font style='color:orange'>No Match<br>(i)</font></div></div></div>","null","FEEDBACK","","","","","","","","","","","",""
"html-keyboard-response","185","425832","0.0-7.0-1.30","62ded68be9e12bf448a7ffdb","bdp_wmem","Wed Mar 15 2023 20:08:20 GMT-0700 (Pacific Daylight Time)","605255","Match,No Match","","null","","","","","","<div class='trialBorder'><div class='vertical-center'><img src='img/fixation2_sml.jpg'</img></div></div>","null","FIX","","","","","","","","","","","",""
"html-keyboard-response","186","427336","0.0-7.0-2.30","62ded68be9e12bf448a7ffdb","bdp_wmem","Wed Mar 15 2023 20:08:20 GMT-0700 (Pacific Daylight Time)","605255","Match,No Match","","null","","","","","","<div class='trialBorder'><div class='vertical-center'><img style='vertical-align:center; align:center' src='img/fixation2_sml.jpg'></div><div class='arrayDiv1'><div class='tc'><img class='introPic' src='trustrating_stim/white_mw092.bmp'><br><font color='green'><strong>Share</strong></font></div></div></div>","null","ARRAY","1","trustrating_stim/white_mw092.bmp","1","noMatchFace","i","1500","","","","","",""
