"trial_type","trial_index","time_elapsed","internal_node_id","subject_id","task","startTime","totalTime","labels","view_history","rt","event","trial","time","trialtype","success","stimulus","key_press","stimType","arraySize","arrayFaces","arrayOutcomes","matchType","corrResp","arrayDur","targFace","targCol","targOutcome","trialType","corr"
"pavlovia","0","5","0.0-0.0","62fd76d3f0824c29d4b1e6bd","bdp_wmem","Wed Mar 15 2023 14:57:53 GMT-0400 (Eastern Daylight Time)","585288","Match,No Match","","","","","","","","","","","","","","","","","","","","",""
"instructions","1","3868","0.0-1.0","62fd76d3f0824c29d4b1e6bd","bdp_wmem","Wed Mar 15 2023 14:57:53 GMT-0400 (Eastern Daylight Time)","585288","Match,No Match","[{""page_index"":0,""viewing_time"":3863}]","3863","","","","","","","","","","","","","","","","","","",""
"","","","","62fd76d3f0824c29d4b1e6bd","bdp_wmem","Wed Mar 15 2023 14:57:53 GMT-0400 (Eastern Daylight Time)","585288","Match,No Match","","","fullscreenenter","2","6552","fullscreenenter","","","","","","","","","","","","","","",""
"fullscreen","2","7506","0.0-2.0","62fd76d3f0824c29d4b1e6bd","bdp_wmem","Wed Mar 15 2023 14:57:53 GMT-0400 (Eastern Daylight Time)","585288","Match,No Match","","","","","","","true","","","","","","","","","","","","","",""
"instructions","3","92527","0.0-4.0","62fd76d3f0824c29d4b1e6bd","bdp_wmem","Wed Mar 15 2023 14:57:53 GMT-0400 (Eastern Daylight Time)","585288","Match,No Match","[{""page_index"":0,""viewing_time"":40558},{""page_index"":1,""viewing_time"":32485},{""page_index"":2,""viewing_time"":6228},{""page_index"":3,""viewing_time"":3292},{""page_index"":4,""viewing_time"":2455}]","85019","","","","","","","","","","","","","","","","","","",""
"html-keyboard-response","4","93041","0.0-5.0-1.0","62fd76d3f0824c29d4b1e6bd","bdp_wmem","Wed Mar 15 2023 14:57:53 GMT-0400 (Eastern Daylight Time)","585288","Match,No Match","","null","","","","","","<div class='trialBorder'><div class='vertical-center'><img src='img/fixation2_sml.jpg'</img></div></div>","null","FIX","","","","","","","","","","",""
"html-keyboard-response","5","94546","0.0-5.0-2.0","62fd76d3f0824c29d4b1e6bd","bdp_wmem","Wed Mar 15 2023 14:57:53 GMT-0400 (Eastern Daylight Time)","585288","Match,No Match","","null","","","","","","<div class='trialBorder'><div class='vertical-center'><img style='vertical-align:center; align:center' src='img/fixation2_sml.jpg'></div><div class='arrayDiv1'><div class='tc'><img class='introPic' src='trustrating_stim/white_mw085.bmp'><br><font color='green'><strong>Share</strong></font></div></div></div>","null","ARRAY","1","trustrating_stim/white_mw085.bmp","1","Match","e","1500","","","","",""
"html-keyboard-response","6","98554","0.0-5.0-3.0","62fd76d3f0824c29d4b1e6bd","bdp_wmem","Wed Mar 15 2023 14:57:53 GMT-0400 (Eastern Daylight Time)","585288","Match,No Match","","null","","","","","","<div class='trialBorder'><div class='vertical-center'><img src='img/fixation2_sml.jpg'</img></div></div>","null","DELAY","","","","","","","","","","",""
"html-keyboard-response","7","100168","0.0-5.0-4.0","62fd76d3f0824c29d4b1e6bd","bdp_wmem","Wed Mar 15 2023 14:57:53 GMT-0400 (Eastern Daylight Time)","585288","Match,No Match","","1611","","","","","","<div class='trialBorder'><div class='targDiv'><div class='tc'><img class='introPic' src='trustrating_stim/white_mw085.bmp'><br><font color='green'><strong>Share</strong></font></div></div><div class='respDiv'><div class='respDivL'>Match<br>(e)</div><div class='respDivR'>No Match<br>(i)</div></div></div>","e","TARGET","1","trustrating_stim/white_mw085.bmp","1","Match","e","1500","trustrating_stim/white_mw085.bmp","green","Share","PRACTICE","1"
"html-keyboard-response","8","100677","0.0-5.0-5.0","62fd76d3f0824c29d4b1e6bd","bdp_wmem","Wed Mar 15 2023 14:57:53 GMT-0400 (Eastern Daylight Time)","585288","Match,No Match","","null","","","","","","<div class='trialBorder'><div class='vertical-center'><img src='img/correct.jpg'></div><div class='respDiv'><div class='respDivL'><font style='color:orange'>Match<br>(e)</font></div><div class='respDivR'>No Match<br>(i)</div></div></div>","null","FEEDBACK","","","","","","","","","","",""
"html-keyboard-response","9","101183","0.0-5.0-1.1","62fd76d3f0824c29d4b1e6bd","bdp_wmem","Wed Mar 15 2023 14:57:53 GMT-0400 (Eastern Daylight Time)","585288","Match,No Match","","null","","","","","","<div class='trialBorder'><div class='vertical-center'><img src='img/fixation2_sml.jpg'</img></div></div>","null","FIX","","","","","","","","","","",""
"html-keyboard-response","10","105693","0.0-5.0-2.1","62fd76d3f0824c29d4b1e6bd","bdp_wmem","Wed Mar 15 2023 14:57:53 GMT-0400 (Eastern Daylight Time)","585288","Match,No Match","","null","","","","","","<div class='trialBorder'><div class='vertical-center'><img style='vertical-align:center; align:center' src='img/fixation2_sml.jpg'></div><div class='arrayDiv3'><div class='tl'><img class='introPic' src='trustrating_stim/white_mw010.bmp'><br><font color='red'><strong>Keep</strong></font></div><div class='tc'><img class='introPic' src='trustrating_stim/white_mw040.bmp'><br><font color='green'><strong>Share</strong></font></div><div class='tr'><img class='introPic' src='trustrating_stim/white_mw085.bmp'><br><font color='red'><strong>Keep</strong></font></div></div></div>","null","ARRAY","3","trustrating_stim/white_mw010.bmp,trustrating_stim/white_mw040.bmp,trustrating_stim/white_mw085.bmp","0,1,0","noMatchOutcome","i","4500","","","","",""
"html-keyboard-response","11","109709","0.0-5.0-3.1","62fd76d3f0824c29d4b1e6bd","bdp_wmem","Wed Mar 15 2023 14:57:53 GMT-0400 (Eastern Daylight Time)","585288","Match,No Match","","null","","","","","","<div class='trialBorder'><div class='vertical-center'><img src='img/fixation2_sml.jpg'</img></div></div>","null","DELAY","","","","","","","","","","",""
"html-keyboard-response","12","111180","0.0-5.0-4.1","62fd76d3f0824c29d4b1e6bd","bdp_wmem","Wed Mar 15 2023 14:57:53 GMT-0400 (Eastern Daylight Time)","585288","Match,No Match","","1468","","","","","","<div class='trialBorder'><div class='targDiv'><div class='tc'><img class='introPic' src='trustrating_stim/white_mw010.bmp'><br><font color='green'><strong>Share</strong></font></div></div><div class='respDiv'><div class='respDivL'>Match<br>(e)</div><div class='respDivR'>No Match<br>(i)</div></div></div>","i","TARGET","3","trustrating_stim/white_mw010.bmp,trustrating_stim/white_mw040.bmp,trustrating_stim/white_mw085.bmp","0,1,0","noMatchOutcome","i","4500","trustrating_stim/white_mw010.bmp","green","Share","PRACTICE","1"
"html-keyboard-response","13","111691","0.0-5.0-5.1","62fd76d3f0824c29d4b1e6bd","bdp_wmem","Wed Mar 15 2023 14:57:53 GMT-0400 (Eastern Daylight Time)","585288","Match,No Match","","null","","","","","","<div class='trialBorder'><div class='vertical-center'><img src='img/correct.jpg'></div><div class='respDiv'><div class='respDivL'>Match<br>(e)</div><div class='respDivR'><font style='color:orange'>No Match<br>(i)</font></div></div></div>","null","FEEDBACK","","","","","","","","","","",""
"html-keyboard-response","14","112204","0.0-5.0-1.2","62fd76d3f0824c29d4b1e6bd","bdp_wmem","Wed Mar 15 2023 14:57:53 GMT-0400 (Eastern Daylight Time)","585288","Match,No Match","","null","","","","","","<div class='trialBorder'><div class='vertical-center'><img src='img/fixation2_sml.jpg'</img></div></div>","null","FIX","","","","","","","","","","",""
"html-keyboard-response","15","116710","0.0-5.0-2.2","62fd76d3f0824c29d4b1e6bd","bdp_wmem","Wed Mar 15 2023 14:57:53 GMT-0400 (Eastern Daylight Time)","585288","Match,No Match","","null","","","","","","<div class='trialBorder'><div class='vertical-center'><img style='vertical-align:center; align:center' src='img/fixation2_sml.jpg'></div><div class='arrayDiv3'><div class='tl'><img class='introPic' src='trustrating_stim/white_mw010.bmp'><br><font color='red'><strong>Keep</strong></font></div><div class='tc'><img class='introPic' src='trustrating_stim/white_mw042.bmp'><br><font color='green'><strong>Share</strong></font></div><div class='tr'><img class='introPic' src='trustrating_stim/white_mw091.bmp'><br><font color='green'><strong>Share</strong></font></div></div></div>","null","ARRAY","3","trustrating_stim/white_mw010.bmp,trustrating_stim/white_mw042.bmp,trustrating_stim/white_mw091.bmp","0,1,1","Match","e","4500","","","","",""
"html-keyboard-response","16","120713","0.0-5.0-3.2","62fd76d3f0824c29d4b1e6bd","bdp_wmem","Wed Mar 15 2023 14:57:53 GMT-0400 (Eastern Daylight Time)","585288","Match,No Match","","null","","","","","","<div class='trialBorder'><div class='vertical-center'><img src='img/fixation2_sml.jpg'</img></div></div>","null","DELAY","","","","","","","","","","",""
"html-keyboard-response","17","121705","0.0-5.0-4.2","62fd76d3f0824c29d4b1e6bd","bdp_wmem","Wed Mar 15 2023 14:57:53 GMT-0400 (Eastern Daylight Time)","585288","Match,No Match","","989","","","","","","<div class='trialBorder'><div class='targDiv'><div class='tc'><img class='introPic' src='trustrating_stim/white_mw091.bmp'><br><font color='green'><strong>Share</strong></font></div></div><div class='respDiv'><div class='respDivL'>Match<br>(e)</div><div class='respDivR'>No Match<br>(i)</div></div></div>","i","TARGET","3","trustrating_stim/white_mw010.bmp,trustrating_stim/white_mw042.bmp,trustrating_stim/white_mw091.bmp","0,1,1","Match","e","4500","trustrating_stim/white_mw091.bmp","green","Share","PRACTICE","0"
"html-keyboard-response","18","122207","0.0-5.0-5.2","62fd76d3f0824c29d4b1e6bd","bdp_wmem","Wed Mar 15 2023 14:57:53 GMT-0400 (Eastern Daylight Time)","585288","Match,No Match","","null","","","","","","<div class='trialBorder'><div class='vertical-center'><img src='img/error.jpg'></div><div class='respDiv'><div class='respDivL'>Match<br>(e)</div><div class='respDivR'><font style='color:orange'>No Match<br>(i)</font></div></div></div>","null","FEEDBACK","","","","","","","","","","",""
"html-keyboard-response","19","122709","0.0-5.0-1.3","62fd76d3f0824c29d4b1e6bd","bdp_wmem","Wed Mar 15 2023 14:57:53 GMT-0400 (Eastern Daylight Time)","585288","Match,No Match","","null","","","","","","<div class='trialBorder'><div class='vertical-center'><img src='img/fixation2_sml.jpg'</img></div></div>","null","FIX","","","","","","","","","","",""
"html-keyboard-response","20","124216","0.0-5.0-2.3","62fd76d3f0824c29d4b1e6bd","bdp_wmem","Wed Mar 15 2023 14:57:53 GMT-0400 (Eastern Daylight Time)","585288","Match,No Match","","null","","","","","","<div class='trialBorder'><div class='vertical-center'><img style='vertical-align:center; align:center' src='img/fixation2_sml.jpg'></div><div class='arrayDiv1'><div class='tc'><img class='introPic' src='trustrating_stim/white_mw092.bmp'><br><font color='red'><strong>Keep</strong></font></div></div></div>","null","ARRAY","1","trustrating_stim/white_mw092.bmp","0","noMatchFace","i","1500","","","","",""
"html-keyboard-response","21","128228","0.0-5.0-3.3","62fd76d3f0824c29d4b1e6bd","bdp_wmem","Wed Mar 15 2023 14:57:53 GMT-0400 (Eastern Daylight Time)","585288","Match,No Match","","null","","","","","","<div class='trialBorder'><div class='vertical-center'><img src='img/fixation2_sml.jpg'</img></div></div>","null","DELAY","","","","","","","","","","",""
"html-keyboard-response","22","129881","0.0-5.0-4.3","62fd76d3f0824c29d4b1e6bd","bdp_wmem","Wed Mar 15 2023 14:57:53 GMT-0400 (Eastern Daylight Time)","585288","Match,No Match","","1651","","","","","","<div class='trialBorder'><div class='targDiv'><div class='tc'><img class='introPic' src='trustrating_stim/white_mw013.bmp'><br><font color='red'><strong>Keep</strong></font></div></div><div class='respDiv'><div class='respDivL'>Match<br>(e)</div><div class='respDivR'>No Match<br>(i)</div></div></div>","e","TARGET","1","trustrating_stim/white_mw092.bmp","0","noMatchFace","i","1500","trustrating_stim/white_mw013.bmp","red","Keep","PRACTICE","0"
"html-keyboard-response","23","130393","0.0-5.0-5.3","62fd76d3f0824c29d4b1e6bd","bdp_wmem","Wed Mar 15 2023 14:57:53 GMT-0400 (Eastern Daylight Time)","585288","Match,No Match","","null","","","","","","<div class='trialBorder'><div class='vertical-center'><img src='img/error.jpg'></div><div class='respDiv'><div class='respDivL'><font style='color:orange'>Match<br>(e)</font></div><div class='respDivR'>No Match<br>(i)</div></div></div>","null","FEEDBACK","","","","","","","","","","",""
"html-keyboard-response","24","130895","0.0-5.0-1.4","62fd76d3f0824c29d4b1e6bd","bdp_wmem","Wed Mar 15 2023 14:57:53 GMT-0400 (Eastern Daylight Time)","585288","Match,No Match","","null","","","","","","<div class='trialBorder'><div class='vertical-center'><img src='img/fixation2_sml.jpg'</img></div></div>","null","FIX","","","","","","","","","","",""
"html-keyboard-response","25","133905","0.0-5.0-2.4","62fd76d3f0824c29d4b1e6bd","bdp_wmem","Wed Mar 15 2023 14:57:53 GMT-0400 (Eastern Daylight Time)","585288","Match,No Match","","null","","","","","","<div class='trialBorder'><div class='vertical-center'><img style='vertical-align:center; align:center' src='img/fixation2_sml.jpg'></div><div class='arrayDiv2'><div class='tl'><img class='introPic' src='trustrating_stim/white_mw070.bmp'><br><font color='green'><strong>Share</strong></font></div><div class='tr'><img class='introPic' src='trustrating_stim/white_mw012.bmp'><br><font color='red'><strong>Keep</strong></font></div></div></div>","null","ARRAY","2","trustrating_stim/white_mw070.bmp,trustrating_stim/white_mw012.bmp","1,0","noMatchFace","i","3000","","","","",""
"html-keyboard-response","26","137909","0.0-5.0-3.4","62fd76d3f0824c29d4b1e6bd","bdp_wmem","Wed Mar 15 2023 14:57:53 GMT-0400 (Eastern Daylight Time)","585288","Match,No Match","","null","","","","","","<div class='trialBorder'><div class='vertical-center'><img src='img/fixation2_sml.jpg'</img></div></div>","null","DELAY","","","","","","","","","","",""
"html-keyboard-response","27","138828","0.0-5.0-4.4","62fd76d3f0824c29d4b1e6bd","bdp_wmem","Wed Mar 15 2023 14:57:53 GMT-0400 (Eastern Daylight Time)","585288","Match,No Match","","915","","","","","","<div class='trialBorder'><div class='targDiv'><div class='tc'><img class='introPic' src='trustrating_stim/white_mw042.bmp'><br><font color='green'><strong>Share</strong></font></div></div><div class='respDiv'><div class='respDivL'>Match<br>(e)</div><div class='respDivR'>No Match<br>(i)</div></div></div>","i","TARGET","2","trustrating_stim/white_mw070.bmp,trustrating_stim/white_mw012.bmp","1,0","noMatchFace","i","3000","trustrating_stim/white_mw042.bmp","green","Share","PRACTICE","1"
"html-keyboard-response","28","139337","0.0-5.0-5.4","62fd76d3f0824c29d4b1e6bd","bdp_wmem","Wed Mar 15 2023 14:57:53 GMT-0400 (Eastern Daylight Time)","585288","Match,No Match","","null","","","","","","<div class='trialBorder'><div class='vertical-center'><img src='img/correct.jpg'></div><div class='respDiv'><div class='respDivL'>Match<br>(e)</div><div class='respDivR'><font style='color:orange'>No Match<br>(i)</font></div></div></div>","null","FEEDBACK","","","","","","","","","","",""
"html-keyboard-response","29","139841","0.0-5.0-1.5","62fd76d3f0824c29d4b1e6bd","bdp_wmem","Wed Mar 15 2023 14:57:53 GMT-0400 (Eastern Daylight Time)","585288","Match,No Match","","null","","","","","","<div class='trialBorder'><div class='vertical-center'><img src='img/fixation2_sml.jpg'</img></div></div>","null","FIX","","","","","","","","","","",""
"html-keyboard-response","30","142852","0.0-5.0-2.5","62fd76d3f0824c29d4b1e6bd","bdp_wmem","Wed Mar 15 2023 14:57:53 GMT-0400 (Eastern Daylight Time)","585288","Match,No Match","","null","","","","","","<div class='trialBorder'><div class='vertical-center'><img style='vertical-align:center; align:center' src='img/fixation2_sml.jpg'></div><div class='arrayDiv2'><div class='tl'><img class='introPic' src='trustrating_stim/white_mw012.bmp'><br><font color='red'><strong>Keep</strong></font></div><div class='tr'><img class='introPic' src='trustrating_stim/white_mw038.bmp'><br><font color='green'><strong>Share</strong></font></div></div></div>","null","ARRAY","2","trustrating_stim/white_mw012.bmp,trustrating_stim/white_mw038.bmp","0,1","Match","e","3000","","","","",""
"html-keyboard-response","31","146855","0.0-5.0-3.5","62fd76d3f0824c29d4b1e6bd","bdp_wmem","Wed Mar 15 2023 14:57:53 GMT-0400 (Eastern Daylight Time)","585288","Match,No Match","","null","","","","","","<div class='trialBorder'><div class='vertical-center'><img src='img/fixation2_sml.jpg'</img></div></div>","null","DELAY","","","","","","","","","","",""
"html-keyboard-response","32","147801","0.0-5.0-4.5","62fd76d3f0824c29d4b1e6bd","bdp_wmem","Wed Mar 15 2023 14:57:53 GMT-0400 (Eastern Daylight Time)","585288","Match,No Match","","944","","","","","","<div class='trialBorder'><div class='targDiv'><div class='tc'><img class='introPic' src='trustrating_stim/white_mw012.bmp'><br><font color='red'><strong>Keep</strong></font></div></div><div class='respDiv'><div class='respDivL'>Match<br>(e)</div><div class='respDivR'>No Match<br>(i)</div></div></div>","e","TARGET","2","trustrating_stim/white_mw012.bmp,trustrating_stim/white_mw038.bmp","0,1","Match","e","3000","trustrating_stim/white_mw012.bmp","red","Keep","PRACTICE","1"
"html-keyboard-response","33","148305","0.0-5.0-5.5","62fd76d3f0824c29d4b1e6bd","bdp_wmem","Wed Mar 15 2023 14:57:53 GMT-0400 (Eastern Daylight Time)","585288","Match,No Match","","null","","","","","","<div class='trialBorder'><div class='vertical-center'><img src='img/correct.jpg'></div><div class='respDiv'><div class='respDivL'><font style='color:orange'>Match<br>(e)</font></div><div class='respDivR'>No Match<br>(i)</div></div></div>","null","FEEDBACK","","","","","","","","","","",""
"instructions","34","150988","0.0-6.0","62fd76d3f0824c29d4b1e6bd","bdp_wmem","Wed Mar 15 2023 14:57:53 GMT-0400 (Eastern Daylight Time)","585288","Match,No Match","[{""page_index"":0,""viewing_time"":2682}]","2682","","","","","","","","","","","","","","","","","","",""
"html-keyboard-response","35","151500","0.0-7.0-1.0","62fd76d3f0824c29d4b1e6bd","bdp_wmem","Wed Mar 15 2023 14:57:53 GMT-0400 (Eastern Daylight Time)","585288","Match,No Match","","null","","","","","","<div class='trialBorder'><div class='vertical-center'><img src='img/fixation2_sml.jpg'</img></div></div>","null","FIX","","","","","","","","","","",""
"html-keyboard-response","36","154505","0.0-7.0-2.0","62fd76d3f0824c29d4b1e6bd","bdp_wmem","Wed Mar 15 2023 14:57:53 GMT-0400 (Eastern Daylight Time)","585288","Match,No Match","","null","","","","","","<div class='trialBorder'><div class='vertical-center'><img style='vertical-align:center; align:center' src='img/fixation2_sml.jpg'></div><div class='arrayDiv2'><div class='tl'><img class='introPic' src='trustrating_stim/white_mw091.bmp'><br><font color='green'><strong>Share</strong></font></div><div class='tr'><img class='introPic' src='trustrating_stim/white_mw078.bmp'><br><font color='red'><strong>Keep</strong></font></div></div></div>","null","ARRAY","2","trustrating_stim/white_mw091.bmp,trustrating_stim/white_mw078.bmp","1,0","Match","e","3000","","","","",""
"html-keyboard-response","37","158508","0.0-7.0-3.0","62fd76d3f0824c29d4b1e6bd","bdp_wmem","Wed Mar 15 2023 14:57:53 GMT-0400 (Eastern Daylight Time)","585288","Match,No Match","","null","","","","","","<div class='trialBorder'><div class='vertical-center'><img src='img/fixation2_sml.jpg'</img></div></div>","null","DELAY","","","","","","","","","","",""
"html-keyboard-response","38","159778","0.0-7.0-4.0","62fd76d3f0824c29d4b1e6bd","bdp_wmem","Wed Mar 15 2023 14:57:53 GMT-0400 (Eastern Daylight Time)","585288","Match,No Match","","1267","","","","","","<div class='trialBorder'><div class='targDiv'><div class='tc'><img class='introPic' src='trustrating_stim/white_mw078.bmp'><br><font color='red'><strong>Keep</strong></font></div></div><div class='respDiv'><div class='respDivL'>Match<br>(e)</div><div class='respDivR'>No Match<br>(i)</div></div></div>","e","TARGET","2","trustrating_stim/white_mw091.bmp,trustrating_stim/white_mw078.bmp","1,0","Match","e","3000","trustrating_stim/white_mw078.bmp","red","Keep","REAL","1"
"html-keyboard-response","39","160281","0.0-7.0-5.0","62fd76d3f0824c29d4b1e6bd","bdp_wmem","Wed Mar 15 2023 14:57:53 GMT-0400 (Eastern Daylight Time)","585288","Match,No Match","","null","","","","","","<div class='trialBorder'><div class='vertical-center'><img src='img/correct.jpg'></div><div class='respDiv'><div class='respDivL'><font style='color:orange'>Match<br>(e)</font></div><div class='respDivR'>No Match<br>(i)</div></div></div>","null","FEEDBACK","","","","","","","","","","",""
"html-keyboard-response","40","160785","0.0-7.0-1.1","62fd76d3f0824c29d4b1e6bd","bdp_wmem","Wed Mar 15 2023 14:57:53 GMT-0400 (Eastern Daylight Time)","585288","Match,No Match","","null","","","","","","<div class='trialBorder'><div class='vertical-center'><img src='img/fixation2_sml.jpg'</img></div></div>","null","FIX","","","","","","","","","","",""
"html-keyboard-response","41","162289","0.0-7.0-2.1","62fd76d3f0824c29d4b1e6bd","bdp_wmem","Wed Mar 15 2023 14:57:53 GMT-0400 (Eastern Daylight Time)","585288","Match,No Match","","null","","","","","","<div class='trialBorder'><div class='vertical-center'><img style='vertical-align:center; align:center' src='img/fixation2_sml.jpg'></div><div class='arrayDiv1'><div class='tc'><img class='introPic' src='trustrating_stim/white_mw042.bmp'><br><font color='red'><strong>Keep</strong></font></div></div></div>","null","ARRAY","1","trustrating_stim/white_mw042.bmp","0","Match","e","1500","","","","",""
"html-keyboard-response","42","166298","0.0-7.0-3.1","62fd76d3f0824c29d4b1e6bd","bdp_wmem","Wed Mar 15 2023 14:57:53 GMT-0400 (Eastern Daylight Time)","585288","Match,No Match","","null","","","","","","<div class='trialBorder'><div class='vertical-center'><img src='img/fixation2_sml.jpg'</img></div></div>","null","DELAY","","","","","","","","","","",""
"html-keyboard-response","43","167018","0.0-7.0-4.1","62fd76d3f0824c29d4b1e6bd","bdp_wmem","Wed Mar 15 2023 14:57:53 GMT-0400 (Eastern Daylight Time)","585288","Match,No Match","","718","","","","","","<div class='trialBorder'><div class='targDiv'><div class='tc'><img class='introPic' src='trustrating_stim/white_mw042.bmp'><br><font color='red'><strong>Keep</strong></font></div></div><div class='respDiv'><div class='respDivL'>Match<br>(e)</div><div class='respDivR'>No Match<br>(i)</div></div></div>","e","TARGET","1","trustrating_stim/white_mw042.bmp","0","Match","e","1500","trustrating_stim/white_mw042.bmp","red","Keep","REAL","1"
"html-keyboard-response","44","167526","0.0-7.0-5.1","62fd76d3f0824c29d4b1e6bd","bdp_wmem","Wed Mar 15 2023 14:57:53 GMT-0400 (Eastern Daylight Time)","585288","Match,No Match","","null","","","","","","<div class='trialBorder'><div class='vertical-center'><img src='img/correct.jpg'></div><div class='respDiv'><div class='respDivL'><font style='color:orange'>Match<br>(e)</font></div><div class='respDivR'>No Match<br>(i)</div></div></div>","null","FEEDBACK","","","","","","","","","","",""
"html-keyboard-response","45","168031","0.0-7.0-1.2","62fd76d3f0824c29d4b1e6bd","bdp_wmem","Wed Mar 15 2023 14:57:53 GMT-0400 (Eastern Daylight Time)","585288","Match,No Match","","null","","","","","","<div class='trialBorder'><div class='vertical-center'><img src='img/fixation2_sml.jpg'</img></div></div>","null","FIX","","","","","","","","","","",""
"html-keyboard-response","46","172536","0.0-7.0-2.2","62fd76d3f0824c29d4b1e6bd","bdp_wmem","Wed Mar 15 2023 14:57:53 GMT-0400 (Eastern Daylight Time)","585288","Match,No Match","","null","","","","","","<div class='trialBorder'><div class='vertical-center'><img style='vertical-align:center; align:center' src='img/fixation2_sml.jpg'></div><div class='arrayDiv3'><div class='tl'><img class='introPic' src='trustrating_stim/white_mw092.bmp'><br><font color='green'><strong>Share</strong></font></div><div class='tc'><img class='introPic' src='trustrating_stim/white_mw010.bmp'><br><font color='red'><strong>Keep</strong></font></div><div class='tr'><img class='introPic' src='trustrating_stim/white_mw042.bmp'><br><font color='green'><strong>Share</strong></font></div></div></div>","null","ARRAY","3","trustrating_stim/white_mw092.bmp,trustrating_stim/white_mw010.bmp,trustrating_stim/white_mw042.bmp","1,0,1","Match","e","4500","","","","",""
"html-keyboard-response","47","176540","0.0-7.0-3.2","62fd76d3f0824c29d4b1e6bd","bdp_wmem","Wed Mar 15 2023 14:57:53 GMT-0400 (Eastern Daylight Time)","585288","Match,No Match","","null","","","","","","<div class='trialBorder'><div class='vertical-center'><img src='img/fixation2_sml.jpg'</img></div></div>","null","DELAY","","","","","","","","","","",""
"html-keyboard-response","48","177679","0.0-7.0-4.2","62fd76d3f0824c29d4b1e6bd","bdp_wmem","Wed Mar 15 2023 14:57:53 GMT-0400 (Eastern Daylight Time)","585288","Match,No Match","","1136","","","","","","<div class='trialBorder'><div class='targDiv'><div class='tc'><img class='introPic' src='trustrating_stim/white_mw010.bmp'><br><font color='red'><strong>Keep</strong></font></div></div><div class='respDiv'><div class='respDivL'>Match<br>(e)</div><div class='respDivR'>No Match<br>(i)</div></div></div>","e","TARGET","3","trustrating_stim/white_mw092.bmp,trustrating_stim/white_mw010.bmp,trustrating_stim/white_mw042.bmp","1,0,1","Match","e","4500","trustrating_stim/white_mw010.bmp","red","Keep","REAL","1"
"html-keyboard-response","49","178182","0.0-7.0-5.2","62fd76d3f0824c29d4b1e6bd","bdp_wmem","Wed Mar 15 2023 14:57:53 GMT-0400 (Eastern Daylight Time)","585288","Match,No Match","","null","","","","","","<div class='trialBorder'><div class='vertical-center'><img src='img/correct.jpg'></div><div class='respDiv'><div class='respDivL'><font style='color:orange'>Match<br>(e)</font></div><div class='respDivR'>No Match<br>(i)</div></div></div>","null","FEEDBACK","","","","","","","","","","",""
"html-keyboard-response","50","178687","0.0-7.0-1.3","62fd76d3f0824c29d4b1e6bd","bdp_wmem","Wed Mar 15 2023 14:57:53 GMT-0400 (Eastern Daylight Time)","585288","Match,No Match","","null","","","","","","<div class='trialBorder'><div class='vertical-center'><img src='img/fixation2_sml.jpg'</img></div></div>","null","FIX","","","","","","","","","","",""
"html-keyboard-response","51","183193","0.0-7.0-2.3","62fd76d3f0824c29d4b1e6bd","bdp_wmem","Wed Mar 15 2023 14:57:53 GMT-0400 (Eastern Daylight Time)","585288","Match,No Match","","null","","","","","","<div class='trialBorder'><div class='vertical-center'><img style='vertical-align:center; align:center' src='img/fixation2_sml.jpg'></div><div class='arrayDiv3'><div class='tl'><img class='introPic' src='trustrating_stim/white_mw040.bmp'><br><font color='green'><strong>Share</strong></font></div><div class='tc'><img class='introPic' src='trustrating_stim/white_mw042.bmp'><br><font color='green'><strong>Share</strong></font></div><div class='tr'><img class='introPic' src='trustrating_stim/white_mw003.bmp'><br><font color='red'><strong>Keep</strong></font></div></div></div>","null","ARRAY","3","trustrating_stim/white_mw040.bmp,trustrating_stim/white_mw042.bmp,trustrating_stim/white_mw003.bmp","1,1,0","noMatchFace","i","4500","","","","",""
"html-keyboard-response","52","187198","0.0-7.0-3.3","62fd76d3f0824c29d4b1e6bd","bdp_wmem","Wed Mar 15 2023 14:57:53 GMT-0400 (Eastern Daylight Time)","585288","Match,No Match","","null","","","","","","<div class='trialBorder'><div class='vertical-center'><img src='img/fixation2_sml.jpg'</img></div></div>","null","DELAY","","","","","","","","","","",""
"html-keyboard-response","53","188170","0.0-7.0-4.3","62fd76d3f0824c29d4b1e6bd","bdp_wmem","Wed Mar 15 2023 14:57:53 GMT-0400 (Eastern Daylight Time)","585288","Match,No Match","","970","","","","","","<div class='trialBorder'><div class='targDiv'><div class='tc'><img class='introPic' src='trustrating_stim/white_mw038.bmp'><br><font color='red'><strong>Keep</strong></font></div></div><div class='respDiv'><div class='respDivL'>Match<br>(e)</div><div class='respDivR'>No Match<br>(i)</div></div></div>","i","TARGET","3","trustrating_stim/white_mw040.bmp,trustrating_stim/white_mw042.bmp,trustrating_stim/white_mw003.bmp","1,1,0","noMatchFace","i","4500","trustrating_stim/white_mw038.bmp","red","Keep","REAL","1"
"html-keyboard-response","54","188676","0.0-7.0-5.3","62fd76d3f0824c29d4b1e6bd","bdp_wmem","Wed Mar 15 2023 14:57:53 GMT-0400 (Eastern Daylight Time)","585288","Match,No Match","","null","","","","","","<div class='trialBorder'><div class='vertical-center'><img src='img/correct.jpg'></div><div class='respDiv'><div class='respDivL'>Match<br>(e)</div><div class='respDivR'><font style='color:orange'>No Match<br>(i)</font></div></div></div>","null","FEEDBACK","","","","","","","","","","",""
"html-keyboard-response","55","189182","0.0-7.0-1.4","62fd76d3f0824c29d4b1e6bd","bdp_wmem","Wed Mar 15 2023 14:57:53 GMT-0400 (Eastern Daylight Time)","585288","Match,No Match","","null","","","","","","<div class='trialBorder'><div class='vertical-center'><img src='img/fixation2_sml.jpg'</img></div></div>","null","FIX","","","","","","","","","","",""
"html-keyboard-response","56","193688","0.0-7.0-2.4","62fd76d3f0824c29d4b1e6bd","bdp_wmem","Wed Mar 15 2023 14:57:53 GMT-0400 (Eastern Daylight Time)","585288","Match,No Match","","null","","","","","","<div class='trialBorder'><div class='vertical-center'><img style='vertical-align:center; align:center' src='img/fixation2_sml.jpg'></div><div class='arrayDiv3'><div class='tl'><img class='introPic' src='trustrating_stim/white_mw091.bmp'><br><font color='green'><strong>Share</strong></font></div><div class='tc'><img class='introPic' src='trustrating_stim/white_mw085.bmp'><br><font color='red'><strong>Keep</strong></font></div><div class='tr'><img class='introPic' src='trustrating_stim/white_mw070.bmp'><br><font color='green'><strong>Share</strong></font></div></div></div>","null","ARRAY","3","trustrating_stim/white_mw091.bmp,trustrating_stim/white_mw085.bmp,trustrating_stim/white_mw070.bmp","1,0,1","noMatchFace","i","4500","","","","",""
"html-keyboard-response","57","197690","0.0-7.0-3.4","62fd76d3f0824c29d4b1e6bd","bdp_wmem","Wed Mar 15 2023 14:57:53 GMT-0400 (Eastern Daylight Time)","585288","Match,No Match","","null","","","","","","<div class='trialBorder'><div class='vertical-center'><img src='img/fixation2_sml.jpg'</img></div></div>","null","DELAY","","","","","","","","","","",""
"html-keyboard-response","58","198578","0.0-7.0-4.4","62fd76d3f0824c29d4b1e6bd","bdp_wmem","Wed Mar 15 2023 14:57:53 GMT-0400 (Eastern Daylight Time)","585288","Match,No Match","","886","","","","","","<div class='trialBorder'><div class='targDiv'><div class='tc'><img class='introPic' src='trustrating_stim/white_mw013.bmp'><br><font color='green'><strong>Share</strong></font></div></div><div class='respDiv'><div class='respDivL'>Match<br>(e)</div><div class='respDivR'>No Match<br>(i)</div></div></div>","i","TARGET","3","trustrating_stim/white_mw091.bmp,trustrating_stim/white_mw085.bmp,trustrating_stim/white_mw070.bmp","1,0,1","noMatchFace","i","4500","trustrating_stim/white_mw013.bmp","green","Share","REAL","1"
"html-keyboard-response","59","199082","0.0-7.0-5.4","62fd76d3f0824c29d4b1e6bd","bdp_wmem","Wed Mar 15 2023 14:57:53 GMT-0400 (Eastern Daylight Time)","585288","Match,No Match","","null","","","","","","<div class='trialBorder'><div class='vertical-center'><img src='img/correct.jpg'></div><div class='respDiv'><div class='respDivL'>Match<br>(e)</div><div class='respDivR'><font style='color:orange'>No Match<br>(i)</font></div></div></div>","null","FEEDBACK","","","","","","","","","","",""
"html-keyboard-response","60","199588","0.0-7.0-1.5","62fd76d3f0824c29d4b1e6bd","bdp_wmem","Wed Mar 15 2023 14:57:53 GMT-0400 (Eastern Daylight Time)","585288","Match,No Match","","null","","","","","","<div class='trialBorder'><div class='vertical-center'><img src='img/fixation2_sml.jpg'</img></div></div>","null","FIX","","","","","","","","","","",""
"html-keyboard-response","61","201092","0.0-7.0-2.5","62fd76d3f0824c29d4b1e6bd","bdp_wmem","Wed Mar 15 2023 14:57:53 GMT-0400 (Eastern Daylight Time)","585288","Match,No Match","","null","","","","","","<div class='trialBorder'><div class='vertical-center'><img style='vertical-align:center; align:center' src='img/fixation2_sml.jpg'></div><div class='arrayDiv1'><div class='tc'><img class='introPic' src='trustrating_stim/white_mw070.bmp'><br><font color='green'><strong>Share</strong></font></div></div></div>","null","ARRAY","1","trustrating_stim/white_mw070.bmp","1","noMatchOutcome","i","1500","","","","",""
"html-keyboard-response","62","205093","0.0-7.0-3.5","62fd76d3f0824c29d4b1e6bd","bdp_wmem","Wed Mar 15 2023 14:57:53 GMT-0400 (Eastern Daylight Time)","585288","Match,No Match","","null","","","","","","<div class='trialBorder'><div class='vertical-center'><img src='img/fixation2_sml.jpg'</img></div></div>","null","DELAY","","","","","","","","","","",""
"html-keyboard-response","63","206382","0.0-7.0-4.5","62fd76d3f0824c29d4b1e6bd","bdp_wmem","Wed Mar 15 2023 14:57:53 GMT-0400 (Eastern Daylight Time)","585288","Match,No Match","","1286","","","","","","<div class='trialBorder'><div class='targDiv'><div class='tc'><img class='introPic' src='trustrating_stim/white_mw070.bmp'><br><font color='red'><strong>Keep</strong></font></div></div><div class='respDiv'><div class='respDivL'>Match<br>(e)</div><div class='respDivR'>No Match<br>(i)</div></div></div>","i","TARGET","1","trustrating_stim/white_mw070.bmp","1","noMatchOutcome","i","1500","trustrating_stim/white_mw070.bmp","red","Keep","REAL","1"
"html-keyboard-response","64","206885","0.0-7.0-5.5","62fd76d3f0824c29d4b1e6bd","bdp_wmem","Wed Mar 15 2023 14:57:53 GMT-0400 (Eastern Daylight Time)","585288","Match,No Match","","null","","","","","","<div class='trialBorder'><div class='vertical-center'><img src='img/correct.jpg'></div><div class='respDiv'><div class='respDivL'>Match<br>(e)</div><div class='respDivR'><font style='color:orange'>No Match<br>(i)</font></div></div></div>","null","FEEDBACK","","","","","","","","","","",""
"html-keyboard-response","65","207393","0.0-7.0-1.6","62fd76d3f0824c29d4b1e6bd","bdp_wmem","Wed Mar 15 2023 14:57:53 GMT-0400 (Eastern Daylight Time)","585288","Match,No Match","","null","","","","","","<div class='trialBorder'><div class='vertical-center'><img src='img/fixation2_sml.jpg'</img></div></div>","null","FIX","","","","","","","","","","",""
"html-keyboard-response","66","210401","0.0-7.0-2.6","62fd76d3f0824c29d4b1e6bd","bdp_wmem","Wed Mar 15 2023 14:57:53 GMT-0400 (Eastern Daylight Time)","585288","Match,No Match","","null","","","","","","<div class='trialBorder'><div class='vertical-center'><img style='vertical-align:center; align:center' src='img/fixation2_sml.jpg'></div><div class='arrayDiv2'><div class='tl'><img class='introPic' src='trustrating_stim/white_mw092.bmp'><br><font color='green'><strong>Share</strong></font></div><div class='tr'><img class='introPic' src='trustrating_stim/white_mw038.bmp'><br><font color='red'><strong>Keep</strong></font></div></div></div>","null","ARRAY","2","trustrating_stim/white_mw092.bmp,trustrating_stim/white_mw038.bmp","1,0","noMatchFace","i","3000","","","","",""
"html-keyboard-response","67","214409","0.0-7.0-3.6","62fd76d3f0824c29d4b1e6bd","bdp_wmem","Wed Mar 15 2023 14:57:53 GMT-0400 (Eastern Daylight Time)","585288","Match,No Match","","null","","","","","","<div class='trialBorder'><div class='vertical-center'><img src='img/fixation2_sml.jpg'</img></div></div>","null","DELAY","","","","","","","","","","",""
"html-keyboard-response","68","215722","0.0-7.0-4.6","62fd76d3f0824c29d4b1e6bd","bdp_wmem","Wed Mar 15 2023 14:57:53 GMT-0400 (Eastern Daylight Time)","585288","Match,No Match","","1311","","","","","","<div class='trialBorder'><div class='targDiv'><div class='tc'><img class='introPic' src='trustrating_stim/white_mw078.bmp'><br><font color='green'><strong>Share</strong></font></div></div><div class='respDiv'><div class='respDivL'>Match<br>(e)</div><div class='respDivR'>No Match<br>(i)</div></div></div>","i","TARGET","2","trustrating_stim/white_mw092.bmp,trustrating_stim/white_mw038.bmp","1,0","noMatchFace","i","3000","trustrating_stim/white_mw078.bmp","green","Share","REAL","1"
"html-keyboard-response","69","216238","0.0-7.0-5.6","62fd76d3f0824c29d4b1e6bd","bdp_wmem","Wed Mar 15 2023 14:57:53 GMT-0400 (Eastern Daylight Time)","585288","Match,No Match","","null","","","","","","<div class='trialBorder'><div class='vertical-center'><img src='img/correct.jpg'></div><div class='respDiv'><div class='respDivL'>Match<br>(e)</div><div class='respDivR'><font style='color:orange'>No Match<br>(i)</font></div></div></div>","null","FEEDBACK","","","","","","","","","","",""
"html-keyboard-response","70","216743","0.0-7.0-1.7","62fd76d3f0824c29d4b1e6bd","bdp_wmem","Wed Mar 15 2023 14:57:53 GMT-0400 (Eastern Daylight Time)","585288","Match,No Match","","null","","","","","","<div class='trialBorder'><div class='vertical-center'><img src='img/fixation2_sml.jpg'</img></div></div>","null","FIX","","","","","","","","","","",""
"html-keyboard-response","71","218251","0.0-7.0-2.7","62fd76d3f0824c29d4b1e6bd","bdp_wmem","Wed Mar 15 2023 14:57:53 GMT-0400 (Eastern Daylight Time)","585288","Match,No Match","","null","","","","","","<div class='trialBorder'><div class='vertical-center'><img style='vertical-align:center; align:center' src='img/fixation2_sml.jpg'></div><div class='arrayDiv1'><div class='tc'><img class='introPic' src='trustrating_stim/white_mw078.bmp'><br><font color='green'><strong>Share</strong></font></div></div></div>","null","ARRAY","1","trustrating_stim/white_mw078.bmp","1","noMatchFace","i","1500","","","","",""
"html-keyboard-response","72","222259","0.0-7.0-3.7","62fd76d3f0824c29d4b1e6bd","bdp_wmem","Wed Mar 15 2023 14:57:53 GMT-0400 (Eastern Daylight Time)","585288","Match,No Match","","null","","","","","","<div class='trialBorder'><div class='vertical-center'><img src='img/fixation2_sml.jpg'</img></div></div>","null","DELAY","","","","","","","","","","",""
"html-keyboard-response","73","223191","0.0-7.0-4.7","62fd76d3f0824c29d4b1e6bd","bdp_wmem","Wed Mar 15 2023 14:57:53 GMT-0400 (Eastern Daylight Time)","585288","Match,No Match","","929","","","","","","<div class='trialBorder'><div class='targDiv'><div class='tc'><img class='introPic' src='trustrating_stim/white_mw070.bmp'><br><font color='green'><strong>Share</strong></font></div></div><div class='respDiv'><div class='respDivL'>Match<br>(e)</div><div class='respDivR'>No Match<br>(i)</div></div></div>","i","TARGET","1","trustrating_stim/white_mw078.bmp","1","noMatchFace","i","1500","trustrating_stim/white_mw070.bmp","green","Share","REAL","1"
"html-keyboard-response","74","223696","0.0-7.0-5.7","62fd76d3f0824c29d4b1e6bd","bdp_wmem","Wed Mar 15 2023 14:57:53 GMT-0400 (Eastern Daylight Time)","585288","Match,No Match","","null","","","","","","<div class='trialBorder'><div class='vertical-center'><img src='img/correct.jpg'></div><div class='respDiv'><div class='respDivL'>Match<br>(e)</div><div class='respDivR'><font style='color:orange'>No Match<br>(i)</font></div></div></div>","null","FEEDBACK","","","","","","","","","","",""
"html-keyboard-response","75","224204","0.0-7.0-1.8","62fd76d3f0824c29d4b1e6bd","bdp_wmem","Wed Mar 15 2023 14:57:53 GMT-0400 (Eastern Daylight Time)","585288","Match,No Match","","null","","","","","","<div class='trialBorder'><div class='vertical-center'><img src='img/fixation2_sml.jpg'</img></div></div>","null","FIX","","","","","","","","","","",""
"html-keyboard-response","76","228715","0.0-7.0-2.8","62fd76d3f0824c29d4b1e6bd","bdp_wmem","Wed Mar 15 2023 14:57:53 GMT-0400 (Eastern Daylight Time)","585288","Match,No Match","","null","","","","","","<div class='trialBorder'><div class='vertical-center'><img style='vertical-align:center; align:center' src='img/fixation2_sml.jpg'></div><div class='arrayDiv3'><div class='tl'><img class='introPic' src='trustrating_stim/white_mw085.bmp'><br><font color='green'><strong>Share</strong></font></div><div class='tc'><img class='introPic' src='trustrating_stim/white_mw078.bmp'><br><font color='green'><strong>Share</strong></font></div><div class='tr'><img class='introPic' src='trustrating_stim/white_mw013.bmp'><br><font color='red'><strong>Keep</strong></font></div></div></div>","null","ARRAY","3","trustrating_stim/white_mw085.bmp,trustrating_stim/white_mw078.bmp,trustrating_stim/white_mw013.bmp","1,1,0","noMatchOutcome","i","4500","","","","",""
"html-keyboard-response","77","232718","0.0-7.0-3.8","62fd76d3f0824c29d4b1e6bd","bdp_wmem","Wed Mar 15 2023 14:57:53 GMT-0400 (Eastern Daylight Time)","585288","Match,No Match","","null","","","","","","<div class='trialBorder'><div class='vertical-center'><img src='img/fixation2_sml.jpg'</img></div></div>","null","DELAY","","","","","","","","","","",""
"html-keyboard-response","78","233659","0.0-7.0-4.8","62fd76d3f0824c29d4b1e6bd","bdp_wmem","Wed Mar 15 2023 14:57:53 GMT-0400 (Eastern Daylight Time)","585288","Match,No Match","","936","","","","","","<div class='trialBorder'><div class='targDiv'><div class='tc'><img class='introPic' src='trustrating_stim/white_mw078.bmp'><br><font color='red'><strong>Keep</strong></font></div></div><div class='respDiv'><div class='respDivL'>Match<br>(e)</div><div class='respDivR'>No Match<br>(i)</div></div></div>","e","TARGET","3","trustrating_stim/white_mw085.bmp,trustrating_stim/white_mw078.bmp,trustrating_stim/white_mw013.bmp","1,1,0","noMatchOutcome","i","4500","trustrating_stim/white_mw078.bmp","red","Keep","REAL","0"
"html-keyboard-response","79","234171","0.0-7.0-5.8","62fd76d3f0824c29d4b1e6bd","bdp_wmem","Wed Mar 15 2023 14:57:53 GMT-0400 (Eastern Daylight Time)","585288","Match,No Match","","null","","","","","","<div class='trialBorder'><div class='vertical-center'><img src='img/error.jpg'></div><div class='respDiv'><div class='respDivL'><font style='color:orange'>Match<br>(e)</font></div><div class='respDivR'>No Match<br>(i)</div></div></div>","null","FEEDBACK","","","","","","","","","","",""
"html-keyboard-response","80","234676","0.0-7.0-1.9","62fd76d3f0824c29d4b1e6bd","bdp_wmem","Wed Mar 15 2023 14:57:53 GMT-0400 (Eastern Daylight Time)","585288","Match,No Match","","null","","","","","","<div class='trialBorder'><div class='vertical-center'><img src='img/fixation2_sml.jpg'</img></div></div>","null","FIX","","","","","","","","","","",""
"html-keyboard-response","81","239179","0.0-7.0-2.9","62fd76d3f0824c29d4b1e6bd","bdp_wmem","Wed Mar 15 2023 14:57:53 GMT-0400 (Eastern Daylight Time)","585288","Match,No Match","","null","","","","","","<div class='trialBorder'><div class='vertical-center'><img style='vertical-align:center; align:center' src='img/fixation2_sml.jpg'></div><div class='arrayDiv3'><div class='tl'><img class='introPic' src='trustrating_stim/white_mw078.bmp'><br><font color='red'><strong>Keep</strong></font></div><div class='tc'><img class='introPic' src='trustrating_stim/white_mw010.bmp'><br><font color='green'><strong>Share</strong></font></div><div class='tr'><img class='introPic' src='trustrating_stim/white_mw038.bmp'><br><font color='red'><strong>Keep</strong></font></div></div></div>","null","ARRAY","3","trustrating_stim/white_mw078.bmp,trustrating_stim/white_mw010.bmp,trustrating_stim/white_mw038.bmp","0,1,0","Match","e","4500","","","","",""
"html-keyboard-response","82","243185","0.0-7.0-3.9","62fd76d3f0824c29d4b1e6bd","bdp_wmem","Wed Mar 15 2023 14:57:53 GMT-0400 (Eastern Daylight Time)","585288","Match,No Match","","null","","","","","","<div class='trialBorder'><div class='vertical-center'><img src='img/fixation2_sml.jpg'</img></div></div>","null","DELAY","","","","","","","","","","",""
"html-keyboard-response","83","243977","0.0-7.0-4.9","62fd76d3f0824c29d4b1e6bd","bdp_wmem","Wed Mar 15 2023 14:57:53 GMT-0400 (Eastern Daylight Time)","585288","Match,No Match","","790","","","","","","<div class='trialBorder'><div class='targDiv'><div class='tc'><img class='introPic' src='trustrating_stim/white_mw078.bmp'><br><font color='red'><strong>Keep</strong></font></div></div><div class='respDiv'><div class='respDivL'>Match<br>(e)</div><div class='respDivR'>No Match<br>(i)</div></div></div>","e","TARGET","3","trustrating_stim/white_mw078.bmp,trustrating_stim/white_mw010.bmp,trustrating_stim/white_mw038.bmp","0,1,0","Match","e","4500","trustrating_stim/white_mw078.bmp","red","Keep","REAL","1"
"html-keyboard-response","84","244482","0.0-7.0-5.9","62fd76d3f0824c29d4b1e6bd","bdp_wmem","Wed Mar 15 2023 14:57:53 GMT-0400 (Eastern Daylight Time)","585288","Match,No Match","","null","","","","","","<div class='trialBorder'><div class='vertical-center'><img src='img/correct.jpg'></div><div class='respDiv'><div class='respDivL'><font style='color:orange'>Match<br>(e)</font></div><div class='respDivR'>No Match<br>(i)</div></div></div>","null","FEEDBACK","","","","","","","","","","",""
"html-keyboard-response","85","244983","0.0-7.0-1.10","62fd76d3f0824c29d4b1e6bd","bdp_wmem","Wed Mar 15 2023 14:57:53 GMT-0400 (Eastern Daylight Time)","585288","Match,No Match","","null","","","","","","<div class='trialBorder'><div class='vertical-center'><img src='img/fixation2_sml.jpg'</img></div></div>","null","FIX","","","","","","","","","","",""
"html-keyboard-response","86","246490","0.0-7.0-2.10","62fd76d3f0824c29d4b1e6bd","bdp_wmem","Wed Mar 15 2023 14:57:53 GMT-0400 (Eastern Daylight Time)","585288","Match,No Match","","null","","","","","","<div class='trialBorder'><div class='vertical-center'><img style='vertical-align:center; align:center' src='img/fixation2_sml.jpg'></div><div class='arrayDiv1'><div class='tc'><img class='introPic' src='trustrating_stim/white_mw013.bmp'><br><font color='red'><strong>Keep</strong></font></div></div></div>","null","ARRAY","1","trustrating_stim/white_mw013.bmp","0","noMatchOutcome","i","1500","","","","",""
"html-keyboard-response","87","250495","0.0-7.0-3.10","62fd76d3f0824c29d4b1e6bd","bdp_wmem","Wed Mar 15 2023 14:57:53 GMT-0400 (Eastern Daylight Time)","585288","Match,No Match","","null","","","","","","<div class='trialBorder'><div class='vertical-center'><img src='img/fixation2_sml.jpg'</img></div></div>","null","DELAY","","","","","","","","","","",""
"html-keyboard-response","88","251326","0.0-7.0-4.10","62fd76d3f0824c29d4b1e6bd","bdp_wmem","Wed Mar 15 2023 14:57:53 GMT-0400 (Eastern Daylight Time)","585288","Match,No Match","","827","","","","","","<div class='trialBorder'><div class='targDiv'><div class='tc'><img class='introPic' src='trustrating_stim/white_mw013.bmp'><br><font color='green'><strong>Share</strong></font></div></div><div class='respDiv'><div class='respDivL'>Match<br>(e)</div><div class='respDivR'>No Match<br>(i)</div></div></div>","i","TARGET","1","trustrating_stim/white_mw013.bmp","0","noMatchOutcome","i","1500","trustrating_stim/white_mw013.bmp","green","Share","REAL","1"
"html-keyboard-response","89","251834","0.0-7.0-5.10","62fd76d3f0824c29d4b1e6bd","bdp_wmem","Wed Mar 15 2023 14:57:53 GMT-0400 (Eastern Daylight Time)","585288","Match,No Match","","null","","","","","","<div class='trialBorder'><div class='vertical-center'><img src='img/correct.jpg'></div><div class='respDiv'><div class='respDivL'>Match<br>(e)</div><div class='respDivR'><font style='color:orange'>No Match<br>(i)</font></div></div></div>","null","FEEDBACK","","","","","","","","","","",""
"html-keyboard-response","90","252339","0.0-7.0-1.11","62fd76d3f0824c29d4b1e6bd","bdp_wmem","Wed Mar 15 2023 14:57:53 GMT-0400 (Eastern Daylight Time)","585288","Match,No Match","","null","","","","","","<div class='trialBorder'><div class='vertical-center'><img src='img/fixation2_sml.jpg'</img></div></div>","null","FIX","","","","","","","","","","",""
"html-keyboard-response","91","255348","0.0-7.0-2.11","62fd76d3f0824c29d4b1e6bd","bdp_wmem","Wed Mar 15 2023 14:57:53 GMT-0400 (Eastern Daylight Time)","585288","Match,No Match","","null","","","","","","<div class='trialBorder'><div class='vertical-center'><img style='vertical-align:center; align:center' src='img/fixation2_sml.jpg'></div><div class='arrayDiv2'><div class='tl'><img class='introPic' src='trustrating_stim/white_mw012.bmp'><br><font color='green'><strong>Share</strong></font></div><div class='tr'><img class='introPic' src='trustrating_stim/white_mw003.bmp'><br><font color='red'><strong>Keep</strong></font></div></div></div>","null","ARRAY","2","trustrating_stim/white_mw012.bmp,trustrating_stim/white_mw003.bmp","1,0","noMatchFace","i","3000","","","","",""
"html-keyboard-response","92","259358","0.0-7.0-3.11","62fd76d3f0824c29d4b1e6bd","bdp_wmem","Wed Mar 15 2023 14:57:53 GMT-0400 (Eastern Daylight Time)","585288","Match,No Match","","null","","","","","","<div class='trialBorder'><div class='vertical-center'><img src='img/fixation2_sml.jpg'</img></div></div>","null","DELAY","","","","","","","","","","",""
"html-keyboard-response","93","260138","0.0-7.0-4.11","62fd76d3f0824c29d4b1e6bd","bdp_wmem","Wed Mar 15 2023 14:57:53 GMT-0400 (Eastern Daylight Time)","585288","Match,No Match","","779","","","","","","<div class='trialBorder'><div class='targDiv'><div class='tc'><img class='introPic' src='trustrating_stim/white_mw010.bmp'><br><font color='green'><strong>Share</strong></font></div></div><div class='respDiv'><div class='respDivL'>Match<br>(e)</div><div class='respDivR'>No Match<br>(i)</div></div></div>","i","TARGET","2","trustrating_stim/white_mw012.bmp,trustrating_stim/white_mw003.bmp","1,0","noMatchFace","i","3000","trustrating_stim/white_mw010.bmp","green","Share","REAL","1"
"html-keyboard-response","94","260648","0.0-7.0-5.11","62fd76d3f0824c29d4b1e6bd","bdp_wmem","Wed Mar 15 2023 14:57:53 GMT-0400 (Eastern Daylight Time)","585288","Match,No Match","","null","","","","","","<div class='trialBorder'><div class='vertical-center'><img src='img/correct.jpg'></div><div class='respDiv'><div class='respDivL'>Match<br>(e)</div><div class='respDivR'><font style='color:orange'>No Match<br>(i)</font></div></div></div>","null","FEEDBACK","","","","","","","","","","",""
"html-keyboard-response","95","261158","0.0-7.0-1.12","62fd76d3f0824c29d4b1e6bd","bdp_wmem","Wed Mar 15 2023 14:57:53 GMT-0400 (Eastern Daylight Time)","585288","Match,No Match","","null","","","","","","<div class='trialBorder'><div class='vertical-center'><img src='img/fixation2_sml.jpg'</img></div></div>","null","FIX","","","","","","","","","","",""
"html-keyboard-response","96","265662","0.0-7.0-2.12","62fd76d3f0824c29d4b1e6bd","bdp_wmem","Wed Mar 15 2023 14:57:53 GMT-0400 (Eastern Daylight Time)","585288","Match,No Match","","null","","","","","","<div class='trialBorder'><div class='vertical-center'><img style='vertical-align:center; align:center' src='img/fixation2_sml.jpg'></div><div class='arrayDiv3'><div class='tl'><img class='introPic' src='trustrating_stim/white_mw010.bmp'><br><font color='red'><strong>Keep</strong></font></div><div class='tc'><img class='introPic' src='trustrating_stim/white_mw040.bmp'><br><font color='green'><strong>Share</strong></font></div><div class='tr'><img class='introPic' src='trustrating_stim/white_mw042.bmp'><br><font color='green'><strong>Share</strong></font></div></div></div>","null","ARRAY","3","trustrating_stim/white_mw010.bmp,trustrating_stim/white_mw040.bmp,trustrating_stim/white_mw042.bmp","0,1,1","noMatchFace","i","4500","","","","",""
"html-keyboard-response","97","269670","0.0-7.0-3.12","62fd76d3f0824c29d4b1e6bd","bdp_wmem","Wed Mar 15 2023 14:57:53 GMT-0400 (Eastern Daylight Time)","585288","Match,No Match","","null","","","","","","<div class='trialBorder'><div class='vertical-center'><img src='img/fixation2_sml.jpg'</img></div></div>","null","DELAY","","","","","","","","","","",""
"html-keyboard-response","98","270507","0.0-7.0-4.12","62fd76d3f0824c29d4b1e6bd","bdp_wmem","Wed Mar 15 2023 14:57:53 GMT-0400 (Eastern Daylight Time)","585288","Match,No Match","","833","","","","","","<div class='trialBorder'><div class='targDiv'><div class='tc'><img class='introPic' src='trustrating_stim/white_mw091.bmp'><br><font color='red'><strong>Keep</strong></font></div></div><div class='respDiv'><div class='respDivL'>Match<br>(e)</div><div class='respDivR'>No Match<br>(i)</div></div></div>","i","TARGET","3","trustrating_stim/white_mw010.bmp,trustrating_stim/white_mw040.bmp,trustrating_stim/white_mw042.bmp","0,1,1","noMatchFace","i","4500","trustrating_stim/white_mw091.bmp","red","Keep","REAL","1"
"html-keyboard-response","99","271017","0.0-7.0-5.12","62fd76d3f0824c29d4b1e6bd","bdp_wmem","Wed Mar 15 2023 14:57:53 GMT-0400 (Eastern Daylight Time)","585288","Match,No Match","","null","","","","","","<div class='trialBorder'><div class='vertical-center'><img src='img/correct.jpg'></div><div class='respDiv'><div class='respDivL'>Match<br>(e)</div><div class='respDivR'><font style='color:orange'>No Match<br>(i)</font></div></div></div>","null","FEEDBACK","","","","","","","","","","",""
"html-keyboard-response","100","271526","0.0-7.0-1.13","62fd76d3f0824c29d4b1e6bd","bdp_wmem","Wed Mar 15 2023 14:57:53 GMT-0400 (Eastern Daylight Time)","585288","Match,No Match","","null","","","","","","<div class='trialBorder'><div class='vertical-center'><img src='img/fixation2_sml.jpg'</img></div></div>","null","FIX","","","","","","","","","","",""
"html-keyboard-response","101","273029","0.0-7.0-2.13","62fd76d3f0824c29d4b1e6bd","bdp_wmem","Wed Mar 15 2023 14:57:53 GMT-0400 (Eastern Daylight Time)","585288","Match,No Match","","null","","","","","","<div class='trialBorder'><div class='vertical-center'><img style='vertical-align:center; align:center' src='img/fixation2_sml.jpg'></div><div class='arrayDiv1'><div class='tc'><img class='introPic' src='trustrating_stim/white_mw078.bmp'><br><font color='red'><strong>Keep</strong></font></div></div></div>","null","ARRAY","1","trustrating_stim/white_mw078.bmp","0","Match","e","1500","","","","",""
"html-keyboard-response","102","277034","0.0-7.0-3.13","62fd76d3f0824c29d4b1e6bd","bdp_wmem","Wed Mar 15 2023 14:57:53 GMT-0400 (Eastern Daylight Time)","585288","Match,No Match","","null","","","","","","<div class='trialBorder'><div class='vertical-center'><img src='img/fixation2_sml.jpg'</img></div></div>","null","DELAY","","","","","","","","","","",""
"html-keyboard-response","103","277651","0.0-7.0-4.13","62fd76d3f0824c29d4b1e6bd","bdp_wmem","Wed Mar 15 2023 14:57:53 GMT-0400 (Eastern Daylight Time)","585288","Match,No Match","","614","","","","","","<div class='trialBorder'><div class='targDiv'><div class='tc'><img class='introPic' src='trustrating_stim/white_mw078.bmp'><br><font color='red'><strong>Keep</strong></font></div></div><div class='respDiv'><div class='respDivL'>Match<br>(e)</div><div class='respDivR'>No Match<br>(i)</div></div></div>","e","TARGET","1","trustrating_stim/white_mw078.bmp","0","Match","e","1500","trustrating_stim/white_mw078.bmp","red","Keep","REAL","1"
"html-keyboard-response","104","278158","0.0-7.0-5.13","62fd76d3f0824c29d4b1e6bd","bdp_wmem","Wed Mar 15 2023 14:57:53 GMT-0400 (Eastern Daylight Time)","585288","Match,No Match","","null","","","","","","<div class='trialBorder'><div class='vertical-center'><img src='img/correct.jpg'></div><div class='respDiv'><div class='respDivL'><font style='color:orange'>Match<br>(e)</font></div><div class='respDivR'>No Match<br>(i)</div></div></div>","null","FEEDBACK","","","","","","","","","","",""
"html-keyboard-response","105","278666","0.0-7.0-1.14","62fd76d3f0824c29d4b1e6bd","bdp_wmem","Wed Mar 15 2023 14:57:53 GMT-0400 (Eastern Daylight Time)","585288","Match,No Match","","null","","","","","","<div class='trialBorder'><div class='vertical-center'><img src='img/fixation2_sml.jpg'</img></div></div>","null","FIX","","","","","","","","","","",""
"html-keyboard-response","106","280170","0.0-7.0-2.14","62fd76d3f0824c29d4b1e6bd","bdp_wmem","Wed Mar 15 2023 14:57:53 GMT-0400 (Eastern Daylight Time)","585288","Match,No Match","","null","","","","","","<div class='trialBorder'><div class='vertical-center'><img style='vertical-align:center; align:center' src='img/fixation2_sml.jpg'></div><div class='arrayDiv1'><div class='tc'><img class='introPic' src='trustrating_stim/white_mw013.bmp'><br><font color='red'><strong>Keep</strong></font></div></div></div>","null","ARRAY","1","trustrating_stim/white_mw013.bmp","0","Match","e","1500","","","","",""
"html-keyboard-response","107","284181","0.0-7.0-3.14","62fd76d3f0824c29d4b1e6bd","bdp_wmem","Wed Mar 15 2023 14:57:53 GMT-0400 (Eastern Daylight Time)","585288","Match,No Match","","null","","","","","","<div class='trialBorder'><div class='vertical-center'><img src='img/fixation2_sml.jpg'</img></div></div>","null","DELAY","","","","","","","","","","",""
"html-keyboard-response","108","284855","0.0-7.0-4.14","62fd76d3f0824c29d4b1e6bd","bdp_wmem","Wed Mar 15 2023 14:57:53 GMT-0400 (Eastern Daylight Time)","585288","Match,No Match","","673","","","","","","<div class='trialBorder'><div class='targDiv'><div class='tc'><img class='introPic' src='trustrating_stim/white_mw013.bmp'><br><font color='red'><strong>Keep</strong></font></div></div><div class='respDiv'><div class='respDivL'>Match<br>(e)</div><div class='respDivR'>No Match<br>(i)</div></div></div>","e","TARGET","1","trustrating_stim/white_mw013.bmp","0","Match","e","1500","trustrating_stim/white_mw013.bmp","red","Keep","REAL","1"
"html-keyboard-response","109","285358","0.0-7.0-5.14","62fd76d3f0824c29d4b1e6bd","bdp_wmem","Wed Mar 15 2023 14:57:53 GMT-0400 (Eastern Daylight Time)","585288","Match,No Match","","null","","","","","","<div class='trialBorder'><div class='vertical-center'><img src='img/correct.jpg'></div><div class='respDiv'><div class='respDivL'><font style='color:orange'>Match<br>(e)</font></div><div class='respDivR'>No Match<br>(i)</div></div></div>","null","FEEDBACK","","","","","","","","","","",""
"html-keyboard-response","110","285864","0.0-7.0-1.15","62fd76d3f0824c29d4b1e6bd","bdp_wmem","Wed Mar 15 2023 14:57:53 GMT-0400 (Eastern Daylight Time)","585288","Match,No Match","","null","","","","","","<div class='trialBorder'><div class='vertical-center'><img src='img/fixation2_sml.jpg'</img></div></div>","null","FIX","","","","","","","","","","",""
"html-keyboard-response","111","287369","0.0-7.0-2.15","62fd76d3f0824c29d4b1e6bd","bdp_wmem","Wed Mar 15 2023 14:57:53 GMT-0400 (Eastern Daylight Time)","585288","Match,No Match","","null","","","","","","<div class='trialBorder'><div class='vertical-center'><img style='vertical-align:center; align:center' src='img/fixation2_sml.jpg'></div><div class='arrayDiv1'><div class='tc'><img class='introPic' src='trustrating_stim/white_mw092.bmp'><br><font color='green'><strong>Share</strong></font></div></div></div>","null","ARRAY","1","trustrating_stim/white_mw092.bmp","1","noMatchFace","i","1500","","","","",""
"html-keyboard-response","112","291377","0.0-7.0-3.15","62fd76d3f0824c29d4b1e6bd","bdp_wmem","Wed Mar 15 2023 14:57:53 GMT-0400 (Eastern Daylight Time)","585288","Match,No Match","","null","","","","","","<div class='trialBorder'><div class='vertical-center'><img src='img/fixation2_sml.jpg'</img></div></div>","null","DELAY","","","","","","","","","","",""
"html-keyboard-response","113","292253","0.0-7.0-4.15","62fd76d3f0824c29d4b1e6bd","bdp_wmem","Wed Mar 15 2023 14:57:53 GMT-0400 (Eastern Daylight Time)","585288","Match,No Match","","873","","","","","","<div class='trialBorder'><div class='targDiv'><div class='tc'><img class='introPic' src='trustrating_stim/white_mw040.bmp'><br><font color='green'><strong>Share</strong></font></div></div><div class='respDiv'><div class='respDivL'>Match<br>(e)</div><div class='respDivR'>No Match<br>(i)</div></div></div>","i","TARGET","1","trustrating_stim/white_mw092.bmp","1","noMatchFace","i","1500","trustrating_stim/white_mw040.bmp","green","Share","REAL","1"
"html-keyboard-response","114","292761","0.0-7.0-5.15","62fd76d3f0824c29d4b1e6bd","bdp_wmem","Wed Mar 15 2023 14:57:53 GMT-0400 (Eastern Daylight Time)","585288","Match,No Match","","null","","","","","","<div class='trialBorder'><div class='vertical-center'><img src='img/correct.jpg'></div><div class='respDiv'><div class='respDivL'>Match<br>(e)</div><div class='respDivR'><font style='color:orange'>No Match<br>(i)</font></div></div></div>","null","FEEDBACK","","","","","","","","","","",""
"html-keyboard-response","115","293263","0.0-7.0-1.16","62fd76d3f0824c29d4b1e6bd","bdp_wmem","Wed Mar 15 2023 14:57:53 GMT-0400 (Eastern Daylight Time)","585288","Match,No Match","","null","","","","","","<div class='trialBorder'><div class='vertical-center'><img src='img/fixation2_sml.jpg'</img></div></div>","null","FIX","","","","","","","","","","",""
"html-keyboard-response","116","297771","0.0-7.0-2.16","62fd76d3f0824c29d4b1e6bd","bdp_wmem","Wed Mar 15 2023 14:57:53 GMT-0400 (Eastern Daylight Time)","585288","Match,No Match","","null","","","","","","<div class='trialBorder'><div class='vertical-center'><img style='vertical-align:center; align:center' src='img/fixation2_sml.jpg'></div><div class='arrayDiv3'><div class='tl'><img class='introPic' src='trustrating_stim/white_mw013.bmp'><br><font color='red'><strong>Keep</strong></font></div><div class='tc'><img class='introPic' src='trustrating_stim/white_mw042.bmp'><br><font color='green'><strong>Share</strong></font></div><div class='tr'><img class='introPic' src='trustrating_stim/white_mw092.bmp'><br><font color='red'><strong>Keep</strong></font></div></div></div>","null","ARRAY","3","trustrating_stim/white_mw013.bmp,trustrating_stim/white_mw042.bmp,trustrating_stim/white_mw092.bmp","0,1,0","Match","e","4500","","","","",""
"html-keyboard-response","117","301774","0.0-7.0-3.16","62fd76d3f0824c29d4b1e6bd","bdp_wmem","Wed Mar 15 2023 14:57:53 GMT-0400 (Eastern Daylight Time)","585288","Match,No Match","","null","","","","","","<div class='trialBorder'><div class='vertical-center'><img src='img/fixation2_sml.jpg'</img></div></div>","null","DELAY","","","","","","","","","","",""
"html-keyboard-response","118","302454","0.0-7.0-4.16","62fd76d3f0824c29d4b1e6bd","bdp_wmem","Wed Mar 15 2023 14:57:53 GMT-0400 (Eastern Daylight Time)","585288","Match,No Match","","677","","","","","","<div class='trialBorder'><div class='targDiv'><div class='tc'><img class='introPic' src='trustrating_stim/white_mw042.bmp'><br><font color='green'><strong>Share</strong></font></div></div><div class='respDiv'><div class='respDivL'>Match<br>(e)</div><div class='respDivR'>No Match<br>(i)</div></div></div>","i","TARGET","3","trustrating_stim/white_mw013.bmp,trustrating_stim/white_mw042.bmp,trustrating_stim/white_mw092.bmp","0,1,0","Match","e","4500","trustrating_stim/white_mw042.bmp","green","Share","REAL","0"
"html-keyboard-response","119","302964","0.0-7.0-5.16","62fd76d3f0824c29d4b1e6bd","bdp_wmem","Wed Mar 15 2023 14:57:53 GMT-0400 (Eastern Daylight Time)","585288","Match,No Match","","null","","","","","","<div class='trialBorder'><div class='vertical-center'><img src='img/error.jpg'></div><div class='respDiv'><div class='respDivL'>Match<br>(e)</div><div class='respDivR'><font style='color:orange'>No Match<br>(i)</font></div></div></div>","null","FEEDBACK","","","","","","","","","","",""
"html-keyboard-response","120","303472","0.0-7.0-1.17","62fd76d3f0824c29d4b1e6bd","bdp_wmem","Wed Mar 15 2023 14:57:53 GMT-0400 (Eastern Daylight Time)","585288","Match,No Match","","null","","","","","","<div class='trialBorder'><div class='vertical-center'><img src='img/fixation2_sml.jpg'</img></div></div>","null","FIX","","","","","","","","","","",""
"html-keyboard-response","121","306478","0.0-7.0-2.17","62fd76d3f0824c29d4b1e6bd","bdp_wmem","Wed Mar 15 2023 14:57:53 GMT-0400 (Eastern Daylight Time)","585288","Match,No Match","","null","","","","","","<div class='trialBorder'><div class='vertical-center'><img style='vertical-align:center; align:center' src='img/fixation2_sml.jpg'></div><div class='arrayDiv2'><div class='tl'><img class='introPic' src='trustrating_stim/white_mw091.bmp'><br><font color='green'><strong>Share</strong></font></div><div class='tr'><img class='introPic' src='trustrating_stim/white_mw010.bmp'><br><font color='red'><strong>Keep</strong></font></div></div></div>","null","ARRAY","2","trustrating_stim/white_mw091.bmp,trustrating_stim/white_mw010.bmp","1,0","noMatchOutcome","i","3000","","","","",""
"html-keyboard-response","122","310488","0.0-7.0-3.17","62fd76d3f0824c29d4b1e6bd","bdp_wmem","Wed Mar 15 2023 14:57:53 GMT-0400 (Eastern Daylight Time)","585288","Match,No Match","","null","","","","","","<div class='trialBorder'><div class='vertical-center'><img src='img/fixation2_sml.jpg'</img></div></div>","null","DELAY","","","","","","","","","","",""
"html-keyboard-response","123","311210","0.0-7.0-4.17","62fd76d3f0824c29d4b1e6bd","bdp_wmem","Wed Mar 15 2023 14:57:53 GMT-0400 (Eastern Daylight Time)","585288","Match,No Match","","720","","","","","","<div class='trialBorder'><div class='targDiv'><div class='tc'><img class='introPic' src='trustrating_stim/white_mw010.bmp'><br><font color='green'><strong>Share</strong></font></div></div><div class='respDiv'><div class='respDivL'>Match<br>(e)</div><div class='respDivR'>No Match<br>(i)</div></div></div>","i","TARGET","2","trustrating_stim/white_mw091.bmp,trustrating_stim/white_mw010.bmp","1,0","noMatchOutcome","i","3000","trustrating_stim/white_mw010.bmp","green","Share","REAL","1"
"html-keyboard-response","124","311716","0.0-7.0-5.17","62fd76d3f0824c29d4b1e6bd","bdp_wmem","Wed Mar 15 2023 14:57:53 GMT-0400 (Eastern Daylight Time)","585288","Match,No Match","","null","","","","","","<div class='trialBorder'><div class='vertical-center'><img src='img/correct.jpg'></div><div class='respDiv'><div class='respDivL'>Match<br>(e)</div><div class='respDivR'><font style='color:orange'>No Match<br>(i)</font></div></div></div>","null","FEEDBACK","","","","","","","","","","",""
"html-keyboard-response","125","312218","0.0-7.0-1.18","62fd76d3f0824c29d4b1e6bd","bdp_wmem","Wed Mar 15 2023 14:57:53 GMT-0400 (Eastern Daylight Time)","585288","Match,No Match","","null","","","","","","<div class='trialBorder'><div class='vertical-center'><img src='img/fixation2_sml.jpg'</img></div></div>","null","FIX","","","","","","","","","","",""
"html-keyboard-response","126","313721","0.0-7.0-2.18","62fd76d3f0824c29d4b1e6bd","bdp_wmem","Wed Mar 15 2023 14:57:53 GMT-0400 (Eastern Daylight Time)","585288","Match,No Match","","null","","","","","","<div class='trialBorder'><div class='vertical-center'><img style='vertical-align:center; align:center' src='img/fixation2_sml.jpg'></div><div class='arrayDiv1'><div class='tc'><img class='introPic' src='trustrating_stim/white_mw078.bmp'><br><font color='red'><strong>Keep</strong></font></div></div></div>","null","ARRAY","1","trustrating_stim/white_mw078.bmp","0","noMatchOutcome","i","1500","","","","",""
"html-keyboard-response","127","317723","0.0-7.0-3.18","62fd76d3f0824c29d4b1e6bd","bdp_wmem","Wed Mar 15 2023 14:57:53 GMT-0400 (Eastern Daylight Time)","585288","Match,No Match","","null","","","","","","<div class='trialBorder'><div class='vertical-center'><img src='img/fixation2_sml.jpg'</img></div></div>","null","DELAY","","","","","","","","","","",""
"html-keyboard-response","128","318525","0.0-7.0-4.18","62fd76d3f0824c29d4b1e6bd","bdp_wmem","Wed Mar 15 2023 14:57:53 GMT-0400 (Eastern Daylight Time)","585288","Match,No Match","","800","","","","","","<div class='trialBorder'><div class='targDiv'><div class='tc'><img class='introPic' src='trustrating_stim/white_mw078.bmp'><br><font color='green'><strong>Share</strong></font></div></div><div class='respDiv'><div class='respDivL'>Match<br>(e)</div><div class='respDivR'>No Match<br>(i)</div></div></div>","i","TARGET","1","trustrating_stim/white_mw078.bmp","0","noMatchOutcome","i","1500","trustrating_stim/white_mw078.bmp","green","Share","REAL","1"
"html-keyboard-response","129","319029","0.0-7.0-5.18","62fd76d3f0824c29d4b1e6bd","bdp_wmem","Wed Mar 15 2023 14:57:53 GMT-0400 (Eastern Daylight Time)","585288","Match,No Match","","null","","","","","","<div class='trialBorder'><div class='vertical-center'><img src='img/correct.jpg'></div><div class='respDiv'><div class='respDivL'>Match<br>(e)</div><div class='respDivR'><font style='color:orange'>No Match<br>(i)</font></div></div></div>","null","FEEDBACK","","","","","","","","","","",""
"html-keyboard-response","130","319532","0.0-7.0-1.19","62fd76d3f0824c29d4b1e6bd","bdp_wmem","Wed Mar 15 2023 14:57:53 GMT-0400 (Eastern Daylight Time)","585288","Match,No Match","","null","","","","","","<div class='trialBorder'><div class='vertical-center'><img src='img/fixation2_sml.jpg'</img></div></div>","null","FIX","","","","","","","","","","",""
"html-keyboard-response","131","324042","0.0-7.0-2.19","62fd76d3f0824c29d4b1e6bd","bdp_wmem","Wed Mar 15 2023 14:57:53 GMT-0400 (Eastern Daylight Time)","585288","Match,No Match","","null","","","","","","<div class='trialBorder'><div class='vertical-center'><img style='vertical-align:center; align:center' src='img/fixation2_sml.jpg'></div><div class='arrayDiv3'><div class='tl'><img class='introPic' src='trustrating_stim/white_mw091.bmp'><br><font color='red'><strong>Keep</strong></font></div><div class='tc'><img class='introPic' src='trustrating_stim/white_mw085.bmp'><br><font color='green'><strong>Share</strong></font></div><div class='tr'><img class='introPic' src='trustrating_stim/white_mw078.bmp'><br><font color='red'><strong>Keep</strong></font></div></div></div>","null","ARRAY","3","trustrating_stim/white_mw091.bmp,trustrating_stim/white_mw085.bmp,trustrating_stim/white_mw078.bmp","0,1,0","noMatchFace","i","4500","","","","",""
"html-keyboard-response","132","328049","0.0-7.0-3.19","62fd76d3f0824c29d4b1e6bd","bdp_wmem","Wed Mar 15 2023 14:57:53 GMT-0400 (Eastern Daylight Time)","585288","Match,No Match","","null","","","","","","<div class='trialBorder'><div class='vertical-center'><img src='img/fixation2_sml.jpg'</img></div></div>","null","DELAY","","","","","","","","","","",""
"html-keyboard-response","133","328919","0.0-7.0-4.19","62fd76d3f0824c29d4b1e6bd","bdp_wmem","Wed Mar 15 2023 14:57:53 GMT-0400 (Eastern Daylight Time)","585288","Match,No Match","","868","","","","","","<div class='trialBorder'><div class='targDiv'><div class='tc'><img class='introPic' src='trustrating_stim/white_mw010.bmp'><br><font color='red'><strong>Keep</strong></font></div></div><div class='respDiv'><div class='respDivL'>Match<br>(e)</div><div class='respDivR'>No Match<br>(i)</div></div></div>","e","TARGET","3","trustrating_stim/white_mw091.bmp,trustrating_stim/white_mw085.bmp,trustrating_stim/white_mw078.bmp","0,1,0","noMatchFace","i","4500","trustrating_stim/white_mw010.bmp","red","Keep","REAL","0"
"html-keyboard-response","134","329423","0.0-7.0-5.19","62fd76d3f0824c29d4b1e6bd","bdp_wmem","Wed Mar 15 2023 14:57:53 GMT-0400 (Eastern Daylight Time)","585288","Match,No Match","","null","","","","","","<div class='trialBorder'><div class='vertical-center'><img src='img/error.jpg'></div><div class='respDiv'><div class='respDivL'><font style='color:orange'>Match<br>(e)</font></div><div class='respDivR'>No Match<br>(i)</div></div></div>","null","FEEDBACK","","","","","","","","","","",""
"html-keyboard-response","135","329930","0.0-7.0-1.20","62fd76d3f0824c29d4b1e6bd","bdp_wmem","Wed Mar 15 2023 14:57:53 GMT-0400 (Eastern Daylight Time)","585288","Match,No Match","","null","","","","","","<div class='trialBorder'><div class='vertical-center'><img src='img/fixation2_sml.jpg'</img></div></div>","null","FIX","","","","","","","","","","",""
"html-keyboard-response","136","332939","0.0-7.0-2.20","62fd76d3f0824c29d4b1e6bd","bdp_wmem","Wed Mar 15 2023 14:57:53 GMT-0400 (Eastern Daylight Time)","585288","Match,No Match","","null","","","","","","<div class='trialBorder'><div class='vertical-center'><img style='vertical-align:center; align:center' src='img/fixation2_sml.jpg'></div><div class='arrayDiv2'><div class='tl'><img class='introPic' src='trustrating_stim/white_mw085.bmp'><br><font color='green'><strong>Share</strong></font></div><div class='tr'><img class='introPic' src='trustrating_stim/white_mw012.bmp'><br><font color='red'><strong>Keep</strong></font></div></div></div>","null","ARRAY","2","trustrating_stim/white_mw085.bmp,trustrating_stim/white_mw012.bmp","1,0","Match","e","3000","","","","",""
"html-keyboard-response","137","336943","0.0-7.0-3.20","62fd76d3f0824c29d4b1e6bd","bdp_wmem","Wed Mar 15 2023 14:57:53 GMT-0400 (Eastern Daylight Time)","585288","Match,No Match","","null","","","","","","<div class='trialBorder'><div class='vertical-center'><img src='img/fixation2_sml.jpg'</img></div></div>","null","DELAY","","","","","","","","","","",""
"html-keyboard-response","138","338016","0.0-7.0-4.20","62fd76d3f0824c29d4b1e6bd","bdp_wmem","Wed Mar 15 2023 14:57:53 GMT-0400 (Eastern Daylight Time)","585288","Match,No Match","","1071","","","","","","<div class='trialBorder'><div class='targDiv'><div class='tc'><img class='introPic' src='trustrating_stim/white_mw012.bmp'><br><font color='red'><strong>Keep</strong></font></div></div><div class='respDiv'><div class='respDivL'>Match<br>(e)</div><div class='respDivR'>No Match<br>(i)</div></div></div>","e","TARGET","2","trustrating_stim/white_mw085.bmp,trustrating_stim/white_mw012.bmp","1,0","Match","e","3000","trustrating_stim/white_mw012.bmp","red","Keep","REAL","1"
"html-keyboard-response","139","338526","0.0-7.0-5.20","62fd76d3f0824c29d4b1e6bd","bdp_wmem","Wed Mar 15 2023 14:57:53 GMT-0400 (Eastern Daylight Time)","585288","Match,No Match","","null","","","","","","<div class='trialBorder'><div class='vertical-center'><img src='img/correct.jpg'></div><div class='respDiv'><div class='respDivL'><font style='color:orange'>Match<br>(e)</font></div><div class='respDivR'>No Match<br>(i)</div></div></div>","null","FEEDBACK","","","","","","","","","","",""
"html-keyboard-response","140","339033","0.0-7.0-1.21","62fd76d3f0824c29d4b1e6bd","bdp_wmem","Wed Mar 15 2023 14:57:53 GMT-0400 (Eastern Daylight Time)","585288","Match,No Match","","null","","","","","","<div class='trialBorder'><div class='vertical-center'><img src='img/fixation2_sml.jpg'</img></div></div>","null","FIX","","","","","","","","","","",""
"html-keyboard-response","141","342038","0.0-7.0-2.21","62fd76d3f0824c29d4b1e6bd","bdp_wmem","Wed Mar 15 2023 14:57:53 GMT-0400 (Eastern Daylight Time)","585288","Match,No Match","","null","","","","","","<div class='trialBorder'><div class='vertical-center'><img style='vertical-align:center; align:center' src='img/fixation2_sml.jpg'></div><div class='arrayDiv2'><div class='tl'><img class='introPic' src='trustrating_stim/white_mw003.bmp'><br><font color='red'><strong>Keep</strong></font></div><div class='tr'><img class='introPic' src='trustrating_stim/white_mw038.bmp'><br><font color='green'><strong>Share</strong></font></div></div></div>","null","ARRAY","2","trustrating_stim/white_mw003.bmp,trustrating_stim/white_mw038.bmp","0,1","Match","e","3000","","","","",""
"html-keyboard-response","142","346047","0.0-7.0-3.21","62fd76d3f0824c29d4b1e6bd","bdp_wmem","Wed Mar 15 2023 14:57:53 GMT-0400 (Eastern Daylight Time)","585288","Match,No Match","","null","","","","","","<div class='trialBorder'><div class='vertical-center'><img src='img/fixation2_sml.jpg'</img></div></div>","null","DELAY","","","","","","","","","","",""
"html-keyboard-response","143","346867","0.0-7.0-4.21","62fd76d3f0824c29d4b1e6bd","bdp_wmem","Wed Mar 15 2023 14:57:53 GMT-0400 (Eastern Daylight Time)","585288","Match,No Match","","817","","","","","","<div class='trialBorder'><div class='targDiv'><div class='tc'><img class='introPic' src='trustrating_stim/white_mw003.bmp'><br><font color='red'><strong>Keep</strong></font></div></div><div class='respDiv'><div class='respDivL'>Match<br>(e)</div><div class='respDivR'>No Match<br>(i)</div></div></div>","i","TARGET","2","trustrating_stim/white_mw003.bmp,trustrating_stim/white_mw038.bmp","0,1","Match","e","3000","trustrating_stim/white_mw003.bmp","red","Keep","REAL","0"
"html-keyboard-response","144","347369","0.0-7.0-5.21","62fd76d3f0824c29d4b1e6bd","bdp_wmem","Wed Mar 15 2023 14:57:53 GMT-0400 (Eastern Daylight Time)","585288","Match,No Match","","null","","","","","","<div class='trialBorder'><div class='vertical-center'><img src='img/error.jpg'></div><div class='respDiv'><div class='respDivL'>Match<br>(e)</div><div class='respDivR'><font style='color:orange'>No Match<br>(i)</font></div></div></div>","null","FEEDBACK","","","","","","","","","","",""
"html-keyboard-response","145","347876","0.0-7.0-1.22","62fd76d3f0824c29d4b1e6bd","bdp_wmem","Wed Mar 15 2023 14:57:53 GMT-0400 (Eastern Daylight Time)","585288","Match,No Match","","null","","","","","","<div class='trialBorder'><div class='vertical-center'><img src='img/fixation2_sml.jpg'</img></div></div>","null","FIX","","","","","","","","","","",""
"html-keyboard-response","146","352388","0.0-7.0-2.22","62fd76d3f0824c29d4b1e6bd","bdp_wmem","Wed Mar 15 2023 14:57:53 GMT-0400 (Eastern Daylight Time)","585288","Match,No Match","","null","","","","","","<div class='trialBorder'><div class='vertical-center'><img style='vertical-align:center; align:center' src='img/fixation2_sml.jpg'></div><div class='arrayDiv3'><div class='tl'><img class='introPic' src='trustrating_stim/white_mw003.bmp'><br><font color='red'><strong>Keep</strong></font></div><div class='tc'><img class='introPic' src='trustrating_stim/white_mw042.bmp'><br><font color='red'><strong>Keep</strong></font></div><div class='tr'><img class='introPic' src='trustrating_stim/white_mw085.bmp'><br><font color='green'><strong>Share</strong></font></div></div></div>","null","ARRAY","3","trustrating_stim/white_mw003.bmp,trustrating_stim/white_mw042.bmp,trustrating_stim/white_mw085.bmp","0,0,1","noMatchOutcome","i","4500","","","","",""
"html-keyboard-response","147","356391","0.0-7.0-3.22","62fd76d3f0824c29d4b1e6bd","bdp_wmem","Wed Mar 15 2023 14:57:53 GMT-0400 (Eastern Daylight Time)","585288","Match,No Match","","null","","","","","","<div class='trialBorder'><div class='vertical-center'><img src='img/fixation2_sml.jpg'</img></div></div>","null","DELAY","","","","","","","","","","",""
"html-keyboard-response","148","357442","0.0-7.0-4.22","62fd76d3f0824c29d4b1e6bd","bdp_wmem","Wed Mar 15 2023 14:57:53 GMT-0400 (Eastern Daylight Time)","585288","Match,No Match","","1048","","","","","","<div class='trialBorder'><div class='targDiv'><div class='tc'><img class='introPic' src='trustrating_stim/white_mw003.bmp'><br><font color='green'><strong>Share</strong></font></div></div><div class='respDiv'><div class='respDivL'>Match<br>(e)</div><div class='respDivR'>No Match<br>(i)</div></div></div>","i","TARGET","3","trustrating_stim/white_mw003.bmp,trustrating_stim/white_mw042.bmp,trustrating_stim/white_mw085.bmp","0,0,1","noMatchOutcome","i","4500","trustrating_stim/white_mw003.bmp","green","Share","REAL","1"
"html-keyboard-response","149","357950","0.0-7.0-5.22","62fd76d3f0824c29d4b1e6bd","bdp_wmem","Wed Mar 15 2023 14:57:53 GMT-0400 (Eastern Daylight Time)","585288","Match,No Match","","null","","","","","","<div class='trialBorder'><div class='vertical-center'><img src='img/correct.jpg'></div><div class='respDiv'><div class='respDivL'>Match<br>(e)</div><div class='respDivR'><font style='color:orange'>No Match<br>(i)</font></div></div></div>","null","FEEDBACK","","","","","","","","","","",""
"html-keyboard-response","150","358452","0.0-7.0-1.23","62fd76d3f0824c29d4b1e6bd","bdp_wmem","Wed Mar 15 2023 14:57:53 GMT-0400 (Eastern Daylight Time)","585288","Match,No Match","","null","","","","","","<div class='trialBorder'><div class='vertical-center'><img src='img/fixation2_sml.jpg'</img></div></div>","null","FIX","","","","","","","","","","",""
"html-keyboard-response","151","359954","0.0-7.0-2.23","62fd76d3f0824c29d4b1e6bd","bdp_wmem","Wed Mar 15 2023 14:57:53 GMT-0400 (Eastern Daylight Time)","585288","Match,No Match","","null","","","","","","<div class='trialBorder'><div class='vertical-center'><img style='vertical-align:center; align:center' src='img/fixation2_sml.jpg'></div><div class='arrayDiv1'><div class='tc'><img class='introPic' src='trustrating_stim/white_mw012.bmp'><br><font color='green'><strong>Share</strong></font></div></div></div>","null","ARRAY","1","trustrating_stim/white_mw012.bmp","1","Match","e","1500","","","","",""
"html-keyboard-response","152","363958","0.0-7.0-3.23","62fd76d3f0824c29d4b1e6bd","bdp_wmem","Wed Mar 15 2023 14:57:53 GMT-0400 (Eastern Daylight Time)","585288","Match,No Match","","null","","","","","","<div class='trialBorder'><div class='vertical-center'><img src='img/fixation2_sml.jpg'</img></div></div>","null","DELAY","","","","","","","","","","",""
"html-keyboard-response","153","364777","0.0-7.0-4.23","62fd76d3f0824c29d4b1e6bd","bdp_wmem","Wed Mar 15 2023 14:57:53 GMT-0400 (Eastern Daylight Time)","585288","Match,No Match","","817","","","","","","<div class='trialBorder'><div class='targDiv'><div class='tc'><img class='introPic' src='trustrating_stim/white_mw012.bmp'><br><font color='green'><strong>Share</strong></font></div></div><div class='respDiv'><div class='respDivL'>Match<br>(e)</div><div class='respDivR'>No Match<br>(i)</div></div></div>","e","TARGET","1","trustrating_stim/white_mw012.bmp","1","Match","e","1500","trustrating_stim/white_mw012.bmp","green","Share","REAL","1"
"html-keyboard-response","154","365282","0.0-7.0-5.23","62fd76d3f0824c29d4b1e6bd","bdp_wmem","Wed Mar 15 2023 14:57:53 GMT-0400 (Eastern Daylight Time)","585288","Match,No Match","","null","","","","","","<div class='trialBorder'><div class='vertical-center'><img src='img/correct.jpg'></div><div class='respDiv'><div class='respDivL'><font style='color:orange'>Match<br>(e)</font></div><div class='respDivR'>No Match<br>(i)</div></div></div>","null","FEEDBACK","","","","","","","","","","",""
"html-keyboard-response","155","365791","0.0-7.0-1.24","62fd76d3f0824c29d4b1e6bd","bdp_wmem","Wed Mar 15 2023 14:57:53 GMT-0400 (Eastern Daylight Time)","585288","Match,No Match","","null","","","","","","<div class='trialBorder'><div class='vertical-center'><img src='img/fixation2_sml.jpg'</img></div></div>","null","FIX","","","","","","","","","","",""
"html-keyboard-response","156","368800","0.0-7.0-2.24","62fd76d3f0824c29d4b1e6bd","bdp_wmem","Wed Mar 15 2023 14:57:53 GMT-0400 (Eastern Daylight Time)","585288","Match,No Match","","null","","","","","","<div class='trialBorder'><div class='vertical-center'><img style='vertical-align:center; align:center' src='img/fixation2_sml.jpg'></div><div class='arrayDiv2'><div class='tl'><img class='introPic' src='trustrating_stim/white_mw042.bmp'><br><font color='green'><strong>Share</strong></font></div><div class='tr'><img class='introPic' src='trustrating_stim/white_mw012.bmp'><br><font color='red'><strong>Keep</strong></font></div></div></div>","null","ARRAY","2","trustrating_stim/white_mw042.bmp,trustrating_stim/white_mw012.bmp","1,0","noMatchFace","i","3000","","","","",""
"html-keyboard-response","157","372805","0.0-7.0-3.24","62fd76d3f0824c29d4b1e6bd","bdp_wmem","Wed Mar 15 2023 14:57:53 GMT-0400 (Eastern Daylight Time)","585288","Match,No Match","","null","","","","","","<div class='trialBorder'><div class='vertical-center'><img src='img/fixation2_sml.jpg'</img></div></div>","null","DELAY","","","","","","","","","","",""
"html-keyboard-response","158","373552","0.0-7.0-4.24","62fd76d3f0824c29d4b1e6bd","bdp_wmem","Wed Mar 15 2023 14:57:53 GMT-0400 (Eastern Daylight Time)","585288","Match,No Match","","745","","","","","","<div class='trialBorder'><div class='targDiv'><div class='tc'><img class='introPic' src='trustrating_stim/white_mw040.bmp'><br><font color='green'><strong>Share</strong></font></div></div><div class='respDiv'><div class='respDivL'>Match<br>(e)</div><div class='respDivR'>No Match<br>(i)</div></div></div>","i","TARGET","2","trustrating_stim/white_mw042.bmp,trustrating_stim/white_mw012.bmp","1,0","noMatchFace","i","3000","trustrating_stim/white_mw040.bmp","green","Share","REAL","1"
"html-keyboard-response","159","374069","0.0-7.0-5.24","62fd76d3f0824c29d4b1e6bd","bdp_wmem","Wed Mar 15 2023 14:57:53 GMT-0400 (Eastern Daylight Time)","585288","Match,No Match","","null","","","","","","<div class='trialBorder'><div class='vertical-center'><img src='img/correct.jpg'></div><div class='respDiv'><div class='respDivL'>Match<br>(e)</div><div class='respDivR'><font style='color:orange'>No Match<br>(i)</font></div></div></div>","null","FEEDBACK","","","","","","","","","","",""
"html-keyboard-response","160","374580","0.0-7.0-1.25","62fd76d3f0824c29d4b1e6bd","bdp_wmem","Wed Mar 15 2023 14:57:53 GMT-0400 (Eastern Daylight Time)","585288","Match,No Match","","null","","","","","","<div class='trialBorder'><div class='vertical-center'><img src='img/fixation2_sml.jpg'</img></div></div>","null","FIX","","","","","","","","","","",""
"html-keyboard-response","161","376084","0.0-7.0-2.25","62fd76d3f0824c29d4b1e6bd","bdp_wmem","Wed Mar 15 2023 14:57:53 GMT-0400 (Eastern Daylight Time)","585288","Match,No Match","","null","","","","","","<div class='trialBorder'><div class='vertical-center'><img style='vertical-align:center; align:center' src='img/fixation2_sml.jpg'></div><div class='arrayDiv1'><div class='tc'><img class='introPic' src='trustrating_stim/white_mw040.bmp'><br><font color='red'><strong>Keep</strong></font></div></div></div>","null","ARRAY","1","trustrating_stim/white_mw040.bmp","0","Match","e","1500","","","","",""
"html-keyboard-response","162","380091","0.0-7.0-3.25","62fd76d3f0824c29d4b1e6bd","bdp_wmem","Wed Mar 15 2023 14:57:53 GMT-0400 (Eastern Daylight Time)","585288","Match,No Match","","null","","","","","","<div class='trialBorder'><div class='vertical-center'><img src='img/fixation2_sml.jpg'</img></div></div>","null","DELAY","","","","","","","","","","",""
"html-keyboard-response","163","381087","0.0-7.0-4.25","62fd76d3f0824c29d4b1e6bd","bdp_wmem","Wed Mar 15 2023 14:57:53 GMT-0400 (Eastern Daylight Time)","585288","Match,No Match","","994","","","","","","<div class='trialBorder'><div class='targDiv'><div class='tc'><img class='introPic' src='trustrating_stim/white_mw040.bmp'><br><font color='red'><strong>Keep</strong></font></div></div><div class='respDiv'><div class='respDivL'>Match<br>(e)</div><div class='respDivR'>No Match<br>(i)</div></div></div>","e","TARGET","1","trustrating_stim/white_mw040.bmp","0","Match","e","1500","trustrating_stim/white_mw040.bmp","red","Keep","REAL","1"
"html-keyboard-response","164","381601","0.0-7.0-5.25","62fd76d3f0824c29d4b1e6bd","bdp_wmem","Wed Mar 15 2023 14:57:53 GMT-0400 (Eastern Daylight Time)","585288","Match,No Match","","null","","","","","","<div class='trialBorder'><div class='vertical-center'><img src='img/correct.jpg'></div><div class='respDiv'><div class='respDivL'><font style='color:orange'>Match<br>(e)</font></div><div class='respDivR'>No Match<br>(i)</div></div></div>","null","FEEDBACK","","","","","","","","","","",""
"html-keyboard-response","165","382105","0.0-7.0-1.26","62fd76d3f0824c29d4b1e6bd","bdp_wmem","Wed Mar 15 2023 14:57:53 GMT-0400 (Eastern Daylight Time)","585288","Match,No Match","","null","","","","","","<div class='trialBorder'><div class='vertical-center'><img src='img/fixation2_sml.jpg'</img></div></div>","null","FIX","","","","","","","","","","",""
"html-keyboard-response","166","383609","0.0-7.0-2.26","62fd76d3f0824c29d4b1e6bd","bdp_wmem","Wed Mar 15 2023 14:57:53 GMT-0400 (Eastern Daylight Time)","585288","Match,No Match","","null","","","","","","<div class='trialBorder'><div class='vertical-center'><img style='vertical-align:center; align:center' src='img/fixation2_sml.jpg'></div><div class='arrayDiv1'><div class='tc'><img class='introPic' src='trustrating_stim/white_mw078.bmp'><br><font color='green'><strong>Share</strong></font></div></div></div>","null","ARRAY","1","trustrating_stim/white_mw078.bmp","1","noMatchOutcome","i","1500","","","","",""
"html-keyboard-response","167","387612","0.0-7.0-3.26","62fd76d3f0824c29d4b1e6bd","bdp_wmem","Wed Mar 15 2023 14:57:53 GMT-0400 (Eastern Daylight Time)","585288","Match,No Match","","null","","","","","","<div class='trialBorder'><div class='vertical-center'><img src='img/fixation2_sml.jpg'</img></div></div>","null","DELAY","","","","","","","","","","",""
"html-keyboard-response","168","388243","0.0-7.0-4.26","62fd76d3f0824c29d4b1e6bd","bdp_wmem","Wed Mar 15 2023 14:57:53 GMT-0400 (Eastern Daylight Time)","585288","Match,No Match","","628","","","","","","<div class='trialBorder'><div class='targDiv'><div class='tc'><img class='introPic' src='trustrating_stim/white_mw078.bmp'><br><font color='red'><strong>Keep</strong></font></div></div><div class='respDiv'><div class='respDivL'>Match<br>(e)</div><div class='respDivR'>No Match<br>(i)</div></div></div>","i","TARGET","1","trustrating_stim/white_mw078.bmp","1","noMatchOutcome","i","1500","trustrating_stim/white_mw078.bmp","red","Keep","REAL","1"
"html-keyboard-response","169","388748","0.0-7.0-5.26","62fd76d3f0824c29d4b1e6bd","bdp_wmem","Wed Mar 15 2023 14:57:53 GMT-0400 (Eastern Daylight Time)","585288","Match,No Match","","null","","","","","","<div class='trialBorder'><div class='vertical-center'><img src='img/correct.jpg'></div><div class='respDiv'><div class='respDivL'>Match<br>(e)</div><div class='respDivR'><font style='color:orange'>No Match<br>(i)</font></div></div></div>","null","FEEDBACK","","","","","","","","","","",""
"html-keyboard-response","170","389252","0.0-7.0-1.27","62fd76d3f0824c29d4b1e6bd","bdp_wmem","Wed Mar 15 2023 14:57:53 GMT-0400 (Eastern Daylight Time)","585288","Match,No Match","","null","","","","","","<div class='trialBorder'><div class='vertical-center'><img src='img/fixation2_sml.jpg'</img></div></div>","null","FIX","","","","","","","","","","",""
"html-keyboard-response","171","392256","0.0-7.0-2.27","62fd76d3f0824c29d4b1e6bd","bdp_wmem","Wed Mar 15 2023 14:57:53 GMT-0400 (Eastern Daylight Time)","585288","Match,No Match","","null","","","","","","<div class='trialBorder'><div class='vertical-center'><img style='vertical-align:center; align:center' src='img/fixation2_sml.jpg'></div><div class='arrayDiv2'><div class='tl'><img class='introPic' src='trustrating_stim/white_mw091.bmp'><br><font color='red'><strong>Keep</strong></font></div><div class='tr'><img class='introPic' src='trustrating_stim/white_mw085.bmp'><br><font color='green'><strong>Share</strong></font></div></div></div>","null","ARRAY","2","trustrating_stim/white_mw091.bmp,trustrating_stim/white_mw085.bmp","0,1","Match","e","3000","","","","",""
"html-keyboard-response","172","396266","0.0-7.0-3.27","62fd76d3f0824c29d4b1e6bd","bdp_wmem","Wed Mar 15 2023 14:57:53 GMT-0400 (Eastern Daylight Time)","585288","Match,No Match","","null","","","","","","<div class='trialBorder'><div class='vertical-center'><img src='img/fixation2_sml.jpg'</img></div></div>","null","DELAY","","","","","","","","","","",""
"html-keyboard-response","173","397764","0.0-7.0-4.27","62fd76d3f0824c29d4b1e6bd","bdp_wmem","Wed Mar 15 2023 14:57:53 GMT-0400 (Eastern Daylight Time)","585288","Match,No Match","","1495","","","","","","<div class='trialBorder'><div class='targDiv'><div class='tc'><img class='introPic' src='trustrating_stim/white_mw085.bmp'><br><font color='green'><strong>Share</strong></font></div></div><div class='respDiv'><div class='respDivL'>Match<br>(e)</div><div class='respDivR'>No Match<br>(i)</div></div></div>","e","TARGET","2","trustrating_stim/white_mw091.bmp,trustrating_stim/white_mw085.bmp","0,1","Match","e","3000","trustrating_stim/white_mw085.bmp","green","Share","REAL","1"
"html-keyboard-response","174","398270","0.0-7.0-5.27","62fd76d3f0824c29d4b1e6bd","bdp_wmem","Wed Mar 15 2023 14:57:53 GMT-0400 (Eastern Daylight Time)","585288","Match,No Match","","null","","","","","","<div class='trialBorder'><div class='vertical-center'><img src='img/correct.jpg'></div><div class='respDiv'><div class='respDivL'><font style='color:orange'>Match<br>(e)</font></div><div class='respDivR'>No Match<br>(i)</div></div></div>","null","FEEDBACK","","","","","","","","","","",""
"html-keyboard-response","175","398785","0.0-7.0-1.28","62fd76d3f0824c29d4b1e6bd","bdp_wmem","Wed Mar 15 2023 14:57:53 GMT-0400 (Eastern Daylight Time)","585288","Match,No Match","","null","","","","","","<div class='trialBorder'><div class='vertical-center'><img src='img/fixation2_sml.jpg'</img></div></div>","null","FIX","","","","","","","","","","",""
"html-keyboard-response","176","401790","0.0-7.0-2.28","62fd76d3f0824c29d4b1e6bd","bdp_wmem","Wed Mar 15 2023 14:57:53 GMT-0400 (Eastern Daylight Time)","585288","Match,No Match","","null","","","","","","<div class='trialBorder'><div class='vertical-center'><img style='vertical-align:center; align:center' src='img/fixation2_sml.jpg'></div><div class='arrayDiv2'><div class='tl'><img class='introPic' src='trustrating_stim/white_mw078.bmp'><br><font color='green'><strong>Share</strong></font></div><div class='tr'><img class='introPic' src='trustrating_stim/white_mw085.bmp'><br><font color='red'><strong>Keep</strong></font></div></div></div>","null","ARRAY","2","trustrating_stim/white_mw078.bmp,trustrating_stim/white_mw085.bmp","1,0","noMatchOutcome","i","3000","","","","",""
"html-keyboard-response","177","405802","0.0-7.0-3.28","62fd76d3f0824c29d4b1e6bd","bdp_wmem","Wed Mar 15 2023 14:57:53 GMT-0400 (Eastern Daylight Time)","585288","Match,No Match","","null","","","","","","<div class='trialBorder'><div class='vertical-center'><img src='img/fixation2_sml.jpg'</img></div></div>","null","DELAY","","","","","","","","","","",""
"html-keyboard-response","178","407425","0.0-7.0-4.28","62fd76d3f0824c29d4b1e6bd","bdp_wmem","Wed Mar 15 2023 14:57:53 GMT-0400 (Eastern Daylight Time)","585288","Match,No Match","","1620","","","","","","<div class='trialBorder'><div class='targDiv'><div class='tc'><img class='introPic' src='trustrating_stim/white_mw078.bmp'><br><font color='red'><strong>Keep</strong></font></div></div><div class='respDiv'><div class='respDivL'>Match<br>(e)</div><div class='respDivR'>No Match<br>(i)</div></div></div>","i","TARGET","2","trustrating_stim/white_mw078.bmp,trustrating_stim/white_mw085.bmp","1,0","noMatchOutcome","i","3000","trustrating_stim/white_mw078.bmp","red","Keep","REAL","1"
"html-keyboard-response","179","407935","0.0-7.0-5.28","62fd76d3f0824c29d4b1e6bd","bdp_wmem","Wed Mar 15 2023 14:57:53 GMT-0400 (Eastern Daylight Time)","585288","Match,No Match","","null","","","","","","<div class='trialBorder'><div class='vertical-center'><img src='img/correct.jpg'></div><div class='respDiv'><div class='respDivL'>Match<br>(e)</div><div class='respDivR'><font style='color:orange'>No Match<br>(i)</font></div></div></div>","null","FEEDBACK","","","","","","","","","","",""
"html-keyboard-response","180","408442","0.0-7.0-1.29","62fd76d3f0824c29d4b1e6bd","bdp_wmem","Wed Mar 15 2023 14:57:53 GMT-0400 (Eastern Daylight Time)","585288","Match,No Match","","null","","","","","","<div class='trialBorder'><div class='vertical-center'><img src='img/fixation2_sml.jpg'</img></div></div>","null","FIX","","","","","","","","","","",""
"html-keyboard-response","181","412952","0.0-7.0-2.29","62fd76d3f0824c29d4b1e6bd","bdp_wmem","Wed Mar 15 2023 14:57:53 GMT-0400 (Eastern Daylight Time)","585288","Match,No Match","","null","","","","","","<div class='trialBorder'><div class='vertical-center'><img style='vertical-align:center; align:center' src='img/fixation2_sml.jpg'></div><div class='arrayDiv3'><div class='tl'><img class='introPic' src='trustrating_stim/white_mw092.bmp'><br><font color='red'><strong>Keep</strong></font></div><div class='tc'><img class='introPic' src='trustrating_stim/white_mw010.bmp'><br><font color='red'><strong>Keep</strong></font></div><div class='tr'><img class='introPic' src='trustrating_stim/white_mw078.bmp'><br><font color='green'><strong>Share</strong></font></div></div></div>","null","ARRAY","3","trustrating_stim/white_mw092.bmp,trustrating_stim/white_mw010.bmp,trustrating_stim/white_mw078.bmp","0,0,1","Match","e","4500","","","","",""
"html-keyboard-response","182","416958","0.0-7.0-3.29","62fd76d3f0824c29d4b1e6bd","bdp_wmem","Wed Mar 15 2023 14:57:53 GMT-0400 (Eastern Daylight Time)","585288","Match,No Match","","null","","","","","","<div class='trialBorder'><div class='vertical-center'><img src='img/fixation2_sml.jpg'</img></div></div>","null","DELAY","","","","","","","","","","",""
"html-keyboard-response","183","418937","0.0-7.0-4.29","62fd76d3f0824c29d4b1e6bd","bdp_wmem","Wed Mar 15 2023 14:57:53 GMT-0400 (Eastern Daylight Time)","585288","Match,No Match","","1977","","","","","","<div class='trialBorder'><div class='targDiv'><div class='tc'><img class='introPic' src='trustrating_stim/white_mw078.bmp'><br><font color='green'><strong>Share</strong></font></div></div><div class='respDiv'><div class='respDivL'>Match<br>(e)</div><div class='respDivR'>No Match<br>(i)</div></div></div>","i","TARGET","3","trustrating_stim/white_mw092.bmp,trustrating_stim/white_mw010.bmp,trustrating_stim/white_mw078.bmp","0,0,1","Match","e","4500","trustrating_stim/white_mw078.bmp","green","Share","REAL","0"
"html-keyboard-response","184","419449","0.0-7.0-5.29","62fd76d3f0824c29d4b1e6bd","bdp_wmem","Wed Mar 15 2023 14:57:53 GMT-0400 (Eastern Daylight Time)","585288","Match,No Match","","null","","","","","","<div class='trialBorder'><div class='vertical-center'><img src='img/error.jpg'></div><div class='respDiv'><div class='respDivL'>Match<br>(e)</div><div class='respDivR'><font style='color:orange'>No Match<br>(i)</font></div></div></div>","null","FEEDBACK","","","","","","","","","","",""
"html-keyboard-response","185","419957","0.0-7.0-1.30","62fd76d3f0824c29d4b1e6bd","bdp_wmem","Wed Mar 15 2023 14:57:53 GMT-0400 (Eastern Daylight Time)","585288","Match,No Match","","null","","","","","","<div class='trialBorder'><div class='vertical-center'><img src='img/fixation2_sml.jpg'</img></div></div>","null","FIX","","","","","","","","","","",""
"html-keyboard-response","186","422964","0.0-7.0-2.30","62fd76d3f0824c29d4b1e6bd","bdp_wmem","Wed Mar 15 2023 14:57:53 GMT-0400 (Eastern Daylight Time)","585288","Match,No Match","","null","","","","","","<div class='trialBorder'><div class='vertical-center'><img style='vertical-align:center; align:center' src='img/fixation2_sml.jpg'></div><div class='arrayDiv2'><div class='tl'><img class='introPic' src='trustrating_stim/white_mw012.bmp'><br><font color='red'><strong>Keep</strong></font></div><div class='tr'><img class='introPic' src='trustrating_stim/white_mw078.bmp'><br><font color='green'><strong>Share</strong></font></div></div></div>","null","ARRAY","2","trustrating_stim/white_mw012.bmp,trustrating_stim/white_mw078.bmp","0,1","noMatchOutcome","i","3000","","","","",""
"html-keyboard-response","187","426973","0.0-7.0-3.30","62fd76d3f0824c29d4b1e6bd","bdp_wmem","Wed Mar 15 2023 14:57:53 GMT-0400 (Eastern Daylight Time)","585288","Match,No Match","","null","","","","","","<div class='trialBorder'><div class='vertical-center'><img src='img/fixation2_sml.jpg'</img></div></div>","null","DELAY","","","","","","","","","","",""
