"trial_type","trial_index","time_elapsed","internal_node_id","subject_id","task","startTime","totalTime","labels","view_history","rt","event","trial","time","trialtype","success","stimulus","key_press","stimType","arraySize","arrayFaces","arrayOutcomes","matchType","corrResp","arrayDur","targFace","targCol","targOutcome","trialType","corr"
"pavlovia","0","2","0.0-0.0","5dd03c5486c8861300974102","bdp_wmem","Tue Mar 14 2023 14:18:12 GMT-0400 (Eastern Daylight Time)","608623","Match,No Match","","","","","","","","","","","","","","","","","","","","",""
"instructions","1","3033","0.0-1.0","5dd03c5486c8861300974102","bdp_wmem","Tue Mar 14 2023 14:18:12 GMT-0400 (Eastern Daylight Time)","608623","Match,No Match","[{""page_index"":0,""viewing_time"":3031}]","3031","","","","","","","","","","","","","","","","","","",""
"","","","","5dd03c5486c8861300974102","bdp_wmem","Tue Mar 14 2023 14:18:12 GMT-0400 (Eastern Daylight Time)","608623","Match,No Match","","","fullscreenenter","2","5191","fullscreenenter","","","","","","","","","","","","","","",""
"fullscreen","2","6180","0.0-2.0","5dd03c5486c8861300974102","bdp_wmem","Tue Mar 14 2023 14:18:12 GMT-0400 (Eastern Daylight Time)","608623","Match,No Match","","","","","","","true","","","","","","","","","","","","","",""
"instructions","3","81344","0.0-4.0","5dd03c5486c8861300974102","bdp_wmem","Tue Mar 14 2023 14:18:12 GMT-0400 (Eastern Daylight Time)","608623","Match,No Match","[{""page_index"":0,""viewing_time"":16867},{""page_index"":1,""viewing_time"":38896},{""page_index"":2,""viewing_time"":7288},{""page_index"":3,""viewing_time"":5192},{""page_index"":4,""viewing_time"":6920}]","75163","","","","","","","","","","","","","","","","","","",""
"html-keyboard-response","4","81845","0.0-5.0-1.0","5dd03c5486c8861300974102","bdp_wmem","Tue Mar 14 2023 14:18:12 GMT-0400 (Eastern Daylight Time)","608623","Match,No Match","","null","","","","","","<div class='trialBorder'><div class='vertical-center'><img src='img/fixation2_sml.jpg'</img></div></div>","null","FIX","","","","","","","","","","",""
"html-keyboard-response","5","84846","0.0-5.0-2.0","5dd03c5486c8861300974102","bdp_wmem","Tue Mar 14 2023 14:18:12 GMT-0400 (Eastern Daylight Time)","608623","Match,No Match","","null","","","","","","<div class='trialBorder'><div class='vertical-center'><img style='vertical-align:center; align:center' src='img/fixation2_sml.jpg'></div><div class='arrayDiv2'><div class='tl'><img class='introPic' src='trustrating_stim/white_mw085.bmp'><br><font color='green'><strong>Share</strong></font></div><div class='tr'><img class='introPic' src='trustrating_stim/white_mw038.bmp'><br><font color='red'><strong>Keep</strong></font></div></div></div>","null","ARRAY","2","trustrating_stim/white_mw085.bmp,trustrating_stim/white_mw038.bmp","1,0","Match","e","3000","","","","",""
"html-keyboard-response","6","88847","0.0-5.0-3.0","5dd03c5486c8861300974102","bdp_wmem","Tue Mar 14 2023 14:18:12 GMT-0400 (Eastern Daylight Time)","608623","Match,No Match","","null","","","","","","<div class='trialBorder'><div class='vertical-center'><img src='img/fixation2_sml.jpg'</img></div></div>","null","DELAY","","","","","","","","","","",""
"html-keyboard-response","7","92569","0.0-5.0-4.0","5dd03c5486c8861300974102","bdp_wmem","Tue Mar 14 2023 14:18:12 GMT-0400 (Eastern Daylight Time)","608623","Match,No Match","","3720","","","","","","<div class='trialBorder'><div class='targDiv'><div class='tc'><img class='introPic' src='trustrating_stim/white_mw038.bmp'><br><font color='red'><strong>Keep</strong></font></div></div><div class='respDiv'><div class='respDivL'>Match<br>(e)</div><div class='respDivR'>No Match<br>(i)</div></div></div>","e","TARGET","2","trustrating_stim/white_mw085.bmp,trustrating_stim/white_mw038.bmp","1,0","Match","e","3000","trustrating_stim/white_mw038.bmp","red","Keep","PRACTICE","1"
"html-keyboard-response","8","93070","0.0-5.0-5.0","5dd03c5486c8861300974102","bdp_wmem","Tue Mar 14 2023 14:18:12 GMT-0400 (Eastern Daylight Time)","608623","Match,No Match","","null","","","","","","<div class='trialBorder'><div class='vertical-center'><img src='img/correct.jpg'></div><div class='respDiv'><div class='respDivL'><font style='color:orange'>Match<br>(e)</font></div><div class='respDivR'>No Match<br>(i)</div></div></div>","null","FEEDBACK","","","","","","","","","","",""
"html-keyboard-response","9","93572","0.0-5.0-1.1","5dd03c5486c8861300974102","bdp_wmem","Tue Mar 14 2023 14:18:12 GMT-0400 (Eastern Daylight Time)","608623","Match,No Match","","null","","","","","","<div class='trialBorder'><div class='vertical-center'><img src='img/fixation2_sml.jpg'</img></div></div>","null","FIX","","","","","","","","","","",""
"html-keyboard-response","10","98074","0.0-5.0-2.1","5dd03c5486c8861300974102","bdp_wmem","Tue Mar 14 2023 14:18:12 GMT-0400 (Eastern Daylight Time)","608623","Match,No Match","","null","","","","","","<div class='trialBorder'><div class='vertical-center'><img style='vertical-align:center; align:center' src='img/fixation2_sml.jpg'></div><div class='arrayDiv3'><div class='tl'><img class='introPic' src='trustrating_stim/white_mw078.bmp'><br><font color='green'><strong>Share</strong></font></div><div class='tc'><img class='introPic' src='trustrating_stim/white_mw091.bmp'><br><font color='red'><strong>Keep</strong></font></div><div class='tr'><img class='introPic' src='trustrating_stim/white_mw013.bmp'><br><font color='red'><strong>Keep</strong></font></div></div></div>","null","ARRAY","3","trustrating_stim/white_mw078.bmp,trustrating_stim/white_mw091.bmp,trustrating_stim/white_mw013.bmp","1,0,0","Match","e","4500","","","","",""
"html-keyboard-response","11","102075","0.0-5.0-3.1","5dd03c5486c8861300974102","bdp_wmem","Tue Mar 14 2023 14:18:12 GMT-0400 (Eastern Daylight Time)","608623","Match,No Match","","null","","","","","","<div class='trialBorder'><div class='vertical-center'><img src='img/fixation2_sml.jpg'</img></div></div>","null","DELAY","","","","","","","","","","",""
"html-keyboard-response","12","103873","0.0-5.0-4.1","5dd03c5486c8861300974102","bdp_wmem","Tue Mar 14 2023 14:18:12 GMT-0400 (Eastern Daylight Time)","608623","Match,No Match","","1797","","","","","","<div class='trialBorder'><div class='targDiv'><div class='tc'><img class='introPic' src='trustrating_stim/white_mw091.bmp'><br><font color='red'><strong>Keep</strong></font></div></div><div class='respDiv'><div class='respDivL'>Match<br>(e)</div><div class='respDivR'>No Match<br>(i)</div></div></div>","i","TARGET","3","trustrating_stim/white_mw078.bmp,trustrating_stim/white_mw091.bmp,trustrating_stim/white_mw013.bmp","1,0,0","Match","e","4500","trustrating_stim/white_mw091.bmp","red","Keep","PRACTICE","0"
"html-keyboard-response","13","104373","0.0-5.0-5.1","5dd03c5486c8861300974102","bdp_wmem","Tue Mar 14 2023 14:18:12 GMT-0400 (Eastern Daylight Time)","608623","Match,No Match","","null","","","","","","<div class='trialBorder'><div class='vertical-center'><img src='img/error.jpg'></div><div class='respDiv'><div class='respDivL'>Match<br>(e)</div><div class='respDivR'><font style='color:orange'>No Match<br>(i)</font></div></div></div>","null","FEEDBACK","","","","","","","","","","",""
"html-keyboard-response","14","104875","0.0-5.0-1.2","5dd03c5486c8861300974102","bdp_wmem","Tue Mar 14 2023 14:18:12 GMT-0400 (Eastern Daylight Time)","608623","Match,No Match","","null","","","","","","<div class='trialBorder'><div class='vertical-center'><img src='img/fixation2_sml.jpg'</img></div></div>","null","FIX","","","","","","","","","","",""
"html-keyboard-response","15","107876","0.0-5.0-2.2","5dd03c5486c8861300974102","bdp_wmem","Tue Mar 14 2023 14:18:12 GMT-0400 (Eastern Daylight Time)","608623","Match,No Match","","null","","","","","","<div class='trialBorder'><div class='vertical-center'><img style='vertical-align:center; align:center' src='img/fixation2_sml.jpg'></div><div class='arrayDiv2'><div class='tl'><img class='introPic' src='trustrating_stim/white_mw040.bmp'><br><font color='red'><strong>Keep</strong></font></div><div class='tr'><img class='introPic' src='trustrating_stim/white_mw070.bmp'><br><font color='green'><strong>Share</strong></font></div></div></div>","null","ARRAY","2","trustrating_stim/white_mw040.bmp,trustrating_stim/white_mw070.bmp","0,1","noMatchFace","i","3000","","","","",""
"html-keyboard-response","16","111877","0.0-5.0-3.2","5dd03c5486c8861300974102","bdp_wmem","Tue Mar 14 2023 14:18:12 GMT-0400 (Eastern Daylight Time)","608623","Match,No Match","","null","","","","","","<div class='trialBorder'><div class='vertical-center'><img src='img/fixation2_sml.jpg'</img></div></div>","null","DELAY","","","","","","","","","","",""
"html-keyboard-response","17","113504","0.0-5.0-4.2","5dd03c5486c8861300974102","bdp_wmem","Tue Mar 14 2023 14:18:12 GMT-0400 (Eastern Daylight Time)","608623","Match,No Match","","1626","","","","","","<div class='trialBorder'><div class='targDiv'><div class='tc'><img class='introPic' src='trustrating_stim/white_mw003.bmp'><br><font color='green'><strong>Share</strong></font></div></div><div class='respDiv'><div class='respDivL'>Match<br>(e)</div><div class='respDivR'>No Match<br>(i)</div></div></div>","e","TARGET","2","trustrating_stim/white_mw040.bmp,trustrating_stim/white_mw070.bmp","0,1","noMatchFace","i","3000","trustrating_stim/white_mw003.bmp","green","Share","PRACTICE","0"
"html-keyboard-response","18","114006","0.0-5.0-5.2","5dd03c5486c8861300974102","bdp_wmem","Tue Mar 14 2023 14:18:12 GMT-0400 (Eastern Daylight Time)","608623","Match,No Match","","null","","","","","","<div class='trialBorder'><div class='vertical-center'><img src='img/error.jpg'></div><div class='respDiv'><div class='respDivL'><font style='color:orange'>Match<br>(e)</font></div><div class='respDivR'>No Match<br>(i)</div></div></div>","null","FEEDBACK","","","","","","","","","","",""
"html-keyboard-response","19","114507","0.0-5.0-1.3","5dd03c5486c8861300974102","bdp_wmem","Tue Mar 14 2023 14:18:12 GMT-0400 (Eastern Daylight Time)","608623","Match,No Match","","null","","","","","","<div class='trialBorder'><div class='vertical-center'><img src='img/fixation2_sml.jpg'</img></div></div>","null","FIX","","","","","","","","","","",""
"html-keyboard-response","20","116008","0.0-5.0-2.3","5dd03c5486c8861300974102","bdp_wmem","Tue Mar 14 2023 14:18:12 GMT-0400 (Eastern Daylight Time)","608623","Match,No Match","","null","","","","","","<div class='trialBorder'><div class='vertical-center'><img style='vertical-align:center; align:center' src='img/fixation2_sml.jpg'></div><div class='arrayDiv1'><div class='tc'><img class='introPic' src='trustrating_stim/white_mw042.bmp'><br><font color='green'><strong>Share</strong></font></div></div></div>","null","ARRAY","1","trustrating_stim/white_mw042.bmp","1","Match","e","1500","","","","",""
"html-keyboard-response","21","120009","0.0-5.0-3.3","5dd03c5486c8861300974102","bdp_wmem","Tue Mar 14 2023 14:18:12 GMT-0400 (Eastern Daylight Time)","608623","Match,No Match","","null","","","","","","<div class='trialBorder'><div class='vertical-center'><img src='img/fixation2_sml.jpg'</img></div></div>","null","DELAY","","","","","","","","","","",""
"html-keyboard-response","22","121313","0.0-5.0-4.3","5dd03c5486c8861300974102","bdp_wmem","Tue Mar 14 2023 14:18:12 GMT-0400 (Eastern Daylight Time)","608623","Match,No Match","","1302","","","","","","<div class='trialBorder'><div class='targDiv'><div class='tc'><img class='introPic' src='trustrating_stim/white_mw042.bmp'><br><font color='green'><strong>Share</strong></font></div></div><div class='respDiv'><div class='respDivL'>Match<br>(e)</div><div class='respDivR'>No Match<br>(i)</div></div></div>","e","TARGET","1","trustrating_stim/white_mw042.bmp","1","Match","e","1500","trustrating_stim/white_mw042.bmp","green","Share","PRACTICE","1"
"html-keyboard-response","23","121813","0.0-5.0-5.3","5dd03c5486c8861300974102","bdp_wmem","Tue Mar 14 2023 14:18:12 GMT-0400 (Eastern Daylight Time)","608623","Match,No Match","","null","","","","","","<div class='trialBorder'><div class='vertical-center'><img src='img/correct.jpg'></div><div class='respDiv'><div class='respDivL'><font style='color:orange'>Match<br>(e)</font></div><div class='respDivR'>No Match<br>(i)</div></div></div>","null","FEEDBACK","","","","","","","","","","",""
"html-keyboard-response","24","122314","0.0-5.0-1.4","5dd03c5486c8861300974102","bdp_wmem","Tue Mar 14 2023 14:18:12 GMT-0400 (Eastern Daylight Time)","608623","Match,No Match","","null","","","","","","<div class='trialBorder'><div class='vertical-center'><img src='img/fixation2_sml.jpg'</img></div></div>","null","FIX","","","","","","","","","","",""
"html-keyboard-response","25","126815","0.0-5.0-2.4","5dd03c5486c8861300974102","bdp_wmem","Tue Mar 14 2023 14:18:12 GMT-0400 (Eastern Daylight Time)","608623","Match,No Match","","null","","","","","","<div class='trialBorder'><div class='vertical-center'><img style='vertical-align:center; align:center' src='img/fixation2_sml.jpg'></div><div class='arrayDiv3'><div class='tl'><img class='introPic' src='trustrating_stim/white_mw091.bmp'><br><font color='red'><strong>Keep</strong></font></div><div class='tc'><img class='introPic' src='trustrating_stim/white_mw003.bmp'><br><font color='green'><strong>Share</strong></font></div><div class='tr'><img class='introPic' src='trustrating_stim/white_mw013.bmp'><br><font color='green'><strong>Share</strong></font></div></div></div>","null","ARRAY","3","trustrating_stim/white_mw091.bmp,trustrating_stim/white_mw003.bmp,trustrating_stim/white_mw013.bmp","0,1,1","noMatchOutcome","i","4500","","","","",""
"html-keyboard-response","26","130822","0.0-5.0-3.4","5dd03c5486c8861300974102","bdp_wmem","Tue Mar 14 2023 14:18:12 GMT-0400 (Eastern Daylight Time)","608623","Match,No Match","","null","","","","","","<div class='trialBorder'><div class='vertical-center'><img src='img/fixation2_sml.jpg'</img></div></div>","null","DELAY","","","","","","","","","","",""
"html-keyboard-response","27","132761","0.0-5.0-4.4","5dd03c5486c8861300974102","bdp_wmem","Tue Mar 14 2023 14:18:12 GMT-0400 (Eastern Daylight Time)","608623","Match,No Match","","1937","","","","","","<div class='trialBorder'><div class='targDiv'><div class='tc'><img class='introPic' src='trustrating_stim/white_mw003.bmp'><br><font color='red'><strong>Keep</strong></font></div></div><div class='respDiv'><div class='respDivL'>Match<br>(e)</div><div class='respDivR'>No Match<br>(i)</div></div></div>","i","TARGET","3","trustrating_stim/white_mw091.bmp,trustrating_stim/white_mw003.bmp,trustrating_stim/white_mw013.bmp","0,1,1","noMatchOutcome","i","4500","trustrating_stim/white_mw003.bmp","red","Keep","PRACTICE","1"
"html-keyboard-response","28","133261","0.0-5.0-5.4","5dd03c5486c8861300974102","bdp_wmem","Tue Mar 14 2023 14:18:12 GMT-0400 (Eastern Daylight Time)","608623","Match,No Match","","null","","","","","","<div class='trialBorder'><div class='vertical-center'><img src='img/correct.jpg'></div><div class='respDiv'><div class='respDivL'>Match<br>(e)</div><div class='respDivR'><font style='color:orange'>No Match<br>(i)</font></div></div></div>","null","FEEDBACK","","","","","","","","","","",""
"html-keyboard-response","29","133762","0.0-5.0-1.5","5dd03c5486c8861300974102","bdp_wmem","Tue Mar 14 2023 14:18:12 GMT-0400 (Eastern Daylight Time)","608623","Match,No Match","","null","","","","","","<div class='trialBorder'><div class='vertical-center'><img src='img/fixation2_sml.jpg'</img></div></div>","null","FIX","","","","","","","","","","",""
"html-keyboard-response","30","135264","0.0-5.0-2.5","5dd03c5486c8861300974102","bdp_wmem","Tue Mar 14 2023 14:18:12 GMT-0400 (Eastern Daylight Time)","608623","Match,No Match","","null","","","","","","<div class='trialBorder'><div class='vertical-center'><img style='vertical-align:center; align:center' src='img/fixation2_sml.jpg'></div><div class='arrayDiv1'><div class='tc'><img class='introPic' src='trustrating_stim/white_mw012.bmp'><br><font color='red'><strong>Keep</strong></font></div></div></div>","null","ARRAY","1","trustrating_stim/white_mw012.bmp","0","noMatchFace","i","1500","","","","",""
"html-keyboard-response","31","139265","0.0-5.0-3.5","5dd03c5486c8861300974102","bdp_wmem","Tue Mar 14 2023 14:18:12 GMT-0400 (Eastern Daylight Time)","608623","Match,No Match","","null","","","","","","<div class='trialBorder'><div class='vertical-center'><img src='img/fixation2_sml.jpg'</img></div></div>","null","DELAY","","","","","","","","","","",""
"html-keyboard-response","32","141832","0.0-5.0-4.5","5dd03c5486c8861300974102","bdp_wmem","Tue Mar 14 2023 14:18:12 GMT-0400 (Eastern Daylight Time)","608623","Match,No Match","","2566","","","","","","<div class='trialBorder'><div class='targDiv'><div class='tc'><img class='introPic' src='trustrating_stim/white_mw038.bmp'><br><font color='red'><strong>Keep</strong></font></div></div><div class='respDiv'><div class='respDivL'>Match<br>(e)</div><div class='respDivR'>No Match<br>(i)</div></div></div>","i","TARGET","1","trustrating_stim/white_mw012.bmp","0","noMatchFace","i","1500","trustrating_stim/white_mw038.bmp","red","Keep","PRACTICE","1"
"html-keyboard-response","33","142333","0.0-5.0-5.5","5dd03c5486c8861300974102","bdp_wmem","Tue Mar 14 2023 14:18:12 GMT-0400 (Eastern Daylight Time)","608623","Match,No Match","","null","","","","","","<div class='trialBorder'><div class='vertical-center'><img src='img/correct.jpg'></div><div class='respDiv'><div class='respDivL'>Match<br>(e)</div><div class='respDivR'><font style='color:orange'>No Match<br>(i)</font></div></div></div>","null","FEEDBACK","","","","","","","","","","",""
"instructions","34","145569","0.0-6.0","5dd03c5486c8861300974102","bdp_wmem","Tue Mar 14 2023 14:18:12 GMT-0400 (Eastern Daylight Time)","608623","Match,No Match","[{""page_index"":0,""viewing_time"":3235}]","3235","","","","","","","","","","","","","","","","","","",""
"html-keyboard-response","35","146070","0.0-7.0-1.0","5dd03c5486c8861300974102","bdp_wmem","Tue Mar 14 2023 14:18:12 GMT-0400 (Eastern Daylight Time)","608623","Match,No Match","","null","","","","","","<div class='trialBorder'><div class='vertical-center'><img src='img/fixation2_sml.jpg'</img></div></div>","null","FIX","","","","","","","","","","",""
"html-keyboard-response","36","149071","0.0-7.0-2.0","5dd03c5486c8861300974102","bdp_wmem","Tue Mar 14 2023 14:18:12 GMT-0400 (Eastern Daylight Time)","608623","Match,No Match","","null","","","","","","<div class='trialBorder'><div class='vertical-center'><img style='vertical-align:center; align:center' src='img/fixation2_sml.jpg'></div><div class='arrayDiv2'><div class='tl'><img class='introPic' src='trustrating_stim/white_mw013.bmp'><br><font color='red'><strong>Keep</strong></font></div><div class='tr'><img class='introPic' src='trustrating_stim/white_mw070.bmp'><br><font color='green'><strong>Share</strong></font></div></div></div>","null","ARRAY","2","trustrating_stim/white_mw013.bmp,trustrating_stim/white_mw070.bmp","0,1","noMatchFace","i","3000","","","","",""
"html-keyboard-response","37","153072","0.0-7.0-3.0","5dd03c5486c8861300974102","bdp_wmem","Tue Mar 14 2023 14:18:12 GMT-0400 (Eastern Daylight Time)","608623","Match,No Match","","null","","","","","","<div class='trialBorder'><div class='vertical-center'><img src='img/fixation2_sml.jpg'</img></div></div>","null","DELAY","","","","","","","","","","",""
"html-keyboard-response","38","154784","0.0-7.0-4.0","5dd03c5486c8861300974102","bdp_wmem","Tue Mar 14 2023 14:18:12 GMT-0400 (Eastern Daylight Time)","608623","Match,No Match","","1711","","","","","","<div class='trialBorder'><div class='targDiv'><div class='tc'><img class='introPic' src='trustrating_stim/white_mw010.bmp'><br><font color='red'><strong>Keep</strong></font></div></div><div class='respDiv'><div class='respDivL'>Match<br>(e)</div><div class='respDivR'>No Match<br>(i)</div></div></div>","i","TARGET","2","trustrating_stim/white_mw013.bmp,trustrating_stim/white_mw070.bmp","0,1","noMatchFace","i","3000","trustrating_stim/white_mw010.bmp","red","Keep","REAL","1"
"html-keyboard-response","39","155285","0.0-7.0-5.0","5dd03c5486c8861300974102","bdp_wmem","Tue Mar 14 2023 14:18:12 GMT-0400 (Eastern Daylight Time)","608623","Match,No Match","","null","","","","","","<div class='trialBorder'><div class='vertical-center'><img src='img/correct.jpg'></div><div class='respDiv'><div class='respDivL'>Match<br>(e)</div><div class='respDivR'><font style='color:orange'>No Match<br>(i)</font></div></div></div>","null","FEEDBACK","","","","","","","","","","",""
"html-keyboard-response","40","155786","0.0-7.0-1.1","5dd03c5486c8861300974102","bdp_wmem","Tue Mar 14 2023 14:18:12 GMT-0400 (Eastern Daylight Time)","608623","Match,No Match","","null","","","","","","<div class='trialBorder'><div class='vertical-center'><img src='img/fixation2_sml.jpg'</img></div></div>","null","FIX","","","","","","","","","","",""
"html-keyboard-response","41","160287","0.0-7.0-2.1","5dd03c5486c8861300974102","bdp_wmem","Tue Mar 14 2023 14:18:12 GMT-0400 (Eastern Daylight Time)","608623","Match,No Match","","null","","","","","","<div class='trialBorder'><div class='vertical-center'><img style='vertical-align:center; align:center' src='img/fixation2_sml.jpg'></div><div class='arrayDiv3'><div class='tl'><img class='introPic' src='trustrating_stim/white_mw038.bmp'><br><font color='green'><strong>Share</strong></font></div><div class='tc'><img class='introPic' src='trustrating_stim/white_mw070.bmp'><br><font color='red'><strong>Keep</strong></font></div><div class='tr'><img class='introPic' src='trustrating_stim/white_mw085.bmp'><br><font color='red'><strong>Keep</strong></font></div></div></div>","null","ARRAY","3","trustrating_stim/white_mw038.bmp,trustrating_stim/white_mw070.bmp,trustrating_stim/white_mw085.bmp","1,0,0","Match","e","4500","","","","",""
"html-keyboard-response","42","164289","0.0-7.0-3.1","5dd03c5486c8861300974102","bdp_wmem","Tue Mar 14 2023 14:18:12 GMT-0400 (Eastern Daylight Time)","608623","Match,No Match","","null","","","","","","<div class='trialBorder'><div class='vertical-center'><img src='img/fixation2_sml.jpg'</img></div></div>","null","DELAY","","","","","","","","","","",""
"html-keyboard-response","43","167129","0.0-7.0-4.1","5dd03c5486c8861300974102","bdp_wmem","Tue Mar 14 2023 14:18:12 GMT-0400 (Eastern Daylight Time)","608623","Match,No Match","","2840","","","","","","<div class='trialBorder'><div class='targDiv'><div class='tc'><img class='introPic' src='trustrating_stim/white_mw070.bmp'><br><font color='red'><strong>Keep</strong></font></div></div><div class='respDiv'><div class='respDivL'>Match<br>(e)</div><div class='respDivR'>No Match<br>(i)</div></div></div>","e","TARGET","3","trustrating_stim/white_mw038.bmp,trustrating_stim/white_mw070.bmp,trustrating_stim/white_mw085.bmp","1,0,0","Match","e","4500","trustrating_stim/white_mw070.bmp","red","Keep","REAL","1"
"html-keyboard-response","44","167630","0.0-7.0-5.1","5dd03c5486c8861300974102","bdp_wmem","Tue Mar 14 2023 14:18:12 GMT-0400 (Eastern Daylight Time)","608623","Match,No Match","","null","","","","","","<div class='trialBorder'><div class='vertical-center'><img src='img/correct.jpg'></div><div class='respDiv'><div class='respDivL'><font style='color:orange'>Match<br>(e)</font></div><div class='respDivR'>No Match<br>(i)</div></div></div>","null","FEEDBACK","","","","","","","","","","",""
"html-keyboard-response","45","168130","0.0-7.0-1.2","5dd03c5486c8861300974102","bdp_wmem","Tue Mar 14 2023 14:18:12 GMT-0400 (Eastern Daylight Time)","608623","Match,No Match","","null","","","","","","<div class='trialBorder'><div class='vertical-center'><img src='img/fixation2_sml.jpg'</img></div></div>","null","FIX","","","","","","","","","","",""
"html-keyboard-response","46","172632","0.0-7.0-2.2","5dd03c5486c8861300974102","bdp_wmem","Tue Mar 14 2023 14:18:12 GMT-0400 (Eastern Daylight Time)","608623","Match,No Match","","null","","","","","","<div class='trialBorder'><div class='vertical-center'><img style='vertical-align:center; align:center' src='img/fixation2_sml.jpg'></div><div class='arrayDiv3'><div class='tl'><img class='introPic' src='trustrating_stim/white_mw010.bmp'><br><font color='red'><strong>Keep</strong></font></div><div class='tc'><img class='introPic' src='trustrating_stim/white_mw091.bmp'><br><font color='red'><strong>Keep</strong></font></div><div class='tr'><img class='introPic' src='trustrating_stim/white_mw070.bmp'><br><font color='green'><strong>Share</strong></font></div></div></div>","null","ARRAY","3","trustrating_stim/white_mw010.bmp,trustrating_stim/white_mw091.bmp,trustrating_stim/white_mw070.bmp","0,0,1","noMatchFace","i","4500","","","","",""
"html-keyboard-response","47","176634","0.0-7.0-3.2","5dd03c5486c8861300974102","bdp_wmem","Tue Mar 14 2023 14:18:12 GMT-0400 (Eastern Daylight Time)","608623","Match,No Match","","null","","","","","","<div class='trialBorder'><div class='vertical-center'><img src='img/fixation2_sml.jpg'</img></div></div>","null","DELAY","","","","","","","","","","",""
"html-keyboard-response","48","178321","0.0-7.0-4.2","5dd03c5486c8861300974102","bdp_wmem","Tue Mar 14 2023 14:18:12 GMT-0400 (Eastern Daylight Time)","608623","Match,No Match","","1687","","","","","","<div class='trialBorder'><div class='targDiv'><div class='tc'><img class='introPic' src='trustrating_stim/white_mw038.bmp'><br><font color='red'><strong>Keep</strong></font></div></div><div class='respDiv'><div class='respDivL'>Match<br>(e)</div><div class='respDivR'>No Match<br>(i)</div></div></div>","i","TARGET","3","trustrating_stim/white_mw010.bmp,trustrating_stim/white_mw091.bmp,trustrating_stim/white_mw070.bmp","0,0,1","noMatchFace","i","4500","trustrating_stim/white_mw038.bmp","red","Keep","REAL","1"
"html-keyboard-response","49","178822","0.0-7.0-5.2","5dd03c5486c8861300974102","bdp_wmem","Tue Mar 14 2023 14:18:12 GMT-0400 (Eastern Daylight Time)","608623","Match,No Match","","null","","","","","","<div class='trialBorder'><div class='vertical-center'><img src='img/correct.jpg'></div><div class='respDiv'><div class='respDivL'>Match<br>(e)</div><div class='respDivR'><font style='color:orange'>No Match<br>(i)</font></div></div></div>","null","FEEDBACK","","","","","","","","","","",""
"html-keyboard-response","50","179323","0.0-7.0-1.3","5dd03c5486c8861300974102","bdp_wmem","Tue Mar 14 2023 14:18:12 GMT-0400 (Eastern Daylight Time)","608623","Match,No Match","","null","","","","","","<div class='trialBorder'><div class='vertical-center'><img src='img/fixation2_sml.jpg'</img></div></div>","null","FIX","","","","","","","","","","",""
"html-keyboard-response","51","180824","0.0-7.0-2.3","5dd03c5486c8861300974102","bdp_wmem","Tue Mar 14 2023 14:18:12 GMT-0400 (Eastern Daylight Time)","608623","Match,No Match","","null","","","","","","<div class='trialBorder'><div class='vertical-center'><img style='vertical-align:center; align:center' src='img/fixation2_sml.jpg'></div><div class='arrayDiv1'><div class='tc'><img class='introPic' src='trustrating_stim/white_mw092.bmp'><br><font color='red'><strong>Keep</strong></font></div></div></div>","null","ARRAY","1","trustrating_stim/white_mw092.bmp","0","Match","e","1500","","","","",""
"html-keyboard-response","52","184825","0.0-7.0-3.3","5dd03c5486c8861300974102","bdp_wmem","Tue Mar 14 2023 14:18:12 GMT-0400 (Eastern Daylight Time)","608623","Match,No Match","","null","","","","","","<div class='trialBorder'><div class='vertical-center'><img src='img/fixation2_sml.jpg'</img></div></div>","null","DELAY","","","","","","","","","","",""
"html-keyboard-response","53","185808","0.0-7.0-4.3","5dd03c5486c8861300974102","bdp_wmem","Tue Mar 14 2023 14:18:12 GMT-0400 (Eastern Daylight Time)","608623","Match,No Match","","982","","","","","","<div class='trialBorder'><div class='targDiv'><div class='tc'><img class='introPic' src='trustrating_stim/white_mw092.bmp'><br><font color='red'><strong>Keep</strong></font></div></div><div class='respDiv'><div class='respDivL'>Match<br>(e)</div><div class='respDivR'>No Match<br>(i)</div></div></div>","e","TARGET","1","trustrating_stim/white_mw092.bmp","0","Match","e","1500","trustrating_stim/white_mw092.bmp","red","Keep","REAL","1"
"html-keyboard-response","54","186309","0.0-7.0-5.3","5dd03c5486c8861300974102","bdp_wmem","Tue Mar 14 2023 14:18:12 GMT-0400 (Eastern Daylight Time)","608623","Match,No Match","","null","","","","","","<div class='trialBorder'><div class='vertical-center'><img src='img/correct.jpg'></div><div class='respDiv'><div class='respDivL'><font style='color:orange'>Match<br>(e)</font></div><div class='respDivR'>No Match<br>(i)</div></div></div>","null","FEEDBACK","","","","","","","","","","",""
"html-keyboard-response","55","186811","0.0-7.0-1.4","5dd03c5486c8861300974102","bdp_wmem","Tue Mar 14 2023 14:18:12 GMT-0400 (Eastern Daylight Time)","608623","Match,No Match","","null","","","","","","<div class='trialBorder'><div class='vertical-center'><img src='img/fixation2_sml.jpg'</img></div></div>","null","FIX","","","","","","","","","","",""
"html-keyboard-response","56","188312","0.0-7.0-2.4","5dd03c5486c8861300974102","bdp_wmem","Tue Mar 14 2023 14:18:12 GMT-0400 (Eastern Daylight Time)","608623","Match,No Match","","null","","","","","","<div class='trialBorder'><div class='vertical-center'><img style='vertical-align:center; align:center' src='img/fixation2_sml.jpg'></div><div class='arrayDiv1'><div class='tc'><img class='introPic' src='trustrating_stim/white_mw078.bmp'><br><font color='green'><strong>Share</strong></font></div></div></div>","null","ARRAY","1","trustrating_stim/white_mw078.bmp","1","noMatchOutcome","i","1500","","","","",""
"html-keyboard-response","57","192313","0.0-7.0-3.4","5dd03c5486c8861300974102","bdp_wmem","Tue Mar 14 2023 14:18:12 GMT-0400 (Eastern Daylight Time)","608623","Match,No Match","","null","","","","","","<div class='trialBorder'><div class='vertical-center'><img src='img/fixation2_sml.jpg'</img></div></div>","null","DELAY","","","","","","","","","","",""
"html-keyboard-response","58","193609","0.0-7.0-4.4","5dd03c5486c8861300974102","bdp_wmem","Tue Mar 14 2023 14:18:12 GMT-0400 (Eastern Daylight Time)","608623","Match,No Match","","1296","","","","","","<div class='trialBorder'><div class='targDiv'><div class='tc'><img class='introPic' src='trustrating_stim/white_mw078.bmp'><br><font color='red'><strong>Keep</strong></font></div></div><div class='respDiv'><div class='respDivL'>Match<br>(e)</div><div class='respDivR'>No Match<br>(i)</div></div></div>","i","TARGET","1","trustrating_stim/white_mw078.bmp","1","noMatchOutcome","i","1500","trustrating_stim/white_mw078.bmp","red","Keep","REAL","1"
"html-keyboard-response","59","194110","0.0-7.0-5.4","5dd03c5486c8861300974102","bdp_wmem","Tue Mar 14 2023 14:18:12 GMT-0400 (Eastern Daylight Time)","608623","Match,No Match","","null","","","","","","<div class='trialBorder'><div class='vertical-center'><img src='img/correct.jpg'></div><div class='respDiv'><div class='respDivL'>Match<br>(e)</div><div class='respDivR'><font style='color:orange'>No Match<br>(i)</font></div></div></div>","null","FEEDBACK","","","","","","","","","","",""
"html-keyboard-response","60","194611","0.0-7.0-1.5","5dd03c5486c8861300974102","bdp_wmem","Tue Mar 14 2023 14:18:12 GMT-0400 (Eastern Daylight Time)","608623","Match,No Match","","null","","","","","","<div class='trialBorder'><div class='vertical-center'><img src='img/fixation2_sml.jpg'</img></div></div>","null","FIX","","","","","","","","","","",""
"html-keyboard-response","61","196113","0.0-7.0-2.5","5dd03c5486c8861300974102","bdp_wmem","Tue Mar 14 2023 14:18:12 GMT-0400 (Eastern Daylight Time)","608623","Match,No Match","","null","","","","","","<div class='trialBorder'><div class='vertical-center'><img style='vertical-align:center; align:center' src='img/fixation2_sml.jpg'></div><div class='arrayDiv1'><div class='tc'><img class='introPic' src='trustrating_stim/white_mw040.bmp'><br><font color='red'><strong>Keep</strong></font></div></div></div>","null","ARRAY","1","trustrating_stim/white_mw040.bmp","0","noMatchOutcome","i","1500","","","","",""
"html-keyboard-response","62","200115","0.0-7.0-3.5","5dd03c5486c8861300974102","bdp_wmem","Tue Mar 14 2023 14:18:12 GMT-0400 (Eastern Daylight Time)","608623","Match,No Match","","null","","","","","","<div class='trialBorder'><div class='vertical-center'><img src='img/fixation2_sml.jpg'</img></div></div>","null","DELAY","","","","","","","","","","",""
"html-keyboard-response","63","201000","0.0-7.0-4.5","5dd03c5486c8861300974102","bdp_wmem","Tue Mar 14 2023 14:18:12 GMT-0400 (Eastern Daylight Time)","608623","Match,No Match","","885","","","","","","<div class='trialBorder'><div class='targDiv'><div class='tc'><img class='introPic' src='trustrating_stim/white_mw040.bmp'><br><font color='green'><strong>Share</strong></font></div></div><div class='respDiv'><div class='respDivL'>Match<br>(e)</div><div class='respDivR'>No Match<br>(i)</div></div></div>","i","TARGET","1","trustrating_stim/white_mw040.bmp","0","noMatchOutcome","i","1500","trustrating_stim/white_mw040.bmp","green","Share","REAL","1"
"html-keyboard-response","64","201512","0.0-7.0-5.5","5dd03c5486c8861300974102","bdp_wmem","Tue Mar 14 2023 14:18:12 GMT-0400 (Eastern Daylight Time)","608623","Match,No Match","","null","","","","","","<div class='trialBorder'><div class='vertical-center'><img src='img/correct.jpg'></div><div class='respDiv'><div class='respDivL'>Match<br>(e)</div><div class='respDivR'><font style='color:orange'>No Match<br>(i)</font></div></div></div>","null","FEEDBACK","","","","","","","","","","",""
"html-keyboard-response","65","202013","0.0-7.0-1.6","5dd03c5486c8861300974102","bdp_wmem","Tue Mar 14 2023 14:18:12 GMT-0400 (Eastern Daylight Time)","608623","Match,No Match","","null","","","","","","<div class='trialBorder'><div class='vertical-center'><img src='img/fixation2_sml.jpg'</img></div></div>","null","FIX","","","","","","","","","","",""
"html-keyboard-response","66","203515","0.0-7.0-2.6","5dd03c5486c8861300974102","bdp_wmem","Tue Mar 14 2023 14:18:12 GMT-0400 (Eastern Daylight Time)","608623","Match,No Match","","null","","","","","","<div class='trialBorder'><div class='vertical-center'><img style='vertical-align:center; align:center' src='img/fixation2_sml.jpg'></div><div class='arrayDiv1'><div class='tc'><img class='introPic' src='trustrating_stim/white_mw010.bmp'><br><font color='green'><strong>Share</strong></font></div></div></div>","null","ARRAY","1","trustrating_stim/white_mw010.bmp","1","Match","e","1500","","","","",""
"html-keyboard-response","67","207515","0.0-7.0-3.6","5dd03c5486c8861300974102","bdp_wmem","Tue Mar 14 2023 14:18:12 GMT-0400 (Eastern Daylight Time)","608623","Match,No Match","","null","","","","","","<div class='trialBorder'><div class='vertical-center'><img src='img/fixation2_sml.jpg'</img></div></div>","null","DELAY","","","","","","","","","","",""
"html-keyboard-response","68","208817","0.0-7.0-4.6","5dd03c5486c8861300974102","bdp_wmem","Tue Mar 14 2023 14:18:12 GMT-0400 (Eastern Daylight Time)","608623","Match,No Match","","1301","","","","","","<div class='trialBorder'><div class='targDiv'><div class='tc'><img class='introPic' src='trustrating_stim/white_mw010.bmp'><br><font color='green'><strong>Share</strong></font></div></div><div class='respDiv'><div class='respDivL'>Match<br>(e)</div><div class='respDivR'>No Match<br>(i)</div></div></div>","e","TARGET","1","trustrating_stim/white_mw010.bmp","1","Match","e","1500","trustrating_stim/white_mw010.bmp","green","Share","REAL","1"
"html-keyboard-response","69","209318","0.0-7.0-5.6","5dd03c5486c8861300974102","bdp_wmem","Tue Mar 14 2023 14:18:12 GMT-0400 (Eastern Daylight Time)","608623","Match,No Match","","null","","","","","","<div class='trialBorder'><div class='vertical-center'><img src='img/correct.jpg'></div><div class='respDiv'><div class='respDivL'><font style='color:orange'>Match<br>(e)</font></div><div class='respDivR'>No Match<br>(i)</div></div></div>","null","FEEDBACK","","","","","","","","","","",""
"html-keyboard-response","70","209819","0.0-7.0-1.7","5dd03c5486c8861300974102","bdp_wmem","Tue Mar 14 2023 14:18:12 GMT-0400 (Eastern Daylight Time)","608623","Match,No Match","","null","","","","","","<div class='trialBorder'><div class='vertical-center'><img src='img/fixation2_sml.jpg'</img></div></div>","null","FIX","","","","","","","","","","",""
"html-keyboard-response","71","214321","0.0-7.0-2.7","5dd03c5486c8861300974102","bdp_wmem","Tue Mar 14 2023 14:18:12 GMT-0400 (Eastern Daylight Time)","608623","Match,No Match","","null","","","","","","<div class='trialBorder'><div class='vertical-center'><img style='vertical-align:center; align:center' src='img/fixation2_sml.jpg'></div><div class='arrayDiv3'><div class='tl'><img class='introPic' src='trustrating_stim/white_mw003.bmp'><br><font color='green'><strong>Share</strong></font></div><div class='tc'><img class='introPic' src='trustrating_stim/white_mw010.bmp'><br><font color='red'><strong>Keep</strong></font></div><div class='tr'><img class='introPic' src='trustrating_stim/white_mw038.bmp'><br><font color='red'><strong>Keep</strong></font></div></div></div>","null","ARRAY","3","trustrating_stim/white_mw003.bmp,trustrating_stim/white_mw010.bmp,trustrating_stim/white_mw038.bmp","1,0,0","Match","e","4500","","","","",""
"html-keyboard-response","72","218322","0.0-7.0-3.7","5dd03c5486c8861300974102","bdp_wmem","Tue Mar 14 2023 14:18:12 GMT-0400 (Eastern Daylight Time)","608623","Match,No Match","","null","","","","","","<div class='trialBorder'><div class='vertical-center'><img src='img/fixation2_sml.jpg'</img></div></div>","null","DELAY","","","","","","","","","","",""
"html-keyboard-response","73","220113","0.0-7.0-4.7","5dd03c5486c8861300974102","bdp_wmem","Tue Mar 14 2023 14:18:12 GMT-0400 (Eastern Daylight Time)","608623","Match,No Match","","1790","","","","","","<div class='trialBorder'><div class='targDiv'><div class='tc'><img class='introPic' src='trustrating_stim/white_mw010.bmp'><br><font color='red'><strong>Keep</strong></font></div></div><div class='respDiv'><div class='respDivL'>Match<br>(e)</div><div class='respDivR'>No Match<br>(i)</div></div></div>","e","TARGET","3","trustrating_stim/white_mw003.bmp,trustrating_stim/white_mw010.bmp,trustrating_stim/white_mw038.bmp","1,0,0","Match","e","4500","trustrating_stim/white_mw010.bmp","red","Keep","REAL","1"
"html-keyboard-response","74","220613","0.0-7.0-5.7","5dd03c5486c8861300974102","bdp_wmem","Tue Mar 14 2023 14:18:12 GMT-0400 (Eastern Daylight Time)","608623","Match,No Match","","null","","","","","","<div class='trialBorder'><div class='vertical-center'><img src='img/correct.jpg'></div><div class='respDiv'><div class='respDivL'><font style='color:orange'>Match<br>(e)</font></div><div class='respDivR'>No Match<br>(i)</div></div></div>","null","FEEDBACK","","","","","","","","","","",""
"html-keyboard-response","75","221114","0.0-7.0-1.8","5dd03c5486c8861300974102","bdp_wmem","Tue Mar 14 2023 14:18:12 GMT-0400 (Eastern Daylight Time)","608623","Match,No Match","","null","","","","","","<div class='trialBorder'><div class='vertical-center'><img src='img/fixation2_sml.jpg'</img></div></div>","null","FIX","","","","","","","","","","",""
"html-keyboard-response","76","225615","0.0-7.0-2.8","5dd03c5486c8861300974102","bdp_wmem","Tue Mar 14 2023 14:18:12 GMT-0400 (Eastern Daylight Time)","608623","Match,No Match","","null","","","","","","<div class='trialBorder'><div class='vertical-center'><img style='vertical-align:center; align:center' src='img/fixation2_sml.jpg'></div><div class='arrayDiv3'><div class='tl'><img class='introPic' src='trustrating_stim/white_mw078.bmp'><br><font color='green'><strong>Share</strong></font></div><div class='tc'><img class='introPic' src='trustrating_stim/white_mw010.bmp'><br><font color='green'><strong>Share</strong></font></div><div class='tr'><img class='introPic' src='trustrating_stim/white_mw012.bmp'><br><font color='red'><strong>Keep</strong></font></div></div></div>","null","ARRAY","3","trustrating_stim/white_mw078.bmp,trustrating_stim/white_mw010.bmp,trustrating_stim/white_mw012.bmp","1,1,0","noMatchOutcome","i","4500","","","","",""
"html-keyboard-response","77","229617","0.0-7.0-3.8","5dd03c5486c8861300974102","bdp_wmem","Tue Mar 14 2023 14:18:12 GMT-0400 (Eastern Daylight Time)","608623","Match,No Match","","null","","","","","","<div class='trialBorder'><div class='vertical-center'><img src='img/fixation2_sml.jpg'</img></div></div>","null","DELAY","","","","","","","","","","",""
"html-keyboard-response","78","231689","0.0-7.0-4.8","5dd03c5486c8861300974102","bdp_wmem","Tue Mar 14 2023 14:18:12 GMT-0400 (Eastern Daylight Time)","608623","Match,No Match","","2070","","","","","","<div class='trialBorder'><div class='targDiv'><div class='tc'><img class='introPic' src='trustrating_stim/white_mw010.bmp'><br><font color='red'><strong>Keep</strong></font></div></div><div class='respDiv'><div class='respDivL'>Match<br>(e)</div><div class='respDivR'>No Match<br>(i)</div></div></div>","i","TARGET","3","trustrating_stim/white_mw078.bmp,trustrating_stim/white_mw010.bmp,trustrating_stim/white_mw012.bmp","1,1,0","noMatchOutcome","i","4500","trustrating_stim/white_mw010.bmp","red","Keep","REAL","1"
"html-keyboard-response","79","232190","0.0-7.0-5.8","5dd03c5486c8861300974102","bdp_wmem","Tue Mar 14 2023 14:18:12 GMT-0400 (Eastern Daylight Time)","608623","Match,No Match","","null","","","","","","<div class='trialBorder'><div class='vertical-center'><img src='img/correct.jpg'></div><div class='respDiv'><div class='respDivL'>Match<br>(e)</div><div class='respDivR'><font style='color:orange'>No Match<br>(i)</font></div></div></div>","null","FEEDBACK","","","","","","","","","","",""
"html-keyboard-response","80","232691","0.0-7.0-1.9","5dd03c5486c8861300974102","bdp_wmem","Tue Mar 14 2023 14:18:12 GMT-0400 (Eastern Daylight Time)","608623","Match,No Match","","null","","","","","","<div class='trialBorder'><div class='vertical-center'><img src='img/fixation2_sml.jpg'</img></div></div>","null","FIX","","","","","","","","","","",""
"html-keyboard-response","81","235692","0.0-7.0-2.9","5dd03c5486c8861300974102","bdp_wmem","Tue Mar 14 2023 14:18:12 GMT-0400 (Eastern Daylight Time)","608623","Match,No Match","","null","","","","","","<div class='trialBorder'><div class='vertical-center'><img style='vertical-align:center; align:center' src='img/fixation2_sml.jpg'></div><div class='arrayDiv2'><div class='tl'><img class='introPic' src='trustrating_stim/white_mw092.bmp'><br><font color='green'><strong>Share</strong></font></div><div class='tr'><img class='introPic' src='trustrating_stim/white_mw070.bmp'><br><font color='red'><strong>Keep</strong></font></div></div></div>","null","ARRAY","2","trustrating_stim/white_mw092.bmp,trustrating_stim/white_mw070.bmp","1,0","Match","e","3000","","","","",""
"html-keyboard-response","82","239693","0.0-7.0-3.9","5dd03c5486c8861300974102","bdp_wmem","Tue Mar 14 2023 14:18:12 GMT-0400 (Eastern Daylight Time)","608623","Match,No Match","","null","","","","","","<div class='trialBorder'><div class='vertical-center'><img src='img/fixation2_sml.jpg'</img></div></div>","null","DELAY","","","","","","","","","","",""
"html-keyboard-response","83","241969","0.0-7.0-4.9","5dd03c5486c8861300974102","bdp_wmem","Tue Mar 14 2023 14:18:12 GMT-0400 (Eastern Daylight Time)","608623","Match,No Match","","2276","","","","","","<div class='trialBorder'><div class='targDiv'><div class='tc'><img class='introPic' src='trustrating_stim/white_mw092.bmp'><br><font color='green'><strong>Share</strong></font></div></div><div class='respDiv'><div class='respDivL'>Match<br>(e)</div><div class='respDivR'>No Match<br>(i)</div></div></div>","e","TARGET","2","trustrating_stim/white_mw092.bmp,trustrating_stim/white_mw070.bmp","1,0","Match","e","3000","trustrating_stim/white_mw092.bmp","green","Share","REAL","1"
"html-keyboard-response","84","242470","0.0-7.0-5.9","5dd03c5486c8861300974102","bdp_wmem","Tue Mar 14 2023 14:18:12 GMT-0400 (Eastern Daylight Time)","608623","Match,No Match","","null","","","","","","<div class='trialBorder'><div class='vertical-center'><img src='img/correct.jpg'></div><div class='respDiv'><div class='respDivL'><font style='color:orange'>Match<br>(e)</font></div><div class='respDivR'>No Match<br>(i)</div></div></div>","null","FEEDBACK","","","","","","","","","","",""
"html-keyboard-response","85","242971","0.0-7.0-1.10","5dd03c5486c8861300974102","bdp_wmem","Tue Mar 14 2023 14:18:12 GMT-0400 (Eastern Daylight Time)","608623","Match,No Match","","null","","","","","","<div class='trialBorder'><div class='vertical-center'><img src='img/fixation2_sml.jpg'</img></div></div>","null","FIX","","","","","","","","","","",""
"html-keyboard-response","86","247472","0.0-7.0-2.10","5dd03c5486c8861300974102","bdp_wmem","Tue Mar 14 2023 14:18:12 GMT-0400 (Eastern Daylight Time)","608623","Match,No Match","","null","","","","","","<div class='trialBorder'><div class='vertical-center'><img style='vertical-align:center; align:center' src='img/fixation2_sml.jpg'></div><div class='arrayDiv3'><div class='tl'><img class='introPic' src='trustrating_stim/white_mw013.bmp'><br><font color='green'><strong>Share</strong></font></div><div class='tc'><img class='introPic' src='trustrating_stim/white_mw003.bmp'><br><font color='green'><strong>Share</strong></font></div><div class='tr'><img class='introPic' src='trustrating_stim/white_mw012.bmp'><br><font color='red'><strong>Keep</strong></font></div></div></div>","null","ARRAY","3","trustrating_stim/white_mw013.bmp,trustrating_stim/white_mw003.bmp,trustrating_stim/white_mw012.bmp","1,1,0","noMatchOutcome","i","4500","","","","",""
"html-keyboard-response","87","251474","0.0-7.0-3.10","5dd03c5486c8861300974102","bdp_wmem","Tue Mar 14 2023 14:18:12 GMT-0400 (Eastern Daylight Time)","608623","Match,No Match","","null","","","","","","<div class='trialBorder'><div class='vertical-center'><img src='img/fixation2_sml.jpg'</img></div></div>","null","DELAY","","","","","","","","","","",""
"html-keyboard-response","88","253049","0.0-7.0-4.10","5dd03c5486c8861300974102","bdp_wmem","Tue Mar 14 2023 14:18:12 GMT-0400 (Eastern Daylight Time)","608623","Match,No Match","","1574","","","","","","<div class='trialBorder'><div class='targDiv'><div class='tc'><img class='introPic' src='trustrating_stim/white_mw013.bmp'><br><font color='red'><strong>Keep</strong></font></div></div><div class='respDiv'><div class='respDivL'>Match<br>(e)</div><div class='respDivR'>No Match<br>(i)</div></div></div>","e","TARGET","3","trustrating_stim/white_mw013.bmp,trustrating_stim/white_mw003.bmp,trustrating_stim/white_mw012.bmp","1,1,0","noMatchOutcome","i","4500","trustrating_stim/white_mw013.bmp","red","Keep","REAL","0"
"html-keyboard-response","89","253549","0.0-7.0-5.10","5dd03c5486c8861300974102","bdp_wmem","Tue Mar 14 2023 14:18:12 GMT-0400 (Eastern Daylight Time)","608623","Match,No Match","","null","","","","","","<div class='trialBorder'><div class='vertical-center'><img src='img/error.jpg'></div><div class='respDiv'><div class='respDivL'><font style='color:orange'>Match<br>(e)</font></div><div class='respDivR'>No Match<br>(i)</div></div></div>","null","FEEDBACK","","","","","","","","","","",""
"html-keyboard-response","90","254050","0.0-7.0-1.11","5dd03c5486c8861300974102","bdp_wmem","Tue Mar 14 2023 14:18:12 GMT-0400 (Eastern Daylight Time)","608623","Match,No Match","","null","","","","","","<div class='trialBorder'><div class='vertical-center'><img src='img/fixation2_sml.jpg'</img></div></div>","null","FIX","","","","","","","","","","",""
"html-keyboard-response","91","258551","0.0-7.0-2.11","5dd03c5486c8861300974102","bdp_wmem","Tue Mar 14 2023 14:18:12 GMT-0400 (Eastern Daylight Time)","608623","Match,No Match","","null","","","","","","<div class='trialBorder'><div class='vertical-center'><img style='vertical-align:center; align:center' src='img/fixation2_sml.jpg'></div><div class='arrayDiv3'><div class='tl'><img class='introPic' src='trustrating_stim/white_mw010.bmp'><br><font color='green'><strong>Share</strong></font></div><div class='tc'><img class='introPic' src='trustrating_stim/white_mw038.bmp'><br><font color='red'><strong>Keep</strong></font></div><div class='tr'><img class='introPic' src='trustrating_stim/white_mw091.bmp'><br><font color='green'><strong>Share</strong></font></div></div></div>","null","ARRAY","3","trustrating_stim/white_mw010.bmp,trustrating_stim/white_mw038.bmp,trustrating_stim/white_mw091.bmp","1,0,1","Match","e","4500","","","","",""
"html-keyboard-response","92","262552","0.0-7.0-3.11","5dd03c5486c8861300974102","bdp_wmem","Tue Mar 14 2023 14:18:12 GMT-0400 (Eastern Daylight Time)","608623","Match,No Match","","null","","","","","","<div class='trialBorder'><div class='vertical-center'><img src='img/fixation2_sml.jpg'</img></div></div>","null","DELAY","","","","","","","","","","",""
"html-keyboard-response","93","264041","0.0-7.0-4.11","5dd03c5486c8861300974102","bdp_wmem","Tue Mar 14 2023 14:18:12 GMT-0400 (Eastern Daylight Time)","608623","Match,No Match","","1487","","","","","","<div class='trialBorder'><div class='targDiv'><div class='tc'><img class='introPic' src='trustrating_stim/white_mw091.bmp'><br><font color='green'><strong>Share</strong></font></div></div><div class='respDiv'><div class='respDivL'>Match<br>(e)</div><div class='respDivR'>No Match<br>(i)</div></div></div>","e","TARGET","3","trustrating_stim/white_mw010.bmp,trustrating_stim/white_mw038.bmp,trustrating_stim/white_mw091.bmp","1,0,1","Match","e","4500","trustrating_stim/white_mw091.bmp","green","Share","REAL","1"
"html-keyboard-response","94","264541","0.0-7.0-5.11","5dd03c5486c8861300974102","bdp_wmem","Tue Mar 14 2023 14:18:12 GMT-0400 (Eastern Daylight Time)","608623","Match,No Match","","null","","","","","","<div class='trialBorder'><div class='vertical-center'><img src='img/correct.jpg'></div><div class='respDiv'><div class='respDivL'><font style='color:orange'>Match<br>(e)</font></div><div class='respDivR'>No Match<br>(i)</div></div></div>","null","FEEDBACK","","","","","","","","","","",""
"html-keyboard-response","95","265042","0.0-7.0-1.12","5dd03c5486c8861300974102","bdp_wmem","Tue Mar 14 2023 14:18:12 GMT-0400 (Eastern Daylight Time)","608623","Match,No Match","","null","","","","","","<div class='trialBorder'><div class='vertical-center'><img src='img/fixation2_sml.jpg'</img></div></div>","null","FIX","","","","","","","","","","",""
"html-keyboard-response","96","268043","0.0-7.0-2.12","5dd03c5486c8861300974102","bdp_wmem","Tue Mar 14 2023 14:18:12 GMT-0400 (Eastern Daylight Time)","608623","Match,No Match","","null","","","","","","<div class='trialBorder'><div class='vertical-center'><img style='vertical-align:center; align:center' src='img/fixation2_sml.jpg'></div><div class='arrayDiv2'><div class='tl'><img class='introPic' src='trustrating_stim/white_mw040.bmp'><br><font color='green'><strong>Share</strong></font></div><div class='tr'><img class='introPic' src='trustrating_stim/white_mw091.bmp'><br><font color='red'><strong>Keep</strong></font></div></div></div>","null","ARRAY","2","trustrating_stim/white_mw040.bmp,trustrating_stim/white_mw091.bmp","1,0","noMatchOutcome","i","3000","","","","",""
"html-keyboard-response","97","272045","0.0-7.0-3.12","5dd03c5486c8861300974102","bdp_wmem","Tue Mar 14 2023 14:18:12 GMT-0400 (Eastern Daylight Time)","608623","Match,No Match","","null","","","","","","<div class='trialBorder'><div class='vertical-center'><img src='img/fixation2_sml.jpg'</img></div></div>","null","DELAY","","","","","","","","","","",""
"html-keyboard-response","98","275169","0.0-7.0-4.12","5dd03c5486c8861300974102","bdp_wmem","Tue Mar 14 2023 14:18:12 GMT-0400 (Eastern Daylight Time)","608623","Match,No Match","","3123","","","","","","<div class='trialBorder'><div class='targDiv'><div class='tc'><img class='introPic' src='trustrating_stim/white_mw040.bmp'><br><font color='red'><strong>Keep</strong></font></div></div><div class='respDiv'><div class='respDivL'>Match<br>(e)</div><div class='respDivR'>No Match<br>(i)</div></div></div>","i","TARGET","2","trustrating_stim/white_mw040.bmp,trustrating_stim/white_mw091.bmp","1,0","noMatchOutcome","i","3000","trustrating_stim/white_mw040.bmp","red","Keep","REAL","1"
"html-keyboard-response","99","275670","0.0-7.0-5.12","5dd03c5486c8861300974102","bdp_wmem","Tue Mar 14 2023 14:18:12 GMT-0400 (Eastern Daylight Time)","608623","Match,No Match","","null","","","","","","<div class='trialBorder'><div class='vertical-center'><img src='img/correct.jpg'></div><div class='respDiv'><div class='respDivL'>Match<br>(e)</div><div class='respDivR'><font style='color:orange'>No Match<br>(i)</font></div></div></div>","null","FEEDBACK","","","","","","","","","","",""
"html-keyboard-response","100","276171","0.0-7.0-1.13","5dd03c5486c8861300974102","bdp_wmem","Tue Mar 14 2023 14:18:12 GMT-0400 (Eastern Daylight Time)","608623","Match,No Match","","null","","","","","","<div class='trialBorder'><div class='vertical-center'><img src='img/fixation2_sml.jpg'</img></div></div>","null","FIX","","","","","","","","","","",""
"html-keyboard-response","101","279172","0.0-7.0-2.13","5dd03c5486c8861300974102","bdp_wmem","Tue Mar 14 2023 14:18:12 GMT-0400 (Eastern Daylight Time)","608623","Match,No Match","","null","","","","","","<div class='trialBorder'><div class='vertical-center'><img style='vertical-align:center; align:center' src='img/fixation2_sml.jpg'></div><div class='arrayDiv2'><div class='tl'><img class='introPic' src='trustrating_stim/white_mw038.bmp'><br><font color='green'><strong>Share</strong></font></div><div class='tr'><img class='introPic' src='trustrating_stim/white_mw003.bmp'><br><font color='red'><strong>Keep</strong></font></div></div></div>","null","ARRAY","2","trustrating_stim/white_mw038.bmp,trustrating_stim/white_mw003.bmp","1,0","noMatchFace","i","3000","","","","",""
"html-keyboard-response","102","283174","0.0-7.0-3.13","5dd03c5486c8861300974102","bdp_wmem","Tue Mar 14 2023 14:18:12 GMT-0400 (Eastern Daylight Time)","608623","Match,No Match","","null","","","","","","<div class='trialBorder'><div class='vertical-center'><img src='img/fixation2_sml.jpg'</img></div></div>","null","DELAY","","","","","","","","","","",""
"html-keyboard-response","103","284120","0.0-7.0-4.13","5dd03c5486c8861300974102","bdp_wmem","Tue Mar 14 2023 14:18:12 GMT-0400 (Eastern Daylight Time)","608623","Match,No Match","","946","","","","","","<div class='trialBorder'><div class='targDiv'><div class='tc'><img class='introPic' src='trustrating_stim/white_mw013.bmp'><br><font color='green'><strong>Share</strong></font></div></div><div class='respDiv'><div class='respDivL'>Match<br>(e)</div><div class='respDivR'>No Match<br>(i)</div></div></div>","i","TARGET","2","trustrating_stim/white_mw038.bmp,trustrating_stim/white_mw003.bmp","1,0","noMatchFace","i","3000","trustrating_stim/white_mw013.bmp","green","Share","REAL","1"
"html-keyboard-response","104","284622","0.0-7.0-5.13","5dd03c5486c8861300974102","bdp_wmem","Tue Mar 14 2023 14:18:12 GMT-0400 (Eastern Daylight Time)","608623","Match,No Match","","null","","","","","","<div class='trialBorder'><div class='vertical-center'><img src='img/correct.jpg'></div><div class='respDiv'><div class='respDivL'>Match<br>(e)</div><div class='respDivR'><font style='color:orange'>No Match<br>(i)</font></div></div></div>","null","FEEDBACK","","","","","","","","","","",""
"html-keyboard-response","105","285122","0.0-7.0-1.14","5dd03c5486c8861300974102","bdp_wmem","Tue Mar 14 2023 14:18:12 GMT-0400 (Eastern Daylight Time)","608623","Match,No Match","","null","","","","","","<div class='trialBorder'><div class='vertical-center'><img src='img/fixation2_sml.jpg'</img></div></div>","null","FIX","","","","","","","","","","",""
"html-keyboard-response","106","289623","0.0-7.0-2.14","5dd03c5486c8861300974102","bdp_wmem","Tue Mar 14 2023 14:18:12 GMT-0400 (Eastern Daylight Time)","608623","Match,No Match","","null","","","","","","<div class='trialBorder'><div class='vertical-center'><img style='vertical-align:center; align:center' src='img/fixation2_sml.jpg'></div><div class='arrayDiv3'><div class='tl'><img class='introPic' src='trustrating_stim/white_mw091.bmp'><br><font color='red'><strong>Keep</strong></font></div><div class='tc'><img class='introPic' src='trustrating_stim/white_mw092.bmp'><br><font color='green'><strong>Share</strong></font></div><div class='tr'><img class='introPic' src='trustrating_stim/white_mw042.bmp'><br><font color='green'><strong>Share</strong></font></div></div></div>","null","ARRAY","3","trustrating_stim/white_mw091.bmp,trustrating_stim/white_mw092.bmp,trustrating_stim/white_mw042.bmp","0,1,1","Match","e","4500","","","","",""
"html-keyboard-response","107","293624","0.0-7.0-3.14","5dd03c5486c8861300974102","bdp_wmem","Tue Mar 14 2023 14:18:12 GMT-0400 (Eastern Daylight Time)","608623","Match,No Match","","null","","","","","","<div class='trialBorder'><div class='vertical-center'><img src='img/fixation2_sml.jpg'</img></div></div>","null","DELAY","","","","","","","","","","",""
"html-keyboard-response","108","295681","0.0-7.0-4.14","5dd03c5486c8861300974102","bdp_wmem","Tue Mar 14 2023 14:18:12 GMT-0400 (Eastern Daylight Time)","608623","Match,No Match","","2056","","","","","","<div class='trialBorder'><div class='targDiv'><div class='tc'><img class='introPic' src='trustrating_stim/white_mw042.bmp'><br><font color='green'><strong>Share</strong></font></div></div><div class='respDiv'><div class='respDivL'>Match<br>(e)</div><div class='respDivR'>No Match<br>(i)</div></div></div>","e","TARGET","3","trustrating_stim/white_mw091.bmp,trustrating_stim/white_mw092.bmp,trustrating_stim/white_mw042.bmp","0,1,1","Match","e","4500","trustrating_stim/white_mw042.bmp","green","Share","REAL","1"
"html-keyboard-response","109","296182","0.0-7.0-5.14","5dd03c5486c8861300974102","bdp_wmem","Tue Mar 14 2023 14:18:12 GMT-0400 (Eastern Daylight Time)","608623","Match,No Match","","null","","","","","","<div class='trialBorder'><div class='vertical-center'><img src='img/correct.jpg'></div><div class='respDiv'><div class='respDivL'><font style='color:orange'>Match<br>(e)</font></div><div class='respDivR'>No Match<br>(i)</div></div></div>","null","FEEDBACK","","","","","","","","","","",""
"html-keyboard-response","110","296683","0.0-7.0-1.15","5dd03c5486c8861300974102","bdp_wmem","Tue Mar 14 2023 14:18:12 GMT-0400 (Eastern Daylight Time)","608623","Match,No Match","","null","","","","","","<div class='trialBorder'><div class='vertical-center'><img src='img/fixation2_sml.jpg'</img></div></div>","null","FIX","","","","","","","","","","",""
"html-keyboard-response","111","298183","0.0-7.0-2.15","5dd03c5486c8861300974102","bdp_wmem","Tue Mar 14 2023 14:18:12 GMT-0400 (Eastern Daylight Time)","608623","Match,No Match","","null","","","","","","<div class='trialBorder'><div class='vertical-center'><img style='vertical-align:center; align:center' src='img/fixation2_sml.jpg'></div><div class='arrayDiv1'><div class='tc'><img class='introPic' src='trustrating_stim/white_mw038.bmp'><br><font color='green'><strong>Share</strong></font></div></div></div>","null","ARRAY","1","trustrating_stim/white_mw038.bmp","1","noMatchFace","i","1500","","","","",""
"html-keyboard-response","112","302184","0.0-7.0-3.15","5dd03c5486c8861300974102","bdp_wmem","Tue Mar 14 2023 14:18:12 GMT-0400 (Eastern Daylight Time)","608623","Match,No Match","","null","","","","","","<div class='trialBorder'><div class='vertical-center'><img src='img/fixation2_sml.jpg'</img></div></div>","null","DELAY","","","","","","","","","","",""
"html-keyboard-response","113","303592","0.0-7.0-4.15","5dd03c5486c8861300974102","bdp_wmem","Tue Mar 14 2023 14:18:12 GMT-0400 (Eastern Daylight Time)","608623","Match,No Match","","1407","","","","","","<div class='trialBorder'><div class='targDiv'><div class='tc'><img class='introPic' src='trustrating_stim/white_mw013.bmp'><br><font color='green'><strong>Share</strong></font></div></div><div class='respDiv'><div class='respDivL'>Match<br>(e)</div><div class='respDivR'>No Match<br>(i)</div></div></div>","i","TARGET","1","trustrating_stim/white_mw038.bmp","1","noMatchFace","i","1500","trustrating_stim/white_mw013.bmp","green","Share","REAL","1"
"html-keyboard-response","114","304094","0.0-7.0-5.15","5dd03c5486c8861300974102","bdp_wmem","Tue Mar 14 2023 14:18:12 GMT-0400 (Eastern Daylight Time)","608623","Match,No Match","","null","","","","","","<div class='trialBorder'><div class='vertical-center'><img src='img/correct.jpg'></div><div class='respDiv'><div class='respDivL'>Match<br>(e)</div><div class='respDivR'><font style='color:orange'>No Match<br>(i)</font></div></div></div>","null","FEEDBACK","","","","","","","","","","",""
"html-keyboard-response","115","304595","0.0-7.0-1.16","5dd03c5486c8861300974102","bdp_wmem","Tue Mar 14 2023 14:18:12 GMT-0400 (Eastern Daylight Time)","608623","Match,No Match","","null","","","","","","<div class='trialBorder'><div class='vertical-center'><img src='img/fixation2_sml.jpg'</img></div></div>","null","FIX","","","","","","","","","","",""
"html-keyboard-response","116","307597","0.0-7.0-2.16","5dd03c5486c8861300974102","bdp_wmem","Tue Mar 14 2023 14:18:12 GMT-0400 (Eastern Daylight Time)","608623","Match,No Match","","null","","","","","","<div class='trialBorder'><div class='vertical-center'><img style='vertical-align:center; align:center' src='img/fixation2_sml.jpg'></div><div class='arrayDiv2'><div class='tl'><img class='introPic' src='trustrating_stim/white_mw012.bmp'><br><font color='green'><strong>Share</strong></font></div><div class='tr'><img class='introPic' src='trustrating_stim/white_mw010.bmp'><br><font color='red'><strong>Keep</strong></font></div></div></div>","null","ARRAY","2","trustrating_stim/white_mw012.bmp,trustrating_stim/white_mw010.bmp","1,0","Match","e","3000","","","","",""
"html-keyboard-response","117","311598","0.0-7.0-3.16","5dd03c5486c8861300974102","bdp_wmem","Tue Mar 14 2023 14:18:12 GMT-0400 (Eastern Daylight Time)","608623","Match,No Match","","null","","","","","","<div class='trialBorder'><div class='vertical-center'><img src='img/fixation2_sml.jpg'</img></div></div>","null","DELAY","","","","","","","","","","",""
"html-keyboard-response","118","312881","0.0-7.0-4.16","5dd03c5486c8861300974102","bdp_wmem","Tue Mar 14 2023 14:18:12 GMT-0400 (Eastern Daylight Time)","608623","Match,No Match","","1281","","","","","","<div class='trialBorder'><div class='targDiv'><div class='tc'><img class='introPic' src='trustrating_stim/white_mw010.bmp'><br><font color='red'><strong>Keep</strong></font></div></div><div class='respDiv'><div class='respDivL'>Match<br>(e)</div><div class='respDivR'>No Match<br>(i)</div></div></div>","e","TARGET","2","trustrating_stim/white_mw012.bmp,trustrating_stim/white_mw010.bmp","1,0","Match","e","3000","trustrating_stim/white_mw010.bmp","red","Keep","REAL","1"
"html-keyboard-response","119","313391","0.0-7.0-5.16","5dd03c5486c8861300974102","bdp_wmem","Tue Mar 14 2023 14:18:12 GMT-0400 (Eastern Daylight Time)","608623","Match,No Match","","null","","","","","","<div class='trialBorder'><div class='vertical-center'><img src='img/correct.jpg'></div><div class='respDiv'><div class='respDivL'><font style='color:orange'>Match<br>(e)</font></div><div class='respDivR'>No Match<br>(i)</div></div></div>","null","FEEDBACK","","","","","","","","","","",""
"html-keyboard-response","120","313892","0.0-7.0-1.17","5dd03c5486c8861300974102","bdp_wmem","Tue Mar 14 2023 14:18:12 GMT-0400 (Eastern Daylight Time)","608623","Match,No Match","","null","","","","","","<div class='trialBorder'><div class='vertical-center'><img src='img/fixation2_sml.jpg'</img></div></div>","null","FIX","","","","","","","","","","",""
"html-keyboard-response","121","315393","0.0-7.0-2.17","5dd03c5486c8861300974102","bdp_wmem","Tue Mar 14 2023 14:18:12 GMT-0400 (Eastern Daylight Time)","608623","Match,No Match","","null","","","","","","<div class='trialBorder'><div class='vertical-center'><img style='vertical-align:center; align:center' src='img/fixation2_sml.jpg'></div><div class='arrayDiv1'><div class='tc'><img class='introPic' src='trustrating_stim/white_mw042.bmp'><br><font color='red'><strong>Keep</strong></font></div></div></div>","null","ARRAY","1","trustrating_stim/white_mw042.bmp","0","noMatchFace","i","1500","","","","",""
"html-keyboard-response","122","319394","0.0-7.0-3.17","5dd03c5486c8861300974102","bdp_wmem","Tue Mar 14 2023 14:18:12 GMT-0400 (Eastern Daylight Time)","608623","Match,No Match","","null","","","","","","<div class='trialBorder'><div class='vertical-center'><img src='img/fixation2_sml.jpg'</img></div></div>","null","DELAY","","","","","","","","","","",""
"html-keyboard-response","123","320160","0.0-7.0-4.17","5dd03c5486c8861300974102","bdp_wmem","Tue Mar 14 2023 14:18:12 GMT-0400 (Eastern Daylight Time)","608623","Match,No Match","","765","","","","","","<div class='trialBorder'><div class='targDiv'><div class='tc'><img class='introPic' src='trustrating_stim/white_mw013.bmp'><br><font color='red'><strong>Keep</strong></font></div></div><div class='respDiv'><div class='respDivL'>Match<br>(e)</div><div class='respDivR'>No Match<br>(i)</div></div></div>","i","TARGET","1","trustrating_stim/white_mw042.bmp","0","noMatchFace","i","1500","trustrating_stim/white_mw013.bmp","red","Keep","REAL","1"
"html-keyboard-response","124","320661","0.0-7.0-5.17","5dd03c5486c8861300974102","bdp_wmem","Tue Mar 14 2023 14:18:12 GMT-0400 (Eastern Daylight Time)","608623","Match,No Match","","null","","","","","","<div class='trialBorder'><div class='vertical-center'><img src='img/correct.jpg'></div><div class='respDiv'><div class='respDivL'>Match<br>(e)</div><div class='respDivR'><font style='color:orange'>No Match<br>(i)</font></div></div></div>","null","FEEDBACK","","","","","","","","","","",""
"html-keyboard-response","125","321162","0.0-7.0-1.18","5dd03c5486c8861300974102","bdp_wmem","Tue Mar 14 2023 14:18:12 GMT-0400 (Eastern Daylight Time)","608623","Match,No Match","","null","","","","","","<div class='trialBorder'><div class='vertical-center'><img src='img/fixation2_sml.jpg'</img></div></div>","null","FIX","","","","","","","","","","",""
"html-keyboard-response","126","322664","0.0-7.0-2.18","5dd03c5486c8861300974102","bdp_wmem","Tue Mar 14 2023 14:18:12 GMT-0400 (Eastern Daylight Time)","608623","Match,No Match","","null","","","","","","<div class='trialBorder'><div class='vertical-center'><img style='vertical-align:center; align:center' src='img/fixation2_sml.jpg'></div><div class='arrayDiv1'><div class='tc'><img class='introPic' src='trustrating_stim/white_mw078.bmp'><br><font color='green'><strong>Share</strong></font></div></div></div>","null","ARRAY","1","trustrating_stim/white_mw078.bmp","1","Match","e","1500","","","","",""
"html-keyboard-response","127","326680","0.0-7.0-3.18","5dd03c5486c8861300974102","bdp_wmem","Tue Mar 14 2023 14:18:12 GMT-0400 (Eastern Daylight Time)","608623","Match,No Match","","null","","","","","","<div class='trialBorder'><div class='vertical-center'><img src='img/fixation2_sml.jpg'</img></div></div>","null","DELAY","","","","","","","","","","",""
"html-keyboard-response","128","327713","0.0-7.0-4.18","5dd03c5486c8861300974102","bdp_wmem","Tue Mar 14 2023 14:18:12 GMT-0400 (Eastern Daylight Time)","608623","Match,No Match","","1031","","","","","","<div class='trialBorder'><div class='targDiv'><div class='tc'><img class='introPic' src='trustrating_stim/white_mw078.bmp'><br><font color='green'><strong>Share</strong></font></div></div><div class='respDiv'><div class='respDivL'>Match<br>(e)</div><div class='respDivR'>No Match<br>(i)</div></div></div>","e","TARGET","1","trustrating_stim/white_mw078.bmp","1","Match","e","1500","trustrating_stim/white_mw078.bmp","green","Share","REAL","1"
"html-keyboard-response","129","328214","0.0-7.0-5.18","5dd03c5486c8861300974102","bdp_wmem","Tue Mar 14 2023 14:18:12 GMT-0400 (Eastern Daylight Time)","608623","Match,No Match","","null","","","","","","<div class='trialBorder'><div class='vertical-center'><img src='img/correct.jpg'></div><div class='respDiv'><div class='respDivL'><font style='color:orange'>Match<br>(e)</font></div><div class='respDivR'>No Match<br>(i)</div></div></div>","null","FEEDBACK","","","","","","","","","","",""
"html-keyboard-response","130","328714","0.0-7.0-1.19","5dd03c5486c8861300974102","bdp_wmem","Tue Mar 14 2023 14:18:12 GMT-0400 (Eastern Daylight Time)","608623","Match,No Match","","null","","","","","","<div class='trialBorder'><div class='vertical-center'><img src='img/fixation2_sml.jpg'</img></div></div>","null","FIX","","","","","","","","","","",""
"html-keyboard-response","131","330215","0.0-7.0-2.19","5dd03c5486c8861300974102","bdp_wmem","Tue Mar 14 2023 14:18:12 GMT-0400 (Eastern Daylight Time)","608623","Match,No Match","","null","","","","","","<div class='trialBorder'><div class='vertical-center'><img style='vertical-align:center; align:center' src='img/fixation2_sml.jpg'></div><div class='arrayDiv1'><div class='tc'><img class='introPic' src='trustrating_stim/white_mw042.bmp'><br><font color='red'><strong>Keep</strong></font></div></div></div>","null","ARRAY","1","trustrating_stim/white_mw042.bmp","0","Match","e","1500","","","","",""
"html-keyboard-response","132","334216","0.0-7.0-3.19","5dd03c5486c8861300974102","bdp_wmem","Tue Mar 14 2023 14:18:12 GMT-0400 (Eastern Daylight Time)","608623","Match,No Match","","null","","","","","","<div class='trialBorder'><div class='vertical-center'><img src='img/fixation2_sml.jpg'</img></div></div>","null","DELAY","","","","","","","","","","",""
"html-keyboard-response","133","335000","0.0-7.0-4.19","5dd03c5486c8861300974102","bdp_wmem","Tue Mar 14 2023 14:18:12 GMT-0400 (Eastern Daylight Time)","608623","Match,No Match","","783","","","","","","<div class='trialBorder'><div class='targDiv'><div class='tc'><img class='introPic' src='trustrating_stim/white_mw042.bmp'><br><font color='red'><strong>Keep</strong></font></div></div><div class='respDiv'><div class='respDivL'>Match<br>(e)</div><div class='respDivR'>No Match<br>(i)</div></div></div>","e","TARGET","1","trustrating_stim/white_mw042.bmp","0","Match","e","1500","trustrating_stim/white_mw042.bmp","red","Keep","REAL","1"
"html-keyboard-response","134","335502","0.0-7.0-5.19","5dd03c5486c8861300974102","bdp_wmem","Tue Mar 14 2023 14:18:12 GMT-0400 (Eastern Daylight Time)","608623","Match,No Match","","null","","","","","","<div class='trialBorder'><div class='vertical-center'><img src='img/correct.jpg'></div><div class='respDiv'><div class='respDivL'><font style='color:orange'>Match<br>(e)</font></div><div class='respDivR'>No Match<br>(i)</div></div></div>","null","FEEDBACK","","","","","","","","","","",""
"html-keyboard-response","135","336003","0.0-7.0-1.20","5dd03c5486c8861300974102","bdp_wmem","Tue Mar 14 2023 14:18:12 GMT-0400 (Eastern Daylight Time)","608623","Match,No Match","","null","","","","","","<div class='trialBorder'><div class='vertical-center'><img src='img/fixation2_sml.jpg'</img></div></div>","null","FIX","","","","","","","","","","",""
"html-keyboard-response","136","340504","0.0-7.0-2.20","5dd03c5486c8861300974102","bdp_wmem","Tue Mar 14 2023 14:18:12 GMT-0400 (Eastern Daylight Time)","608623","Match,No Match","","null","","","","","","<div class='trialBorder'><div class='vertical-center'><img style='vertical-align:center; align:center' src='img/fixation2_sml.jpg'></div><div class='arrayDiv3'><div class='tl'><img class='introPic' src='trustrating_stim/white_mw091.bmp'><br><font color='red'><strong>Keep</strong></font></div><div class='tc'><img class='introPic' src='trustrating_stim/white_mw003.bmp'><br><font color='green'><strong>Share</strong></font></div><div class='tr'><img class='introPic' src='trustrating_stim/white_mw070.bmp'><br><font color='red'><strong>Keep</strong></font></div></div></div>","null","ARRAY","3","trustrating_stim/white_mw091.bmp,trustrating_stim/white_mw003.bmp,trustrating_stim/white_mw070.bmp","0,1,0","noMatchOutcome","i","4500","","","","",""
"html-keyboard-response","137","344505","0.0-7.0-3.20","5dd03c5486c8861300974102","bdp_wmem","Tue Mar 14 2023 14:18:12 GMT-0400 (Eastern Daylight Time)","608623","Match,No Match","","null","","","","","","<div class='trialBorder'><div class='vertical-center'><img src='img/fixation2_sml.jpg'</img></div></div>","null","DELAY","","","","","","","","","","",""
"html-keyboard-response","138","346481","0.0-7.0-4.20","5dd03c5486c8861300974102","bdp_wmem","Tue Mar 14 2023 14:18:12 GMT-0400 (Eastern Daylight Time)","608623","Match,No Match","","1974","","","","","","<div class='trialBorder'><div class='targDiv'><div class='tc'><img class='introPic' src='trustrating_stim/white_mw091.bmp'><br><font color='green'><strong>Share</strong></font></div></div><div class='respDiv'><div class='respDivL'>Match<br>(e)</div><div class='respDivR'>No Match<br>(i)</div></div></div>","i","TARGET","3","trustrating_stim/white_mw091.bmp,trustrating_stim/white_mw003.bmp,trustrating_stim/white_mw070.bmp","0,1,0","noMatchOutcome","i","4500","trustrating_stim/white_mw091.bmp","green","Share","REAL","1"
"html-keyboard-response","139","346981","0.0-7.0-5.20","5dd03c5486c8861300974102","bdp_wmem","Tue Mar 14 2023 14:18:12 GMT-0400 (Eastern Daylight Time)","608623","Match,No Match","","null","","","","","","<div class='trialBorder'><div class='vertical-center'><img src='img/correct.jpg'></div><div class='respDiv'><div class='respDivL'>Match<br>(e)</div><div class='respDivR'><font style='color:orange'>No Match<br>(i)</font></div></div></div>","null","FEEDBACK","","","","","","","","","","",""
"html-keyboard-response","140","347482","0.0-7.0-1.21","5dd03c5486c8861300974102","bdp_wmem","Tue Mar 14 2023 14:18:12 GMT-0400 (Eastern Daylight Time)","608623","Match,No Match","","null","","","","","","<div class='trialBorder'><div class='vertical-center'><img src='img/fixation2_sml.jpg'</img></div></div>","null","FIX","","","","","","","","","","",""
"html-keyboard-response","141","351984","0.0-7.0-2.21","5dd03c5486c8861300974102","bdp_wmem","Tue Mar 14 2023 14:18:12 GMT-0400 (Eastern Daylight Time)","608623","Match,No Match","","null","","","","","","<div class='trialBorder'><div class='vertical-center'><img style='vertical-align:center; align:center' src='img/fixation2_sml.jpg'></div><div class='arrayDiv3'><div class='tl'><img class='introPic' src='trustrating_stim/white_mw003.bmp'><br><font color='green'><strong>Share</strong></font></div><div class='tc'><img class='introPic' src='trustrating_stim/white_mw038.bmp'><br><font color='red'><strong>Keep</strong></font></div><div class='tr'><img class='introPic' src='trustrating_stim/white_mw078.bmp'><br><font color='red'><strong>Keep</strong></font></div></div></div>","null","ARRAY","3","trustrating_stim/white_mw003.bmp,trustrating_stim/white_mw038.bmp,trustrating_stim/white_mw078.bmp","1,0,0","Match","e","4500","","","","",""
"html-keyboard-response","142","355985","0.0-7.0-3.21","5dd03c5486c8861300974102","bdp_wmem","Tue Mar 14 2023 14:18:12 GMT-0400 (Eastern Daylight Time)","608623","Match,No Match","","null","","","","","","<div class='trialBorder'><div class='vertical-center'><img src='img/fixation2_sml.jpg'</img></div></div>","null","DELAY","","","","","","","","","","",""
"html-keyboard-response","143","357353","0.0-7.0-4.21","5dd03c5486c8861300974102","bdp_wmem","Tue Mar 14 2023 14:18:12 GMT-0400 (Eastern Daylight Time)","608623","Match,No Match","","1367","","","","","","<div class='trialBorder'><div class='targDiv'><div class='tc'><img class='introPic' src='trustrating_stim/white_mw038.bmp'><br><font color='red'><strong>Keep</strong></font></div></div><div class='respDiv'><div class='respDivL'>Match<br>(e)</div><div class='respDivR'>No Match<br>(i)</div></div></div>","e","TARGET","3","trustrating_stim/white_mw003.bmp,trustrating_stim/white_mw038.bmp,trustrating_stim/white_mw078.bmp","1,0,0","Match","e","4500","trustrating_stim/white_mw038.bmp","red","Keep","REAL","1"
"html-keyboard-response","144","357853","0.0-7.0-5.21","5dd03c5486c8861300974102","bdp_wmem","Tue Mar 14 2023 14:18:12 GMT-0400 (Eastern Daylight Time)","608623","Match,No Match","","null","","","","","","<div class='trialBorder'><div class='vertical-center'><img src='img/correct.jpg'></div><div class='respDiv'><div class='respDivL'><font style='color:orange'>Match<br>(e)</font></div><div class='respDivR'>No Match<br>(i)</div></div></div>","null","FEEDBACK","","","","","","","","","","",""
"html-keyboard-response","145","358354","0.0-7.0-1.22","5dd03c5486c8861300974102","bdp_wmem","Tue Mar 14 2023 14:18:12 GMT-0400 (Eastern Daylight Time)","608623","Match,No Match","","null","","","","","","<div class='trialBorder'><div class='vertical-center'><img src='img/fixation2_sml.jpg'</img></div></div>","null","FIX","","","","","","","","","","",""
"html-keyboard-response","146","362855","0.0-7.0-2.22","5dd03c5486c8861300974102","bdp_wmem","Tue Mar 14 2023 14:18:12 GMT-0400 (Eastern Daylight Time)","608623","Match,No Match","","null","","","","","","<div class='trialBorder'><div class='vertical-center'><img style='vertical-align:center; align:center' src='img/fixation2_sml.jpg'></div><div class='arrayDiv3'><div class='tl'><img class='introPic' src='trustrating_stim/white_mw003.bmp'><br><font color='green'><strong>Share</strong></font></div><div class='tc'><img class='introPic' src='trustrating_stim/white_mw070.bmp'><br><font color='green'><strong>Share</strong></font></div><div class='tr'><img class='introPic' src='trustrating_stim/white_mw092.bmp'><br><font color='red'><strong>Keep</strong></font></div></div></div>","null","ARRAY","3","trustrating_stim/white_mw003.bmp,trustrating_stim/white_mw070.bmp,trustrating_stim/white_mw092.bmp","1,1,0","Match","e","4500","","","","",""
"html-keyboard-response","147","366856","0.0-7.0-3.22","5dd03c5486c8861300974102","bdp_wmem","Tue Mar 14 2023 14:18:12 GMT-0400 (Eastern Daylight Time)","608623","Match,No Match","","null","","","","","","<div class='trialBorder'><div class='vertical-center'><img src='img/fixation2_sml.jpg'</img></div></div>","null","DELAY","","","","","","","","","","",""
"html-keyboard-response","148","370296","0.0-7.0-4.22","5dd03c5486c8861300974102","bdp_wmem","Tue Mar 14 2023 14:18:12 GMT-0400 (Eastern Daylight Time)","608623","Match,No Match","","3439","","","","","","<div class='trialBorder'><div class='targDiv'><div class='tc'><img class='introPic' src='trustrating_stim/white_mw092.bmp'><br><font color='red'><strong>Keep</strong></font></div></div><div class='respDiv'><div class='respDivL'>Match<br>(e)</div><div class='respDivR'>No Match<br>(i)</div></div></div>","i","TARGET","3","trustrating_stim/white_mw003.bmp,trustrating_stim/white_mw070.bmp,trustrating_stim/white_mw092.bmp","1,1,0","Match","e","4500","trustrating_stim/white_mw092.bmp","red","Keep","REAL","0"
"html-keyboard-response","149","370798","0.0-7.0-5.22","5dd03c5486c8861300974102","bdp_wmem","Tue Mar 14 2023 14:18:12 GMT-0400 (Eastern Daylight Time)","608623","Match,No Match","","null","","","","","","<div class='trialBorder'><div class='vertical-center'><img src='img/error.jpg'></div><div class='respDiv'><div class='respDivL'>Match<br>(e)</div><div class='respDivR'><font style='color:orange'>No Match<br>(i)</font></div></div></div>","null","FEEDBACK","","","","","","","","","","",""
"html-keyboard-response","150","371299","0.0-7.0-1.23","5dd03c5486c8861300974102","bdp_wmem","Tue Mar 14 2023 14:18:12 GMT-0400 (Eastern Daylight Time)","608623","Match,No Match","","null","","","","","","<div class='trialBorder'><div class='vertical-center'><img src='img/fixation2_sml.jpg'</img></div></div>","null","FIX","","","","","","","","","","",""
"html-keyboard-response","151","374300","0.0-7.0-2.23","5dd03c5486c8861300974102","bdp_wmem","Tue Mar 14 2023 14:18:12 GMT-0400 (Eastern Daylight Time)","608623","Match,No Match","","null","","","","","","<div class='trialBorder'><div class='vertical-center'><img style='vertical-align:center; align:center' src='img/fixation2_sml.jpg'></div><div class='arrayDiv2'><div class='tl'><img class='introPic' src='trustrating_stim/white_mw091.bmp'><br><font color='red'><strong>Keep</strong></font></div><div class='tr'><img class='introPic' src='trustrating_stim/white_mw085.bmp'><br><font color='green'><strong>Share</strong></font></div></div></div>","null","ARRAY","2","trustrating_stim/white_mw091.bmp,trustrating_stim/white_mw085.bmp","0,1","noMatchOutcome","i","3000","","","","",""
"html-keyboard-response","152","378302","0.0-7.0-3.23","5dd03c5486c8861300974102","bdp_wmem","Tue Mar 14 2023 14:18:12 GMT-0400 (Eastern Daylight Time)","608623","Match,No Match","","null","","","","","","<div class='trialBorder'><div class='vertical-center'><img src='img/fixation2_sml.jpg'</img></div></div>","null","DELAY","","","","","","","","","","",""
"html-keyboard-response","153","380577","0.0-7.0-4.23","5dd03c5486c8861300974102","bdp_wmem","Tue Mar 14 2023 14:18:12 GMT-0400 (Eastern Daylight Time)","608623","Match,No Match","","2275","","","","","","<div class='trialBorder'><div class='targDiv'><div class='tc'><img class='introPic' src='trustrating_stim/white_mw085.bmp'><br><font color='red'><strong>Keep</strong></font></div></div><div class='respDiv'><div class='respDivL'>Match<br>(e)</div><div class='respDivR'>No Match<br>(i)</div></div></div>","i","TARGET","2","trustrating_stim/white_mw091.bmp,trustrating_stim/white_mw085.bmp","0,1","noMatchOutcome","i","3000","trustrating_stim/white_mw085.bmp","red","Keep","REAL","1"
"html-keyboard-response","154","381078","0.0-7.0-5.23","5dd03c5486c8861300974102","bdp_wmem","Tue Mar 14 2023 14:18:12 GMT-0400 (Eastern Daylight Time)","608623","Match,No Match","","null","","","","","","<div class='trialBorder'><div class='vertical-center'><img src='img/correct.jpg'></div><div class='respDiv'><div class='respDivL'>Match<br>(e)</div><div class='respDivR'><font style='color:orange'>No Match<br>(i)</font></div></div></div>","null","FEEDBACK","","","","","","","","","","",""
"html-keyboard-response","155","381578","0.0-7.0-1.24","5dd03c5486c8861300974102","bdp_wmem","Tue Mar 14 2023 14:18:12 GMT-0400 (Eastern Daylight Time)","608623","Match,No Match","","null","","","","","","<div class='trialBorder'><div class='vertical-center'><img src='img/fixation2_sml.jpg'</img></div></div>","null","FIX","","","","","","","","","","",""
"html-keyboard-response","156","383079","0.0-7.0-2.24","5dd03c5486c8861300974102","bdp_wmem","Tue Mar 14 2023 14:18:12 GMT-0400 (Eastern Daylight Time)","608623","Match,No Match","","null","","","","","","<div class='trialBorder'><div class='vertical-center'><img style='vertical-align:center; align:center' src='img/fixation2_sml.jpg'></div><div class='arrayDiv1'><div class='tc'><img class='introPic' src='trustrating_stim/white_mw078.bmp'><br><font color='green'><strong>Share</strong></font></div></div></div>","null","ARRAY","1","trustrating_stim/white_mw078.bmp","1","noMatchFace","i","1500","","","","",""
"html-keyboard-response","157","387081","0.0-7.0-3.24","5dd03c5486c8861300974102","bdp_wmem","Tue Mar 14 2023 14:18:12 GMT-0400 (Eastern Daylight Time)","608623","Match,No Match","","null","","","","","","<div class='trialBorder'><div class='vertical-center'><img src='img/fixation2_sml.jpg'</img></div></div>","null","DELAY","","","","","","","","","","",""
"html-keyboard-response","158","388456","0.0-7.0-4.24","5dd03c5486c8861300974102","bdp_wmem","Tue Mar 14 2023 14:18:12 GMT-0400 (Eastern Daylight Time)","608623","Match,No Match","","1375","","","","","","<div class='trialBorder'><div class='targDiv'><div class='tc'><img class='introPic' src='trustrating_stim/white_mw085.bmp'><br><font color='green'><strong>Share</strong></font></div></div><div class='respDiv'><div class='respDivL'>Match<br>(e)</div><div class='respDivR'>No Match<br>(i)</div></div></div>","i","TARGET","1","trustrating_stim/white_mw078.bmp","1","noMatchFace","i","1500","trustrating_stim/white_mw085.bmp","green","Share","REAL","1"
"html-keyboard-response","159","388958","0.0-7.0-5.24","5dd03c5486c8861300974102","bdp_wmem","Tue Mar 14 2023 14:18:12 GMT-0400 (Eastern Daylight Time)","608623","Match,No Match","","null","","","","","","<div class='trialBorder'><div class='vertical-center'><img src='img/correct.jpg'></div><div class='respDiv'><div class='respDivL'>Match<br>(e)</div><div class='respDivR'><font style='color:orange'>No Match<br>(i)</font></div></div></div>","null","FEEDBACK","","","","","","","","","","",""
"html-keyboard-response","160","389459","0.0-7.0-1.25","5dd03c5486c8861300974102","bdp_wmem","Tue Mar 14 2023 14:18:12 GMT-0400 (Eastern Daylight Time)","608623","Match,No Match","","null","","","","","","<div class='trialBorder'><div class='vertical-center'><img src='img/fixation2_sml.jpg'</img></div></div>","null","FIX","","","","","","","","","","",""
"html-keyboard-response","161","390960","0.0-7.0-2.25","5dd03c5486c8861300974102","bdp_wmem","Tue Mar 14 2023 14:18:12 GMT-0400 (Eastern Daylight Time)","608623","Match,No Match","","null","","","","","","<div class='trialBorder'><div class='vertical-center'><img style='vertical-align:center; align:center' src='img/fixation2_sml.jpg'></div><div class='arrayDiv1'><div class='tc'><img class='introPic' src='trustrating_stim/white_mw038.bmp'><br><font color='green'><strong>Share</strong></font></div></div></div>","null","ARRAY","1","trustrating_stim/white_mw038.bmp","1","Match","e","1500","","","","",""
"html-keyboard-response","162","394961","0.0-7.0-3.25","5dd03c5486c8861300974102","bdp_wmem","Tue Mar 14 2023 14:18:12 GMT-0400 (Eastern Daylight Time)","608623","Match,No Match","","null","","","","","","<div class='trialBorder'><div class='vertical-center'><img src='img/fixation2_sml.jpg'</img></div></div>","null","DELAY","","","","","","","","","","",""
"html-keyboard-response","163","395985","0.0-7.0-4.25","5dd03c5486c8861300974102","bdp_wmem","Tue Mar 14 2023 14:18:12 GMT-0400 (Eastern Daylight Time)","608623","Match,No Match","","1023","","","","","","<div class='trialBorder'><div class='targDiv'><div class='tc'><img class='introPic' src='trustrating_stim/white_mw038.bmp'><br><font color='green'><strong>Share</strong></font></div></div><div class='respDiv'><div class='respDivL'>Match<br>(e)</div><div class='respDivR'>No Match<br>(i)</div></div></div>","e","TARGET","1","trustrating_stim/white_mw038.bmp","1","Match","e","1500","trustrating_stim/white_mw038.bmp","green","Share","REAL","1"
"html-keyboard-response","164","396485","0.0-7.0-5.25","5dd03c5486c8861300974102","bdp_wmem","Tue Mar 14 2023 14:18:12 GMT-0400 (Eastern Daylight Time)","608623","Match,No Match","","null","","","","","","<div class='trialBorder'><div class='vertical-center'><img src='img/correct.jpg'></div><div class='respDiv'><div class='respDivL'><font style='color:orange'>Match<br>(e)</font></div><div class='respDivR'>No Match<br>(i)</div></div></div>","null","FEEDBACK","","","","","","","","","","",""
"html-keyboard-response","165","396986","0.0-7.0-1.26","5dd03c5486c8861300974102","bdp_wmem","Tue Mar 14 2023 14:18:12 GMT-0400 (Eastern Daylight Time)","608623","Match,No Match","","null","","","","","","<div class='trialBorder'><div class='vertical-center'><img src='img/fixation2_sml.jpg'</img></div></div>","null","FIX","","","","","","","","","","",""
"html-keyboard-response","166","398487","0.0-7.0-2.26","5dd03c5486c8861300974102","bdp_wmem","Tue Mar 14 2023 14:18:12 GMT-0400 (Eastern Daylight Time)","608623","Match,No Match","","null","","","","","","<div class='trialBorder'><div class='vertical-center'><img style='vertical-align:center; align:center' src='img/fixation2_sml.jpg'></div><div class='arrayDiv1'><div class='tc'><img class='introPic' src='trustrating_stim/white_mw013.bmp'><br><font color='green'><strong>Share</strong></font></div></div></div>","null","ARRAY","1","trustrating_stim/white_mw013.bmp","1","noMatchOutcome","i","1500","","","","",""
"html-keyboard-response","167","402488","0.0-7.0-3.26","5dd03c5486c8861300974102","bdp_wmem","Tue Mar 14 2023 14:18:12 GMT-0400 (Eastern Daylight Time)","608623","Match,No Match","","null","","","","","","<div class='trialBorder'><div class='vertical-center'><img src='img/fixation2_sml.jpg'</img></div></div>","null","DELAY","","","","","","","","","","",""
"html-keyboard-response","168","403584","0.0-7.0-4.26","5dd03c5486c8861300974102","bdp_wmem","Tue Mar 14 2023 14:18:12 GMT-0400 (Eastern Daylight Time)","608623","Match,No Match","","1095","","","","","","<div class='trialBorder'><div class='targDiv'><div class='tc'><img class='introPic' src='trustrating_stim/white_mw013.bmp'><br><font color='red'><strong>Keep</strong></font></div></div><div class='respDiv'><div class='respDivL'>Match<br>(e)</div><div class='respDivR'>No Match<br>(i)</div></div></div>","i","TARGET","1","trustrating_stim/white_mw013.bmp","1","noMatchOutcome","i","1500","trustrating_stim/white_mw013.bmp","red","Keep","REAL","1"
"html-keyboard-response","169","404085","0.0-7.0-5.26","5dd03c5486c8861300974102","bdp_wmem","Tue Mar 14 2023 14:18:12 GMT-0400 (Eastern Daylight Time)","608623","Match,No Match","","null","","","","","","<div class='trialBorder'><div class='vertical-center'><img src='img/correct.jpg'></div><div class='respDiv'><div class='respDivL'>Match<br>(e)</div><div class='respDivR'><font style='color:orange'>No Match<br>(i)</font></div></div></div>","null","FEEDBACK","","","","","","","","","","",""
"html-keyboard-response","170","404587","0.0-7.0-1.27","5dd03c5486c8861300974102","bdp_wmem","Tue Mar 14 2023 14:18:12 GMT-0400 (Eastern Daylight Time)","608623","Match,No Match","","null","","","","","","<div class='trialBorder'><div class='vertical-center'><img src='img/fixation2_sml.jpg'</img></div></div>","null","FIX","","","","","","","","","","",""
"html-keyboard-response","171","407589","0.0-7.0-2.27","5dd03c5486c8861300974102","bdp_wmem","Tue Mar 14 2023 14:18:12 GMT-0400 (Eastern Daylight Time)","608623","Match,No Match","","null","","","","","","<div class='trialBorder'><div class='vertical-center'><img style='vertical-align:center; align:center' src='img/fixation2_sml.jpg'></div><div class='arrayDiv2'><div class='tl'><img class='introPic' src='trustrating_stim/white_mw070.bmp'><br><font color='green'><strong>Share</strong></font></div><div class='tr'><img class='introPic' src='trustrating_stim/white_mw013.bmp'><br><font color='red'><strong>Keep</strong></font></div></div></div>","null","ARRAY","2","trustrating_stim/white_mw070.bmp,trustrating_stim/white_mw013.bmp","1,0","noMatchFace","i","3000","","","","",""
"html-keyboard-response","172","411590","0.0-7.0-3.27","5dd03c5486c8861300974102","bdp_wmem","Tue Mar 14 2023 14:18:12 GMT-0400 (Eastern Daylight Time)","608623","Match,No Match","","null","","","","","","<div class='trialBorder'><div class='vertical-center'><img src='img/fixation2_sml.jpg'</img></div></div>","null","DELAY","","","","","","","","","","",""
"html-keyboard-response","173","412936","0.0-7.0-4.27","5dd03c5486c8861300974102","bdp_wmem","Tue Mar 14 2023 14:18:12 GMT-0400 (Eastern Daylight Time)","608623","Match,No Match","","1346","","","","","","<div class='trialBorder'><div class='targDiv'><div class='tc'><img class='introPic' src='trustrating_stim/white_mw038.bmp'><br><font color='red'><strong>Keep</strong></font></div></div><div class='respDiv'><div class='respDivL'>Match<br>(e)</div><div class='respDivR'>No Match<br>(i)</div></div></div>","i","TARGET","2","trustrating_stim/white_mw070.bmp,trustrating_stim/white_mw013.bmp","1,0","noMatchFace","i","3000","trustrating_stim/white_mw038.bmp","red","Keep","REAL","1"
"html-keyboard-response","174","413437","0.0-7.0-5.27","5dd03c5486c8861300974102","bdp_wmem","Tue Mar 14 2023 14:18:12 GMT-0400 (Eastern Daylight Time)","608623","Match,No Match","","null","","","","","","<div class='trialBorder'><div class='vertical-center'><img src='img/correct.jpg'></div><div class='respDiv'><div class='respDivL'>Match<br>(e)</div><div class='respDivR'><font style='color:orange'>No Match<br>(i)</font></div></div></div>","null","FEEDBACK","","","","","","","","","","",""
"html-keyboard-response","175","413939","0.0-7.0-1.28","5dd03c5486c8861300974102","bdp_wmem","Tue Mar 14 2023 14:18:12 GMT-0400 (Eastern Daylight Time)","608623","Match,No Match","","null","","","","","","<div class='trialBorder'><div class='vertical-center'><img src='img/fixation2_sml.jpg'</img></div></div>","null","FIX","","","","","","","","","","",""
"html-keyboard-response","176","418440","0.0-7.0-2.28","5dd03c5486c8861300974102","bdp_wmem","Tue Mar 14 2023 14:18:12 GMT-0400 (Eastern Daylight Time)","608623","Match,No Match","","null","","","","","","<div class='trialBorder'><div class='vertical-center'><img style='vertical-align:center; align:center' src='img/fixation2_sml.jpg'></div><div class='arrayDiv3'><div class='tl'><img class='introPic' src='trustrating_stim/white_mw042.bmp'><br><font color='red'><strong>Keep</strong></font></div><div class='tc'><img class='introPic' src='trustrating_stim/white_mw003.bmp'><br><font color='green'><strong>Share</strong></font></div><div class='tr'><img class='introPic' src='trustrating_stim/white_mw010.bmp'><br><font color='red'><strong>Keep</strong></font></div></div></div>","null","ARRAY","3","trustrating_stim/white_mw042.bmp,trustrating_stim/white_mw003.bmp,trustrating_stim/white_mw010.bmp","0,1,0","Match","e","4500","","","","",""
"html-keyboard-response","177","422441","0.0-7.0-3.28","5dd03c5486c8861300974102","bdp_wmem","Tue Mar 14 2023 14:18:12 GMT-0400 (Eastern Daylight Time)","608623","Match,No Match","","null","","","","","","<div class='trialBorder'><div class='vertical-center'><img src='img/fixation2_sml.jpg'</img></div></div>","null","DELAY","","","","","","","","","","",""
"html-keyboard-response","178","423520","0.0-7.0-4.28","5dd03c5486c8861300974102","bdp_wmem","Tue Mar 14 2023 14:18:12 GMT-0400 (Eastern Daylight Time)","608623","Match,No Match","","1078","","","","","","<div class='trialBorder'><div class='targDiv'><div class='tc'><img class='introPic' src='trustrating_stim/white_mw003.bmp'><br><font color='green'><strong>Share</strong></font></div></div><div class='respDiv'><div class='respDivL'>Match<br>(e)</div><div class='respDivR'>No Match<br>(i)</div></div></div>","e","TARGET","3","trustrating_stim/white_mw042.bmp,trustrating_stim/white_mw003.bmp,trustrating_stim/white_mw010.bmp","0,1,0","Match","e","4500","trustrating_stim/white_mw003.bmp","green","Share","REAL","1"
"html-keyboard-response","179","424021","0.0-7.0-5.28","5dd03c5486c8861300974102","bdp_wmem","Tue Mar 14 2023 14:18:12 GMT-0400 (Eastern Daylight Time)","608623","Match,No Match","","null","","","","","","<div class='trialBorder'><div class='vertical-center'><img src='img/correct.jpg'></div><div class='respDiv'><div class='respDivL'><font style='color:orange'>Match<br>(e)</font></div><div class='respDivR'>No Match<br>(i)</div></div></div>","null","FEEDBACK","","","","","","","","","","",""
"html-keyboard-response","180","424522","0.0-7.0-1.29","5dd03c5486c8861300974102","bdp_wmem","Tue Mar 14 2023 14:18:12 GMT-0400 (Eastern Daylight Time)","608623","Match,No Match","","null","","","","","","<div class='trialBorder'><div class='vertical-center'><img src='img/fixation2_sml.jpg'</img></div></div>","null","FIX","","","","","","","","","","",""
"html-keyboard-response","181","426024","0.0-7.0-2.29","5dd03c5486c8861300974102","bdp_wmem","Tue Mar 14 2023 14:18:12 GMT-0400 (Eastern Daylight Time)","608623","Match,No Match","","null","","","","","","<div class='trialBorder'><div class='vertical-center'><img style='vertical-align:center; align:center' src='img/fixation2_sml.jpg'></div><div class='arrayDiv1'><div class='tc'><img class='introPic' src='trustrating_stim/white_mw092.bmp'><br><font color='green'><strong>Share</strong></font></div></div></div>","null","ARRAY","1","trustrating_stim/white_mw092.bmp","1","noMatchOutcome","i","1500","","","","",""
"html-keyboard-response","182","430025","0.0-7.0-3.29","5dd03c5486c8861300974102","bdp_wmem","Tue Mar 14 2023 14:18:12 GMT-0400 (Eastern Daylight Time)","608623","Match,No Match","","null","","","","","","<div class='trialBorder'><div class='vertical-center'><img src='img/fixation2_sml.jpg'</img></div></div>","null","DELAY","","","","","","","","","","",""
"html-keyboard-response","183","432792","0.0-7.0-4.29","5dd03c5486c8861300974102","bdp_wmem","Tue Mar 14 2023 14:18:12 GMT-0400 (Eastern Daylight Time)","608623","Match,No Match","","2766","","","","","","<div class='trialBorder'><div class='targDiv'><div class='tc'><img class='introPic' src='trustrating_stim/white_mw092.bmp'><br><font color='red'><strong>Keep</strong></font></div></div><div class='respDiv'><div class='respDivL'>Match<br>(e)</div><div class='respDivR'>No Match<br>(i)</div></div></div>","e","TARGET","1","trustrating_stim/white_mw092.bmp","1","noMatchOutcome","i","1500","trustrating_stim/white_mw092.bmp","red","Keep","REAL","0"
"html-keyboard-response","184","433293","0.0-7.0-5.29","5dd03c5486c8861300974102","bdp_wmem","Tue Mar 14 2023 14:18:12 GMT-0400 (Eastern Daylight Time)","608623","Match,No Match","","null","","","","","","<div class='trialBorder'><div class='vertical-center'><img src='img/error.jpg'></div><div class='respDiv'><div class='respDivL'><font style='color:orange'>Match<br>(e)</font></div><div class='respDivR'>No Match<br>(i)</div></div></div>","null","FEEDBACK","","","","","","","","","","",""
"html-keyboard-response","185","433794","0.0-7.0-1.30","5dd03c5486c8861300974102","bdp_wmem","Tue Mar 14 2023 14:18:12 GMT-0400 (Eastern Daylight Time)","608623","Match,No Match","","null","","","","","","<div class='trialBorder'><div class='vertical-center'><img src='img/fixation2_sml.jpg'</img></div></div>","null","FIX","","","","","","","","","","",""
"html-keyboard-response","186","436796","0.0-7.0-2.30","5dd03c5486c8861300974102","bdp_wmem","Tue Mar 14 2023 14:18:12 GMT-0400 (Eastern Daylight Time)","608623","Match,No Match","","null","","","","","","<div class='trialBorder'><div class='vertical-center'><img style='vertical-align:center; align:center' src='img/fixation2_sml.jpg'></div><div class='arrayDiv2'><div class='tl'><img class='introPic' src='trustrating_stim/white_mw003.bmp'><br><font color='red'><strong>Keep</strong></font></div><div class='tr'><img class='introPic' src='trustrating_stim/white_mw091.bmp'><br><font color='green'><strong>Share</strong></font></div></div></div>","null","ARRAY","2","trustrating_stim/white_mw003.bmp,trustrating_stim/white_mw091.bmp","0,1","Match","e","3000","","","","",""
"html-keyboard-response","187","440797","0.0-7.0-3.30","5dd03c5486c8861300974102","bdp_wmem","Tue Mar 14 2023 14:18:12 GMT-0400 (Eastern Daylight Time)","608623","Match,No Match","","null","","","","","","<div class='trialBorder'><div class='vertical-center'><img src='img/fixation2_sml.jpg'</img></div></div>","null","DELAY","","","","","","","","","","",""
