"trial_type","trial_index","time_elapsed","internal_node_id","subject_id","task","startTime","totalTime","labels","view_history","rt","event","trial","time","trialtype","success","stimulus","key_press","stimType","arraySize","arrayFaces","arrayOutcomes","matchType","corrResp","arrayDur","targFace","targCol","targOutcome","trialType","corr"
"pavlovia","0","7","0.0-0.0","6400df3b4bd1fb13b52727fe","bdp_wmem","Tue Mar 14 2023 22:09:57 GMT-0400 (Eastern Daylight Time)","694072","Match,No Match","","","","","","","","","","","","","","","","","","","","",""
"instructions","1","2309","0.0-1.0","6400df3b4bd1fb13b52727fe","bdp_wmem","Tue Mar 14 2023 22:09:57 GMT-0400 (Eastern Daylight Time)","694072","Match,No Match","[{""page_index"":0,""viewing_time"":2301}]","2301","","","","","","","","","","","","","","","","","","",""
"","","","","6400df3b4bd1fb13b52727fe","bdp_wmem","Tue Mar 14 2023 22:09:57 GMT-0400 (Eastern Daylight Time)","694072","Match,No Match","","","fullscreenenter","2","5939","fullscreenenter","","","","","","","","","","","","","","",""
"fullscreen","2","6940","0.0-2.0","6400df3b4bd1fb13b52727fe","bdp_wmem","Tue Mar 14 2023 22:09:57 GMT-0400 (Eastern Daylight Time)","694072","Match,No Match","","","","","","","true","","","","","","","","","","","","","",""
"instructions","3","163876","0.0-4.0","6400df3b4bd1fb13b52727fe","bdp_wmem","Tue Mar 14 2023 22:09:57 GMT-0400 (Eastern Daylight Time)","694072","Match,No Match","[{""page_index"":0,""viewing_time"":48353},{""page_index"":1,""viewing_time"":58297},{""page_index"":2,""viewing_time"":35144},{""page_index"":3,""viewing_time"":5070},{""page_index"":4,""viewing_time"":10069}]","156933","","","","","","","","","","","","","","","","","","",""
"html-keyboard-response","4","164383","0.0-5.0-1.0","6400df3b4bd1fb13b52727fe","bdp_wmem","Tue Mar 14 2023 22:09:57 GMT-0400 (Eastern Daylight Time)","694072","Match,No Match","","null","","","","","","<div class='trialBorder'><div class='vertical-center'><img src='img/fixation2_sml.jpg'</img></div></div>","null","FIX","","","","","","","","","","",""
"html-keyboard-response","5","165902","0.0-5.0-2.0","6400df3b4bd1fb13b52727fe","bdp_wmem","Tue Mar 14 2023 22:09:57 GMT-0400 (Eastern Daylight Time)","694072","Match,No Match","","null","","","","","","<div class='trialBorder'><div class='vertical-center'><img style='vertical-align:center; align:center' src='img/fixation2_sml.jpg'></div><div class='arrayDiv1'><div class='tc'><img class='introPic' src='trustrating_stim/white_mw092.bmp'><br><font color='red'><strong>Keep</strong></font></div></div></div>","null","ARRAY","1","trustrating_stim/white_mw092.bmp","0","noMatchFace","i","1500","","","","",""
"html-keyboard-response","6","169906","0.0-5.0-3.0","6400df3b4bd1fb13b52727fe","bdp_wmem","Tue Mar 14 2023 22:09:57 GMT-0400 (Eastern Daylight Time)","694072","Match,No Match","","null","","","","","","<div class='trialBorder'><div class='vertical-center'><img src='img/fixation2_sml.jpg'</img></div></div>","null","DELAY","","","","","","","","","","",""
"html-keyboard-response","7","172039","0.0-5.0-4.0","6400df3b4bd1fb13b52727fe","bdp_wmem","Tue Mar 14 2023 22:09:57 GMT-0400 (Eastern Daylight Time)","694072","Match,No Match","","2130","","","","","","<div class='trialBorder'><div class='targDiv'><div class='tc'><img class='introPic' src='trustrating_stim/white_mw042.bmp'><br><font color='red'><strong>Keep</strong></font></div></div><div class='respDiv'><div class='respDivL'>Match<br>(e)</div><div class='respDivR'>No Match<br>(i)</div></div></div>","i","TARGET","1","trustrating_stim/white_mw092.bmp","0","noMatchFace","i","1500","trustrating_stim/white_mw042.bmp","red","Keep","PRACTICE","1"
"html-keyboard-response","8","172555","0.0-5.0-5.0","6400df3b4bd1fb13b52727fe","bdp_wmem","Tue Mar 14 2023 22:09:57 GMT-0400 (Eastern Daylight Time)","694072","Match,No Match","","null","","","","","","<div class='trialBorder'><div class='vertical-center'><img src='img/correct.jpg'></div><div class='respDiv'><div class='respDivL'>Match<br>(e)</div><div class='respDivR'><font style='color:orange'>No Match<br>(i)</font></div></div></div>","null","FEEDBACK","","","","","","","","","","",""
"html-keyboard-response","9","173066","0.0-5.0-1.1","6400df3b4bd1fb13b52727fe","bdp_wmem","Tue Mar 14 2023 22:09:57 GMT-0400 (Eastern Daylight Time)","694072","Match,No Match","","null","","","","","","<div class='trialBorder'><div class='vertical-center'><img src='img/fixation2_sml.jpg'</img></div></div>","null","FIX","","","","","","","","","","",""
"html-keyboard-response","10","176075","0.0-5.0-2.1","6400df3b4bd1fb13b52727fe","bdp_wmem","Tue Mar 14 2023 22:09:57 GMT-0400 (Eastern Daylight Time)","694072","Match,No Match","","null","","","","","","<div class='trialBorder'><div class='vertical-center'><img style='vertical-align:center; align:center' src='img/fixation2_sml.jpg'></div><div class='arrayDiv2'><div class='tl'><img class='introPic' src='trustrating_stim/white_mw003.bmp'><br><font color='red'><strong>Keep</strong></font></div><div class='tr'><img class='introPic' src='trustrating_stim/white_mw078.bmp'><br><font color='green'><strong>Share</strong></font></div></div></div>","null","ARRAY","2","trustrating_stim/white_mw003.bmp,trustrating_stim/white_mw078.bmp","0,1","noMatchFace","i","3000","","","","",""
"html-keyboard-response","11","180078","0.0-5.0-3.1","6400df3b4bd1fb13b52727fe","bdp_wmem","Tue Mar 14 2023 22:09:57 GMT-0400 (Eastern Daylight Time)","694072","Match,No Match","","null","","","","","","<div class='trialBorder'><div class='vertical-center'><img src='img/fixation2_sml.jpg'</img></div></div>","null","DELAY","","","","","","","","","","",""
"html-keyboard-response","12","181232","0.0-5.0-4.1","6400df3b4bd1fb13b52727fe","bdp_wmem","Tue Mar 14 2023 22:09:57 GMT-0400 (Eastern Daylight Time)","694072","Match,No Match","","1150","","","","","","<div class='trialBorder'><div class='targDiv'><div class='tc'><img class='introPic' src='trustrating_stim/white_mw085.bmp'><br><font color='green'><strong>Share</strong></font></div></div><div class='respDiv'><div class='respDivL'>Match<br>(e)</div><div class='respDivR'>No Match<br>(i)</div></div></div>","i","TARGET","2","trustrating_stim/white_mw003.bmp,trustrating_stim/white_mw078.bmp","0,1","noMatchFace","i","3000","trustrating_stim/white_mw085.bmp","green","Share","PRACTICE","1"
"html-keyboard-response","13","181741","0.0-5.0-5.1","6400df3b4bd1fb13b52727fe","bdp_wmem","Tue Mar 14 2023 22:09:57 GMT-0400 (Eastern Daylight Time)","694072","Match,No Match","","null","","","","","","<div class='trialBorder'><div class='vertical-center'><img src='img/correct.jpg'></div><div class='respDiv'><div class='respDivL'>Match<br>(e)</div><div class='respDivR'><font style='color:orange'>No Match<br>(i)</font></div></div></div>","null","FEEDBACK","","","","","","","","","","",""
"html-keyboard-response","14","182251","0.0-5.0-1.2","6400df3b4bd1fb13b52727fe","bdp_wmem","Tue Mar 14 2023 22:09:57 GMT-0400 (Eastern Daylight Time)","694072","Match,No Match","","null","","","","","","<div class='trialBorder'><div class='vertical-center'><img src='img/fixation2_sml.jpg'</img></div></div>","null","FIX","","","","","","","","","","",""
"html-keyboard-response","15","183759","0.0-5.0-2.2","6400df3b4bd1fb13b52727fe","bdp_wmem","Tue Mar 14 2023 22:09:57 GMT-0400 (Eastern Daylight Time)","694072","Match,No Match","","null","","","","","","<div class='trialBorder'><div class='vertical-center'><img style='vertical-align:center; align:center' src='img/fixation2_sml.jpg'></div><div class='arrayDiv1'><div class='tc'><img class='introPic' src='trustrating_stim/white_mw013.bmp'><br><font color='green'><strong>Share</strong></font></div></div></div>","null","ARRAY","1","trustrating_stim/white_mw013.bmp","1","Match","e","1500","","","","",""
"html-keyboard-response","16","187768","0.0-5.0-3.2","6400df3b4bd1fb13b52727fe","bdp_wmem","Tue Mar 14 2023 22:09:57 GMT-0400 (Eastern Daylight Time)","694072","Match,No Match","","null","","","","","","<div class='trialBorder'><div class='vertical-center'><img src='img/fixation2_sml.jpg'</img></div></div>","null","DELAY","","","","","","","","","","",""
"html-keyboard-response","17","188961","0.0-5.0-4.2","6400df3b4bd1fb13b52727fe","bdp_wmem","Tue Mar 14 2023 22:09:57 GMT-0400 (Eastern Daylight Time)","694072","Match,No Match","","1190","","","","","","<div class='trialBorder'><div class='targDiv'><div class='tc'><img class='introPic' src='trustrating_stim/white_mw013.bmp'><br><font color='green'><strong>Share</strong></font></div></div><div class='respDiv'><div class='respDivL'>Match<br>(e)</div><div class='respDivR'>No Match<br>(i)</div></div></div>","e","TARGET","1","trustrating_stim/white_mw013.bmp","1","Match","e","1500","trustrating_stim/white_mw013.bmp","green","Share","PRACTICE","1"
"html-keyboard-response","18","189468","0.0-5.0-5.2","6400df3b4bd1fb13b52727fe","bdp_wmem","Tue Mar 14 2023 22:09:57 GMT-0400 (Eastern Daylight Time)","694072","Match,No Match","","null","","","","","","<div class='trialBorder'><div class='vertical-center'><img src='img/correct.jpg'></div><div class='respDiv'><div class='respDivL'><font style='color:orange'>Match<br>(e)</font></div><div class='respDivR'>No Match<br>(i)</div></div></div>","null","FEEDBACK","","","","","","","","","","",""
"html-keyboard-response","19","189973","0.0-5.0-1.3","6400df3b4bd1fb13b52727fe","bdp_wmem","Tue Mar 14 2023 22:09:57 GMT-0400 (Eastern Daylight Time)","694072","Match,No Match","","null","","","","","","<div class='trialBorder'><div class='vertical-center'><img src='img/fixation2_sml.jpg'</img></div></div>","null","FIX","","","","","","","","","","",""
"html-keyboard-response","20","194490","0.0-5.0-2.3","6400df3b4bd1fb13b52727fe","bdp_wmem","Tue Mar 14 2023 22:09:57 GMT-0400 (Eastern Daylight Time)","694072","Match,No Match","","null","","","","","","<div class='trialBorder'><div class='vertical-center'><img style='vertical-align:center; align:center' src='img/fixation2_sml.jpg'></div><div class='arrayDiv3'><div class='tl'><img class='introPic' src='trustrating_stim/white_mw003.bmp'><br><font color='red'><strong>Keep</strong></font></div><div class='tc'><img class='introPic' src='trustrating_stim/white_mw010.bmp'><br><font color='green'><strong>Share</strong></font></div><div class='tr'><img class='introPic' src='trustrating_stim/white_mw038.bmp'><br><font color='green'><strong>Share</strong></font></div></div></div>","null","ARRAY","3","trustrating_stim/white_mw003.bmp,trustrating_stim/white_mw010.bmp,trustrating_stim/white_mw038.bmp","0,1,1","noMatchOutcome","i","4500","","","","",""
"html-keyboard-response","21","198493","0.0-5.0-3.3","6400df3b4bd1fb13b52727fe","bdp_wmem","Tue Mar 14 2023 22:09:57 GMT-0400 (Eastern Daylight Time)","694072","Match,No Match","","null","","","","","","<div class='trialBorder'><div class='vertical-center'><img src='img/fixation2_sml.jpg'</img></div></div>","null","DELAY","","","","","","","","","","",""
"html-keyboard-response","22","200404","0.0-5.0-4.3","6400df3b4bd1fb13b52727fe","bdp_wmem","Tue Mar 14 2023 22:09:57 GMT-0400 (Eastern Daylight Time)","694072","Match,No Match","","1908","","","","","","<div class='trialBorder'><div class='targDiv'><div class='tc'><img class='introPic' src='trustrating_stim/white_mw010.bmp'><br><font color='red'><strong>Keep</strong></font></div></div><div class='respDiv'><div class='respDivL'>Match<br>(e)</div><div class='respDivR'>No Match<br>(i)</div></div></div>","e","TARGET","3","trustrating_stim/white_mw003.bmp,trustrating_stim/white_mw010.bmp,trustrating_stim/white_mw038.bmp","0,1,1","noMatchOutcome","i","4500","trustrating_stim/white_mw010.bmp","red","Keep","PRACTICE","0"
"html-keyboard-response","23","200906","0.0-5.0-5.3","6400df3b4bd1fb13b52727fe","bdp_wmem","Tue Mar 14 2023 22:09:57 GMT-0400 (Eastern Daylight Time)","694072","Match,No Match","","null","","","","","","<div class='trialBorder'><div class='vertical-center'><img src='img/error.jpg'></div><div class='respDiv'><div class='respDivL'><font style='color:orange'>Match<br>(e)</font></div><div class='respDivR'>No Match<br>(i)</div></div></div>","null","FEEDBACK","","","","","","","","","","",""
"html-keyboard-response","24","201412","0.0-5.0-1.4","6400df3b4bd1fb13b52727fe","bdp_wmem","Tue Mar 14 2023 22:09:57 GMT-0400 (Eastern Daylight Time)","694072","Match,No Match","","null","","","","","","<div class='trialBorder'><div class='vertical-center'><img src='img/fixation2_sml.jpg'</img></div></div>","null","FIX","","","","","","","","","","",""
"html-keyboard-response","25","205921","0.0-5.0-2.4","6400df3b4bd1fb13b52727fe","bdp_wmem","Tue Mar 14 2023 22:09:57 GMT-0400 (Eastern Daylight Time)","694072","Match,No Match","","null","","","","","","<div class='trialBorder'><div class='vertical-center'><img style='vertical-align:center; align:center' src='img/fixation2_sml.jpg'></div><div class='arrayDiv3'><div class='tl'><img class='introPic' src='trustrating_stim/white_mw003.bmp'><br><font color='red'><strong>Keep</strong></font></div><div class='tc'><img class='introPic' src='trustrating_stim/white_mw070.bmp'><br><font color='green'><strong>Share</strong></font></div><div class='tr'><img class='introPic' src='trustrating_stim/white_mw091.bmp'><br><font color='green'><strong>Share</strong></font></div></div></div>","null","ARRAY","3","trustrating_stim/white_mw003.bmp,trustrating_stim/white_mw070.bmp,trustrating_stim/white_mw091.bmp","0,1,1","Match","e","4500","","","","",""
"html-keyboard-response","26","209932","0.0-5.0-3.4","6400df3b4bd1fb13b52727fe","bdp_wmem","Tue Mar 14 2023 22:09:57 GMT-0400 (Eastern Daylight Time)","694072","Match,No Match","","null","","","","","","<div class='trialBorder'><div class='vertical-center'><img src='img/fixation2_sml.jpg'</img></div></div>","null","DELAY","","","","","","","","","","",""
"html-keyboard-response","27","211620","0.0-5.0-4.4","6400df3b4bd1fb13b52727fe","bdp_wmem","Tue Mar 14 2023 22:09:57 GMT-0400 (Eastern Daylight Time)","694072","Match,No Match","","1685","","","","","","<div class='trialBorder'><div class='targDiv'><div class='tc'><img class='introPic' src='trustrating_stim/white_mw070.bmp'><br><font color='green'><strong>Share</strong></font></div></div><div class='respDiv'><div class='respDivL'>Match<br>(e)</div><div class='respDivR'>No Match<br>(i)</div></div></div>","i","TARGET","3","trustrating_stim/white_mw003.bmp,trustrating_stim/white_mw070.bmp,trustrating_stim/white_mw091.bmp","0,1,1","Match","e","4500","trustrating_stim/white_mw070.bmp","green","Share","PRACTICE","0"
"html-keyboard-response","28","212122","0.0-5.0-5.4","6400df3b4bd1fb13b52727fe","bdp_wmem","Tue Mar 14 2023 22:09:57 GMT-0400 (Eastern Daylight Time)","694072","Match,No Match","","null","","","","","","<div class='trialBorder'><div class='vertical-center'><img src='img/error.jpg'></div><div class='respDiv'><div class='respDivL'>Match<br>(e)</div><div class='respDivR'><font style='color:orange'>No Match<br>(i)</font></div></div></div>","null","FEEDBACK","","","","","","","","","","",""
"html-keyboard-response","29","212632","0.0-5.0-1.5","6400df3b4bd1fb13b52727fe","bdp_wmem","Tue Mar 14 2023 22:09:57 GMT-0400 (Eastern Daylight Time)","694072","Match,No Match","","null","","","","","","<div class='trialBorder'><div class='vertical-center'><img src='img/fixation2_sml.jpg'</img></div></div>","null","FIX","","","","","","","","","","",""
"html-keyboard-response","30","215644","0.0-5.0-2.5","6400df3b4bd1fb13b52727fe","bdp_wmem","Tue Mar 14 2023 22:09:57 GMT-0400 (Eastern Daylight Time)","694072","Match,No Match","","null","","","","","","<div class='trialBorder'><div class='vertical-center'><img style='vertical-align:center; align:center' src='img/fixation2_sml.jpg'></div><div class='arrayDiv2'><div class='tl'><img class='introPic' src='trustrating_stim/white_mw070.bmp'><br><font color='red'><strong>Keep</strong></font></div><div class='tr'><img class='introPic' src='trustrating_stim/white_mw078.bmp'><br><font color='green'><strong>Share</strong></font></div></div></div>","null","ARRAY","2","trustrating_stim/white_mw070.bmp,trustrating_stim/white_mw078.bmp","0,1","Match","e","3000","","","","",""
"html-keyboard-response","31","219648","0.0-5.0-3.5","6400df3b4bd1fb13b52727fe","bdp_wmem","Tue Mar 14 2023 22:09:57 GMT-0400 (Eastern Daylight Time)","694072","Match,No Match","","null","","","","","","<div class='trialBorder'><div class='vertical-center'><img src='img/fixation2_sml.jpg'</img></div></div>","null","DELAY","","","","","","","","","","",""
"html-keyboard-response","32","220554","0.0-5.0-4.5","6400df3b4bd1fb13b52727fe","bdp_wmem","Tue Mar 14 2023 22:09:57 GMT-0400 (Eastern Daylight Time)","694072","Match,No Match","","904","","","","","","<div class='trialBorder'><div class='targDiv'><div class='tc'><img class='introPic' src='trustrating_stim/white_mw078.bmp'><br><font color='green'><strong>Share</strong></font></div></div><div class='respDiv'><div class='respDivL'>Match<br>(e)</div><div class='respDivR'>No Match<br>(i)</div></div></div>","e","TARGET","2","trustrating_stim/white_mw070.bmp,trustrating_stim/white_mw078.bmp","0,1","Match","e","3000","trustrating_stim/white_mw078.bmp","green","Share","PRACTICE","1"
"html-keyboard-response","33","221063","0.0-5.0-5.5","6400df3b4bd1fb13b52727fe","bdp_wmem","Tue Mar 14 2023 22:09:57 GMT-0400 (Eastern Daylight Time)","694072","Match,No Match","","null","","","","","","<div class='trialBorder'><div class='vertical-center'><img src='img/correct.jpg'></div><div class='respDiv'><div class='respDivL'><font style='color:orange'>Match<br>(e)</font></div><div class='respDivR'>No Match<br>(i)</div></div></div>","null","FEEDBACK","","","","","","","","","","",""
"instructions","34","242744","0.0-6.0","6400df3b4bd1fb13b52727fe","bdp_wmem","Tue Mar 14 2023 22:09:57 GMT-0400 (Eastern Daylight Time)","694072","Match,No Match","[{""page_index"":0,""viewing_time"":21681}]","21681","","","","","","","","","","","","","","","","","","",""
"html-keyboard-response","35","243256","0.0-7.0-1.0","6400df3b4bd1fb13b52727fe","bdp_wmem","Tue Mar 14 2023 22:09:57 GMT-0400 (Eastern Daylight Time)","694072","Match,No Match","","null","","","","","","<div class='trialBorder'><div class='vertical-center'><img src='img/fixation2_sml.jpg'</img></div></div>","null","FIX","","","","","","","","","","",""
"html-keyboard-response","36","244770","0.0-7.0-2.0","6400df3b4bd1fb13b52727fe","bdp_wmem","Tue Mar 14 2023 22:09:57 GMT-0400 (Eastern Daylight Time)","694072","Match,No Match","","null","","","","","","<div class='trialBorder'><div class='vertical-center'><img style='vertical-align:center; align:center' src='img/fixation2_sml.jpg'></div><div class='arrayDiv1'><div class='tc'><img class='introPic' src='trustrating_stim/white_mw013.bmp'><br><font color='green'><strong>Share</strong></font></div></div></div>","null","ARRAY","1","trustrating_stim/white_mw013.bmp","1","Match","e","1500","","","","",""
"html-keyboard-response","37","248782","0.0-7.0-3.0","6400df3b4bd1fb13b52727fe","bdp_wmem","Tue Mar 14 2023 22:09:57 GMT-0400 (Eastern Daylight Time)","694072","Match,No Match","","null","","","","","","<div class='trialBorder'><div class='vertical-center'><img src='img/fixation2_sml.jpg'</img></div></div>","null","DELAY","","","","","","","","","","",""
"html-keyboard-response","38","250037","0.0-7.0-4.0","6400df3b4bd1fb13b52727fe","bdp_wmem","Tue Mar 14 2023 22:09:57 GMT-0400 (Eastern Daylight Time)","694072","Match,No Match","","1253","","","","","","<div class='trialBorder'><div class='targDiv'><div class='tc'><img class='introPic' src='trustrating_stim/white_mw013.bmp'><br><font color='green'><strong>Share</strong></font></div></div><div class='respDiv'><div class='respDivL'>Match<br>(e)</div><div class='respDivR'>No Match<br>(i)</div></div></div>","e","TARGET","1","trustrating_stim/white_mw013.bmp","1","Match","e","1500","trustrating_stim/white_mw013.bmp","green","Share","REAL","1"
"html-keyboard-response","39","250550","0.0-7.0-5.0","6400df3b4bd1fb13b52727fe","bdp_wmem","Tue Mar 14 2023 22:09:57 GMT-0400 (Eastern Daylight Time)","694072","Match,No Match","","null","","","","","","<div class='trialBorder'><div class='vertical-center'><img src='img/correct.jpg'></div><div class='respDiv'><div class='respDivL'><font style='color:orange'>Match<br>(e)</font></div><div class='respDivR'>No Match<br>(i)</div></div></div>","null","FEEDBACK","","","","","","","","","","",""
"html-keyboard-response","40","251061","0.0-7.0-1.1","6400df3b4bd1fb13b52727fe","bdp_wmem","Tue Mar 14 2023 22:09:57 GMT-0400 (Eastern Daylight Time)","694072","Match,No Match","","null","","","","","","<div class='trialBorder'><div class='vertical-center'><img src='img/fixation2_sml.jpg'</img></div></div>","null","FIX","","","","","","","","","","",""
"html-keyboard-response","41","252572","0.0-7.0-2.1","6400df3b4bd1fb13b52727fe","bdp_wmem","Tue Mar 14 2023 22:09:57 GMT-0400 (Eastern Daylight Time)","694072","Match,No Match","","null","","","","","","<div class='trialBorder'><div class='vertical-center'><img style='vertical-align:center; align:center' src='img/fixation2_sml.jpg'></div><div class='arrayDiv1'><div class='tc'><img class='introPic' src='trustrating_stim/white_mw038.bmp'><br><font color='green'><strong>Share</strong></font></div></div></div>","null","ARRAY","1","trustrating_stim/white_mw038.bmp","1","Match","e","1500","","","","",""
"html-keyboard-response","42","256582","0.0-7.0-3.1","6400df3b4bd1fb13b52727fe","bdp_wmem","Tue Mar 14 2023 22:09:57 GMT-0400 (Eastern Daylight Time)","694072","Match,No Match","","null","","","","","","<div class='trialBorder'><div class='vertical-center'><img src='img/fixation2_sml.jpg'</img></div></div>","null","DELAY","","","","","","","","","","",""
"html-keyboard-response","43","257635","0.0-7.0-4.1","6400df3b4bd1fb13b52727fe","bdp_wmem","Tue Mar 14 2023 22:09:57 GMT-0400 (Eastern Daylight Time)","694072","Match,No Match","","1049","","","","","","<div class='trialBorder'><div class='targDiv'><div class='tc'><img class='introPic' src='trustrating_stim/white_mw038.bmp'><br><font color='green'><strong>Share</strong></font></div></div><div class='respDiv'><div class='respDivL'>Match<br>(e)</div><div class='respDivR'>No Match<br>(i)</div></div></div>","e","TARGET","1","trustrating_stim/white_mw038.bmp","1","Match","e","1500","trustrating_stim/white_mw038.bmp","green","Share","REAL","1"
"html-keyboard-response","44","258139","0.0-7.0-5.1","6400df3b4bd1fb13b52727fe","bdp_wmem","Tue Mar 14 2023 22:09:57 GMT-0400 (Eastern Daylight Time)","694072","Match,No Match","","null","","","","","","<div class='trialBorder'><div class='vertical-center'><img src='img/correct.jpg'></div><div class='respDiv'><div class='respDivL'><font style='color:orange'>Match<br>(e)</font></div><div class='respDivR'>No Match<br>(i)</div></div></div>","null","FEEDBACK","","","","","","","","","","",""
"html-keyboard-response","45","258642","0.0-7.0-1.2","6400df3b4bd1fb13b52727fe","bdp_wmem","Tue Mar 14 2023 22:09:57 GMT-0400 (Eastern Daylight Time)","694072","Match,No Match","","null","","","","","","<div class='trialBorder'><div class='vertical-center'><img src='img/fixation2_sml.jpg'</img></div></div>","null","FIX","","","","","","","","","","",""
"html-keyboard-response","46","260154","0.0-7.0-2.2","6400df3b4bd1fb13b52727fe","bdp_wmem","Tue Mar 14 2023 22:09:57 GMT-0400 (Eastern Daylight Time)","694072","Match,No Match","","null","","","","","","<div class='trialBorder'><div class='vertical-center'><img style='vertical-align:center; align:center' src='img/fixation2_sml.jpg'></div><div class='arrayDiv1'><div class='tc'><img class='introPic' src='trustrating_stim/white_mw003.bmp'><br><font color='green'><strong>Share</strong></font></div></div></div>","null","ARRAY","1","trustrating_stim/white_mw003.bmp","1","noMatchFace","i","1500","","","","",""
"html-keyboard-response","47","264171","0.0-7.0-3.2","6400df3b4bd1fb13b52727fe","bdp_wmem","Tue Mar 14 2023 22:09:57 GMT-0400 (Eastern Daylight Time)","694072","Match,No Match","","null","","","","","","<div class='trialBorder'><div class='vertical-center'><img src='img/fixation2_sml.jpg'</img></div></div>","null","DELAY","","","","","","","","","","",""
"html-keyboard-response","48","265044","0.0-7.0-4.2","6400df3b4bd1fb13b52727fe","bdp_wmem","Tue Mar 14 2023 22:09:57 GMT-0400 (Eastern Daylight Time)","694072","Match,No Match","","871","","","","","","<div class='trialBorder'><div class='targDiv'><div class='tc'><img class='introPic' src='trustrating_stim/white_mw085.bmp'><br><font color='green'><strong>Share</strong></font></div></div><div class='respDiv'><div class='respDivL'>Match<br>(e)</div><div class='respDivR'>No Match<br>(i)</div></div></div>","i","TARGET","1","trustrating_stim/white_mw003.bmp","1","noMatchFace","i","1500","trustrating_stim/white_mw085.bmp","green","Share","REAL","1"
"html-keyboard-response","49","265552","0.0-7.0-5.2","6400df3b4bd1fb13b52727fe","bdp_wmem","Tue Mar 14 2023 22:09:57 GMT-0400 (Eastern Daylight Time)","694072","Match,No Match","","null","","","","","","<div class='trialBorder'><div class='vertical-center'><img src='img/correct.jpg'></div><div class='respDiv'><div class='respDivL'>Match<br>(e)</div><div class='respDivR'><font style='color:orange'>No Match<br>(i)</font></div></div></div>","null","FEEDBACK","","","","","","","","","","",""
"html-keyboard-response","50","266060","0.0-7.0-1.3","6400df3b4bd1fb13b52727fe","bdp_wmem","Tue Mar 14 2023 22:09:57 GMT-0400 (Eastern Daylight Time)","694072","Match,No Match","","null","","","","","","<div class='trialBorder'><div class='vertical-center'><img src='img/fixation2_sml.jpg'</img></div></div>","null","FIX","","","","","","","","","","",""
"html-keyboard-response","51","267565","0.0-7.0-2.3","6400df3b4bd1fb13b52727fe","bdp_wmem","Tue Mar 14 2023 22:09:57 GMT-0400 (Eastern Daylight Time)","694072","Match,No Match","","null","","","","","","<div class='trialBorder'><div class='vertical-center'><img style='vertical-align:center; align:center' src='img/fixation2_sml.jpg'></div><div class='arrayDiv1'><div class='tc'><img class='introPic' src='trustrating_stim/white_mw078.bmp'><br><font color='green'><strong>Share</strong></font></div></div></div>","null","ARRAY","1","trustrating_stim/white_mw078.bmp","1","noMatchOutcome","i","1500","","","","",""
"html-keyboard-response","52","271581","0.0-7.0-3.3","6400df3b4bd1fb13b52727fe","bdp_wmem","Tue Mar 14 2023 22:09:57 GMT-0400 (Eastern Daylight Time)","694072","Match,No Match","","null","","","","","","<div class='trialBorder'><div class='vertical-center'><img src='img/fixation2_sml.jpg'</img></div></div>","null","DELAY","","","","","","","","","","",""
"html-keyboard-response","53","273021","0.0-7.0-4.3","6400df3b4bd1fb13b52727fe","bdp_wmem","Tue Mar 14 2023 22:09:57 GMT-0400 (Eastern Daylight Time)","694072","Match,No Match","","1437","","","","","","<div class='trialBorder'><div class='targDiv'><div class='tc'><img class='introPic' src='trustrating_stim/white_mw078.bmp'><br><font color='red'><strong>Keep</strong></font></div></div><div class='respDiv'><div class='respDivL'>Match<br>(e)</div><div class='respDivR'>No Match<br>(i)</div></div></div>","i","TARGET","1","trustrating_stim/white_mw078.bmp","1","noMatchOutcome","i","1500","trustrating_stim/white_mw078.bmp","red","Keep","REAL","1"
"html-keyboard-response","54","273529","0.0-7.0-5.3","6400df3b4bd1fb13b52727fe","bdp_wmem","Tue Mar 14 2023 22:09:57 GMT-0400 (Eastern Daylight Time)","694072","Match,No Match","","null","","","","","","<div class='trialBorder'><div class='vertical-center'><img src='img/correct.jpg'></div><div class='respDiv'><div class='respDivL'>Match<br>(e)</div><div class='respDivR'><font style='color:orange'>No Match<br>(i)</font></div></div></div>","null","FEEDBACK","","","","","","","","","","",""
"html-keyboard-response","55","274035","0.0-7.0-1.4","6400df3b4bd1fb13b52727fe","bdp_wmem","Tue Mar 14 2023 22:09:57 GMT-0400 (Eastern Daylight Time)","694072","Match,No Match","","null","","","","","","<div class='trialBorder'><div class='vertical-center'><img src='img/fixation2_sml.jpg'</img></div></div>","null","FIX","","","","","","","","","","",""
"html-keyboard-response","56","275543","0.0-7.0-2.4","6400df3b4bd1fb13b52727fe","bdp_wmem","Tue Mar 14 2023 22:09:57 GMT-0400 (Eastern Daylight Time)","694072","Match,No Match","","null","","","","","","<div class='trialBorder'><div class='vertical-center'><img style='vertical-align:center; align:center' src='img/fixation2_sml.jpg'></div><div class='arrayDiv1'><div class='tc'><img class='introPic' src='trustrating_stim/white_mw092.bmp'><br><font color='red'><strong>Keep</strong></font></div></div></div>","null","ARRAY","1","trustrating_stim/white_mw092.bmp","0","noMatchOutcome","i","1500","","","","",""
"html-keyboard-response","57","279547","0.0-7.0-3.4","6400df3b4bd1fb13b52727fe","bdp_wmem","Tue Mar 14 2023 22:09:57 GMT-0400 (Eastern Daylight Time)","694072","Match,No Match","","null","","","","","","<div class='trialBorder'><div class='vertical-center'><img src='img/fixation2_sml.jpg'</img></div></div>","null","DELAY","","","","","","","","","","",""
"html-keyboard-response","58","280705","0.0-7.0-4.4","6400df3b4bd1fb13b52727fe","bdp_wmem","Tue Mar 14 2023 22:09:57 GMT-0400 (Eastern Daylight Time)","694072","Match,No Match","","1155","","","","","","<div class='trialBorder'><div class='targDiv'><div class='tc'><img class='introPic' src='trustrating_stim/white_mw092.bmp'><br><font color='green'><strong>Share</strong></font></div></div><div class='respDiv'><div class='respDivL'>Match<br>(e)</div><div class='respDivR'>No Match<br>(i)</div></div></div>","i","TARGET","1","trustrating_stim/white_mw092.bmp","0","noMatchOutcome","i","1500","trustrating_stim/white_mw092.bmp","green","Share","REAL","1"
"html-keyboard-response","59","281214","0.0-7.0-5.4","6400df3b4bd1fb13b52727fe","bdp_wmem","Tue Mar 14 2023 22:09:57 GMT-0400 (Eastern Daylight Time)","694072","Match,No Match","","null","","","","","","<div class='trialBorder'><div class='vertical-center'><img src='img/correct.jpg'></div><div class='respDiv'><div class='respDivL'>Match<br>(e)</div><div class='respDivR'><font style='color:orange'>No Match<br>(i)</font></div></div></div>","null","FEEDBACK","","","","","","","","","","",""
"html-keyboard-response","60","281730","0.0-7.0-1.5","6400df3b4bd1fb13b52727fe","bdp_wmem","Tue Mar 14 2023 22:09:57 GMT-0400 (Eastern Daylight Time)","694072","Match,No Match","","null","","","","","","<div class='trialBorder'><div class='vertical-center'><img src='img/fixation2_sml.jpg'</img></div></div>","null","FIX","","","","","","","","","","",""
"html-keyboard-response","61","286246","0.0-7.0-2.5","6400df3b4bd1fb13b52727fe","bdp_wmem","Tue Mar 14 2023 22:09:57 GMT-0400 (Eastern Daylight Time)","694072","Match,No Match","","null","","","","","","<div class='trialBorder'><div class='vertical-center'><img style='vertical-align:center; align:center' src='img/fixation2_sml.jpg'></div><div class='arrayDiv3'><div class='tl'><img class='introPic' src='trustrating_stim/white_mw085.bmp'><br><font color='red'><strong>Keep</strong></font></div><div class='tc'><img class='introPic' src='trustrating_stim/white_mw042.bmp'><br><font color='green'><strong>Share</strong></font></div><div class='tr'><img class='introPic' src='trustrating_stim/white_mw092.bmp'><br><font color='green'><strong>Share</strong></font></div></div></div>","null","ARRAY","3","trustrating_stim/white_mw085.bmp,trustrating_stim/white_mw042.bmp,trustrating_stim/white_mw092.bmp","0,1,1","noMatchOutcome","i","4500","","","","",""
"html-keyboard-response","62","290252","0.0-7.0-3.5","6400df3b4bd1fb13b52727fe","bdp_wmem","Tue Mar 14 2023 22:09:57 GMT-0400 (Eastern Daylight Time)","694072","Match,No Match","","null","","","","","","<div class='trialBorder'><div class='vertical-center'><img src='img/fixation2_sml.jpg'</img></div></div>","null","DELAY","","","","","","","","","","",""
"html-keyboard-response","63","291318","0.0-7.0-4.5","6400df3b4bd1fb13b52727fe","bdp_wmem","Tue Mar 14 2023 22:09:57 GMT-0400 (Eastern Daylight Time)","694072","Match,No Match","","1063","","","","","","<div class='trialBorder'><div class='targDiv'><div class='tc'><img class='introPic' src='trustrating_stim/white_mw085.bmp'><br><font color='green'><strong>Share</strong></font></div></div><div class='respDiv'><div class='respDivL'>Match<br>(e)</div><div class='respDivR'>No Match<br>(i)</div></div></div>","e","TARGET","3","trustrating_stim/white_mw085.bmp,trustrating_stim/white_mw042.bmp,trustrating_stim/white_mw092.bmp","0,1,1","noMatchOutcome","i","4500","trustrating_stim/white_mw085.bmp","green","Share","REAL","0"
"html-keyboard-response","64","291829","0.0-7.0-5.5","6400df3b4bd1fb13b52727fe","bdp_wmem","Tue Mar 14 2023 22:09:57 GMT-0400 (Eastern Daylight Time)","694072","Match,No Match","","null","","","","","","<div class='trialBorder'><div class='vertical-center'><img src='img/error.jpg'></div><div class='respDiv'><div class='respDivL'><font style='color:orange'>Match<br>(e)</font></div><div class='respDivR'>No Match<br>(i)</div></div></div>","null","FEEDBACK","","","","","","","","","","",""
"html-keyboard-response","65","292347","0.0-7.0-1.6","6400df3b4bd1fb13b52727fe","bdp_wmem","Tue Mar 14 2023 22:09:57 GMT-0400 (Eastern Daylight Time)","694072","Match,No Match","","null","","","","","","<div class='trialBorder'><div class='vertical-center'><img src='img/fixation2_sml.jpg'</img></div></div>","null","FIX","","","","","","","","","","",""
"html-keyboard-response","66","293852","0.0-7.0-2.6","6400df3b4bd1fb13b52727fe","bdp_wmem","Tue Mar 14 2023 22:09:57 GMT-0400 (Eastern Daylight Time)","694072","Match,No Match","","null","","","","","","<div class='trialBorder'><div class='vertical-center'><img style='vertical-align:center; align:center' src='img/fixation2_sml.jpg'></div><div class='arrayDiv1'><div class='tc'><img class='introPic' src='trustrating_stim/white_mw038.bmp'><br><font color='red'><strong>Keep</strong></font></div></div></div>","null","ARRAY","1","trustrating_stim/white_mw038.bmp","0","Match","e","1500","","","","",""
"html-keyboard-response","67","297863","0.0-7.0-3.6","6400df3b4bd1fb13b52727fe","bdp_wmem","Tue Mar 14 2023 22:09:57 GMT-0400 (Eastern Daylight Time)","694072","Match,No Match","","null","","","","","","<div class='trialBorder'><div class='vertical-center'><img src='img/fixation2_sml.jpg'</img></div></div>","null","DELAY","","","","","","","","","","",""
"html-keyboard-response","68","299429","0.0-7.0-4.6","6400df3b4bd1fb13b52727fe","bdp_wmem","Tue Mar 14 2023 22:09:57 GMT-0400 (Eastern Daylight Time)","694072","Match,No Match","","1564","","","","","","<div class='trialBorder'><div class='targDiv'><div class='tc'><img class='introPic' src='trustrating_stim/white_mw038.bmp'><br><font color='red'><strong>Keep</strong></font></div></div><div class='respDiv'><div class='respDivL'>Match<br>(e)</div><div class='respDivR'>No Match<br>(i)</div></div></div>","e","TARGET","1","trustrating_stim/white_mw038.bmp","0","Match","e","1500","trustrating_stim/white_mw038.bmp","red","Keep","REAL","1"
"html-keyboard-response","69","299940","0.0-7.0-5.6","6400df3b4bd1fb13b52727fe","bdp_wmem","Tue Mar 14 2023 22:09:57 GMT-0400 (Eastern Daylight Time)","694072","Match,No Match","","null","","","","","","<div class='trialBorder'><div class='vertical-center'><img src='img/correct.jpg'></div><div class='respDiv'><div class='respDivL'><font style='color:orange'>Match<br>(e)</font></div><div class='respDivR'>No Match<br>(i)</div></div></div>","null","FEEDBACK","","","","","","","","","","",""
"html-keyboard-response","70","300444","0.0-7.0-1.7","6400df3b4bd1fb13b52727fe","bdp_wmem","Tue Mar 14 2023 22:09:57 GMT-0400 (Eastern Daylight Time)","694072","Match,No Match","","null","","","","","","<div class='trialBorder'><div class='vertical-center'><img src='img/fixation2_sml.jpg'</img></div></div>","null","FIX","","","","","","","","","","",""
"html-keyboard-response","71","301953","0.0-7.0-2.7","6400df3b4bd1fb13b52727fe","bdp_wmem","Tue Mar 14 2023 22:09:57 GMT-0400 (Eastern Daylight Time)","694072","Match,No Match","","null","","","","","","<div class='trialBorder'><div class='vertical-center'><img style='vertical-align:center; align:center' src='img/fixation2_sml.jpg'></div><div class='arrayDiv1'><div class='tc'><img class='introPic' src='trustrating_stim/white_mw010.bmp'><br><font color='green'><strong>Share</strong></font></div></div></div>","null","ARRAY","1","trustrating_stim/white_mw010.bmp","1","Match","e","1500","","","","",""
"html-keyboard-response","72","305958","0.0-7.0-3.7","6400df3b4bd1fb13b52727fe","bdp_wmem","Tue Mar 14 2023 22:09:57 GMT-0400 (Eastern Daylight Time)","694072","Match,No Match","","null","","","","","","<div class='trialBorder'><div class='vertical-center'><img src='img/fixation2_sml.jpg'</img></div></div>","null","DELAY","","","","","","","","","","",""
"html-keyboard-response","73","307346","0.0-7.0-4.7","6400df3b4bd1fb13b52727fe","bdp_wmem","Tue Mar 14 2023 22:09:57 GMT-0400 (Eastern Daylight Time)","694072","Match,No Match","","1387","","","","","","<div class='trialBorder'><div class='targDiv'><div class='tc'><img class='introPic' src='trustrating_stim/white_mw010.bmp'><br><font color='green'><strong>Share</strong></font></div></div><div class='respDiv'><div class='respDivL'>Match<br>(e)</div><div class='respDivR'>No Match<br>(i)</div></div></div>","e","TARGET","1","trustrating_stim/white_mw010.bmp","1","Match","e","1500","trustrating_stim/white_mw010.bmp","green","Share","REAL","1"
"html-keyboard-response","74","307852","0.0-7.0-5.7","6400df3b4bd1fb13b52727fe","bdp_wmem","Tue Mar 14 2023 22:09:57 GMT-0400 (Eastern Daylight Time)","694072","Match,No Match","","null","","","","","","<div class='trialBorder'><div class='vertical-center'><img src='img/correct.jpg'></div><div class='respDiv'><div class='respDivL'><font style='color:orange'>Match<br>(e)</font></div><div class='respDivR'>No Match<br>(i)</div></div></div>","null","FEEDBACK","","","","","","","","","","",""
"html-keyboard-response","75","308358","0.0-7.0-1.8","6400df3b4bd1fb13b52727fe","bdp_wmem","Tue Mar 14 2023 22:09:57 GMT-0400 (Eastern Daylight Time)","694072","Match,No Match","","null","","","","","","<div class='trialBorder'><div class='vertical-center'><img src='img/fixation2_sml.jpg'</img></div></div>","null","FIX","","","","","","","","","","",""
"html-keyboard-response","76","311361","0.0-7.0-2.8","6400df3b4bd1fb13b52727fe","bdp_wmem","Tue Mar 14 2023 22:09:57 GMT-0400 (Eastern Daylight Time)","694072","Match,No Match","","null","","","","","","<div class='trialBorder'><div class='vertical-center'><img style='vertical-align:center; align:center' src='img/fixation2_sml.jpg'></div><div class='arrayDiv2'><div class='tl'><img class='introPic' src='trustrating_stim/white_mw012.bmp'><br><font color='red'><strong>Keep</strong></font></div><div class='tr'><img class='introPic' src='trustrating_stim/white_mw092.bmp'><br><font color='green'><strong>Share</strong></font></div></div></div>","null","ARRAY","2","trustrating_stim/white_mw012.bmp,trustrating_stim/white_mw092.bmp","0,1","noMatchOutcome","i","3000","","","","",""
"html-keyboard-response","77","315378","0.0-7.0-3.8","6400df3b4bd1fb13b52727fe","bdp_wmem","Tue Mar 14 2023 22:09:57 GMT-0400 (Eastern Daylight Time)","694072","Match,No Match","","null","","","","","","<div class='trialBorder'><div class='vertical-center'><img src='img/fixation2_sml.jpg'</img></div></div>","null","DELAY","","","","","","","","","","",""
"html-keyboard-response","78","316882","0.0-7.0-4.8","6400df3b4bd1fb13b52727fe","bdp_wmem","Tue Mar 14 2023 22:09:57 GMT-0400 (Eastern Daylight Time)","694072","Match,No Match","","1500","","","","","","<div class='trialBorder'><div class='targDiv'><div class='tc'><img class='introPic' src='trustrating_stim/white_mw012.bmp'><br><font color='green'><strong>Share</strong></font></div></div><div class='respDiv'><div class='respDivL'>Match<br>(e)</div><div class='respDivR'>No Match<br>(i)</div></div></div>","e","TARGET","2","trustrating_stim/white_mw012.bmp,trustrating_stim/white_mw092.bmp","0,1","noMatchOutcome","i","3000","trustrating_stim/white_mw012.bmp","green","Share","REAL","0"
"html-keyboard-response","79","317387","0.0-7.0-5.8","6400df3b4bd1fb13b52727fe","bdp_wmem","Tue Mar 14 2023 22:09:57 GMT-0400 (Eastern Daylight Time)","694072","Match,No Match","","null","","","","","","<div class='trialBorder'><div class='vertical-center'><img src='img/error.jpg'></div><div class='respDiv'><div class='respDivL'><font style='color:orange'>Match<br>(e)</font></div><div class='respDivR'>No Match<br>(i)</div></div></div>","null","FEEDBACK","","","","","","","","","","",""
"html-keyboard-response","80","317896","0.0-7.0-1.9","6400df3b4bd1fb13b52727fe","bdp_wmem","Tue Mar 14 2023 22:09:57 GMT-0400 (Eastern Daylight Time)","694072","Match,No Match","","null","","","","","","<div class='trialBorder'><div class='vertical-center'><img src='img/fixation2_sml.jpg'</img></div></div>","null","FIX","","","","","","","","","","",""
"html-keyboard-response","81","322404","0.0-7.0-2.9","6400df3b4bd1fb13b52727fe","bdp_wmem","Tue Mar 14 2023 22:09:57 GMT-0400 (Eastern Daylight Time)","694072","Match,No Match","","null","","","","","","<div class='trialBorder'><div class='vertical-center'><img style='vertical-align:center; align:center' src='img/fixation2_sml.jpg'></div><div class='arrayDiv3'><div class='tl'><img class='introPic' src='trustrating_stim/white_mw070.bmp'><br><font color='green'><strong>Share</strong></font></div><div class='tc'><img class='introPic' src='trustrating_stim/white_mw085.bmp'><br><font color='green'><strong>Share</strong></font></div><div class='tr'><img class='introPic' src='trustrating_stim/white_mw078.bmp'><br><font color='red'><strong>Keep</strong></font></div></div></div>","null","ARRAY","3","trustrating_stim/white_mw070.bmp,trustrating_stim/white_mw085.bmp,trustrating_stim/white_mw078.bmp","1,1,0","Match","e","4500","","","","",""
"html-keyboard-response","82","326417","0.0-7.0-3.9","6400df3b4bd1fb13b52727fe","bdp_wmem","Tue Mar 14 2023 22:09:57 GMT-0400 (Eastern Daylight Time)","694072","Match,No Match","","null","","","","","","<div class='trialBorder'><div class='vertical-center'><img src='img/fixation2_sml.jpg'</img></div></div>","null","DELAY","","","","","","","","","","",""
"html-keyboard-response","83","327399","0.0-7.0-4.9","6400df3b4bd1fb13b52727fe","bdp_wmem","Tue Mar 14 2023 22:09:57 GMT-0400 (Eastern Daylight Time)","694072","Match,No Match","","979","","","","","","<div class='trialBorder'><div class='targDiv'><div class='tc'><img class='introPic' src='trustrating_stim/white_mw070.bmp'><br><font color='green'><strong>Share</strong></font></div></div><div class='respDiv'><div class='respDivL'>Match<br>(e)</div><div class='respDivR'>No Match<br>(i)</div></div></div>","e","TARGET","3","trustrating_stim/white_mw070.bmp,trustrating_stim/white_mw085.bmp,trustrating_stim/white_mw078.bmp","1,1,0","Match","e","4500","trustrating_stim/white_mw070.bmp","green","Share","REAL","1"
"html-keyboard-response","84","327901","0.0-7.0-5.9","6400df3b4bd1fb13b52727fe","bdp_wmem","Tue Mar 14 2023 22:09:57 GMT-0400 (Eastern Daylight Time)","694072","Match,No Match","","null","","","","","","<div class='trialBorder'><div class='vertical-center'><img src='img/correct.jpg'></div><div class='respDiv'><div class='respDivL'><font style='color:orange'>Match<br>(e)</font></div><div class='respDivR'>No Match<br>(i)</div></div></div>","null","FEEDBACK","","","","","","","","","","",""
"html-keyboard-response","85","328412","0.0-7.0-1.10","6400df3b4bd1fb13b52727fe","bdp_wmem","Tue Mar 14 2023 22:09:57 GMT-0400 (Eastern Daylight Time)","694072","Match,No Match","","null","","","","","","<div class='trialBorder'><div class='vertical-center'><img src='img/fixation2_sml.jpg'</img></div></div>","null","FIX","","","","","","","","","","",""
"html-keyboard-response","86","332920","0.0-7.0-2.10","6400df3b4bd1fb13b52727fe","bdp_wmem","Tue Mar 14 2023 22:09:57 GMT-0400 (Eastern Daylight Time)","694072","Match,No Match","","null","","","","","","<div class='trialBorder'><div class='vertical-center'><img style='vertical-align:center; align:center' src='img/fixation2_sml.jpg'></div><div class='arrayDiv3'><div class='tl'><img class='introPic' src='trustrating_stim/white_mw078.bmp'><br><font color='green'><strong>Share</strong></font></div><div class='tc'><img class='introPic' src='trustrating_stim/white_mw012.bmp'><br><font color='green'><strong>Share</strong></font></div><div class='tr'><img class='introPic' src='trustrating_stim/white_mw040.bmp'><br><font color='red'><strong>Keep</strong></font></div></div></div>","null","ARRAY","3","trustrating_stim/white_mw078.bmp,trustrating_stim/white_mw012.bmp,trustrating_stim/white_mw040.bmp","1,1,0","Match","e","4500","","","","",""
"html-keyboard-response","87","336925","0.0-7.0-3.10","6400df3b4bd1fb13b52727fe","bdp_wmem","Tue Mar 14 2023 22:09:57 GMT-0400 (Eastern Daylight Time)","694072","Match,No Match","","null","","","","","","<div class='trialBorder'><div class='vertical-center'><img src='img/fixation2_sml.jpg'</img></div></div>","null","DELAY","","","","","","","","","","",""
"html-keyboard-response","88","338028","0.0-7.0-4.10","6400df3b4bd1fb13b52727fe","bdp_wmem","Tue Mar 14 2023 22:09:57 GMT-0400 (Eastern Daylight Time)","694072","Match,No Match","","1101","","","","","","<div class='trialBorder'><div class='targDiv'><div class='tc'><img class='introPic' src='trustrating_stim/white_mw078.bmp'><br><font color='green'><strong>Share</strong></font></div></div><div class='respDiv'><div class='respDivL'>Match<br>(e)</div><div class='respDivR'>No Match<br>(i)</div></div></div>","e","TARGET","3","trustrating_stim/white_mw078.bmp,trustrating_stim/white_mw012.bmp,trustrating_stim/white_mw040.bmp","1,1,0","Match","e","4500","trustrating_stim/white_mw078.bmp","green","Share","REAL","1"
"html-keyboard-response","89","338532","0.0-7.0-5.10","6400df3b4bd1fb13b52727fe","bdp_wmem","Tue Mar 14 2023 22:09:57 GMT-0400 (Eastern Daylight Time)","694072","Match,No Match","","null","","","","","","<div class='trialBorder'><div class='vertical-center'><img src='img/correct.jpg'></div><div class='respDiv'><div class='respDivL'><font style='color:orange'>Match<br>(e)</font></div><div class='respDivR'>No Match<br>(i)</div></div></div>","null","FEEDBACK","","","","","","","","","","",""
"html-keyboard-response","90","339040","0.0-7.0-1.11","6400df3b4bd1fb13b52727fe","bdp_wmem","Tue Mar 14 2023 22:09:57 GMT-0400 (Eastern Daylight Time)","694072","Match,No Match","","null","","","","","","<div class='trialBorder'><div class='vertical-center'><img src='img/fixation2_sml.jpg'</img></div></div>","null","FIX","","","","","","","","","","",""
"html-keyboard-response","91","340554","0.0-7.0-2.11","6400df3b4bd1fb13b52727fe","bdp_wmem","Tue Mar 14 2023 22:09:57 GMT-0400 (Eastern Daylight Time)","694072","Match,No Match","","null","","","","","","<div class='trialBorder'><div class='vertical-center'><img style='vertical-align:center; align:center' src='img/fixation2_sml.jpg'></div><div class='arrayDiv1'><div class='tc'><img class='introPic' src='trustrating_stim/white_mw010.bmp'><br><font color='red'><strong>Keep</strong></font></div></div></div>","null","ARRAY","1","trustrating_stim/white_mw010.bmp","0","noMatchFace","i","1500","","","","",""
"html-keyboard-response","92","344565","0.0-7.0-3.11","6400df3b4bd1fb13b52727fe","bdp_wmem","Tue Mar 14 2023 22:09:57 GMT-0400 (Eastern Daylight Time)","694072","Match,No Match","","null","","","","","","<div class='trialBorder'><div class='vertical-center'><img src='img/fixation2_sml.jpg'</img></div></div>","null","DELAY","","","","","","","","","","",""
"html-keyboard-response","93","345894","0.0-7.0-4.11","6400df3b4bd1fb13b52727fe","bdp_wmem","Tue Mar 14 2023 22:09:57 GMT-0400 (Eastern Daylight Time)","694072","Match,No Match","","1327","","","","","","<div class='trialBorder'><div class='targDiv'><div class='tc'><img class='introPic' src='trustrating_stim/white_mw013.bmp'><br><font color='red'><strong>Keep</strong></font></div></div><div class='respDiv'><div class='respDivL'>Match<br>(e)</div><div class='respDivR'>No Match<br>(i)</div></div></div>","i","TARGET","1","trustrating_stim/white_mw010.bmp","0","noMatchFace","i","1500","trustrating_stim/white_mw013.bmp","red","Keep","REAL","1"
"html-keyboard-response","94","346409","0.0-7.0-5.11","6400df3b4bd1fb13b52727fe","bdp_wmem","Tue Mar 14 2023 22:09:57 GMT-0400 (Eastern Daylight Time)","694072","Match,No Match","","null","","","","","","<div class='trialBorder'><div class='vertical-center'><img src='img/correct.jpg'></div><div class='respDiv'><div class='respDivL'>Match<br>(e)</div><div class='respDivR'><font style='color:orange'>No Match<br>(i)</font></div></div></div>","null","FEEDBACK","","","","","","","","","","",""
"html-keyboard-response","95","346914","0.0-7.0-1.12","6400df3b4bd1fb13b52727fe","bdp_wmem","Tue Mar 14 2023 22:09:57 GMT-0400 (Eastern Daylight Time)","694072","Match,No Match","","null","","","","","","<div class='trialBorder'><div class='vertical-center'><img src='img/fixation2_sml.jpg'</img></div></div>","null","FIX","","","","","","","","","","",""
"html-keyboard-response","96","348422","0.0-7.0-2.12","6400df3b4bd1fb13b52727fe","bdp_wmem","Tue Mar 14 2023 22:09:57 GMT-0400 (Eastern Daylight Time)","694072","Match,No Match","","null","","","","","","<div class='trialBorder'><div class='vertical-center'><img style='vertical-align:center; align:center' src='img/fixation2_sml.jpg'></div><div class='arrayDiv1'><div class='tc'><img class='introPic' src='trustrating_stim/white_mw010.bmp'><br><font color='green'><strong>Share</strong></font></div></div></div>","null","ARRAY","1","trustrating_stim/white_mw010.bmp","1","noMatchFace","i","1500","","","","",""
"html-keyboard-response","97","352433","0.0-7.0-3.12","6400df3b4bd1fb13b52727fe","bdp_wmem","Tue Mar 14 2023 22:09:57 GMT-0400 (Eastern Daylight Time)","694072","Match,No Match","","null","","","","","","<div class='trialBorder'><div class='vertical-center'><img src='img/fixation2_sml.jpg'</img></div></div>","null","DELAY","","","","","","","","","","",""
"html-keyboard-response","98","353872","0.0-7.0-4.12","6400df3b4bd1fb13b52727fe","bdp_wmem","Tue Mar 14 2023 22:09:57 GMT-0400 (Eastern Daylight Time)","694072","Match,No Match","","1437","","","","","","<div class='trialBorder'><div class='targDiv'><div class='tc'><img class='introPic' src='trustrating_stim/white_mw038.bmp'><br><font color='green'><strong>Share</strong></font></div></div><div class='respDiv'><div class='respDivL'>Match<br>(e)</div><div class='respDivR'>No Match<br>(i)</div></div></div>","i","TARGET","1","trustrating_stim/white_mw010.bmp","1","noMatchFace","i","1500","trustrating_stim/white_mw038.bmp","green","Share","REAL","1"
"html-keyboard-response","99","354376","0.0-7.0-5.12","6400df3b4bd1fb13b52727fe","bdp_wmem","Tue Mar 14 2023 22:09:57 GMT-0400 (Eastern Daylight Time)","694072","Match,No Match","","null","","","","","","<div class='trialBorder'><div class='vertical-center'><img src='img/correct.jpg'></div><div class='respDiv'><div class='respDivL'>Match<br>(e)</div><div class='respDivR'><font style='color:orange'>No Match<br>(i)</font></div></div></div>","null","FEEDBACK","","","","","","","","","","",""
"html-keyboard-response","100","354879","0.0-7.0-1.13","6400df3b4bd1fb13b52727fe","bdp_wmem","Tue Mar 14 2023 22:09:57 GMT-0400 (Eastern Daylight Time)","694072","Match,No Match","","null","","","","","","<div class='trialBorder'><div class='vertical-center'><img src='img/fixation2_sml.jpg'</img></div></div>","null","FIX","","","","","","","","","","",""
"html-keyboard-response","101","357891","0.0-7.0-2.13","6400df3b4bd1fb13b52727fe","bdp_wmem","Tue Mar 14 2023 22:09:57 GMT-0400 (Eastern Daylight Time)","694072","Match,No Match","","null","","","","","","<div class='trialBorder'><div class='vertical-center'><img style='vertical-align:center; align:center' src='img/fixation2_sml.jpg'></div><div class='arrayDiv2'><div class='tl'><img class='introPic' src='trustrating_stim/white_mw092.bmp'><br><font color='red'><strong>Keep</strong></font></div><div class='tr'><img class='introPic' src='trustrating_stim/white_mw013.bmp'><br><font color='green'><strong>Share</strong></font></div></div></div>","null","ARRAY","2","trustrating_stim/white_mw092.bmp,trustrating_stim/white_mw013.bmp","0,1","Match","e","3000","","","","",""
"html-keyboard-response","102","361895","0.0-7.0-3.13","6400df3b4bd1fb13b52727fe","bdp_wmem","Tue Mar 14 2023 22:09:57 GMT-0400 (Eastern Daylight Time)","694072","Match,No Match","","null","","","","","","<div class='trialBorder'><div class='vertical-center'><img src='img/fixation2_sml.jpg'</img></div></div>","null","DELAY","","","","","","","","","","",""
"html-keyboard-response","103","363432","0.0-7.0-4.13","6400df3b4bd1fb13b52727fe","bdp_wmem","Tue Mar 14 2023 22:09:57 GMT-0400 (Eastern Daylight Time)","694072","Match,No Match","","1534","","","","","","<div class='trialBorder'><div class='targDiv'><div class='tc'><img class='introPic' src='trustrating_stim/white_mw013.bmp'><br><font color='green'><strong>Share</strong></font></div></div><div class='respDiv'><div class='respDivL'>Match<br>(e)</div><div class='respDivR'>No Match<br>(i)</div></div></div>","e","TARGET","2","trustrating_stim/white_mw092.bmp,trustrating_stim/white_mw013.bmp","0,1","Match","e","3000","trustrating_stim/white_mw013.bmp","green","Share","REAL","1"
"html-keyboard-response","104","363937","0.0-7.0-5.13","6400df3b4bd1fb13b52727fe","bdp_wmem","Tue Mar 14 2023 22:09:57 GMT-0400 (Eastern Daylight Time)","694072","Match,No Match","","null","","","","","","<div class='trialBorder'><div class='vertical-center'><img src='img/correct.jpg'></div><div class='respDiv'><div class='respDivL'><font style='color:orange'>Match<br>(e)</font></div><div class='respDivR'>No Match<br>(i)</div></div></div>","null","FEEDBACK","","","","","","","","","","",""
"html-keyboard-response","105","364447","0.0-7.0-1.14","6400df3b4bd1fb13b52727fe","bdp_wmem","Tue Mar 14 2023 22:09:57 GMT-0400 (Eastern Daylight Time)","694072","Match,No Match","","null","","","","","","<div class='trialBorder'><div class='vertical-center'><img src='img/fixation2_sml.jpg'</img></div></div>","null","FIX","","","","","","","","","","",""
"html-keyboard-response","106","365955","0.0-7.0-2.14","6400df3b4bd1fb13b52727fe","bdp_wmem","Tue Mar 14 2023 22:09:57 GMT-0400 (Eastern Daylight Time)","694072","Match,No Match","","null","","","","","","<div class='trialBorder'><div class='vertical-center'><img style='vertical-align:center; align:center' src='img/fixation2_sml.jpg'></div><div class='arrayDiv1'><div class='tc'><img class='introPic' src='trustrating_stim/white_mw003.bmp'><br><font color='red'><strong>Keep</strong></font></div></div></div>","null","ARRAY","1","trustrating_stim/white_mw003.bmp","0","Match","e","1500","","","","",""
"html-keyboard-response","107","369965","0.0-7.0-3.14","6400df3b4bd1fb13b52727fe","bdp_wmem","Tue Mar 14 2023 22:09:57 GMT-0400 (Eastern Daylight Time)","694072","Match,No Match","","null","","","","","","<div class='trialBorder'><div class='vertical-center'><img src='img/fixation2_sml.jpg'</img></div></div>","null","DELAY","","","","","","","","","","",""
"html-keyboard-response","108","371198","0.0-7.0-4.14","6400df3b4bd1fb13b52727fe","bdp_wmem","Tue Mar 14 2023 22:09:57 GMT-0400 (Eastern Daylight Time)","694072","Match,No Match","","1229","","","","","","<div class='trialBorder'><div class='targDiv'><div class='tc'><img class='introPic' src='trustrating_stim/white_mw003.bmp'><br><font color='red'><strong>Keep</strong></font></div></div><div class='respDiv'><div class='respDivL'>Match<br>(e)</div><div class='respDivR'>No Match<br>(i)</div></div></div>","e","TARGET","1","trustrating_stim/white_mw003.bmp","0","Match","e","1500","trustrating_stim/white_mw003.bmp","red","Keep","REAL","1"
"html-keyboard-response","109","371710","0.0-7.0-5.14","6400df3b4bd1fb13b52727fe","bdp_wmem","Tue Mar 14 2023 22:09:57 GMT-0400 (Eastern Daylight Time)","694072","Match,No Match","","null","","","","","","<div class='trialBorder'><div class='vertical-center'><img src='img/correct.jpg'></div><div class='respDiv'><div class='respDivL'><font style='color:orange'>Match<br>(e)</font></div><div class='respDivR'>No Match<br>(i)</div></div></div>","null","FEEDBACK","","","","","","","","","","",""
"html-keyboard-response","110","372219","0.0-7.0-1.15","6400df3b4bd1fb13b52727fe","bdp_wmem","Tue Mar 14 2023 22:09:57 GMT-0400 (Eastern Daylight Time)","694072","Match,No Match","","null","","","","","","<div class='trialBorder'><div class='vertical-center'><img src='img/fixation2_sml.jpg'</img></div></div>","null","FIX","","","","","","","","","","",""
"html-keyboard-response","111","375235","0.0-7.0-2.15","6400df3b4bd1fb13b52727fe","bdp_wmem","Tue Mar 14 2023 22:09:57 GMT-0400 (Eastern Daylight Time)","694072","Match,No Match","","null","","","","","","<div class='trialBorder'><div class='vertical-center'><img style='vertical-align:center; align:center' src='img/fixation2_sml.jpg'></div><div class='arrayDiv2'><div class='tl'><img class='introPic' src='trustrating_stim/white_mw085.bmp'><br><font color='red'><strong>Keep</strong></font></div><div class='tr'><img class='introPic' src='trustrating_stim/white_mw042.bmp'><br><font color='green'><strong>Share</strong></font></div></div></div>","null","ARRAY","2","trustrating_stim/white_mw085.bmp,trustrating_stim/white_mw042.bmp","0,1","noMatchFace","i","3000","","","","",""
"html-keyboard-response","112","379251","0.0-7.0-3.15","6400df3b4bd1fb13b52727fe","bdp_wmem","Tue Mar 14 2023 22:09:57 GMT-0400 (Eastern Daylight Time)","694072","Match,No Match","","null","","","","","","<div class='trialBorder'><div class='vertical-center'><img src='img/fixation2_sml.jpg'</img></div></div>","null","DELAY","","","","","","","","","","",""
"html-keyboard-response","113","380496","0.0-7.0-4.15","6400df3b4bd1fb13b52727fe","bdp_wmem","Tue Mar 14 2023 22:09:57 GMT-0400 (Eastern Daylight Time)","694072","Match,No Match","","1242","","","","","","<div class='trialBorder'><div class='targDiv'><div class='tc'><img class='introPic' src='trustrating_stim/white_mw038.bmp'><br><font color='green'><strong>Share</strong></font></div></div><div class='respDiv'><div class='respDivL'>Match<br>(e)</div><div class='respDivR'>No Match<br>(i)</div></div></div>","i","TARGET","2","trustrating_stim/white_mw085.bmp,trustrating_stim/white_mw042.bmp","0,1","noMatchFace","i","3000","trustrating_stim/white_mw038.bmp","green","Share","REAL","1"
"html-keyboard-response","114","381011","0.0-7.0-5.15","6400df3b4bd1fb13b52727fe","bdp_wmem","Tue Mar 14 2023 22:09:57 GMT-0400 (Eastern Daylight Time)","694072","Match,No Match","","null","","","","","","<div class='trialBorder'><div class='vertical-center'><img src='img/correct.jpg'></div><div class='respDiv'><div class='respDivL'>Match<br>(e)</div><div class='respDivR'><font style='color:orange'>No Match<br>(i)</font></div></div></div>","null","FEEDBACK","","","","","","","","","","",""
"html-keyboard-response","115","381521","0.0-7.0-1.16","6400df3b4bd1fb13b52727fe","bdp_wmem","Tue Mar 14 2023 22:09:57 GMT-0400 (Eastern Daylight Time)","694072","Match,No Match","","null","","","","","","<div class='trialBorder'><div class='vertical-center'><img src='img/fixation2_sml.jpg'</img></div></div>","null","FIX","","","","","","","","","","",""
"html-keyboard-response","116","384530","0.0-7.0-2.16","6400df3b4bd1fb13b52727fe","bdp_wmem","Tue Mar 14 2023 22:09:57 GMT-0400 (Eastern Daylight Time)","694072","Match,No Match","","null","","","","","","<div class='trialBorder'><div class='vertical-center'><img style='vertical-align:center; align:center' src='img/fixation2_sml.jpg'></div><div class='arrayDiv2'><div class='tl'><img class='introPic' src='trustrating_stim/white_mw042.bmp'><br><font color='red'><strong>Keep</strong></font></div><div class='tr'><img class='introPic' src='trustrating_stim/white_mw091.bmp'><br><font color='green'><strong>Share</strong></font></div></div></div>","null","ARRAY","2","trustrating_stim/white_mw042.bmp,trustrating_stim/white_mw091.bmp","0,1","Match","e","3000","","","","",""
"html-keyboard-response","117","388542","0.0-7.0-3.16","6400df3b4bd1fb13b52727fe","bdp_wmem","Tue Mar 14 2023 22:09:57 GMT-0400 (Eastern Daylight Time)","694072","Match,No Match","","null","","","","","","<div class='trialBorder'><div class='vertical-center'><img src='img/fixation2_sml.jpg'</img></div></div>","null","DELAY","","","","","","","","","","",""
"html-keyboard-response","118","389674","0.0-7.0-4.16","6400df3b4bd1fb13b52727fe","bdp_wmem","Tue Mar 14 2023 22:09:57 GMT-0400 (Eastern Daylight Time)","694072","Match,No Match","","1128","","","","","","<div class='trialBorder'><div class='targDiv'><div class='tc'><img class='introPic' src='trustrating_stim/white_mw042.bmp'><br><font color='red'><strong>Keep</strong></font></div></div><div class='respDiv'><div class='respDivL'>Match<br>(e)</div><div class='respDivR'>No Match<br>(i)</div></div></div>","e","TARGET","2","trustrating_stim/white_mw042.bmp,trustrating_stim/white_mw091.bmp","0,1","Match","e","3000","trustrating_stim/white_mw042.bmp","red","Keep","REAL","1"
"html-keyboard-response","119","390177","0.0-7.0-5.16","6400df3b4bd1fb13b52727fe","bdp_wmem","Tue Mar 14 2023 22:09:57 GMT-0400 (Eastern Daylight Time)","694072","Match,No Match","","null","","","","","","<div class='trialBorder'><div class='vertical-center'><img src='img/correct.jpg'></div><div class='respDiv'><div class='respDivL'><font style='color:orange'>Match<br>(e)</font></div><div class='respDivR'>No Match<br>(i)</div></div></div>","null","FEEDBACK","","","","","","","","","","",""
"html-keyboard-response","120","390685","0.0-7.0-1.17","6400df3b4bd1fb13b52727fe","bdp_wmem","Tue Mar 14 2023 22:09:57 GMT-0400 (Eastern Daylight Time)","694072","Match,No Match","","null","","","","","","<div class='trialBorder'><div class='vertical-center'><img src='img/fixation2_sml.jpg'</img></div></div>","null","FIX","","","","","","","","","","",""
"html-keyboard-response","121","395188","0.0-7.0-2.17","6400df3b4bd1fb13b52727fe","bdp_wmem","Tue Mar 14 2023 22:09:57 GMT-0400 (Eastern Daylight Time)","694072","Match,No Match","","null","","","","","","<div class='trialBorder'><div class='vertical-center'><img style='vertical-align:center; align:center' src='img/fixation2_sml.jpg'></div><div class='arrayDiv3'><div class='tl'><img class='introPic' src='trustrating_stim/white_mw091.bmp'><br><font color='green'><strong>Share</strong></font></div><div class='tc'><img class='introPic' src='trustrating_stim/white_mw013.bmp'><br><font color='red'><strong>Keep</strong></font></div><div class='tr'><img class='introPic' src='trustrating_stim/white_mw085.bmp'><br><font color='green'><strong>Share</strong></font></div></div></div>","null","ARRAY","3","trustrating_stim/white_mw091.bmp,trustrating_stim/white_mw013.bmp,trustrating_stim/white_mw085.bmp","1,0,1","Match","e","4500","","","","",""
"html-keyboard-response","122","399199","0.0-7.0-3.17","6400df3b4bd1fb13b52727fe","bdp_wmem","Tue Mar 14 2023 22:09:57 GMT-0400 (Eastern Daylight Time)","694072","Match,No Match","","null","","","","","","<div class='trialBorder'><div class='vertical-center'><img src='img/fixation2_sml.jpg'</img></div></div>","null","DELAY","","","","","","","","","","",""
"html-keyboard-response","123","400368","0.0-7.0-4.17","6400df3b4bd1fb13b52727fe","bdp_wmem","Tue Mar 14 2023 22:09:57 GMT-0400 (Eastern Daylight Time)","694072","Match,No Match","","1167","","","","","","<div class='trialBorder'><div class='targDiv'><div class='tc'><img class='introPic' src='trustrating_stim/white_mw085.bmp'><br><font color='green'><strong>Share</strong></font></div></div><div class='respDiv'><div class='respDivL'>Match<br>(e)</div><div class='respDivR'>No Match<br>(i)</div></div></div>","e","TARGET","3","trustrating_stim/white_mw091.bmp,trustrating_stim/white_mw013.bmp,trustrating_stim/white_mw085.bmp","1,0,1","Match","e","4500","trustrating_stim/white_mw085.bmp","green","Share","REAL","1"
"html-keyboard-response","124","400871","0.0-7.0-5.17","6400df3b4bd1fb13b52727fe","bdp_wmem","Tue Mar 14 2023 22:09:57 GMT-0400 (Eastern Daylight Time)","694072","Match,No Match","","null","","","","","","<div class='trialBorder'><div class='vertical-center'><img src='img/correct.jpg'></div><div class='respDiv'><div class='respDivL'><font style='color:orange'>Match<br>(e)</font></div><div class='respDivR'>No Match<br>(i)</div></div></div>","null","FEEDBACK","","","","","","","","","","",""
"html-keyboard-response","125","401382","0.0-7.0-1.18","6400df3b4bd1fb13b52727fe","bdp_wmem","Tue Mar 14 2023 22:09:57 GMT-0400 (Eastern Daylight Time)","694072","Match,No Match","","null","","","","","","<div class='trialBorder'><div class='vertical-center'><img src='img/fixation2_sml.jpg'</img></div></div>","null","FIX","","","","","","","","","","",""
"html-keyboard-response","126","404390","0.0-7.0-2.18","6400df3b4bd1fb13b52727fe","bdp_wmem","Tue Mar 14 2023 22:09:57 GMT-0400 (Eastern Daylight Time)","694072","Match,No Match","","null","","","","","","<div class='trialBorder'><div class='vertical-center'><img style='vertical-align:center; align:center' src='img/fixation2_sml.jpg'></div><div class='arrayDiv2'><div class='tl'><img class='introPic' src='trustrating_stim/white_mw070.bmp'><br><font color='red'><strong>Keep</strong></font></div><div class='tr'><img class='introPic' src='trustrating_stim/white_mw012.bmp'><br><font color='green'><strong>Share</strong></font></div></div></div>","null","ARRAY","2","trustrating_stim/white_mw070.bmp,trustrating_stim/white_mw012.bmp","0,1","noMatchOutcome","i","3000","","","","",""
"html-keyboard-response","127","408409","0.0-7.0-3.18","6400df3b4bd1fb13b52727fe","bdp_wmem","Tue Mar 14 2023 22:09:57 GMT-0400 (Eastern Daylight Time)","694072","Match,No Match","","null","","","","","","<div class='trialBorder'><div class='vertical-center'><img src='img/fixation2_sml.jpg'</img></div></div>","null","DELAY","","","","","","","","","","",""
"html-keyboard-response","128","409849","0.0-7.0-4.18","6400df3b4bd1fb13b52727fe","bdp_wmem","Tue Mar 14 2023 22:09:57 GMT-0400 (Eastern Daylight Time)","694072","Match,No Match","","1437","","","","","","<div class='trialBorder'><div class='targDiv'><div class='tc'><img class='introPic' src='trustrating_stim/white_mw070.bmp'><br><font color='green'><strong>Share</strong></font></div></div><div class='respDiv'><div class='respDivL'>Match<br>(e)</div><div class='respDivR'>No Match<br>(i)</div></div></div>","i","TARGET","2","trustrating_stim/white_mw070.bmp,trustrating_stim/white_mw012.bmp","0,1","noMatchOutcome","i","3000","trustrating_stim/white_mw070.bmp","green","Share","REAL","1"
"html-keyboard-response","129","410359","0.0-7.0-5.18","6400df3b4bd1fb13b52727fe","bdp_wmem","Tue Mar 14 2023 22:09:57 GMT-0400 (Eastern Daylight Time)","694072","Match,No Match","","null","","","","","","<div class='trialBorder'><div class='vertical-center'><img src='img/correct.jpg'></div><div class='respDiv'><div class='respDivL'>Match<br>(e)</div><div class='respDivR'><font style='color:orange'>No Match<br>(i)</font></div></div></div>","null","FEEDBACK","","","","","","","","","","",""
"html-keyboard-response","130","410870","0.0-7.0-1.19","6400df3b4bd1fb13b52727fe","bdp_wmem","Tue Mar 14 2023 22:09:57 GMT-0400 (Eastern Daylight Time)","694072","Match,No Match","","null","","","","","","<div class='trialBorder'><div class='vertical-center'><img src='img/fixation2_sml.jpg'</img></div></div>","null","FIX","","","","","","","","","","",""
"html-keyboard-response","131","415391","0.0-7.0-2.19","6400df3b4bd1fb13b52727fe","bdp_wmem","Tue Mar 14 2023 22:09:57 GMT-0400 (Eastern Daylight Time)","694072","Match,No Match","","null","","","","","","<div class='trialBorder'><div class='vertical-center'><img style='vertical-align:center; align:center' src='img/fixation2_sml.jpg'></div><div class='arrayDiv3'><div class='tl'><img class='introPic' src='trustrating_stim/white_mw012.bmp'><br><font color='red'><strong>Keep</strong></font></div><div class='tc'><img class='introPic' src='trustrating_stim/white_mw038.bmp'><br><font color='green'><strong>Share</strong></font></div><div class='tr'><img class='introPic' src='trustrating_stim/white_mw085.bmp'><br><font color='green'><strong>Share</strong></font></div></div></div>","null","ARRAY","3","trustrating_stim/white_mw012.bmp,trustrating_stim/white_mw038.bmp,trustrating_stim/white_mw085.bmp","0,1,1","Match","e","4500","","","","",""
"html-keyboard-response","132","419394","0.0-7.0-3.19","6400df3b4bd1fb13b52727fe","bdp_wmem","Tue Mar 14 2023 22:09:57 GMT-0400 (Eastern Daylight Time)","694072","Match,No Match","","null","","","","","","<div class='trialBorder'><div class='vertical-center'><img src='img/fixation2_sml.jpg'</img></div></div>","null","DELAY","","","","","","","","","","",""
"html-keyboard-response","133","420788","0.0-7.0-4.19","6400df3b4bd1fb13b52727fe","bdp_wmem","Tue Mar 14 2023 22:09:57 GMT-0400 (Eastern Daylight Time)","694072","Match,No Match","","1391","","","","","","<div class='trialBorder'><div class='targDiv'><div class='tc'><img class='introPic' src='trustrating_stim/white_mw038.bmp'><br><font color='green'><strong>Share</strong></font></div></div><div class='respDiv'><div class='respDivL'>Match<br>(e)</div><div class='respDivR'>No Match<br>(i)</div></div></div>","e","TARGET","3","trustrating_stim/white_mw012.bmp,trustrating_stim/white_mw038.bmp,trustrating_stim/white_mw085.bmp","0,1,1","Match","e","4500","trustrating_stim/white_mw038.bmp","green","Share","REAL","1"
"html-keyboard-response","134","421295","0.0-7.0-5.19","6400df3b4bd1fb13b52727fe","bdp_wmem","Tue Mar 14 2023 22:09:57 GMT-0400 (Eastern Daylight Time)","694072","Match,No Match","","null","","","","","","<div class='trialBorder'><div class='vertical-center'><img src='img/correct.jpg'></div><div class='respDiv'><div class='respDivL'><font style='color:orange'>Match<br>(e)</font></div><div class='respDivR'>No Match<br>(i)</div></div></div>","null","FEEDBACK","","","","","","","","","","",""
"html-keyboard-response","135","421798","0.0-7.0-1.20","6400df3b4bd1fb13b52727fe","bdp_wmem","Tue Mar 14 2023 22:09:57 GMT-0400 (Eastern Daylight Time)","694072","Match,No Match","","null","","","","","","<div class='trialBorder'><div class='vertical-center'><img src='img/fixation2_sml.jpg'</img></div></div>","null","FIX","","","","","","","","","","",""
"html-keyboard-response","136","426309","0.0-7.0-2.20","6400df3b4bd1fb13b52727fe","bdp_wmem","Tue Mar 14 2023 22:09:57 GMT-0400 (Eastern Daylight Time)","694072","Match,No Match","","null","","","","","","<div class='trialBorder'><div class='vertical-center'><img style='vertical-align:center; align:center' src='img/fixation2_sml.jpg'></div><div class='arrayDiv3'><div class='tl'><img class='introPic' src='trustrating_stim/white_mw070.bmp'><br><font color='red'><strong>Keep</strong></font></div><div class='tc'><img class='introPic' src='trustrating_stim/white_mw013.bmp'><br><font color='red'><strong>Keep</strong></font></div><div class='tr'><img class='introPic' src='trustrating_stim/white_mw091.bmp'><br><font color='green'><strong>Share</strong></font></div></div></div>","null","ARRAY","3","trustrating_stim/white_mw070.bmp,trustrating_stim/white_mw013.bmp,trustrating_stim/white_mw091.bmp","0,0,1","noMatchFace","i","4500","","","","",""
"html-keyboard-response","137","430311","0.0-7.0-3.20","6400df3b4bd1fb13b52727fe","bdp_wmem","Tue Mar 14 2023 22:09:57 GMT-0400 (Eastern Daylight Time)","694072","Match,No Match","","null","","","","","","<div class='trialBorder'><div class='vertical-center'><img src='img/fixation2_sml.jpg'</img></div></div>","null","DELAY","","","","","","","","","","",""
"html-keyboard-response","138","431531","0.0-7.0-4.20","6400df3b4bd1fb13b52727fe","bdp_wmem","Tue Mar 14 2023 22:09:57 GMT-0400 (Eastern Daylight Time)","694072","Match,No Match","","1216","","","","","","<div class='trialBorder'><div class='targDiv'><div class='tc'><img class='introPic' src='trustrating_stim/white_mw012.bmp'><br><font color='red'><strong>Keep</strong></font></div></div><div class='respDiv'><div class='respDivL'>Match<br>(e)</div><div class='respDivR'>No Match<br>(i)</div></div></div>","e","TARGET","3","trustrating_stim/white_mw070.bmp,trustrating_stim/white_mw013.bmp,trustrating_stim/white_mw091.bmp","0,0,1","noMatchFace","i","4500","trustrating_stim/white_mw012.bmp","red","Keep","REAL","0"
"html-keyboard-response","139","432041","0.0-7.0-5.20","6400df3b4bd1fb13b52727fe","bdp_wmem","Tue Mar 14 2023 22:09:57 GMT-0400 (Eastern Daylight Time)","694072","Match,No Match","","null","","","","","","<div class='trialBorder'><div class='vertical-center'><img src='img/error.jpg'></div><div class='respDiv'><div class='respDivL'><font style='color:orange'>Match<br>(e)</font></div><div class='respDivR'>No Match<br>(i)</div></div></div>","null","FEEDBACK","","","","","","","","","","",""
"html-keyboard-response","140","432556","0.0-7.0-1.21","6400df3b4bd1fb13b52727fe","bdp_wmem","Tue Mar 14 2023 22:09:57 GMT-0400 (Eastern Daylight Time)","694072","Match,No Match","","null","","","","","","<div class='trialBorder'><div class='vertical-center'><img src='img/fixation2_sml.jpg'</img></div></div>","null","FIX","","","","","","","","","","",""
"html-keyboard-response","141","435570","0.0-7.0-2.21","6400df3b4bd1fb13b52727fe","bdp_wmem","Tue Mar 14 2023 22:09:57 GMT-0400 (Eastern Daylight Time)","694072","Match,No Match","","null","","","","","","<div class='trialBorder'><div class='vertical-center'><img style='vertical-align:center; align:center' src='img/fixation2_sml.jpg'></div><div class='arrayDiv2'><div class='tl'><img class='introPic' src='trustrating_stim/white_mw013.bmp'><br><font color='red'><strong>Keep</strong></font></div><div class='tr'><img class='introPic' src='trustrating_stim/white_mw085.bmp'><br><font color='green'><strong>Share</strong></font></div></div></div>","null","ARRAY","2","trustrating_stim/white_mw013.bmp,trustrating_stim/white_mw085.bmp","0,1","Match","e","3000","","","","",""
"html-keyboard-response","142","439586","0.0-7.0-3.21","6400df3b4bd1fb13b52727fe","bdp_wmem","Tue Mar 14 2023 22:09:57 GMT-0400 (Eastern Daylight Time)","694072","Match,No Match","","null","","","","","","<div class='trialBorder'><div class='vertical-center'><img src='img/fixation2_sml.jpg'</img></div></div>","null","DELAY","","","","","","","","","","",""
"html-keyboard-response","143","440878","0.0-7.0-4.21","6400df3b4bd1fb13b52727fe","bdp_wmem","Tue Mar 14 2023 22:09:57 GMT-0400 (Eastern Daylight Time)","694072","Match,No Match","","1290","","","","","","<div class='trialBorder'><div class='targDiv'><div class='tc'><img class='introPic' src='trustrating_stim/white_mw085.bmp'><br><font color='green'><strong>Share</strong></font></div></div><div class='respDiv'><div class='respDivL'>Match<br>(e)</div><div class='respDivR'>No Match<br>(i)</div></div></div>","e","TARGET","2","trustrating_stim/white_mw013.bmp,trustrating_stim/white_mw085.bmp","0,1","Match","e","3000","trustrating_stim/white_mw085.bmp","green","Share","REAL","1"
"html-keyboard-response","144","441380","0.0-7.0-5.21","6400df3b4bd1fb13b52727fe","bdp_wmem","Tue Mar 14 2023 22:09:57 GMT-0400 (Eastern Daylight Time)","694072","Match,No Match","","null","","","","","","<div class='trialBorder'><div class='vertical-center'><img src='img/correct.jpg'></div><div class='respDiv'><div class='respDivL'><font style='color:orange'>Match<br>(e)</font></div><div class='respDivR'>No Match<br>(i)</div></div></div>","null","FEEDBACK","","","","","","","","","","",""
"html-keyboard-response","145","441892","0.0-7.0-1.22","6400df3b4bd1fb13b52727fe","bdp_wmem","Tue Mar 14 2023 22:09:57 GMT-0400 (Eastern Daylight Time)","694072","Match,No Match","","null","","","","","","<div class='trialBorder'><div class='vertical-center'><img src='img/fixation2_sml.jpg'</img></div></div>","null","FIX","","","","","","","","","","",""
"html-keyboard-response","146","444904","0.0-7.0-2.22","6400df3b4bd1fb13b52727fe","bdp_wmem","Tue Mar 14 2023 22:09:57 GMT-0400 (Eastern Daylight Time)","694072","Match,No Match","","null","","","","","","<div class='trialBorder'><div class='vertical-center'><img style='vertical-align:center; align:center' src='img/fixation2_sml.jpg'></div><div class='arrayDiv2'><div class='tl'><img class='introPic' src='trustrating_stim/white_mw010.bmp'><br><font color='red'><strong>Keep</strong></font></div><div class='tr'><img class='introPic' src='trustrating_stim/white_mw013.bmp'><br><font color='green'><strong>Share</strong></font></div></div></div>","null","ARRAY","2","trustrating_stim/white_mw010.bmp,trustrating_stim/white_mw013.bmp","0,1","noMatchFace","i","3000","","","","",""
"html-keyboard-response","147","448919","0.0-7.0-3.22","6400df3b4bd1fb13b52727fe","bdp_wmem","Tue Mar 14 2023 22:09:57 GMT-0400 (Eastern Daylight Time)","694072","Match,No Match","","null","","","","","","<div class='trialBorder'><div class='vertical-center'><img src='img/fixation2_sml.jpg'</img></div></div>","null","DELAY","","","","","","","","","","",""
"html-keyboard-response","148","450526","0.0-7.0-4.22","6400df3b4bd1fb13b52727fe","bdp_wmem","Tue Mar 14 2023 22:09:57 GMT-0400 (Eastern Daylight Time)","694072","Match,No Match","","1605","","","","","","<div class='trialBorder'><div class='targDiv'><div class='tc'><img class='introPic' src='trustrating_stim/white_mw085.bmp'><br><font color='green'><strong>Share</strong></font></div></div><div class='respDiv'><div class='respDivL'>Match<br>(e)</div><div class='respDivR'>No Match<br>(i)</div></div></div>","i","TARGET","2","trustrating_stim/white_mw010.bmp,trustrating_stim/white_mw013.bmp","0,1","noMatchFace","i","3000","trustrating_stim/white_mw085.bmp","green","Share","REAL","1"
"html-keyboard-response","149","451030","0.0-7.0-5.22","6400df3b4bd1fb13b52727fe","bdp_wmem","Tue Mar 14 2023 22:09:57 GMT-0400 (Eastern Daylight Time)","694072","Match,No Match","","null","","","","","","<div class='trialBorder'><div class='vertical-center'><img src='img/correct.jpg'></div><div class='respDiv'><div class='respDivL'>Match<br>(e)</div><div class='respDivR'><font style='color:orange'>No Match<br>(i)</font></div></div></div>","null","FEEDBACK","","","","","","","","","","",""
"html-keyboard-response","150","451541","0.0-7.0-1.23","6400df3b4bd1fb13b52727fe","bdp_wmem","Tue Mar 14 2023 22:09:57 GMT-0400 (Eastern Daylight Time)","694072","Match,No Match","","null","","","","","","<div class='trialBorder'><div class='vertical-center'><img src='img/fixation2_sml.jpg'</img></div></div>","null","FIX","","","","","","","","","","",""
"html-keyboard-response","151","453048","0.0-7.0-2.23","6400df3b4bd1fb13b52727fe","bdp_wmem","Tue Mar 14 2023 22:09:57 GMT-0400 (Eastern Daylight Time)","694072","Match,No Match","","null","","","","","","<div class='trialBorder'><div class='vertical-center'><img style='vertical-align:center; align:center' src='img/fixation2_sml.jpg'></div><div class='arrayDiv1'><div class='tc'><img class='introPic' src='trustrating_stim/white_mw070.bmp'><br><font color='red'><strong>Keep</strong></font></div></div></div>","null","ARRAY","1","trustrating_stim/white_mw070.bmp","0","noMatchOutcome","i","1500","","","","",""
"html-keyboard-response","152","457054","0.0-7.0-3.23","6400df3b4bd1fb13b52727fe","bdp_wmem","Tue Mar 14 2023 22:09:57 GMT-0400 (Eastern Daylight Time)","694072","Match,No Match","","null","","","","","","<div class='trialBorder'><div class='vertical-center'><img src='img/fixation2_sml.jpg'</img></div></div>","null","DELAY","","","","","","","","","","",""
"html-keyboard-response","153","458399","0.0-7.0-4.23","6400df3b4bd1fb13b52727fe","bdp_wmem","Tue Mar 14 2023 22:09:57 GMT-0400 (Eastern Daylight Time)","694072","Match,No Match","","1342","","","","","","<div class='trialBorder'><div class='targDiv'><div class='tc'><img class='introPic' src='trustrating_stim/white_mw070.bmp'><br><font color='green'><strong>Share</strong></font></div></div><div class='respDiv'><div class='respDivL'>Match<br>(e)</div><div class='respDivR'>No Match<br>(i)</div></div></div>","i","TARGET","1","trustrating_stim/white_mw070.bmp","0","noMatchOutcome","i","1500","trustrating_stim/white_mw070.bmp","green","Share","REAL","1"
"html-keyboard-response","154","458905","0.0-7.0-5.23","6400df3b4bd1fb13b52727fe","bdp_wmem","Tue Mar 14 2023 22:09:57 GMT-0400 (Eastern Daylight Time)","694072","Match,No Match","","null","","","","","","<div class='trialBorder'><div class='vertical-center'><img src='img/correct.jpg'></div><div class='respDiv'><div class='respDivL'>Match<br>(e)</div><div class='respDivR'><font style='color:orange'>No Match<br>(i)</font></div></div></div>","null","FEEDBACK","","","","","","","","","","",""
"html-keyboard-response","155","459408","0.0-7.0-1.24","6400df3b4bd1fb13b52727fe","bdp_wmem","Tue Mar 14 2023 22:09:57 GMT-0400 (Eastern Daylight Time)","694072","Match,No Match","","null","","","","","","<div class='trialBorder'><div class='vertical-center'><img src='img/fixation2_sml.jpg'</img></div></div>","null","FIX","","","","","","","","","","",""
"html-keyboard-response","156","460911","0.0-7.0-2.24","6400df3b4bd1fb13b52727fe","bdp_wmem","Tue Mar 14 2023 22:09:57 GMT-0400 (Eastern Daylight Time)","694072","Match,No Match","","null","","","","","","<div class='trialBorder'><div class='vertical-center'><img style='vertical-align:center; align:center' src='img/fixation2_sml.jpg'></div><div class='arrayDiv1'><div class='tc'><img class='introPic' src='trustrating_stim/white_mw092.bmp'><br><font color='green'><strong>Share</strong></font></div></div></div>","null","ARRAY","1","trustrating_stim/white_mw092.bmp","1","Match","e","1500","","","","",""
"html-keyboard-response","157","464921","0.0-7.0-3.24","6400df3b4bd1fb13b52727fe","bdp_wmem","Tue Mar 14 2023 22:09:57 GMT-0400 (Eastern Daylight Time)","694072","Match,No Match","","null","","","","","","<div class='trialBorder'><div class='vertical-center'><img src='img/fixation2_sml.jpg'</img></div></div>","null","DELAY","","","","","","","","","","",""
"html-keyboard-response","158","466507","0.0-7.0-4.24","6400df3b4bd1fb13b52727fe","bdp_wmem","Tue Mar 14 2023 22:09:57 GMT-0400 (Eastern Daylight Time)","694072","Match,No Match","","1583","","","","","","<div class='trialBorder'><div class='targDiv'><div class='tc'><img class='introPic' src='trustrating_stim/white_mw092.bmp'><br><font color='green'><strong>Share</strong></font></div></div><div class='respDiv'><div class='respDivL'>Match<br>(e)</div><div class='respDivR'>No Match<br>(i)</div></div></div>","e","TARGET","1","trustrating_stim/white_mw092.bmp","1","Match","e","1500","trustrating_stim/white_mw092.bmp","green","Share","REAL","1"
"html-keyboard-response","159","467011","0.0-7.0-5.24","6400df3b4bd1fb13b52727fe","bdp_wmem","Tue Mar 14 2023 22:09:57 GMT-0400 (Eastern Daylight Time)","694072","Match,No Match","","null","","","","","","<div class='trialBorder'><div class='vertical-center'><img src='img/correct.jpg'></div><div class='respDiv'><div class='respDivL'><font style='color:orange'>Match<br>(e)</font></div><div class='respDivR'>No Match<br>(i)</div></div></div>","null","FEEDBACK","","","","","","","","","","",""
"html-keyboard-response","160","467517","0.0-7.0-1.25","6400df3b4bd1fb13b52727fe","bdp_wmem","Tue Mar 14 2023 22:09:57 GMT-0400 (Eastern Daylight Time)","694072","Match,No Match","","null","","","","","","<div class='trialBorder'><div class='vertical-center'><img src='img/fixation2_sml.jpg'</img></div></div>","null","FIX","","","","","","","","","","",""
"html-keyboard-response","161","470533","0.0-7.0-2.25","6400df3b4bd1fb13b52727fe","bdp_wmem","Tue Mar 14 2023 22:09:57 GMT-0400 (Eastern Daylight Time)","694072","Match,No Match","","null","","","","","","<div class='trialBorder'><div class='vertical-center'><img style='vertical-align:center; align:center' src='img/fixation2_sml.jpg'></div><div class='arrayDiv2'><div class='tl'><img class='introPic' src='trustrating_stim/white_mw038.bmp'><br><font color='red'><strong>Keep</strong></font></div><div class='tr'><img class='introPic' src='trustrating_stim/white_mw070.bmp'><br><font color='green'><strong>Share</strong></font></div></div></div>","null","ARRAY","2","trustrating_stim/white_mw038.bmp,trustrating_stim/white_mw070.bmp","0,1","noMatchOutcome","i","3000","","","","",""
"html-keyboard-response","162","474549","0.0-7.0-3.25","6400df3b4bd1fb13b52727fe","bdp_wmem","Tue Mar 14 2023 22:09:57 GMT-0400 (Eastern Daylight Time)","694072","Match,No Match","","null","","","","","","<div class='trialBorder'><div class='vertical-center'><img src='img/fixation2_sml.jpg'</img></div></div>","null","DELAY","","","","","","","","","","",""
"html-keyboard-response","163","477356","0.0-7.0-4.25","6400df3b4bd1fb13b52727fe","bdp_wmem","Tue Mar 14 2023 22:09:57 GMT-0400 (Eastern Daylight Time)","694072","Match,No Match","","2804","","","","","","<div class='trialBorder'><div class='targDiv'><div class='tc'><img class='introPic' src='trustrating_stim/white_mw070.bmp'><br><font color='red'><strong>Keep</strong></font></div></div><div class='respDiv'><div class='respDivL'>Match<br>(e)</div><div class='respDivR'>No Match<br>(i)</div></div></div>","e","TARGET","2","trustrating_stim/white_mw038.bmp,trustrating_stim/white_mw070.bmp","0,1","noMatchOutcome","i","3000","trustrating_stim/white_mw070.bmp","red","Keep","REAL","0"
"html-keyboard-response","164","477862","0.0-7.0-5.25","6400df3b4bd1fb13b52727fe","bdp_wmem","Tue Mar 14 2023 22:09:57 GMT-0400 (Eastern Daylight Time)","694072","Match,No Match","","null","","","","","","<div class='trialBorder'><div class='vertical-center'><img src='img/error.jpg'></div><div class='respDiv'><div class='respDivL'><font style='color:orange'>Match<br>(e)</font></div><div class='respDivR'>No Match<br>(i)</div></div></div>","null","FEEDBACK","","","","","","","","","","",""
"html-keyboard-response","165","478372","0.0-7.0-1.26","6400df3b4bd1fb13b52727fe","bdp_wmem","Tue Mar 14 2023 22:09:57 GMT-0400 (Eastern Daylight Time)","694072","Match,No Match","","null","","","","","","<div class='trialBorder'><div class='vertical-center'><img src='img/fixation2_sml.jpg'</img></div></div>","null","FIX","","","","","","","","","","",""
"html-keyboard-response","166","479876","0.0-7.0-2.26","6400df3b4bd1fb13b52727fe","bdp_wmem","Tue Mar 14 2023 22:09:57 GMT-0400 (Eastern Daylight Time)","694072","Match,No Match","","null","","","","","","<div class='trialBorder'><div class='vertical-center'><img style='vertical-align:center; align:center' src='img/fixation2_sml.jpg'></div><div class='arrayDiv1'><div class='tc'><img class='introPic' src='trustrating_stim/white_mw040.bmp'><br><font color='red'><strong>Keep</strong></font></div></div></div>","null","ARRAY","1","trustrating_stim/white_mw040.bmp","0","noMatchFace","i","1500","","","","",""
"html-keyboard-response","167","483880","0.0-7.0-3.26","6400df3b4bd1fb13b52727fe","bdp_wmem","Tue Mar 14 2023 22:09:57 GMT-0400 (Eastern Daylight Time)","694072","Match,No Match","","null","","","","","","<div class='trialBorder'><div class='vertical-center'><img src='img/fixation2_sml.jpg'</img></div></div>","null","DELAY","","","","","","","","","","",""
"html-keyboard-response","168","484991","0.0-7.0-4.26","6400df3b4bd1fb13b52727fe","bdp_wmem","Tue Mar 14 2023 22:09:57 GMT-0400 (Eastern Daylight Time)","694072","Match,No Match","","1108","","","","","","<div class='trialBorder'><div class='targDiv'><div class='tc'><img class='introPic' src='trustrating_stim/white_mw085.bmp'><br><font color='red'><strong>Keep</strong></font></div></div><div class='respDiv'><div class='respDivL'>Match<br>(e)</div><div class='respDivR'>No Match<br>(i)</div></div></div>","i","TARGET","1","trustrating_stim/white_mw040.bmp","0","noMatchFace","i","1500","trustrating_stim/white_mw085.bmp","red","Keep","REAL","1"
"html-keyboard-response","169","485502","0.0-7.0-5.26","6400df3b4bd1fb13b52727fe","bdp_wmem","Tue Mar 14 2023 22:09:57 GMT-0400 (Eastern Daylight Time)","694072","Match,No Match","","null","","","","","","<div class='trialBorder'><div class='vertical-center'><img src='img/correct.jpg'></div><div class='respDiv'><div class='respDivL'>Match<br>(e)</div><div class='respDivR'><font style='color:orange'>No Match<br>(i)</font></div></div></div>","null","FEEDBACK","","","","","","","","","","",""
"html-keyboard-response","170","486015","0.0-7.0-1.27","6400df3b4bd1fb13b52727fe","bdp_wmem","Tue Mar 14 2023 22:09:57 GMT-0400 (Eastern Daylight Time)","694072","Match,No Match","","null","","","","","","<div class='trialBorder'><div class='vertical-center'><img src='img/fixation2_sml.jpg'</img></div></div>","null","FIX","","","","","","","","","","",""
"html-keyboard-response","171","490531","0.0-7.0-2.27","6400df3b4bd1fb13b52727fe","bdp_wmem","Tue Mar 14 2023 22:09:57 GMT-0400 (Eastern Daylight Time)","694072","Match,No Match","","null","","","","","","<div class='trialBorder'><div class='vertical-center'><img style='vertical-align:center; align:center' src='img/fixation2_sml.jpg'></div><div class='arrayDiv3'><div class='tl'><img class='introPic' src='trustrating_stim/white_mw040.bmp'><br><font color='green'><strong>Share</strong></font></div><div class='tc'><img class='introPic' src='trustrating_stim/white_mw042.bmp'><br><font color='red'><strong>Keep</strong></font></div><div class='tr'><img class='introPic' src='trustrating_stim/white_mw003.bmp'><br><font color='red'><strong>Keep</strong></font></div></div></div>","null","ARRAY","3","trustrating_stim/white_mw040.bmp,trustrating_stim/white_mw042.bmp,trustrating_stim/white_mw003.bmp","1,0,0","noMatchOutcome","i","4500","","","","",""
"html-keyboard-response","172","494539","0.0-7.0-3.27","6400df3b4bd1fb13b52727fe","bdp_wmem","Tue Mar 14 2023 22:09:57 GMT-0400 (Eastern Daylight Time)","694072","Match,No Match","","null","","","","","","<div class='trialBorder'><div class='vertical-center'><img src='img/fixation2_sml.jpg'</img></div></div>","null","DELAY","","","","","","","","","","",""
"html-keyboard-response","173","495933","0.0-7.0-4.27","6400df3b4bd1fb13b52727fe","bdp_wmem","Tue Mar 14 2023 22:09:57 GMT-0400 (Eastern Daylight Time)","694072","Match,No Match","","1391","","","","","","<div class='trialBorder'><div class='targDiv'><div class='tc'><img class='introPic' src='trustrating_stim/white_mw042.bmp'><br><font color='green'><strong>Share</strong></font></div></div><div class='respDiv'><div class='respDivL'>Match<br>(e)</div><div class='respDivR'>No Match<br>(i)</div></div></div>","i","TARGET","3","trustrating_stim/white_mw040.bmp,trustrating_stim/white_mw042.bmp,trustrating_stim/white_mw003.bmp","1,0,0","noMatchOutcome","i","4500","trustrating_stim/white_mw042.bmp","green","Share","REAL","1"
"html-keyboard-response","174","496439","0.0-7.0-5.27","6400df3b4bd1fb13b52727fe","bdp_wmem","Tue Mar 14 2023 22:09:57 GMT-0400 (Eastern Daylight Time)","694072","Match,No Match","","null","","","","","","<div class='trialBorder'><div class='vertical-center'><img src='img/correct.jpg'></div><div class='respDiv'><div class='respDivL'>Match<br>(e)</div><div class='respDivR'><font style='color:orange'>No Match<br>(i)</font></div></div></div>","null","FEEDBACK","","","","","","","","","","",""
"html-keyboard-response","175","496955","0.0-7.0-1.28","6400df3b4bd1fb13b52727fe","bdp_wmem","Tue Mar 14 2023 22:09:57 GMT-0400 (Eastern Daylight Time)","694072","Match,No Match","","null","","","","","","<div class='trialBorder'><div class='vertical-center'><img src='img/fixation2_sml.jpg'</img></div></div>","null","FIX","","","","","","","","","","",""
"html-keyboard-response","176","501460","0.0-7.0-2.28","6400df3b4bd1fb13b52727fe","bdp_wmem","Tue Mar 14 2023 22:09:57 GMT-0400 (Eastern Daylight Time)","694072","Match,No Match","","null","","","","","","<div class='trialBorder'><div class='vertical-center'><img style='vertical-align:center; align:center' src='img/fixation2_sml.jpg'></div><div class='arrayDiv3'><div class='tl'><img class='introPic' src='trustrating_stim/white_mw040.bmp'><br><font color='green'><strong>Share</strong></font></div><div class='tc'><img class='introPic' src='trustrating_stim/white_mw012.bmp'><br><font color='red'><strong>Keep</strong></font></div><div class='tr'><img class='introPic' src='trustrating_stim/white_mw042.bmp'><br><font color='red'><strong>Keep</strong></font></div></div></div>","null","ARRAY","3","trustrating_stim/white_mw040.bmp,trustrating_stim/white_mw012.bmp,trustrating_stim/white_mw042.bmp","1,0,0","Match","e","4500","","","","",""
"html-keyboard-response","177","505469","0.0-7.0-3.28","6400df3b4bd1fb13b52727fe","bdp_wmem","Tue Mar 14 2023 22:09:57 GMT-0400 (Eastern Daylight Time)","694072","Match,No Match","","null","","","","","","<div class='trialBorder'><div class='vertical-center'><img src='img/fixation2_sml.jpg'</img></div></div>","null","DELAY","","","","","","","","","","",""
"html-keyboard-response","178","506718","0.0-7.0-4.28","6400df3b4bd1fb13b52727fe","bdp_wmem","Tue Mar 14 2023 22:09:57 GMT-0400 (Eastern Daylight Time)","694072","Match,No Match","","1245","","","","","","<div class='trialBorder'><div class='targDiv'><div class='tc'><img class='introPic' src='trustrating_stim/white_mw040.bmp'><br><font color='green'><strong>Share</strong></font></div></div><div class='respDiv'><div class='respDivL'>Match<br>(e)</div><div class='respDivR'>No Match<br>(i)</div></div></div>","e","TARGET","3","trustrating_stim/white_mw040.bmp,trustrating_stim/white_mw012.bmp,trustrating_stim/white_mw042.bmp","1,0,0","Match","e","4500","trustrating_stim/white_mw040.bmp","green","Share","REAL","1"
"html-keyboard-response","179","507220","0.0-7.0-5.28","6400df3b4bd1fb13b52727fe","bdp_wmem","Tue Mar 14 2023 22:09:57 GMT-0400 (Eastern Daylight Time)","694072","Match,No Match","","null","","","","","","<div class='trialBorder'><div class='vertical-center'><img src='img/correct.jpg'></div><div class='respDiv'><div class='respDivL'><font style='color:orange'>Match<br>(e)</font></div><div class='respDivR'>No Match<br>(i)</div></div></div>","null","FEEDBACK","","","","","","","","","","",""
"html-keyboard-response","180","507732","0.0-7.0-1.29","6400df3b4bd1fb13b52727fe","bdp_wmem","Tue Mar 14 2023 22:09:57 GMT-0400 (Eastern Daylight Time)","694072","Match,No Match","","null","","","","","","<div class='trialBorder'><div class='vertical-center'><img src='img/fixation2_sml.jpg'</img></div></div>","null","FIX","","","","","","","","","","",""
"html-keyboard-response","181","512236","0.0-7.0-2.29","6400df3b4bd1fb13b52727fe","bdp_wmem","Tue Mar 14 2023 22:09:57 GMT-0400 (Eastern Daylight Time)","694072","Match,No Match","","null","","","","","","<div class='trialBorder'><div class='vertical-center'><img style='vertical-align:center; align:center' src='img/fixation2_sml.jpg'></div><div class='arrayDiv3'><div class='tl'><img class='introPic' src='trustrating_stim/white_mw091.bmp'><br><font color='red'><strong>Keep</strong></font></div><div class='tc'><img class='introPic' src='trustrating_stim/white_mw013.bmp'><br><font color='green'><strong>Share</strong></font></div><div class='tr'><img class='introPic' src='trustrating_stim/white_mw042.bmp'><br><font color='red'><strong>Keep</strong></font></div></div></div>","null","ARRAY","3","trustrating_stim/white_mw091.bmp,trustrating_stim/white_mw013.bmp,trustrating_stim/white_mw042.bmp","0,1,0","Match","e","4500","","","","",""
"html-keyboard-response","182","516243","0.0-7.0-3.29","6400df3b4bd1fb13b52727fe","bdp_wmem","Tue Mar 14 2023 22:09:57 GMT-0400 (Eastern Daylight Time)","694072","Match,No Match","","null","","","","","","<div class='trialBorder'><div class='vertical-center'><img src='img/fixation2_sml.jpg'</img></div></div>","null","DELAY","","","","","","","","","","",""
"html-keyboard-response","183","517303","0.0-7.0-4.29","6400df3b4bd1fb13b52727fe","bdp_wmem","Tue Mar 14 2023 22:09:57 GMT-0400 (Eastern Daylight Time)","694072","Match,No Match","","1058","","","","","","<div class='trialBorder'><div class='targDiv'><div class='tc'><img class='introPic' src='trustrating_stim/white_mw013.bmp'><br><font color='green'><strong>Share</strong></font></div></div><div class='respDiv'><div class='respDivL'>Match<br>(e)</div><div class='respDivR'>No Match<br>(i)</div></div></div>","i","TARGET","3","trustrating_stim/white_mw091.bmp,trustrating_stim/white_mw013.bmp,trustrating_stim/white_mw042.bmp","0,1,0","Match","e","4500","trustrating_stim/white_mw013.bmp","green","Share","REAL","0"
"html-keyboard-response","184","517813","0.0-7.0-5.29","6400df3b4bd1fb13b52727fe","bdp_wmem","Tue Mar 14 2023 22:09:57 GMT-0400 (Eastern Daylight Time)","694072","Match,No Match","","null","","","","","","<div class='trialBorder'><div class='vertical-center'><img src='img/error.jpg'></div><div class='respDiv'><div class='respDivL'>Match<br>(e)</div><div class='respDivR'><font style='color:orange'>No Match<br>(i)</font></div></div></div>","null","FEEDBACK","","","","","","","","","","",""
"html-keyboard-response","185","518319","0.0-7.0-1.30","6400df3b4bd1fb13b52727fe","bdp_wmem","Tue Mar 14 2023 22:09:57 GMT-0400 (Eastern Daylight Time)","694072","Match,No Match","","null","","","","","","<div class='trialBorder'><div class='vertical-center'><img src='img/fixation2_sml.jpg'</img></div></div>","null","FIX","","","","","","","","","","",""
"html-keyboard-response","186","521322","0.0-7.0-2.30","6400df3b4bd1fb13b52727fe","bdp_wmem","Tue Mar 14 2023 22:09:57 GMT-0400 (Eastern Daylight Time)","694072","Match,No Match","","null","","","","","","<div class='trialBorder'><div class='vertical-center'><img style='vertical-align:center; align:center' src='img/fixation2_sml.jpg'></div><div class='arrayDiv2'><div class='tl'><img class='introPic' src='trustrating_stim/white_mw042.bmp'><br><font color='red'><strong>Keep</strong></font></div><div class='tr'><img class='introPic' src='trustrating_stim/white_mw092.bmp'><br><font color='green'><strong>Share</strong></font></div></div></div>","null","ARRAY","2","trustrating_stim/white_mw042.bmp,trustrating_stim/white_mw092.bmp","0,1","Match","e","3000","","","","",""
"html-keyboard-response","187","525330","0.0-7.0-3.30","6400df3b4bd1fb13b52727fe","bdp_wmem","Tue Mar 14 2023 22:09:57 GMT-0400 (Eastern Daylight Time)","694072","Match,No Match","","null","","","","","","<div class='trialBorder'><div class='vertical-center'><img src='img/fixation2_sml.jpg'</img></div></div>","null","DELAY","","","","","","","","","","",""
"html-keyboard-response","188","527343","0.0-7.0-4.30","6400df3b4bd1fb13b52727fe","bdp_wmem","Tue Mar 14 2023 22:09:57 GMT-0400 (Eastern Daylight Time)","694072","Match,No Match","","2010","","","","","","<div class='trialBorder'><div class='targDiv'><div class='tc'><img class='introPic' src='trustrating_stim/white_mw042.bmp'><br><font color='red'><strong>Keep</strong></font></div></div><div class='respDiv'><div class='respDivL'>Match<br>(e)</div><div class='respDivR'>No Match<br>(i)</div></div></div>","e","TARGET","2","trustrating_stim/white_mw042.bmp,trustrating_stim/white_mw092.bmp","0,1","Match","e","3000","trustrating_stim/white_mw042.bmp","red","Keep","REAL","1"
"html-keyboard-response","189","527850","0.0-7.0-5.30","6400df3b4bd1fb13b52727fe","bdp_wmem","Tue Mar 14 2023 22:09:57 GMT-0400 (Eastern Daylight Time)","694072","Match,No Match","","null","","","","","","<div class='trialBorder'><div class='vertical-center'><img src='img/correct.jpg'></div><div class='respDiv'><div class='respDivL'><font style='color:orange'>Match<br>(e)</font></div><div class='respDivR'>No Match<br>(i)</div></div></div>","null","FEEDBACK","","","","","","","","","","",""
