"trial_type","trial_index","time_elapsed","internal_node_id","subject_id","task","startTime","totalTime","labels","view_history","rt","event","trial","time","trialtype","success","stimulus","key_press","stimType","arraySize","arrayFaces","arrayOutcomes","matchType","corrResp","arrayDur","targFace","targCol","targOutcome","trialType","corr"
"pavlovia","0","2","0.0-0.0","5d42abf3c9acd700010c41df","bdp_wmem","Mon Mar 13 2023 13:39:55 GMT-0500 (Central Daylight Time)","556448","Match,No Match","","","","","","","","","","","","","","","","","","","","",""
"instructions","1","7424","0.0-1.0","5d42abf3c9acd700010c41df","bdp_wmem","Mon Mar 13 2023 13:39:55 GMT-0500 (Central Daylight Time)","556448","Match,No Match","[{""page_index"":0,""viewing_time"":7422}]","7422","","","","","","","","","","","","","","","","","","",""
"","","","","5d42abf3c9acd700010c41df","bdp_wmem","Mon Mar 13 2023 13:39:55 GMT-0500 (Central Daylight Time)","556448","Match,No Match","","","fullscreenenter","2","10465","fullscreenenter","","","","","","","","","","","","","","",""
"fullscreen","2","11446","0.0-2.0","5d42abf3c9acd700010c41df","bdp_wmem","Mon Mar 13 2023 13:39:55 GMT-0500 (Central Daylight Time)","556448","Match,No Match","","","","","","","true","","","","","","","","","","","","","",""
"instructions","3","52128","0.0-4.0","5d42abf3c9acd700010c41df","bdp_wmem","Mon Mar 13 2023 13:39:55 GMT-0500 (Central Daylight Time)","556448","Match,No Match","[{""page_index"":0,""viewing_time"":13660},{""page_index"":1,""viewing_time"":12777},{""page_index"":2,""viewing_time"":6827},{""page_index"":3,""viewing_time"":2566},{""page_index"":4,""viewing_time"":4844}]","40675","","","","","","","","","","","","","","","","","","",""
"html-keyboard-response","4","52631","0.0-5.0-1.0","5d42abf3c9acd700010c41df","bdp_wmem","Mon Mar 13 2023 13:39:55 GMT-0500 (Central Daylight Time)","556448","Match,No Match","","null","","","","","","<div class='trialBorder'><div class='vertical-center'><img src='img/fixation2_sml.jpg'</img></div></div>","null","FIX","","","","","","","","","","",""
"html-keyboard-response","5","54133","0.0-5.0-2.0","5d42abf3c9acd700010c41df","bdp_wmem","Mon Mar 13 2023 13:39:55 GMT-0500 (Central Daylight Time)","556448","Match,No Match","","null","","","","","","<div class='trialBorder'><div class='vertical-center'><img style='vertical-align:center; align:center' src='img/fixation2_sml.jpg'></div><div class='arrayDiv1'><div class='tc'><img class='introPic' src='trustrating_stim/white_mw042.bmp'><br><font color='green'><strong>Share</strong></font></div></div></div>","null","ARRAY","1","trustrating_stim/white_mw042.bmp","1","Match","e","1500","","","","",""
"html-keyboard-response","6","58136","0.0-5.0-3.0","5d42abf3c9acd700010c41df","bdp_wmem","Mon Mar 13 2023 13:39:55 GMT-0500 (Central Daylight Time)","556448","Match,No Match","","null","","","","","","<div class='trialBorder'><div class='vertical-center'><img src='img/fixation2_sml.jpg'</img></div></div>","null","DELAY","","","","","","","","","","",""
"html-keyboard-response","7","58360","0.0-5.0-4.0","5d42abf3c9acd700010c41df","bdp_wmem","Mon Mar 13 2023 13:39:55 GMT-0500 (Central Daylight Time)","556448","Match,No Match","","223","","","","","","<div class='trialBorder'><div class='targDiv'><div class='tc'><img class='introPic' src='trustrating_stim/white_mw042.bmp'><br><font color='green'><strong>Share</strong></font></div></div><div class='respDiv'><div class='respDivL'>Match<br>(e)</div><div class='respDivR'>No Match<br>(i)</div></div></div>","i","TARGET","1","trustrating_stim/white_mw042.bmp","1","Match","e","1500","trustrating_stim/white_mw042.bmp","green","Share","PRACTICE","0"
"html-keyboard-response","8","58863","0.0-5.0-5.0","5d42abf3c9acd700010c41df","bdp_wmem","Mon Mar 13 2023 13:39:55 GMT-0500 (Central Daylight Time)","556448","Match,No Match","","null","","","","","","<div class='trialBorder'><div class='vertical-center'><img src='img/error.jpg'></div><div class='respDiv'><div class='respDivL'>Match<br>(e)</div><div class='respDivR'><font style='color:orange'>No Match<br>(i)</font></div></div></div>","null","FEEDBACK","","","","","","","","","","",""
"html-keyboard-response","9","59365","0.0-5.0-1.1","5d42abf3c9acd700010c41df","bdp_wmem","Mon Mar 13 2023 13:39:55 GMT-0500 (Central Daylight Time)","556448","Match,No Match","","null","","","","","","<div class='trialBorder'><div class='vertical-center'><img src='img/fixation2_sml.jpg'</img></div></div>","null","FIX","","","","","","","","","","",""
"html-keyboard-response","10","63866","0.0-5.0-2.1","5d42abf3c9acd700010c41df","bdp_wmem","Mon Mar 13 2023 13:39:55 GMT-0500 (Central Daylight Time)","556448","Match,No Match","","null","","","","","","<div class='trialBorder'><div class='vertical-center'><img style='vertical-align:center; align:center' src='img/fixation2_sml.jpg'></div><div class='arrayDiv3'><div class='tl'><img class='introPic' src='trustrating_stim/white_mw012.bmp'><br><font color='green'><strong>Share</strong></font></div><div class='tc'><img class='introPic' src='trustrating_stim/white_mw078.bmp'><br><font color='red'><strong>Keep</strong></font></div><div class='tr'><img class='introPic' src='trustrating_stim/white_mw038.bmp'><br><font color='red'><strong>Keep</strong></font></div></div></div>","null","ARRAY","3","trustrating_stim/white_mw012.bmp,trustrating_stim/white_mw078.bmp,trustrating_stim/white_mw038.bmp","1,0,0","Match","e","4500","","","","",""
"html-keyboard-response","11","67868","0.0-5.0-3.1","5d42abf3c9acd700010c41df","bdp_wmem","Mon Mar 13 2023 13:39:55 GMT-0500 (Central Daylight Time)","556448","Match,No Match","","null","","","","","","<div class='trialBorder'><div class='vertical-center'><img src='img/fixation2_sml.jpg'</img></div></div>","null","DELAY","","","","","","","","","","",""
"html-keyboard-response","12","70773","0.0-5.0-4.1","5d42abf3c9acd700010c41df","bdp_wmem","Mon Mar 13 2023 13:39:55 GMT-0500 (Central Daylight Time)","556448","Match,No Match","","2904","","","","","","<div class='trialBorder'><div class='targDiv'><div class='tc'><img class='introPic' src='trustrating_stim/white_mw078.bmp'><br><font color='red'><strong>Keep</strong></font></div></div><div class='respDiv'><div class='respDivL'>Match<br>(e)</div><div class='respDivR'>No Match<br>(i)</div></div></div>","e","TARGET","3","trustrating_stim/white_mw012.bmp,trustrating_stim/white_mw078.bmp,trustrating_stim/white_mw038.bmp","1,0,0","Match","e","4500","trustrating_stim/white_mw078.bmp","red","Keep","PRACTICE","1"
"html-keyboard-response","13","71277","0.0-5.0-5.1","5d42abf3c9acd700010c41df","bdp_wmem","Mon Mar 13 2023 13:39:55 GMT-0500 (Central Daylight Time)","556448","Match,No Match","","null","","","","","","<div class='trialBorder'><div class='vertical-center'><img src='img/correct.jpg'></div><div class='respDiv'><div class='respDivL'><font style='color:orange'>Match<br>(e)</font></div><div class='respDivR'>No Match<br>(i)</div></div></div>","null","FEEDBACK","","","","","","","","","","",""
"html-keyboard-response","14","71778","0.0-5.0-1.2","5d42abf3c9acd700010c41df","bdp_wmem","Mon Mar 13 2023 13:39:55 GMT-0500 (Central Daylight Time)","556448","Match,No Match","","null","","","","","","<div class='trialBorder'><div class='vertical-center'><img src='img/fixation2_sml.jpg'</img></div></div>","null","FIX","","","","","","","","","","",""
"html-keyboard-response","15","74780","0.0-5.0-2.2","5d42abf3c9acd700010c41df","bdp_wmem","Mon Mar 13 2023 13:39:55 GMT-0500 (Central Daylight Time)","556448","Match,No Match","","null","","","","","","<div class='trialBorder'><div class='vertical-center'><img style='vertical-align:center; align:center' src='img/fixation2_sml.jpg'></div><div class='arrayDiv2'><div class='tl'><img class='introPic' src='trustrating_stim/white_mw003.bmp'><br><font color='red'><strong>Keep</strong></font></div><div class='tr'><img class='introPic' src='trustrating_stim/white_mw010.bmp'><br><font color='green'><strong>Share</strong></font></div></div></div>","null","ARRAY","2","trustrating_stim/white_mw003.bmp,trustrating_stim/white_mw010.bmp","0,1","noMatchOutcome","i","3000","","","","",""
"html-keyboard-response","16","78781","0.0-5.0-3.2","5d42abf3c9acd700010c41df","bdp_wmem","Mon Mar 13 2023 13:39:55 GMT-0500 (Central Daylight Time)","556448","Match,No Match","","null","","","","","","<div class='trialBorder'><div class='vertical-center'><img src='img/fixation2_sml.jpg'</img></div></div>","null","DELAY","","","","","","","","","","",""
"html-keyboard-response","17","81281","0.0-5.0-4.2","5d42abf3c9acd700010c41df","bdp_wmem","Mon Mar 13 2023 13:39:55 GMT-0500 (Central Daylight Time)","556448","Match,No Match","","2497","","","","","","<div class='trialBorder'><div class='targDiv'><div class='tc'><img class='introPic' src='trustrating_stim/white_mw010.bmp'><br><font color='red'><strong>Keep</strong></font></div></div><div class='respDiv'><div class='respDivL'>Match<br>(e)</div><div class='respDivR'>No Match<br>(i)</div></div></div>","e","TARGET","2","trustrating_stim/white_mw003.bmp,trustrating_stim/white_mw010.bmp","0,1","noMatchOutcome","i","3000","trustrating_stim/white_mw010.bmp","red","Keep","PRACTICE","0"
"html-keyboard-response","18","81783","0.0-5.0-5.2","5d42abf3c9acd700010c41df","bdp_wmem","Mon Mar 13 2023 13:39:55 GMT-0500 (Central Daylight Time)","556448","Match,No Match","","null","","","","","","<div class='trialBorder'><div class='vertical-center'><img src='img/error.jpg'></div><div class='respDiv'><div class='respDivL'><font style='color:orange'>Match<br>(e)</font></div><div class='respDivR'>No Match<br>(i)</div></div></div>","null","FEEDBACK","","","","","","","","","","",""
"html-keyboard-response","19","82285","0.0-5.0-1.3","5d42abf3c9acd700010c41df","bdp_wmem","Mon Mar 13 2023 13:39:55 GMT-0500 (Central Daylight Time)","556448","Match,No Match","","null","","","","","","<div class='trialBorder'><div class='vertical-center'><img src='img/fixation2_sml.jpg'</img></div></div>","null","FIX","","","","","","","","","","",""
"html-keyboard-response","20","86789","0.0-5.0-2.3","5d42abf3c9acd700010c41df","bdp_wmem","Mon Mar 13 2023 13:39:55 GMT-0500 (Central Daylight Time)","556448","Match,No Match","","null","","","","","","<div class='trialBorder'><div class='vertical-center'><img style='vertical-align:center; align:center' src='img/fixation2_sml.jpg'></div><div class='arrayDiv3'><div class='tl'><img class='introPic' src='trustrating_stim/white_mw042.bmp'><br><font color='green'><strong>Share</strong></font></div><div class='tc'><img class='introPic' src='trustrating_stim/white_mw092.bmp'><br><font color='red'><strong>Keep</strong></font></div><div class='tr'><img class='introPic' src='trustrating_stim/white_mw012.bmp'><br><font color='green'><strong>Share</strong></font></div></div></div>","null","ARRAY","3","trustrating_stim/white_mw042.bmp,trustrating_stim/white_mw092.bmp,trustrating_stim/white_mw012.bmp","1,0,1","noMatchOutcome","i","4500","","","","",""
"html-keyboard-response","21","90790","0.0-5.0-3.3","5d42abf3c9acd700010c41df","bdp_wmem","Mon Mar 13 2023 13:39:55 GMT-0500 (Central Daylight Time)","556448","Match,No Match","","null","","","","","","<div class='trialBorder'><div class='vertical-center'><img src='img/fixation2_sml.jpg'</img></div></div>","null","DELAY","","","","","","","","","","",""
"html-keyboard-response","22","93751","0.0-5.0-4.3","5d42abf3c9acd700010c41df","bdp_wmem","Mon Mar 13 2023 13:39:55 GMT-0500 (Central Daylight Time)","556448","Match,No Match","","2958","","","","","","<div class='trialBorder'><div class='targDiv'><div class='tc'><img class='introPic' src='trustrating_stim/white_mw012.bmp'><br><font color='red'><strong>Keep</strong></font></div></div><div class='respDiv'><div class='respDivL'>Match<br>(e)</div><div class='respDivR'>No Match<br>(i)</div></div></div>","i","TARGET","3","trustrating_stim/white_mw042.bmp,trustrating_stim/white_mw092.bmp,trustrating_stim/white_mw012.bmp","1,0,1","noMatchOutcome","i","4500","trustrating_stim/white_mw012.bmp","red","Keep","PRACTICE","1"
"html-keyboard-response","23","94253","0.0-5.0-5.3","5d42abf3c9acd700010c41df","bdp_wmem","Mon Mar 13 2023 13:39:55 GMT-0500 (Central Daylight Time)","556448","Match,No Match","","null","","","","","","<div class='trialBorder'><div class='vertical-center'><img src='img/correct.jpg'></div><div class='respDiv'><div class='respDivL'>Match<br>(e)</div><div class='respDivR'><font style='color:orange'>No Match<br>(i)</font></div></div></div>","null","FEEDBACK","","","","","","","","","","",""
"html-keyboard-response","24","94755","0.0-5.0-1.4","5d42abf3c9acd700010c41df","bdp_wmem","Mon Mar 13 2023 13:39:55 GMT-0500 (Central Daylight Time)","556448","Match,No Match","","null","","","","","","<div class='trialBorder'><div class='vertical-center'><img src='img/fixation2_sml.jpg'</img></div></div>","null","FIX","","","","","","","","","","",""
"html-keyboard-response","25","96258","0.0-5.0-2.4","5d42abf3c9acd700010c41df","bdp_wmem","Mon Mar 13 2023 13:39:55 GMT-0500 (Central Daylight Time)","556448","Match,No Match","","null","","","","","","<div class='trialBorder'><div class='vertical-center'><img style='vertical-align:center; align:center' src='img/fixation2_sml.jpg'></div><div class='arrayDiv1'><div class='tc'><img class='introPic' src='trustrating_stim/white_mw040.bmp'><br><font color='green'><strong>Share</strong></font></div></div></div>","null","ARRAY","1","trustrating_stim/white_mw040.bmp","1","noMatchFace","i","1500","","","","",""
"html-keyboard-response","26","100261","0.0-5.0-3.4","5d42abf3c9acd700010c41df","bdp_wmem","Mon Mar 13 2023 13:39:55 GMT-0500 (Central Daylight Time)","556448","Match,No Match","","null","","","","","","<div class='trialBorder'><div class='vertical-center'><img src='img/fixation2_sml.jpg'</img></div></div>","null","DELAY","","","","","","","","","","",""
"html-keyboard-response","27","102346","0.0-5.0-4.4","5d42abf3c9acd700010c41df","bdp_wmem","Mon Mar 13 2023 13:39:55 GMT-0500 (Central Daylight Time)","556448","Match,No Match","","2083","","","","","","<div class='trialBorder'><div class='targDiv'><div class='tc'><img class='introPic' src='trustrating_stim/white_mw012.bmp'><br><font color='green'><strong>Share</strong></font></div></div><div class='respDiv'><div class='respDivL'>Match<br>(e)</div><div class='respDivR'>No Match<br>(i)</div></div></div>","i","TARGET","1","trustrating_stim/white_mw040.bmp","1","noMatchFace","i","1500","trustrating_stim/white_mw012.bmp","green","Share","PRACTICE","1"
"html-keyboard-response","28","102847","0.0-5.0-5.4","5d42abf3c9acd700010c41df","bdp_wmem","Mon Mar 13 2023 13:39:55 GMT-0500 (Central Daylight Time)","556448","Match,No Match","","null","","","","","","<div class='trialBorder'><div class='vertical-center'><img src='img/correct.jpg'></div><div class='respDiv'><div class='respDivL'>Match<br>(e)</div><div class='respDivR'><font style='color:orange'>No Match<br>(i)</font></div></div></div>","null","FEEDBACK","","","","","","","","","","",""
"html-keyboard-response","29","103348","0.0-5.0-1.5","5d42abf3c9acd700010c41df","bdp_wmem","Mon Mar 13 2023 13:39:55 GMT-0500 (Central Daylight Time)","556448","Match,No Match","","null","","","","","","<div class='trialBorder'><div class='vertical-center'><img src='img/fixation2_sml.jpg'</img></div></div>","null","FIX","","","","","","","","","","",""
"html-keyboard-response","30","106351","0.0-5.0-2.5","5d42abf3c9acd700010c41df","bdp_wmem","Mon Mar 13 2023 13:39:55 GMT-0500 (Central Daylight Time)","556448","Match,No Match","","null","","","","","","<div class='trialBorder'><div class='vertical-center'><img style='vertical-align:center; align:center' src='img/fixation2_sml.jpg'></div><div class='arrayDiv2'><div class='tl'><img class='introPic' src='trustrating_stim/white_mw092.bmp'><br><font color='green'><strong>Share</strong></font></div><div class='tr'><img class='introPic' src='trustrating_stim/white_mw091.bmp'><br><font color='red'><strong>Keep</strong></font></div></div></div>","null","ARRAY","2","trustrating_stim/white_mw092.bmp,trustrating_stim/white_mw091.bmp","1,0","Match","e","3000","","","","",""
"html-keyboard-response","31","110354","0.0-5.0-3.5","5d42abf3c9acd700010c41df","bdp_wmem","Mon Mar 13 2023 13:39:55 GMT-0500 (Central Daylight Time)","556448","Match,No Match","","null","","","","","","<div class='trialBorder'><div class='vertical-center'><img src='img/fixation2_sml.jpg'</img></div></div>","null","DELAY","","","","","","","","","","",""
"html-keyboard-response","32","111669","0.0-5.0-4.5","5d42abf3c9acd700010c41df","bdp_wmem","Mon Mar 13 2023 13:39:55 GMT-0500 (Central Daylight Time)","556448","Match,No Match","","1312","","","","","","<div class='trialBorder'><div class='targDiv'><div class='tc'><img class='introPic' src='trustrating_stim/white_mw091.bmp'><br><font color='red'><strong>Keep</strong></font></div></div><div class='respDiv'><div class='respDivL'>Match<br>(e)</div><div class='respDivR'>No Match<br>(i)</div></div></div>","e","TARGET","2","trustrating_stim/white_mw092.bmp,trustrating_stim/white_mw091.bmp","1,0","Match","e","3000","trustrating_stim/white_mw091.bmp","red","Keep","PRACTICE","1"
"html-keyboard-response","33","112170","0.0-5.0-5.5","5d42abf3c9acd700010c41df","bdp_wmem","Mon Mar 13 2023 13:39:55 GMT-0500 (Central Daylight Time)","556448","Match,No Match","","null","","","","","","<div class='trialBorder'><div class='vertical-center'><img src='img/correct.jpg'></div><div class='respDiv'><div class='respDivL'><font style='color:orange'>Match<br>(e)</font></div><div class='respDivR'>No Match<br>(i)</div></div></div>","null","FEEDBACK","","","","","","","","","","",""
"instructions","34","118382","0.0-6.0","5d42abf3c9acd700010c41df","bdp_wmem","Mon Mar 13 2023 13:39:55 GMT-0500 (Central Daylight Time)","556448","Match,No Match","[{""page_index"":0,""viewing_time"":6211}]","6211","","","","","","","","","","","","","","","","","","",""
"html-keyboard-response","35","118884","0.0-7.0-1.0","5d42abf3c9acd700010c41df","bdp_wmem","Mon Mar 13 2023 13:39:55 GMT-0500 (Central Daylight Time)","556448","Match,No Match","","null","","","","","","<div class='trialBorder'><div class='vertical-center'><img src='img/fixation2_sml.jpg'</img></div></div>","null","FIX","","","","","","","","","","",""
"html-keyboard-response","36","123388","0.0-7.0-2.0","5d42abf3c9acd700010c41df","bdp_wmem","Mon Mar 13 2023 13:39:55 GMT-0500 (Central Daylight Time)","556448","Match,No Match","","null","","","","","","<div class='trialBorder'><div class='vertical-center'><img style='vertical-align:center; align:center' src='img/fixation2_sml.jpg'></div><div class='arrayDiv3'><div class='tl'><img class='introPic' src='trustrating_stim/white_mw013.bmp'><br><font color='red'><strong>Keep</strong></font></div><div class='tc'><img class='introPic' src='trustrating_stim/white_mw070.bmp'><br><font color='green'><strong>Share</strong></font></div><div class='tr'><img class='introPic' src='trustrating_stim/white_mw085.bmp'><br><font color='red'><strong>Keep</strong></font></div></div></div>","null","ARRAY","3","trustrating_stim/white_mw013.bmp,trustrating_stim/white_mw070.bmp,trustrating_stim/white_mw085.bmp","0,1,0","noMatchFace","i","4500","","","","",""
"html-keyboard-response","37","127391","0.0-7.0-3.0","5d42abf3c9acd700010c41df","bdp_wmem","Mon Mar 13 2023 13:39:55 GMT-0500 (Central Daylight Time)","556448","Match,No Match","","null","","","","","","<div class='trialBorder'><div class='vertical-center'><img src='img/fixation2_sml.jpg'</img></div></div>","null","DELAY","","","","","","","","","","",""
"html-keyboard-response","38","128443","0.0-7.0-4.0","5d42abf3c9acd700010c41df","bdp_wmem","Mon Mar 13 2023 13:39:55 GMT-0500 (Central Daylight Time)","556448","Match,No Match","","1051","","","","","","<div class='trialBorder'><div class='targDiv'><div class='tc'><img class='introPic' src='trustrating_stim/white_mw003.bmp'><br><font color='red'><strong>Keep</strong></font></div></div><div class='respDiv'><div class='respDivL'>Match<br>(e)</div><div class='respDivR'>No Match<br>(i)</div></div></div>","e","TARGET","3","trustrating_stim/white_mw013.bmp,trustrating_stim/white_mw070.bmp,trustrating_stim/white_mw085.bmp","0,1,0","noMatchFace","i","4500","trustrating_stim/white_mw003.bmp","red","Keep","REAL","0"
"html-keyboard-response","39","128945","0.0-7.0-5.0","5d42abf3c9acd700010c41df","bdp_wmem","Mon Mar 13 2023 13:39:55 GMT-0500 (Central Daylight Time)","556448","Match,No Match","","null","","","","","","<div class='trialBorder'><div class='vertical-center'><img src='img/error.jpg'></div><div class='respDiv'><div class='respDivL'><font style='color:orange'>Match<br>(e)</font></div><div class='respDivR'>No Match<br>(i)</div></div></div>","null","FEEDBACK","","","","","","","","","","",""
"html-keyboard-response","40","129447","0.0-7.0-1.1","5d42abf3c9acd700010c41df","bdp_wmem","Mon Mar 13 2023 13:39:55 GMT-0500 (Central Daylight Time)","556448","Match,No Match","","null","","","","","","<div class='trialBorder'><div class='vertical-center'><img src='img/fixation2_sml.jpg'</img></div></div>","null","FIX","","","","","","","","","","",""
"html-keyboard-response","41","133949","0.0-7.0-2.1","5d42abf3c9acd700010c41df","bdp_wmem","Mon Mar 13 2023 13:39:55 GMT-0500 (Central Daylight Time)","556448","Match,No Match","","null","","","","","","<div class='trialBorder'><div class='vertical-center'><img style='vertical-align:center; align:center' src='img/fixation2_sml.jpg'></div><div class='arrayDiv3'><div class='tl'><img class='introPic' src='trustrating_stim/white_mw070.bmp'><br><font color='red'><strong>Keep</strong></font></div><div class='tc'><img class='introPic' src='trustrating_stim/white_mw003.bmp'><br><font color='green'><strong>Share</strong></font></div><div class='tr'><img class='introPic' src='trustrating_stim/white_mw091.bmp'><br><font color='red'><strong>Keep</strong></font></div></div></div>","null","ARRAY","3","trustrating_stim/white_mw070.bmp,trustrating_stim/white_mw003.bmp,trustrating_stim/white_mw091.bmp","0,1,0","Match","e","4500","","","","",""
"html-keyboard-response","42","137952","0.0-7.0-3.1","5d42abf3c9acd700010c41df","bdp_wmem","Mon Mar 13 2023 13:39:55 GMT-0500 (Central Daylight Time)","556448","Match,No Match","","null","","","","","","<div class='trialBorder'><div class='vertical-center'><img src='img/fixation2_sml.jpg'</img></div></div>","null","DELAY","","","","","","","","","","",""
"html-keyboard-response","43","139251","0.0-7.0-4.1","5d42abf3c9acd700010c41df","bdp_wmem","Mon Mar 13 2023 13:39:55 GMT-0500 (Central Daylight Time)","556448","Match,No Match","","1295","","","","","","<div class='trialBorder'><div class='targDiv'><div class='tc'><img class='introPic' src='trustrating_stim/white_mw091.bmp'><br><font color='red'><strong>Keep</strong></font></div></div><div class='respDiv'><div class='respDivL'>Match<br>(e)</div><div class='respDivR'>No Match<br>(i)</div></div></div>","e","TARGET","3","trustrating_stim/white_mw070.bmp,trustrating_stim/white_mw003.bmp,trustrating_stim/white_mw091.bmp","0,1,0","Match","e","4500","trustrating_stim/white_mw091.bmp","red","Keep","REAL","1"
"html-keyboard-response","44","139753","0.0-7.0-5.1","5d42abf3c9acd700010c41df","bdp_wmem","Mon Mar 13 2023 13:39:55 GMT-0500 (Central Daylight Time)","556448","Match,No Match","","null","","","","","","<div class='trialBorder'><div class='vertical-center'><img src='img/correct.jpg'></div><div class='respDiv'><div class='respDivL'><font style='color:orange'>Match<br>(e)</font></div><div class='respDivR'>No Match<br>(i)</div></div></div>","null","FEEDBACK","","","","","","","","","","",""
"html-keyboard-response","45","140255","0.0-7.0-1.2","5d42abf3c9acd700010c41df","bdp_wmem","Mon Mar 13 2023 13:39:55 GMT-0500 (Central Daylight Time)","556448","Match,No Match","","null","","","","","","<div class='trialBorder'><div class='vertical-center'><img src='img/fixation2_sml.jpg'</img></div></div>","null","FIX","","","","","","","","","","",""
"html-keyboard-response","46","144758","0.0-7.0-2.2","5d42abf3c9acd700010c41df","bdp_wmem","Mon Mar 13 2023 13:39:55 GMT-0500 (Central Daylight Time)","556448","Match,No Match","","null","","","","","","<div class='trialBorder'><div class='vertical-center'><img style='vertical-align:center; align:center' src='img/fixation2_sml.jpg'></div><div class='arrayDiv3'><div class='tl'><img class='introPic' src='trustrating_stim/white_mw010.bmp'><br><font color='red'><strong>Keep</strong></font></div><div class='tc'><img class='introPic' src='trustrating_stim/white_mw042.bmp'><br><font color='green'><strong>Share</strong></font></div><div class='tr'><img class='introPic' src='trustrating_stim/white_mw091.bmp'><br><font color='green'><strong>Share</strong></font></div></div></div>","null","ARRAY","3","trustrating_stim/white_mw010.bmp,trustrating_stim/white_mw042.bmp,trustrating_stim/white_mw091.bmp","0,1,1","noMatchOutcome","i","4500","","","","",""
"html-keyboard-response","47","148759","0.0-7.0-3.2","5d42abf3c9acd700010c41df","bdp_wmem","Mon Mar 13 2023 13:39:55 GMT-0500 (Central Daylight Time)","556448","Match,No Match","","null","","","","","","<div class='trialBorder'><div class='vertical-center'><img src='img/fixation2_sml.jpg'</img></div></div>","null","DELAY","","","","","","","","","","",""
"html-keyboard-response","48","149894","0.0-7.0-4.2","5d42abf3c9acd700010c41df","bdp_wmem","Mon Mar 13 2023 13:39:55 GMT-0500 (Central Daylight Time)","556448","Match,No Match","","1131","","","","","","<div class='trialBorder'><div class='targDiv'><div class='tc'><img class='introPic' src='trustrating_stim/white_mw010.bmp'><br><font color='green'><strong>Share</strong></font></div></div><div class='respDiv'><div class='respDivL'>Match<br>(e)</div><div class='respDivR'>No Match<br>(i)</div></div></div>","i","TARGET","3","trustrating_stim/white_mw010.bmp,trustrating_stim/white_mw042.bmp,trustrating_stim/white_mw091.bmp","0,1,1","noMatchOutcome","i","4500","trustrating_stim/white_mw010.bmp","green","Share","REAL","1"
"html-keyboard-response","49","150396","0.0-7.0-5.2","5d42abf3c9acd700010c41df","bdp_wmem","Mon Mar 13 2023 13:39:55 GMT-0500 (Central Daylight Time)","556448","Match,No Match","","null","","","","","","<div class='trialBorder'><div class='vertical-center'><img src='img/correct.jpg'></div><div class='respDiv'><div class='respDivL'>Match<br>(e)</div><div class='respDivR'><font style='color:orange'>No Match<br>(i)</font></div></div></div>","null","FEEDBACK","","","","","","","","","","",""
"html-keyboard-response","50","150897","0.0-7.0-1.3","5d42abf3c9acd700010c41df","bdp_wmem","Mon Mar 13 2023 13:39:55 GMT-0500 (Central Daylight Time)","556448","Match,No Match","","null","","","","","","<div class='trialBorder'><div class='vertical-center'><img src='img/fixation2_sml.jpg'</img></div></div>","null","FIX","","","","","","","","","","",""
"html-keyboard-response","51","155400","0.0-7.0-2.3","5d42abf3c9acd700010c41df","bdp_wmem","Mon Mar 13 2023 13:39:55 GMT-0500 (Central Daylight Time)","556448","Match,No Match","","null","","","","","","<div class='trialBorder'><div class='vertical-center'><img style='vertical-align:center; align:center' src='img/fixation2_sml.jpg'></div><div class='arrayDiv3'><div class='tl'><img class='introPic' src='trustrating_stim/white_mw012.bmp'><br><font color='green'><strong>Share</strong></font></div><div class='tc'><img class='introPic' src='trustrating_stim/white_mw010.bmp'><br><font color='red'><strong>Keep</strong></font></div><div class='tr'><img class='introPic' src='trustrating_stim/white_mw092.bmp'><br><font color='green'><strong>Share</strong></font></div></div></div>","null","ARRAY","3","trustrating_stim/white_mw012.bmp,trustrating_stim/white_mw010.bmp,trustrating_stim/white_mw092.bmp","1,0,1","Match","e","4500","","","","",""
"html-keyboard-response","52","159403","0.0-7.0-3.3","5d42abf3c9acd700010c41df","bdp_wmem","Mon Mar 13 2023 13:39:55 GMT-0500 (Central Daylight Time)","556448","Match,No Match","","null","","","","","","<div class='trialBorder'><div class='vertical-center'><img src='img/fixation2_sml.jpg'</img></div></div>","null","DELAY","","","","","","","","","","",""
"html-keyboard-response","53","160810","0.0-7.0-4.3","5d42abf3c9acd700010c41df","bdp_wmem","Mon Mar 13 2023 13:39:55 GMT-0500 (Central Daylight Time)","556448","Match,No Match","","1407","","","","","","<div class='trialBorder'><div class='targDiv'><div class='tc'><img class='introPic' src='trustrating_stim/white_mw012.bmp'><br><font color='green'><strong>Share</strong></font></div></div><div class='respDiv'><div class='respDivL'>Match<br>(e)</div><div class='respDivR'>No Match<br>(i)</div></div></div>","e","TARGET","3","trustrating_stim/white_mw012.bmp,trustrating_stim/white_mw010.bmp,trustrating_stim/white_mw092.bmp","1,0,1","Match","e","4500","trustrating_stim/white_mw012.bmp","green","Share","REAL","1"
"html-keyboard-response","54","161312","0.0-7.0-5.3","5d42abf3c9acd700010c41df","bdp_wmem","Mon Mar 13 2023 13:39:55 GMT-0500 (Central Daylight Time)","556448","Match,No Match","","null","","","","","","<div class='trialBorder'><div class='vertical-center'><img src='img/correct.jpg'></div><div class='respDiv'><div class='respDivL'><font style='color:orange'>Match<br>(e)</font></div><div class='respDivR'>No Match<br>(i)</div></div></div>","null","FEEDBACK","","","","","","","","","","",""
"html-keyboard-response","55","161814","0.0-7.0-1.4","5d42abf3c9acd700010c41df","bdp_wmem","Mon Mar 13 2023 13:39:55 GMT-0500 (Central Daylight Time)","556448","Match,No Match","","null","","","","","","<div class='trialBorder'><div class='vertical-center'><img src='img/fixation2_sml.jpg'</img></div></div>","null","FIX","","","","","","","","","","",""
"html-keyboard-response","56","164817","0.0-7.0-2.4","5d42abf3c9acd700010c41df","bdp_wmem","Mon Mar 13 2023 13:39:55 GMT-0500 (Central Daylight Time)","556448","Match,No Match","","null","","","","","","<div class='trialBorder'><div class='vertical-center'><img style='vertical-align:center; align:center' src='img/fixation2_sml.jpg'></div><div class='arrayDiv2'><div class='tl'><img class='introPic' src='trustrating_stim/white_mw042.bmp'><br><font color='green'><strong>Share</strong></font></div><div class='tr'><img class='introPic' src='trustrating_stim/white_mw012.bmp'><br><font color='red'><strong>Keep</strong></font></div></div></div>","null","ARRAY","2","trustrating_stim/white_mw042.bmp,trustrating_stim/white_mw012.bmp","1,0","noMatchFace","i","3000","","","","",""
"html-keyboard-response","57","168819","0.0-7.0-3.4","5d42abf3c9acd700010c41df","bdp_wmem","Mon Mar 13 2023 13:39:55 GMT-0500 (Central Daylight Time)","556448","Match,No Match","","null","","","","","","<div class='trialBorder'><div class='vertical-center'><img src='img/fixation2_sml.jpg'</img></div></div>","null","DELAY","","","","","","","","","","",""
"html-keyboard-response","58","170887","0.0-7.0-4.4","5d42abf3c9acd700010c41df","bdp_wmem","Mon Mar 13 2023 13:39:55 GMT-0500 (Central Daylight Time)","556448","Match,No Match","","2065","","","","","","<div class='trialBorder'><div class='targDiv'><div class='tc'><img class='introPic' src='trustrating_stim/white_mw003.bmp'><br><font color='green'><strong>Share</strong></font></div></div><div class='respDiv'><div class='respDivL'>Match<br>(e)</div><div class='respDivR'>No Match<br>(i)</div></div></div>","e","TARGET","2","trustrating_stim/white_mw042.bmp,trustrating_stim/white_mw012.bmp","1,0","noMatchFace","i","3000","trustrating_stim/white_mw003.bmp","green","Share","REAL","0"
"html-keyboard-response","59","171388","0.0-7.0-5.4","5d42abf3c9acd700010c41df","bdp_wmem","Mon Mar 13 2023 13:39:55 GMT-0500 (Central Daylight Time)","556448","Match,No Match","","null","","","","","","<div class='trialBorder'><div class='vertical-center'><img src='img/error.jpg'></div><div class='respDiv'><div class='respDivL'><font style='color:orange'>Match<br>(e)</font></div><div class='respDivR'>No Match<br>(i)</div></div></div>","null","FEEDBACK","","","","","","","","","","",""
"html-keyboard-response","60","171890","0.0-7.0-1.5","5d42abf3c9acd700010c41df","bdp_wmem","Mon Mar 13 2023 13:39:55 GMT-0500 (Central Daylight Time)","556448","Match,No Match","","null","","","","","","<div class='trialBorder'><div class='vertical-center'><img src='img/fixation2_sml.jpg'</img></div></div>","null","FIX","","","","","","","","","","",""
"html-keyboard-response","61","176393","0.0-7.0-2.5","5d42abf3c9acd700010c41df","bdp_wmem","Mon Mar 13 2023 13:39:55 GMT-0500 (Central Daylight Time)","556448","Match,No Match","","null","","","","","","<div class='trialBorder'><div class='vertical-center'><img style='vertical-align:center; align:center' src='img/fixation2_sml.jpg'></div><div class='arrayDiv3'><div class='tl'><img class='introPic' src='trustrating_stim/white_mw078.bmp'><br><font color='green'><strong>Share</strong></font></div><div class='tc'><img class='introPic' src='trustrating_stim/white_mw038.bmp'><br><font color='green'><strong>Share</strong></font></div><div class='tr'><img class='introPic' src='trustrating_stim/white_mw012.bmp'><br><font color='red'><strong>Keep</strong></font></div></div></div>","null","ARRAY","3","trustrating_stim/white_mw078.bmp,trustrating_stim/white_mw038.bmp,trustrating_stim/white_mw012.bmp","1,1,0","noMatchOutcome","i","4500","","","","",""
"html-keyboard-response","62","180396","0.0-7.0-3.5","5d42abf3c9acd700010c41df","bdp_wmem","Mon Mar 13 2023 13:39:55 GMT-0500 (Central Daylight Time)","556448","Match,No Match","","null","","","","","","<div class='trialBorder'><div class='vertical-center'><img src='img/fixation2_sml.jpg'</img></div></div>","null","DELAY","","","","","","","","","","",""
"html-keyboard-response","63","180939","0.0-7.0-4.5","5d42abf3c9acd700010c41df","bdp_wmem","Mon Mar 13 2023 13:39:55 GMT-0500 (Central Daylight Time)","556448","Match,No Match","","541","","","","","","<div class='trialBorder'><div class='targDiv'><div class='tc'><img class='introPic' src='trustrating_stim/white_mw078.bmp'><br><font color='red'><strong>Keep</strong></font></div></div><div class='respDiv'><div class='respDivL'>Match<br>(e)</div><div class='respDivR'>No Match<br>(i)</div></div></div>","i","TARGET","3","trustrating_stim/white_mw078.bmp,trustrating_stim/white_mw038.bmp,trustrating_stim/white_mw012.bmp","1,1,0","noMatchOutcome","i","4500","trustrating_stim/white_mw078.bmp","red","Keep","REAL","1"
"html-keyboard-response","64","181440","0.0-7.0-5.5","5d42abf3c9acd700010c41df","bdp_wmem","Mon Mar 13 2023 13:39:55 GMT-0500 (Central Daylight Time)","556448","Match,No Match","","null","","","","","","<div class='trialBorder'><div class='vertical-center'><img src='img/correct.jpg'></div><div class='respDiv'><div class='respDivL'>Match<br>(e)</div><div class='respDivR'><font style='color:orange'>No Match<br>(i)</font></div></div></div>","null","FEEDBACK","","","","","","","","","","",""
"html-keyboard-response","65","181942","0.0-7.0-1.6","5d42abf3c9acd700010c41df","bdp_wmem","Mon Mar 13 2023 13:39:55 GMT-0500 (Central Daylight Time)","556448","Match,No Match","","null","","","","","","<div class='trialBorder'><div class='vertical-center'><img src='img/fixation2_sml.jpg'</img></div></div>","null","FIX","","","","","","","","","","",""
"html-keyboard-response","66","183444","0.0-7.0-2.6","5d42abf3c9acd700010c41df","bdp_wmem","Mon Mar 13 2023 13:39:55 GMT-0500 (Central Daylight Time)","556448","Match,No Match","","null","","","","","","<div class='trialBorder'><div class='vertical-center'><img style='vertical-align:center; align:center' src='img/fixation2_sml.jpg'></div><div class='arrayDiv1'><div class='tc'><img class='introPic' src='trustrating_stim/white_mw042.bmp'><br><font color='green'><strong>Share</strong></font></div></div></div>","null","ARRAY","1","trustrating_stim/white_mw042.bmp","1","noMatchFace","i","1500","","","","",""
"html-keyboard-response","67","187446","0.0-7.0-3.6","5d42abf3c9acd700010c41df","bdp_wmem","Mon Mar 13 2023 13:39:55 GMT-0500 (Central Daylight Time)","556448","Match,No Match","","null","","","","","","<div class='trialBorder'><div class='vertical-center'><img src='img/fixation2_sml.jpg'</img></div></div>","null","DELAY","","","","","","","","","","",""
"html-keyboard-response","68","188580","0.0-7.0-4.6","5d42abf3c9acd700010c41df","bdp_wmem","Mon Mar 13 2023 13:39:55 GMT-0500 (Central Daylight Time)","556448","Match,No Match","","1132","","","","","","<div class='trialBorder'><div class='targDiv'><div class='tc'><img class='introPic' src='trustrating_stim/white_mw070.bmp'><br><font color='green'><strong>Share</strong></font></div></div><div class='respDiv'><div class='respDivL'>Match<br>(e)</div><div class='respDivR'>No Match<br>(i)</div></div></div>","i","TARGET","1","trustrating_stim/white_mw042.bmp","1","noMatchFace","i","1500","trustrating_stim/white_mw070.bmp","green","Share","REAL","1"
"html-keyboard-response","69","189081","0.0-7.0-5.6","5d42abf3c9acd700010c41df","bdp_wmem","Mon Mar 13 2023 13:39:55 GMT-0500 (Central Daylight Time)","556448","Match,No Match","","null","","","","","","<div class='trialBorder'><div class='vertical-center'><img src='img/correct.jpg'></div><div class='respDiv'><div class='respDivL'>Match<br>(e)</div><div class='respDivR'><font style='color:orange'>No Match<br>(i)</font></div></div></div>","null","FEEDBACK","","","","","","","","","","",""
"html-keyboard-response","70","189582","0.0-7.0-1.7","5d42abf3c9acd700010c41df","bdp_wmem","Mon Mar 13 2023 13:39:55 GMT-0500 (Central Daylight Time)","556448","Match,No Match","","null","","","","","","<div class='trialBorder'><div class='vertical-center'><img src='img/fixation2_sml.jpg'</img></div></div>","null","FIX","","","","","","","","","","",""
"html-keyboard-response","71","191084","0.0-7.0-2.7","5d42abf3c9acd700010c41df","bdp_wmem","Mon Mar 13 2023 13:39:55 GMT-0500 (Central Daylight Time)","556448","Match,No Match","","null","","","","","","<div class='trialBorder'><div class='vertical-center'><img style='vertical-align:center; align:center' src='img/fixation2_sml.jpg'></div><div class='arrayDiv1'><div class='tc'><img class='introPic' src='trustrating_stim/white_mw078.bmp'><br><font color='green'><strong>Share</strong></font></div></div></div>","null","ARRAY","1","trustrating_stim/white_mw078.bmp","1","noMatchOutcome","i","1500","","","","",""
"html-keyboard-response","72","195086","0.0-7.0-3.7","5d42abf3c9acd700010c41df","bdp_wmem","Mon Mar 13 2023 13:39:55 GMT-0500 (Central Daylight Time)","556448","Match,No Match","","null","","","","","","<div class='trialBorder'><div class='vertical-center'><img src='img/fixation2_sml.jpg'</img></div></div>","null","DELAY","","","","","","","","","","",""
"html-keyboard-response","73","196054","0.0-7.0-4.7","5d42abf3c9acd700010c41df","bdp_wmem","Mon Mar 13 2023 13:39:55 GMT-0500 (Central Daylight Time)","556448","Match,No Match","","966","","","","","","<div class='trialBorder'><div class='targDiv'><div class='tc'><img class='introPic' src='trustrating_stim/white_mw078.bmp'><br><font color='red'><strong>Keep</strong></font></div></div><div class='respDiv'><div class='respDivL'>Match<br>(e)</div><div class='respDivR'>No Match<br>(i)</div></div></div>","i","TARGET","1","trustrating_stim/white_mw078.bmp","1","noMatchOutcome","i","1500","trustrating_stim/white_mw078.bmp","red","Keep","REAL","1"
"html-keyboard-response","74","196556","0.0-7.0-5.7","5d42abf3c9acd700010c41df","bdp_wmem","Mon Mar 13 2023 13:39:55 GMT-0500 (Central Daylight Time)","556448","Match,No Match","","null","","","","","","<div class='trialBorder'><div class='vertical-center'><img src='img/correct.jpg'></div><div class='respDiv'><div class='respDivL'>Match<br>(e)</div><div class='respDivR'><font style='color:orange'>No Match<br>(i)</font></div></div></div>","null","FEEDBACK","","","","","","","","","","",""
"html-keyboard-response","75","197057","0.0-7.0-1.8","5d42abf3c9acd700010c41df","bdp_wmem","Mon Mar 13 2023 13:39:55 GMT-0500 (Central Daylight Time)","556448","Match,No Match","","null","","","","","","<div class='trialBorder'><div class='vertical-center'><img src='img/fixation2_sml.jpg'</img></div></div>","null","FIX","","","","","","","","","","",""
"html-keyboard-response","76","198558","0.0-7.0-2.8","5d42abf3c9acd700010c41df","bdp_wmem","Mon Mar 13 2023 13:39:55 GMT-0500 (Central Daylight Time)","556448","Match,No Match","","null","","","","","","<div class='trialBorder'><div class='vertical-center'><img style='vertical-align:center; align:center' src='img/fixation2_sml.jpg'></div><div class='arrayDiv1'><div class='tc'><img class='introPic' src='trustrating_stim/white_mw038.bmp'><br><font color='red'><strong>Keep</strong></font></div></div></div>","null","ARRAY","1","trustrating_stim/white_mw038.bmp","0","Match","e","1500","","","","",""
"html-keyboard-response","77","202561","0.0-7.0-3.8","5d42abf3c9acd700010c41df","bdp_wmem","Mon Mar 13 2023 13:39:55 GMT-0500 (Central Daylight Time)","556448","Match,No Match","","null","","","","","","<div class='trialBorder'><div class='vertical-center'><img src='img/fixation2_sml.jpg'</img></div></div>","null","DELAY","","","","","","","","","","",""
"html-keyboard-response","78","203580","0.0-7.0-4.8","5d42abf3c9acd700010c41df","bdp_wmem","Mon Mar 13 2023 13:39:55 GMT-0500 (Central Daylight Time)","556448","Match,No Match","","1016","","","","","","<div class='trialBorder'><div class='targDiv'><div class='tc'><img class='introPic' src='trustrating_stim/white_mw038.bmp'><br><font color='red'><strong>Keep</strong></font></div></div><div class='respDiv'><div class='respDivL'>Match<br>(e)</div><div class='respDivR'>No Match<br>(i)</div></div></div>","e","TARGET","1","trustrating_stim/white_mw038.bmp","0","Match","e","1500","trustrating_stim/white_mw038.bmp","red","Keep","REAL","1"
"html-keyboard-response","79","204081","0.0-7.0-5.8","5d42abf3c9acd700010c41df","bdp_wmem","Mon Mar 13 2023 13:39:55 GMT-0500 (Central Daylight Time)","556448","Match,No Match","","null","","","","","","<div class='trialBorder'><div class='vertical-center'><img src='img/correct.jpg'></div><div class='respDiv'><div class='respDivL'><font style='color:orange'>Match<br>(e)</font></div><div class='respDivR'>No Match<br>(i)</div></div></div>","null","FEEDBACK","","","","","","","","","","",""
"html-keyboard-response","80","204584","0.0-7.0-1.9","5d42abf3c9acd700010c41df","bdp_wmem","Mon Mar 13 2023 13:39:55 GMT-0500 (Central Daylight Time)","556448","Match,No Match","","null","","","","","","<div class='trialBorder'><div class='vertical-center'><img src='img/fixation2_sml.jpg'</img></div></div>","null","FIX","","","","","","","","","","",""
"html-keyboard-response","81","209088","0.0-7.0-2.9","5d42abf3c9acd700010c41df","bdp_wmem","Mon Mar 13 2023 13:39:55 GMT-0500 (Central Daylight Time)","556448","Match,No Match","","null","","","","","","<div class='trialBorder'><div class='vertical-center'><img style='vertical-align:center; align:center' src='img/fixation2_sml.jpg'></div><div class='arrayDiv3'><div class='tl'><img class='introPic' src='trustrating_stim/white_mw070.bmp'><br><font color='green'><strong>Share</strong></font></div><div class='tc'><img class='introPic' src='trustrating_stim/white_mw010.bmp'><br><font color='red'><strong>Keep</strong></font></div><div class='tr'><img class='introPic' src='trustrating_stim/white_mw085.bmp'><br><font color='red'><strong>Keep</strong></font></div></div></div>","null","ARRAY","3","trustrating_stim/white_mw070.bmp,trustrating_stim/white_mw010.bmp,trustrating_stim/white_mw085.bmp","1,0,0","Match","e","4500","","","","",""
"html-keyboard-response","82","213090","0.0-7.0-3.9","5d42abf3c9acd700010c41df","bdp_wmem","Mon Mar 13 2023 13:39:55 GMT-0500 (Central Daylight Time)","556448","Match,No Match","","null","","","","","","<div class='trialBorder'><div class='vertical-center'><img src='img/fixation2_sml.jpg'</img></div></div>","null","DELAY","","","","","","","","","","",""
"html-keyboard-response","83","214242","0.0-7.0-4.9","5d42abf3c9acd700010c41df","bdp_wmem","Mon Mar 13 2023 13:39:55 GMT-0500 (Central Daylight Time)","556448","Match,No Match","","1151","","","","","","<div class='trialBorder'><div class='targDiv'><div class='tc'><img class='introPic' src='trustrating_stim/white_mw010.bmp'><br><font color='red'><strong>Keep</strong></font></div></div><div class='respDiv'><div class='respDivL'>Match<br>(e)</div><div class='respDivR'>No Match<br>(i)</div></div></div>","e","TARGET","3","trustrating_stim/white_mw070.bmp,trustrating_stim/white_mw010.bmp,trustrating_stim/white_mw085.bmp","1,0,0","Match","e","4500","trustrating_stim/white_mw010.bmp","red","Keep","REAL","1"
"html-keyboard-response","84","214745","0.0-7.0-5.9","5d42abf3c9acd700010c41df","bdp_wmem","Mon Mar 13 2023 13:39:55 GMT-0500 (Central Daylight Time)","556448","Match,No Match","","null","","","","","","<div class='trialBorder'><div class='vertical-center'><img src='img/correct.jpg'></div><div class='respDiv'><div class='respDivL'><font style='color:orange'>Match<br>(e)</font></div><div class='respDivR'>No Match<br>(i)</div></div></div>","null","FEEDBACK","","","","","","","","","","",""
"html-keyboard-response","85","215247","0.0-7.0-1.10","5d42abf3c9acd700010c41df","bdp_wmem","Mon Mar 13 2023 13:39:55 GMT-0500 (Central Daylight Time)","556448","Match,No Match","","null","","","","","","<div class='trialBorder'><div class='vertical-center'><img src='img/fixation2_sml.jpg'</img></div></div>","null","FIX","","","","","","","","","","",""
"html-keyboard-response","86","218250","0.0-7.0-2.10","5d42abf3c9acd700010c41df","bdp_wmem","Mon Mar 13 2023 13:39:55 GMT-0500 (Central Daylight Time)","556448","Match,No Match","","null","","","","","","<div class='trialBorder'><div class='vertical-center'><img style='vertical-align:center; align:center' src='img/fixation2_sml.jpg'></div><div class='arrayDiv2'><div class='tl'><img class='introPic' src='trustrating_stim/white_mw092.bmp'><br><font color='green'><strong>Share</strong></font></div><div class='tr'><img class='introPic' src='trustrating_stim/white_mw042.bmp'><br><font color='red'><strong>Keep</strong></font></div></div></div>","null","ARRAY","2","trustrating_stim/white_mw092.bmp,trustrating_stim/white_mw042.bmp","1,0","Match","e","3000","","","","",""
"html-keyboard-response","87","222252","0.0-7.0-3.10","5d42abf3c9acd700010c41df","bdp_wmem","Mon Mar 13 2023 13:39:55 GMT-0500 (Central Daylight Time)","556448","Match,No Match","","null","","","","","","<div class='trialBorder'><div class='vertical-center'><img src='img/fixation2_sml.jpg'</img></div></div>","null","DELAY","","","","","","","","","","",""
"html-keyboard-response","88","223804","0.0-7.0-4.10","5d42abf3c9acd700010c41df","bdp_wmem","Mon Mar 13 2023 13:39:55 GMT-0500 (Central Daylight Time)","556448","Match,No Match","","1549","","","","","","<div class='trialBorder'><div class='targDiv'><div class='tc'><img class='introPic' src='trustrating_stim/white_mw092.bmp'><br><font color='green'><strong>Share</strong></font></div></div><div class='respDiv'><div class='respDivL'>Match<br>(e)</div><div class='respDivR'>No Match<br>(i)</div></div></div>","e","TARGET","2","trustrating_stim/white_mw092.bmp,trustrating_stim/white_mw042.bmp","1,0","Match","e","3000","trustrating_stim/white_mw092.bmp","green","Share","REAL","1"
"html-keyboard-response","89","224305","0.0-7.0-5.10","5d42abf3c9acd700010c41df","bdp_wmem","Mon Mar 13 2023 13:39:55 GMT-0500 (Central Daylight Time)","556448","Match,No Match","","null","","","","","","<div class='trialBorder'><div class='vertical-center'><img src='img/correct.jpg'></div><div class='respDiv'><div class='respDivL'><font style='color:orange'>Match<br>(e)</font></div><div class='respDivR'>No Match<br>(i)</div></div></div>","null","FEEDBACK","","","","","","","","","","",""
"html-keyboard-response","90","224806","0.0-7.0-1.11","5d42abf3c9acd700010c41df","bdp_wmem","Mon Mar 13 2023 13:39:55 GMT-0500 (Central Daylight Time)","556448","Match,No Match","","null","","","","","","<div class='trialBorder'><div class='vertical-center'><img src='img/fixation2_sml.jpg'</img></div></div>","null","FIX","","","","","","","","","","",""
"html-keyboard-response","91","227809","0.0-7.0-2.11","5d42abf3c9acd700010c41df","bdp_wmem","Mon Mar 13 2023 13:39:55 GMT-0500 (Central Daylight Time)","556448","Match,No Match","","null","","","","","","<div class='trialBorder'><div class='vertical-center'><img style='vertical-align:center; align:center' src='img/fixation2_sml.jpg'></div><div class='arrayDiv2'><div class='tl'><img class='introPic' src='trustrating_stim/white_mw078.bmp'><br><font color='green'><strong>Share</strong></font></div><div class='tr'><img class='introPic' src='trustrating_stim/white_mw013.bmp'><br><font color='red'><strong>Keep</strong></font></div></div></div>","null","ARRAY","2","trustrating_stim/white_mw078.bmp,trustrating_stim/white_mw013.bmp","1,0","Match","e","3000","","","","",""
"html-keyboard-response","92","231811","0.0-7.0-3.11","5d42abf3c9acd700010c41df","bdp_wmem","Mon Mar 13 2023 13:39:55 GMT-0500 (Central Daylight Time)","556448","Match,No Match","","null","","","","","","<div class='trialBorder'><div class='vertical-center'><img src='img/fixation2_sml.jpg'</img></div></div>","null","DELAY","","","","","","","","","","",""
"html-keyboard-response","93","232975","0.0-7.0-4.11","5d42abf3c9acd700010c41df","bdp_wmem","Mon Mar 13 2023 13:39:55 GMT-0500 (Central Daylight Time)","556448","Match,No Match","","1161","","","","","","<div class='trialBorder'><div class='targDiv'><div class='tc'><img class='introPic' src='trustrating_stim/white_mw013.bmp'><br><font color='red'><strong>Keep</strong></font></div></div><div class='respDiv'><div class='respDivL'>Match<br>(e)</div><div class='respDivR'>No Match<br>(i)</div></div></div>","e","TARGET","2","trustrating_stim/white_mw078.bmp,trustrating_stim/white_mw013.bmp","1,0","Match","e","3000","trustrating_stim/white_mw013.bmp","red","Keep","REAL","1"
"html-keyboard-response","94","233475","0.0-7.0-5.11","5d42abf3c9acd700010c41df","bdp_wmem","Mon Mar 13 2023 13:39:55 GMT-0500 (Central Daylight Time)","556448","Match,No Match","","null","","","","","","<div class='trialBorder'><div class='vertical-center'><img src='img/correct.jpg'></div><div class='respDiv'><div class='respDivL'><font style='color:orange'>Match<br>(e)</font></div><div class='respDivR'>No Match<br>(i)</div></div></div>","null","FEEDBACK","","","","","","","","","","",""
"html-keyboard-response","95","233977","0.0-7.0-1.12","5d42abf3c9acd700010c41df","bdp_wmem","Mon Mar 13 2023 13:39:55 GMT-0500 (Central Daylight Time)","556448","Match,No Match","","null","","","","","","<div class='trialBorder'><div class='vertical-center'><img src='img/fixation2_sml.jpg'</img></div></div>","null","FIX","","","","","","","","","","",""
"html-keyboard-response","96","235480","0.0-7.0-2.12","5d42abf3c9acd700010c41df","bdp_wmem","Mon Mar 13 2023 13:39:55 GMT-0500 (Central Daylight Time)","556448","Match,No Match","","null","","","","","","<div class='trialBorder'><div class='vertical-center'><img style='vertical-align:center; align:center' src='img/fixation2_sml.jpg'></div><div class='arrayDiv1'><div class='tc'><img class='introPic' src='trustrating_stim/white_mw013.bmp'><br><font color='green'><strong>Share</strong></font></div></div></div>","null","ARRAY","1","trustrating_stim/white_mw013.bmp","1","noMatchOutcome","i","1500","","","","",""
"html-keyboard-response","97","239482","0.0-7.0-3.12","5d42abf3c9acd700010c41df","bdp_wmem","Mon Mar 13 2023 13:39:55 GMT-0500 (Central Daylight Time)","556448","Match,No Match","","null","","","","","","<div class='trialBorder'><div class='vertical-center'><img src='img/fixation2_sml.jpg'</img></div></div>","null","DELAY","","","","","","","","","","",""
"html-keyboard-response","98","240993","0.0-7.0-4.12","5d42abf3c9acd700010c41df","bdp_wmem","Mon Mar 13 2023 13:39:55 GMT-0500 (Central Daylight Time)","556448","Match,No Match","","1510","","","","","","<div class='trialBorder'><div class='targDiv'><div class='tc'><img class='introPic' src='trustrating_stim/white_mw013.bmp'><br><font color='red'><strong>Keep</strong></font></div></div><div class='respDiv'><div class='respDivL'>Match<br>(e)</div><div class='respDivR'>No Match<br>(i)</div></div></div>","e","TARGET","1","trustrating_stim/white_mw013.bmp","1","noMatchOutcome","i","1500","trustrating_stim/white_mw013.bmp","red","Keep","REAL","0"
"html-keyboard-response","99","241494","0.0-7.0-5.12","5d42abf3c9acd700010c41df","bdp_wmem","Mon Mar 13 2023 13:39:55 GMT-0500 (Central Daylight Time)","556448","Match,No Match","","null","","","","","","<div class='trialBorder'><div class='vertical-center'><img src='img/error.jpg'></div><div class='respDiv'><div class='respDivL'><font style='color:orange'>Match<br>(e)</font></div><div class='respDivR'>No Match<br>(i)</div></div></div>","null","FEEDBACK","","","","","","","","","","",""
"html-keyboard-response","100","241995","0.0-7.0-1.13","5d42abf3c9acd700010c41df","bdp_wmem","Mon Mar 13 2023 13:39:55 GMT-0500 (Central Daylight Time)","556448","Match,No Match","","null","","","","","","<div class='trialBorder'><div class='vertical-center'><img src='img/fixation2_sml.jpg'</img></div></div>","null","FIX","","","","","","","","","","",""
"html-keyboard-response","101","244996","0.0-7.0-2.13","5d42abf3c9acd700010c41df","bdp_wmem","Mon Mar 13 2023 13:39:55 GMT-0500 (Central Daylight Time)","556448","Match,No Match","","null","","","","","","<div class='trialBorder'><div class='vertical-center'><img style='vertical-align:center; align:center' src='img/fixation2_sml.jpg'></div><div class='arrayDiv2'><div class='tl'><img class='introPic' src='trustrating_stim/white_mw085.bmp'><br><font color='red'><strong>Keep</strong></font></div><div class='tr'><img class='introPic' src='trustrating_stim/white_mw038.bmp'><br><font color='green'><strong>Share</strong></font></div></div></div>","null","ARRAY","2","trustrating_stim/white_mw085.bmp,trustrating_stim/white_mw038.bmp","0,1","Match","e","3000","","","","",""
"html-keyboard-response","102","248999","0.0-7.0-3.13","5d42abf3c9acd700010c41df","bdp_wmem","Mon Mar 13 2023 13:39:55 GMT-0500 (Central Daylight Time)","556448","Match,No Match","","null","","","","","","<div class='trialBorder'><div class='vertical-center'><img src='img/fixation2_sml.jpg'</img></div></div>","null","DELAY","","","","","","","","","","",""
"html-keyboard-response","103","250053","0.0-7.0-4.13","5d42abf3c9acd700010c41df","bdp_wmem","Mon Mar 13 2023 13:39:55 GMT-0500 (Central Daylight Time)","556448","Match,No Match","","1053","","","","","","<div class='trialBorder'><div class='targDiv'><div class='tc'><img class='introPic' src='trustrating_stim/white_mw038.bmp'><br><font color='green'><strong>Share</strong></font></div></div><div class='respDiv'><div class='respDivL'>Match<br>(e)</div><div class='respDivR'>No Match<br>(i)</div></div></div>","e","TARGET","2","trustrating_stim/white_mw085.bmp,trustrating_stim/white_mw038.bmp","0,1","Match","e","3000","trustrating_stim/white_mw038.bmp","green","Share","REAL","1"
"html-keyboard-response","104","250553","0.0-7.0-5.13","5d42abf3c9acd700010c41df","bdp_wmem","Mon Mar 13 2023 13:39:55 GMT-0500 (Central Daylight Time)","556448","Match,No Match","","null","","","","","","<div class='trialBorder'><div class='vertical-center'><img src='img/correct.jpg'></div><div class='respDiv'><div class='respDivL'><font style='color:orange'>Match<br>(e)</font></div><div class='respDivR'>No Match<br>(i)</div></div></div>","null","FEEDBACK","","","","","","","","","","",""
"html-keyboard-response","105","251055","0.0-7.0-1.14","5d42abf3c9acd700010c41df","bdp_wmem","Mon Mar 13 2023 13:39:55 GMT-0500 (Central Daylight Time)","556448","Match,No Match","","null","","","","","","<div class='trialBorder'><div class='vertical-center'><img src='img/fixation2_sml.jpg'</img></div></div>","null","FIX","","","","","","","","","","",""
"html-keyboard-response","106","252557","0.0-7.0-2.14","5d42abf3c9acd700010c41df","bdp_wmem","Mon Mar 13 2023 13:39:55 GMT-0500 (Central Daylight Time)","556448","Match,No Match","","null","","","","","","<div class='trialBorder'><div class='vertical-center'><img style='vertical-align:center; align:center' src='img/fixation2_sml.jpg'></div><div class='arrayDiv1'><div class='tc'><img class='introPic' src='trustrating_stim/white_mw092.bmp'><br><font color='red'><strong>Keep</strong></font></div></div></div>","null","ARRAY","1","trustrating_stim/white_mw092.bmp","0","Match","e","1500","","","","",""
"html-keyboard-response","107","256559","0.0-7.0-3.14","5d42abf3c9acd700010c41df","bdp_wmem","Mon Mar 13 2023 13:39:55 GMT-0500 (Central Daylight Time)","556448","Match,No Match","","null","","","","","","<div class='trialBorder'><div class='vertical-center'><img src='img/fixation2_sml.jpg'</img></div></div>","null","DELAY","","","","","","","","","","",""
"html-keyboard-response","108","257344","0.0-7.0-4.14","5d42abf3c9acd700010c41df","bdp_wmem","Mon Mar 13 2023 13:39:55 GMT-0500 (Central Daylight Time)","556448","Match,No Match","","782","","","","","","<div class='trialBorder'><div class='targDiv'><div class='tc'><img class='introPic' src='trustrating_stim/white_mw092.bmp'><br><font color='red'><strong>Keep</strong></font></div></div><div class='respDiv'><div class='respDivL'>Match<br>(e)</div><div class='respDivR'>No Match<br>(i)</div></div></div>","e","TARGET","1","trustrating_stim/white_mw092.bmp","0","Match","e","1500","trustrating_stim/white_mw092.bmp","red","Keep","REAL","1"
"html-keyboard-response","109","257845","0.0-7.0-5.14","5d42abf3c9acd700010c41df","bdp_wmem","Mon Mar 13 2023 13:39:55 GMT-0500 (Central Daylight Time)","556448","Match,No Match","","null","","","","","","<div class='trialBorder'><div class='vertical-center'><img src='img/correct.jpg'></div><div class='respDiv'><div class='respDivL'><font style='color:orange'>Match<br>(e)</font></div><div class='respDivR'>No Match<br>(i)</div></div></div>","null","FEEDBACK","","","","","","","","","","",""
"html-keyboard-response","110","258346","0.0-7.0-1.15","5d42abf3c9acd700010c41df","bdp_wmem","Mon Mar 13 2023 13:39:55 GMT-0500 (Central Daylight Time)","556448","Match,No Match","","null","","","","","","<div class='trialBorder'><div class='vertical-center'><img src='img/fixation2_sml.jpg'</img></div></div>","null","FIX","","","","","","","","","","",""
"html-keyboard-response","111","261348","0.0-7.0-2.15","5d42abf3c9acd700010c41df","bdp_wmem","Mon Mar 13 2023 13:39:55 GMT-0500 (Central Daylight Time)","556448","Match,No Match","","null","","","","","","<div class='trialBorder'><div class='vertical-center'><img style='vertical-align:center; align:center' src='img/fixation2_sml.jpg'></div><div class='arrayDiv2'><div class='tl'><img class='introPic' src='trustrating_stim/white_mw012.bmp'><br><font color='green'><strong>Share</strong></font></div><div class='tr'><img class='introPic' src='trustrating_stim/white_mw038.bmp'><br><font color='red'><strong>Keep</strong></font></div></div></div>","null","ARRAY","2","trustrating_stim/white_mw012.bmp,trustrating_stim/white_mw038.bmp","1,0","Match","e","3000","","","","",""
"html-keyboard-response","112","265349","0.0-7.0-3.15","5d42abf3c9acd700010c41df","bdp_wmem","Mon Mar 13 2023 13:39:55 GMT-0500 (Central Daylight Time)","556448","Match,No Match","","null","","","","","","<div class='trialBorder'><div class='vertical-center'><img src='img/fixation2_sml.jpg'</img></div></div>","null","DELAY","","","","","","","","","","",""
"html-keyboard-response","113","266366","0.0-7.0-4.15","5d42abf3c9acd700010c41df","bdp_wmem","Mon Mar 13 2023 13:39:55 GMT-0500 (Central Daylight Time)","556448","Match,No Match","","1015","","","","","","<div class='trialBorder'><div class='targDiv'><div class='tc'><img class='introPic' src='trustrating_stim/white_mw012.bmp'><br><font color='green'><strong>Share</strong></font></div></div><div class='respDiv'><div class='respDivL'>Match<br>(e)</div><div class='respDivR'>No Match<br>(i)</div></div></div>","i","TARGET","2","trustrating_stim/white_mw012.bmp,trustrating_stim/white_mw038.bmp","1,0","Match","e","3000","trustrating_stim/white_mw012.bmp","green","Share","REAL","0"
"html-keyboard-response","114","266868","0.0-7.0-5.15","5d42abf3c9acd700010c41df","bdp_wmem","Mon Mar 13 2023 13:39:55 GMT-0500 (Central Daylight Time)","556448","Match,No Match","","null","","","","","","<div class='trialBorder'><div class='vertical-center'><img src='img/error.jpg'></div><div class='respDiv'><div class='respDivL'>Match<br>(e)</div><div class='respDivR'><font style='color:orange'>No Match<br>(i)</font></div></div></div>","null","FEEDBACK","","","","","","","","","","",""
"html-keyboard-response","115","267371","0.0-7.0-1.16","5d42abf3c9acd700010c41df","bdp_wmem","Mon Mar 13 2023 13:39:55 GMT-0500 (Central Daylight Time)","556448","Match,No Match","","null","","","","","","<div class='trialBorder'><div class='vertical-center'><img src='img/fixation2_sml.jpg'</img></div></div>","null","FIX","","","","","","","","","","",""
"html-keyboard-response","116","271873","0.0-7.0-2.16","5d42abf3c9acd700010c41df","bdp_wmem","Mon Mar 13 2023 13:39:55 GMT-0500 (Central Daylight Time)","556448","Match,No Match","","null","","","","","","<div class='trialBorder'><div class='vertical-center'><img style='vertical-align:center; align:center' src='img/fixation2_sml.jpg'></div><div class='arrayDiv3'><div class='tl'><img class='introPic' src='trustrating_stim/white_mw070.bmp'><br><font color='green'><strong>Share</strong></font></div><div class='tc'><img class='introPic' src='trustrating_stim/white_mw013.bmp'><br><font color='red'><strong>Keep</strong></font></div><div class='tr'><img class='introPic' src='trustrating_stim/white_mw040.bmp'><br><font color='green'><strong>Share</strong></font></div></div></div>","null","ARRAY","3","trustrating_stim/white_mw070.bmp,trustrating_stim/white_mw013.bmp,trustrating_stim/white_mw040.bmp","1,0,1","noMatchFace","i","4500","","","","",""
"html-keyboard-response","117","275875","0.0-7.0-3.16","5d42abf3c9acd700010c41df","bdp_wmem","Mon Mar 13 2023 13:39:55 GMT-0500 (Central Daylight Time)","556448","Match,No Match","","null","","","","","","<div class='trialBorder'><div class='vertical-center'><img src='img/fixation2_sml.jpg'</img></div></div>","null","DELAY","","","","","","","","","","",""
"html-keyboard-response","118","276733","0.0-7.0-4.16","5d42abf3c9acd700010c41df","bdp_wmem","Mon Mar 13 2023 13:39:55 GMT-0500 (Central Daylight Time)","556448","Match,No Match","","857","","","","","","<div class='trialBorder'><div class='targDiv'><div class='tc'><img class='introPic' src='trustrating_stim/white_mw085.bmp'><br><font color='green'><strong>Share</strong></font></div></div><div class='respDiv'><div class='respDivL'>Match<br>(e)</div><div class='respDivR'>No Match<br>(i)</div></div></div>","e","TARGET","3","trustrating_stim/white_mw070.bmp,trustrating_stim/white_mw013.bmp,trustrating_stim/white_mw040.bmp","1,0,1","noMatchFace","i","4500","trustrating_stim/white_mw085.bmp","green","Share","REAL","0"
"html-keyboard-response","119","277234","0.0-7.0-5.16","5d42abf3c9acd700010c41df","bdp_wmem","Mon Mar 13 2023 13:39:55 GMT-0500 (Central Daylight Time)","556448","Match,No Match","","null","","","","","","<div class='trialBorder'><div class='vertical-center'><img src='img/error.jpg'></div><div class='respDiv'><div class='respDivL'><font style='color:orange'>Match<br>(e)</font></div><div class='respDivR'>No Match<br>(i)</div></div></div>","null","FEEDBACK","","","","","","","","","","",""
"html-keyboard-response","120","277736","0.0-7.0-1.17","5d42abf3c9acd700010c41df","bdp_wmem","Mon Mar 13 2023 13:39:55 GMT-0500 (Central Daylight Time)","556448","Match,No Match","","null","","","","","","<div class='trialBorder'><div class='vertical-center'><img src='img/fixation2_sml.jpg'</img></div></div>","null","FIX","","","","","","","","","","",""
"html-keyboard-response","121","280738","0.0-7.0-2.17","5d42abf3c9acd700010c41df","bdp_wmem","Mon Mar 13 2023 13:39:55 GMT-0500 (Central Daylight Time)","556448","Match,No Match","","null","","","","","","<div class='trialBorder'><div class='vertical-center'><img style='vertical-align:center; align:center' src='img/fixation2_sml.jpg'></div><div class='arrayDiv2'><div class='tl'><img class='introPic' src='trustrating_stim/white_mw091.bmp'><br><font color='green'><strong>Share</strong></font></div><div class='tr'><img class='introPic' src='trustrating_stim/white_mw013.bmp'><br><font color='red'><strong>Keep</strong></font></div></div></div>","null","ARRAY","2","trustrating_stim/white_mw091.bmp,trustrating_stim/white_mw013.bmp","1,0","noMatchFace","i","3000","","","","",""
"html-keyboard-response","122","284740","0.0-7.0-3.17","5d42abf3c9acd700010c41df","bdp_wmem","Mon Mar 13 2023 13:39:55 GMT-0500 (Central Daylight Time)","556448","Match,No Match","","null","","","","","","<div class='trialBorder'><div class='vertical-center'><img src='img/fixation2_sml.jpg'</img></div></div>","null","DELAY","","","","","","","","","","",""
"html-keyboard-response","123","285547","0.0-7.0-4.17","5d42abf3c9acd700010c41df","bdp_wmem","Mon Mar 13 2023 13:39:55 GMT-0500 (Central Daylight Time)","556448","Match,No Match","","804","","","","","","<div class='trialBorder'><div class='targDiv'><div class='tc'><img class='introPic' src='trustrating_stim/white_mw078.bmp'><br><font color='green'><strong>Share</strong></font></div></div><div class='respDiv'><div class='respDivL'>Match<br>(e)</div><div class='respDivR'>No Match<br>(i)</div></div></div>","e","TARGET","2","trustrating_stim/white_mw091.bmp,trustrating_stim/white_mw013.bmp","1,0","noMatchFace","i","3000","trustrating_stim/white_mw078.bmp","green","Share","REAL","0"
"html-keyboard-response","124","286048","0.0-7.0-5.17","5d42abf3c9acd700010c41df","bdp_wmem","Mon Mar 13 2023 13:39:55 GMT-0500 (Central Daylight Time)","556448","Match,No Match","","null","","","","","","<div class='trialBorder'><div class='vertical-center'><img src='img/error.jpg'></div><div class='respDiv'><div class='respDivL'><font style='color:orange'>Match<br>(e)</font></div><div class='respDivR'>No Match<br>(i)</div></div></div>","null","FEEDBACK","","","","","","","","","","",""
"html-keyboard-response","125","286549","0.0-7.0-1.18","5d42abf3c9acd700010c41df","bdp_wmem","Mon Mar 13 2023 13:39:55 GMT-0500 (Central Daylight Time)","556448","Match,No Match","","null","","","","","","<div class='trialBorder'><div class='vertical-center'><img src='img/fixation2_sml.jpg'</img></div></div>","null","FIX","","","","","","","","","","",""
"html-keyboard-response","126","291052","0.0-7.0-2.18","5d42abf3c9acd700010c41df","bdp_wmem","Mon Mar 13 2023 13:39:55 GMT-0500 (Central Daylight Time)","556448","Match,No Match","","null","","","","","","<div class='trialBorder'><div class='vertical-center'><img style='vertical-align:center; align:center' src='img/fixation2_sml.jpg'></div><div class='arrayDiv3'><div class='tl'><img class='introPic' src='trustrating_stim/white_mw012.bmp'><br><font color='green'><strong>Share</strong></font></div><div class='tc'><img class='introPic' src='trustrating_stim/white_mw078.bmp'><br><font color='red'><strong>Keep</strong></font></div><div class='tr'><img class='introPic' src='trustrating_stim/white_mw010.bmp'><br><font color='red'><strong>Keep</strong></font></div></div></div>","null","ARRAY","3","trustrating_stim/white_mw012.bmp,trustrating_stim/white_mw078.bmp,trustrating_stim/white_mw010.bmp","1,0,0","Match","e","4500","","","","",""
"html-keyboard-response","127","295054","0.0-7.0-3.18","5d42abf3c9acd700010c41df","bdp_wmem","Mon Mar 13 2023 13:39:55 GMT-0500 (Central Daylight Time)","556448","Match,No Match","","null","","","","","","<div class='trialBorder'><div class='vertical-center'><img src='img/fixation2_sml.jpg'</img></div></div>","null","DELAY","","","","","","","","","","",""
"html-keyboard-response","128","296112","0.0-7.0-4.18","5d42abf3c9acd700010c41df","bdp_wmem","Mon Mar 13 2023 13:39:55 GMT-0500 (Central Daylight Time)","556448","Match,No Match","","1056","","","","","","<div class='trialBorder'><div class='targDiv'><div class='tc'><img class='introPic' src='trustrating_stim/white_mw012.bmp'><br><font color='green'><strong>Share</strong></font></div></div><div class='respDiv'><div class='respDivL'>Match<br>(e)</div><div class='respDivR'>No Match<br>(i)</div></div></div>","e","TARGET","3","trustrating_stim/white_mw012.bmp,trustrating_stim/white_mw078.bmp,trustrating_stim/white_mw010.bmp","1,0,0","Match","e","4500","trustrating_stim/white_mw012.bmp","green","Share","REAL","1"
"html-keyboard-response","129","296613","0.0-7.0-5.18","5d42abf3c9acd700010c41df","bdp_wmem","Mon Mar 13 2023 13:39:55 GMT-0500 (Central Daylight Time)","556448","Match,No Match","","null","","","","","","<div class='trialBorder'><div class='vertical-center'><img src='img/correct.jpg'></div><div class='respDiv'><div class='respDivL'><font style='color:orange'>Match<br>(e)</font></div><div class='respDivR'>No Match<br>(i)</div></div></div>","null","FEEDBACK","","","","","","","","","","",""
"html-keyboard-response","130","297115","0.0-7.0-1.19","5d42abf3c9acd700010c41df","bdp_wmem","Mon Mar 13 2023 13:39:55 GMT-0500 (Central Daylight Time)","556448","Match,No Match","","null","","","","","","<div class='trialBorder'><div class='vertical-center'><img src='img/fixation2_sml.jpg'</img></div></div>","null","FIX","","","","","","","","","","",""
"html-keyboard-response","131","301618","0.0-7.0-2.19","5d42abf3c9acd700010c41df","bdp_wmem","Mon Mar 13 2023 13:39:55 GMT-0500 (Central Daylight Time)","556448","Match,No Match","","null","","","","","","<div class='trialBorder'><div class='vertical-center'><img style='vertical-align:center; align:center' src='img/fixation2_sml.jpg'></div><div class='arrayDiv3'><div class='tl'><img class='introPic' src='trustrating_stim/white_mw012.bmp'><br><font color='green'><strong>Share</strong></font></div><div class='tc'><img class='introPic' src='trustrating_stim/white_mw092.bmp'><br><font color='red'><strong>Keep</strong></font></div><div class='tr'><img class='introPic' src='trustrating_stim/white_mw042.bmp'><br><font color='red'><strong>Keep</strong></font></div></div></div>","null","ARRAY","3","trustrating_stim/white_mw012.bmp,trustrating_stim/white_mw092.bmp,trustrating_stim/white_mw042.bmp","1,0,0","Match","e","4500","","","","",""
"html-keyboard-response","132","305620","0.0-7.0-3.19","5d42abf3c9acd700010c41df","bdp_wmem","Mon Mar 13 2023 13:39:55 GMT-0500 (Central Daylight Time)","556448","Match,No Match","","null","","","","","","<div class='trialBorder'><div class='vertical-center'><img src='img/fixation2_sml.jpg'</img></div></div>","null","DELAY","","","","","","","","","","",""
"html-keyboard-response","133","306806","0.0-7.0-4.19","5d42abf3c9acd700010c41df","bdp_wmem","Mon Mar 13 2023 13:39:55 GMT-0500 (Central Daylight Time)","556448","Match,No Match","","1184","","","","","","<div class='trialBorder'><div class='targDiv'><div class='tc'><img class='introPic' src='trustrating_stim/white_mw042.bmp'><br><font color='red'><strong>Keep</strong></font></div></div><div class='respDiv'><div class='respDivL'>Match<br>(e)</div><div class='respDivR'>No Match<br>(i)</div></div></div>","i","TARGET","3","trustrating_stim/white_mw012.bmp,trustrating_stim/white_mw092.bmp,trustrating_stim/white_mw042.bmp","1,0,0","Match","e","4500","trustrating_stim/white_mw042.bmp","red","Keep","REAL","0"
"html-keyboard-response","134","307307","0.0-7.0-5.19","5d42abf3c9acd700010c41df","bdp_wmem","Mon Mar 13 2023 13:39:55 GMT-0500 (Central Daylight Time)","556448","Match,No Match","","null","","","","","","<div class='trialBorder'><div class='vertical-center'><img src='img/error.jpg'></div><div class='respDiv'><div class='respDivL'>Match<br>(e)</div><div class='respDivR'><font style='color:orange'>No Match<br>(i)</font></div></div></div>","null","FEEDBACK","","","","","","","","","","",""
"html-keyboard-response","135","307809","0.0-7.0-1.20","5d42abf3c9acd700010c41df","bdp_wmem","Mon Mar 13 2023 13:39:55 GMT-0500 (Central Daylight Time)","556448","Match,No Match","","null","","","","","","<div class='trialBorder'><div class='vertical-center'><img src='img/fixation2_sml.jpg'</img></div></div>","null","FIX","","","","","","","","","","",""
"html-keyboard-response","136","312313","0.0-7.0-2.20","5d42abf3c9acd700010c41df","bdp_wmem","Mon Mar 13 2023 13:39:55 GMT-0500 (Central Daylight Time)","556448","Match,No Match","","null","","","","","","<div class='trialBorder'><div class='vertical-center'><img style='vertical-align:center; align:center' src='img/fixation2_sml.jpg'></div><div class='arrayDiv3'><div class='tl'><img class='introPic' src='trustrating_stim/white_mw085.bmp'><br><font color='green'><strong>Share</strong></font></div><div class='tc'><img class='introPic' src='trustrating_stim/white_mw003.bmp'><br><font color='green'><strong>Share</strong></font></div><div class='tr'><img class='introPic' src='trustrating_stim/white_mw070.bmp'><br><font color='red'><strong>Keep</strong></font></div></div></div>","null","ARRAY","3","trustrating_stim/white_mw085.bmp,trustrating_stim/white_mw003.bmp,trustrating_stim/white_mw070.bmp","1,1,0","noMatchOutcome","i","4500","","","","",""
"html-keyboard-response","137","316315","0.0-7.0-3.20","5d42abf3c9acd700010c41df","bdp_wmem","Mon Mar 13 2023 13:39:55 GMT-0500 (Central Daylight Time)","556448","Match,No Match","","null","","","","","","<div class='trialBorder'><div class='vertical-center'><img src='img/fixation2_sml.jpg'</img></div></div>","null","DELAY","","","","","","","","","","",""
"html-keyboard-response","138","317121","0.0-7.0-4.20","5d42abf3c9acd700010c41df","bdp_wmem","Mon Mar 13 2023 13:39:55 GMT-0500 (Central Daylight Time)","556448","Match,No Match","","805","","","","","","<div class='trialBorder'><div class='targDiv'><div class='tc'><img class='introPic' src='trustrating_stim/white_mw085.bmp'><br><font color='red'><strong>Keep</strong></font></div></div><div class='respDiv'><div class='respDivL'>Match<br>(e)</div><div class='respDivR'>No Match<br>(i)</div></div></div>","e","TARGET","3","trustrating_stim/white_mw085.bmp,trustrating_stim/white_mw003.bmp,trustrating_stim/white_mw070.bmp","1,1,0","noMatchOutcome","i","4500","trustrating_stim/white_mw085.bmp","red","Keep","REAL","0"
"html-keyboard-response","139","317623","0.0-7.0-5.20","5d42abf3c9acd700010c41df","bdp_wmem","Mon Mar 13 2023 13:39:55 GMT-0500 (Central Daylight Time)","556448","Match,No Match","","null","","","","","","<div class='trialBorder'><div class='vertical-center'><img src='img/error.jpg'></div><div class='respDiv'><div class='respDivL'><font style='color:orange'>Match<br>(e)</font></div><div class='respDivR'>No Match<br>(i)</div></div></div>","null","FEEDBACK","","","","","","","","","","",""
"html-keyboard-response","140","318125","0.0-7.0-1.21","5d42abf3c9acd700010c41df","bdp_wmem","Mon Mar 13 2023 13:39:55 GMT-0500 (Central Daylight Time)","556448","Match,No Match","","null","","","","","","<div class='trialBorder'><div class='vertical-center'><img src='img/fixation2_sml.jpg'</img></div></div>","null","FIX","","","","","","","","","","",""
"html-keyboard-response","141","321127","0.0-7.0-2.21","5d42abf3c9acd700010c41df","bdp_wmem","Mon Mar 13 2023 13:39:55 GMT-0500 (Central Daylight Time)","556448","Match,No Match","","null","","","","","","<div class='trialBorder'><div class='vertical-center'><img style='vertical-align:center; align:center' src='img/fixation2_sml.jpg'></div><div class='arrayDiv2'><div class='tl'><img class='introPic' src='trustrating_stim/white_mw092.bmp'><br><font color='red'><strong>Keep</strong></font></div><div class='tr'><img class='introPic' src='trustrating_stim/white_mw070.bmp'><br><font color='green'><strong>Share</strong></font></div></div></div>","null","ARRAY","2","trustrating_stim/white_mw092.bmp,trustrating_stim/white_mw070.bmp","0,1","Match","e","3000","","","","",""
"html-keyboard-response","142","325130","0.0-7.0-3.21","5d42abf3c9acd700010c41df","bdp_wmem","Mon Mar 13 2023 13:39:55 GMT-0500 (Central Daylight Time)","556448","Match,No Match","","null","","","","","","<div class='trialBorder'><div class='vertical-center'><img src='img/fixation2_sml.jpg'</img></div></div>","null","DELAY","","","","","","","","","","",""
"html-keyboard-response","143","325785","0.0-7.0-4.21","5d42abf3c9acd700010c41df","bdp_wmem","Mon Mar 13 2023 13:39:55 GMT-0500 (Central Daylight Time)","556448","Match,No Match","","653","","","","","","<div class='trialBorder'><div class='targDiv'><div class='tc'><img class='introPic' src='trustrating_stim/white_mw070.bmp'><br><font color='green'><strong>Share</strong></font></div></div><div class='respDiv'><div class='respDivL'>Match<br>(e)</div><div class='respDivR'>No Match<br>(i)</div></div></div>","e","TARGET","2","trustrating_stim/white_mw092.bmp,trustrating_stim/white_mw070.bmp","0,1","Match","e","3000","trustrating_stim/white_mw070.bmp","green","Share","REAL","1"
"html-keyboard-response","144","326286","0.0-7.0-5.21","5d42abf3c9acd700010c41df","bdp_wmem","Mon Mar 13 2023 13:39:55 GMT-0500 (Central Daylight Time)","556448","Match,No Match","","null","","","","","","<div class='trialBorder'><div class='vertical-center'><img src='img/correct.jpg'></div><div class='respDiv'><div class='respDivL'><font style='color:orange'>Match<br>(e)</font></div><div class='respDivR'>No Match<br>(i)</div></div></div>","null","FEEDBACK","","","","","","","","","","",""
"html-keyboard-response","145","326788","0.0-7.0-1.22","5d42abf3c9acd700010c41df","bdp_wmem","Mon Mar 13 2023 13:39:55 GMT-0500 (Central Daylight Time)","556448","Match,No Match","","null","","","","","","<div class='trialBorder'><div class='vertical-center'><img src='img/fixation2_sml.jpg'</img></div></div>","null","FIX","","","","","","","","","","",""
"html-keyboard-response","146","328291","0.0-7.0-2.22","5d42abf3c9acd700010c41df","bdp_wmem","Mon Mar 13 2023 13:39:55 GMT-0500 (Central Daylight Time)","556448","Match,No Match","","null","","","","","","<div class='trialBorder'><div class='vertical-center'><img style='vertical-align:center; align:center' src='img/fixation2_sml.jpg'></div><div class='arrayDiv1'><div class='tc'><img class='introPic' src='trustrating_stim/white_mw078.bmp'><br><font color='red'><strong>Keep</strong></font></div></div></div>","null","ARRAY","1","trustrating_stim/white_mw078.bmp","0","Match","e","1500","","","","",""
"html-keyboard-response","147","332294","0.0-7.0-3.22","5d42abf3c9acd700010c41df","bdp_wmem","Mon Mar 13 2023 13:39:55 GMT-0500 (Central Daylight Time)","556448","Match,No Match","","null","","","","","","<div class='trialBorder'><div class='vertical-center'><img src='img/fixation2_sml.jpg'</img></div></div>","null","DELAY","","","","","","","","","","",""
"html-keyboard-response","148","333127","0.0-7.0-4.22","5d42abf3c9acd700010c41df","bdp_wmem","Mon Mar 13 2023 13:39:55 GMT-0500 (Central Daylight Time)","556448","Match,No Match","","830","","","","","","<div class='trialBorder'><div class='targDiv'><div class='tc'><img class='introPic' src='trustrating_stim/white_mw078.bmp'><br><font color='red'><strong>Keep</strong></font></div></div><div class='respDiv'><div class='respDivL'>Match<br>(e)</div><div class='respDivR'>No Match<br>(i)</div></div></div>","e","TARGET","1","trustrating_stim/white_mw078.bmp","0","Match","e","1500","trustrating_stim/white_mw078.bmp","red","Keep","REAL","1"
"html-keyboard-response","149","333628","0.0-7.0-5.22","5d42abf3c9acd700010c41df","bdp_wmem","Mon Mar 13 2023 13:39:55 GMT-0500 (Central Daylight Time)","556448","Match,No Match","","null","","","","","","<div class='trialBorder'><div class='vertical-center'><img src='img/correct.jpg'></div><div class='respDiv'><div class='respDivL'><font style='color:orange'>Match<br>(e)</font></div><div class='respDivR'>No Match<br>(i)</div></div></div>","null","FEEDBACK","","","","","","","","","","",""
"html-keyboard-response","150","334131","0.0-7.0-1.23","5d42abf3c9acd700010c41df","bdp_wmem","Mon Mar 13 2023 13:39:55 GMT-0500 (Central Daylight Time)","556448","Match,No Match","","null","","","","","","<div class='trialBorder'><div class='vertical-center'><img src='img/fixation2_sml.jpg'</img></div></div>","null","FIX","","","","","","","","","","",""
"html-keyboard-response","151","335634","0.0-7.0-2.23","5d42abf3c9acd700010c41df","bdp_wmem","Mon Mar 13 2023 13:39:55 GMT-0500 (Central Daylight Time)","556448","Match,No Match","","null","","","","","","<div class='trialBorder'><div class='vertical-center'><img style='vertical-align:center; align:center' src='img/fixation2_sml.jpg'></div><div class='arrayDiv1'><div class='tc'><img class='introPic' src='trustrating_stim/white_mw038.bmp'><br><font color='red'><strong>Keep</strong></font></div></div></div>","null","ARRAY","1","trustrating_stim/white_mw038.bmp","0","noMatchOutcome","i","1500","","","","",""
"html-keyboard-response","152","339636","0.0-7.0-3.23","5d42abf3c9acd700010c41df","bdp_wmem","Mon Mar 13 2023 13:39:55 GMT-0500 (Central Daylight Time)","556448","Match,No Match","","null","","","","","","<div class='trialBorder'><div class='vertical-center'><img src='img/fixation2_sml.jpg'</img></div></div>","null","DELAY","","","","","","","","","","",""
"html-keyboard-response","153","340573","0.0-7.0-4.23","5d42abf3c9acd700010c41df","bdp_wmem","Mon Mar 13 2023 13:39:55 GMT-0500 (Central Daylight Time)","556448","Match,No Match","","934","","","","","","<div class='trialBorder'><div class='targDiv'><div class='tc'><img class='introPic' src='trustrating_stim/white_mw038.bmp'><br><font color='green'><strong>Share</strong></font></div></div><div class='respDiv'><div class='respDivL'>Match<br>(e)</div><div class='respDivR'>No Match<br>(i)</div></div></div>","i","TARGET","1","trustrating_stim/white_mw038.bmp","0","noMatchOutcome","i","1500","trustrating_stim/white_mw038.bmp","green","Share","REAL","1"
"html-keyboard-response","154","341075","0.0-7.0-5.23","5d42abf3c9acd700010c41df","bdp_wmem","Mon Mar 13 2023 13:39:55 GMT-0500 (Central Daylight Time)","556448","Match,No Match","","null","","","","","","<div class='trialBorder'><div class='vertical-center'><img src='img/correct.jpg'></div><div class='respDiv'><div class='respDivL'>Match<br>(e)</div><div class='respDivR'><font style='color:orange'>No Match<br>(i)</font></div></div></div>","null","FEEDBACK","","","","","","","","","","",""
"html-keyboard-response","155","341577","0.0-7.0-1.24","5d42abf3c9acd700010c41df","bdp_wmem","Mon Mar 13 2023 13:39:55 GMT-0500 (Central Daylight Time)","556448","Match,No Match","","null","","","","","","<div class='trialBorder'><div class='vertical-center'><img src='img/fixation2_sml.jpg'</img></div></div>","null","FIX","","","","","","","","","","",""
"html-keyboard-response","156","346079","0.0-7.0-2.24","5d42abf3c9acd700010c41df","bdp_wmem","Mon Mar 13 2023 13:39:55 GMT-0500 (Central Daylight Time)","556448","Match,No Match","","null","","","","","","<div class='trialBorder'><div class='vertical-center'><img style='vertical-align:center; align:center' src='img/fixation2_sml.jpg'></div><div class='arrayDiv3'><div class='tl'><img class='introPic' src='trustrating_stim/white_mw070.bmp'><br><font color='green'><strong>Share</strong></font></div><div class='tc'><img class='introPic' src='trustrating_stim/white_mw010.bmp'><br><font color='green'><strong>Share</strong></font></div><div class='tr'><img class='introPic' src='trustrating_stim/white_mw092.bmp'><br><font color='red'><strong>Keep</strong></font></div></div></div>","null","ARRAY","3","trustrating_stim/white_mw070.bmp,trustrating_stim/white_mw010.bmp,trustrating_stim/white_mw092.bmp","1,1,0","Match","e","4500","","","","",""
"html-keyboard-response","157","350081","0.0-7.0-3.24","5d42abf3c9acd700010c41df","bdp_wmem","Mon Mar 13 2023 13:39:55 GMT-0500 (Central Daylight Time)","556448","Match,No Match","","null","","","","","","<div class='trialBorder'><div class='vertical-center'><img src='img/fixation2_sml.jpg'</img></div></div>","null","DELAY","","","","","","","","","","",""
"html-keyboard-response","158","350969","0.0-7.0-4.24","5d42abf3c9acd700010c41df","bdp_wmem","Mon Mar 13 2023 13:39:55 GMT-0500 (Central Daylight Time)","556448","Match,No Match","","887","","","","","","<div class='trialBorder'><div class='targDiv'><div class='tc'><img class='introPic' src='trustrating_stim/white_mw070.bmp'><br><font color='green'><strong>Share</strong></font></div></div><div class='respDiv'><div class='respDivL'>Match<br>(e)</div><div class='respDivR'>No Match<br>(i)</div></div></div>","e","TARGET","3","trustrating_stim/white_mw070.bmp,trustrating_stim/white_mw010.bmp,trustrating_stim/white_mw092.bmp","1,1,0","Match","e","4500","trustrating_stim/white_mw070.bmp","green","Share","REAL","1"
"html-keyboard-response","159","351470","0.0-7.0-5.24","5d42abf3c9acd700010c41df","bdp_wmem","Mon Mar 13 2023 13:39:55 GMT-0500 (Central Daylight Time)","556448","Match,No Match","","null","","","","","","<div class='trialBorder'><div class='vertical-center'><img src='img/correct.jpg'></div><div class='respDiv'><div class='respDivL'><font style='color:orange'>Match<br>(e)</font></div><div class='respDivR'>No Match<br>(i)</div></div></div>","null","FEEDBACK","","","","","","","","","","",""
"html-keyboard-response","160","351972","0.0-7.0-1.25","5d42abf3c9acd700010c41df","bdp_wmem","Mon Mar 13 2023 13:39:55 GMT-0500 (Central Daylight Time)","556448","Match,No Match","","null","","","","","","<div class='trialBorder'><div class='vertical-center'><img src='img/fixation2_sml.jpg'</img></div></div>","null","FIX","","","","","","","","","","",""
"html-keyboard-response","161","356475","0.0-7.0-2.25","5d42abf3c9acd700010c41df","bdp_wmem","Mon Mar 13 2023 13:39:55 GMT-0500 (Central Daylight Time)","556448","Match,No Match","","null","","","","","","<div class='trialBorder'><div class='vertical-center'><img style='vertical-align:center; align:center' src='img/fixation2_sml.jpg'></div><div class='arrayDiv3'><div class='tl'><img class='introPic' src='trustrating_stim/white_mw091.bmp'><br><font color='red'><strong>Keep</strong></font></div><div class='tc'><img class='introPic' src='trustrating_stim/white_mw078.bmp'><br><font color='green'><strong>Share</strong></font></div><div class='tr'><img class='introPic' src='trustrating_stim/white_mw012.bmp'><br><font color='red'><strong>Keep</strong></font></div></div></div>","null","ARRAY","3","trustrating_stim/white_mw091.bmp,trustrating_stim/white_mw078.bmp,trustrating_stim/white_mw012.bmp","0,1,0","noMatchOutcome","i","4500","","","","",""
"html-keyboard-response","162","360477","0.0-7.0-3.25","5d42abf3c9acd700010c41df","bdp_wmem","Mon Mar 13 2023 13:39:55 GMT-0500 (Central Daylight Time)","556448","Match,No Match","","null","","","","","","<div class='trialBorder'><div class='vertical-center'><img src='img/fixation2_sml.jpg'</img></div></div>","null","DELAY","","","","","","","","","","",""
"html-keyboard-response","163","361249","0.0-7.0-4.25","5d42abf3c9acd700010c41df","bdp_wmem","Mon Mar 13 2023 13:39:55 GMT-0500 (Central Daylight Time)","556448","Match,No Match","","770","","","","","","<div class='trialBorder'><div class='targDiv'><div class='tc'><img class='introPic' src='trustrating_stim/white_mw091.bmp'><br><font color='green'><strong>Share</strong></font></div></div><div class='respDiv'><div class='respDivL'>Match<br>(e)</div><div class='respDivR'>No Match<br>(i)</div></div></div>","i","TARGET","3","trustrating_stim/white_mw091.bmp,trustrating_stim/white_mw078.bmp,trustrating_stim/white_mw012.bmp","0,1,0","noMatchOutcome","i","4500","trustrating_stim/white_mw091.bmp","green","Share","REAL","1"
"html-keyboard-response","164","361751","0.0-7.0-5.25","5d42abf3c9acd700010c41df","bdp_wmem","Mon Mar 13 2023 13:39:55 GMT-0500 (Central Daylight Time)","556448","Match,No Match","","null","","","","","","<div class='trialBorder'><div class='vertical-center'><img src='img/correct.jpg'></div><div class='respDiv'><div class='respDivL'>Match<br>(e)</div><div class='respDivR'><font style='color:orange'>No Match<br>(i)</font></div></div></div>","null","FEEDBACK","","","","","","","","","","",""
"html-keyboard-response","165","362252","0.0-7.0-1.26","5d42abf3c9acd700010c41df","bdp_wmem","Mon Mar 13 2023 13:39:55 GMT-0500 (Central Daylight Time)","556448","Match,No Match","","null","","","","","","<div class='trialBorder'><div class='vertical-center'><img src='img/fixation2_sml.jpg'</img></div></div>","null","FIX","","","","","","","","","","",""
"html-keyboard-response","166","365254","0.0-7.0-2.26","5d42abf3c9acd700010c41df","bdp_wmem","Mon Mar 13 2023 13:39:55 GMT-0500 (Central Daylight Time)","556448","Match,No Match","","null","","","","","","<div class='trialBorder'><div class='vertical-center'><img style='vertical-align:center; align:center' src='img/fixation2_sml.jpg'></div><div class='arrayDiv2'><div class='tl'><img class='introPic' src='trustrating_stim/white_mw003.bmp'><br><font color='green'><strong>Share</strong></font></div><div class='tr'><img class='introPic' src='trustrating_stim/white_mw042.bmp'><br><font color='red'><strong>Keep</strong></font></div></div></div>","null","ARRAY","2","trustrating_stim/white_mw003.bmp,trustrating_stim/white_mw042.bmp","1,0","noMatchFace","i","3000","","","","",""
"html-keyboard-response","167","369255","0.0-7.0-3.26","5d42abf3c9acd700010c41df","bdp_wmem","Mon Mar 13 2023 13:39:55 GMT-0500 (Central Daylight Time)","556448","Match,No Match","","null","","","","","","<div class='trialBorder'><div class='vertical-center'><img src='img/fixation2_sml.jpg'</img></div></div>","null","DELAY","","","","","","","","","","",""
"html-keyboard-response","168","370378","0.0-7.0-4.26","5d42abf3c9acd700010c41df","bdp_wmem","Mon Mar 13 2023 13:39:55 GMT-0500 (Central Daylight Time)","556448","Match,No Match","","1123","","","","","","<div class='trialBorder'><div class='targDiv'><div class='tc'><img class='introPic' src='trustrating_stim/white_mw010.bmp'><br><font color='red'><strong>Keep</strong></font></div></div><div class='respDiv'><div class='respDivL'>Match<br>(e)</div><div class='respDivR'>No Match<br>(i)</div></div></div>","i","TARGET","2","trustrating_stim/white_mw003.bmp,trustrating_stim/white_mw042.bmp","1,0","noMatchFace","i","3000","trustrating_stim/white_mw010.bmp","red","Keep","REAL","1"
"html-keyboard-response","169","370880","0.0-7.0-5.26","5d42abf3c9acd700010c41df","bdp_wmem","Mon Mar 13 2023 13:39:55 GMT-0500 (Central Daylight Time)","556448","Match,No Match","","null","","","","","","<div class='trialBorder'><div class='vertical-center'><img src='img/correct.jpg'></div><div class='respDiv'><div class='respDivL'>Match<br>(e)</div><div class='respDivR'><font style='color:orange'>No Match<br>(i)</font></div></div></div>","null","FEEDBACK","","","","","","","","","","",""
"html-keyboard-response","170","371382","0.0-7.0-1.27","5d42abf3c9acd700010c41df","bdp_wmem","Mon Mar 13 2023 13:39:55 GMT-0500 (Central Daylight Time)","556448","Match,No Match","","null","","","","","","<div class='trialBorder'><div class='vertical-center'><img src='img/fixation2_sml.jpg'</img></div></div>","null","FIX","","","","","","","","","","",""
"html-keyboard-response","171","372885","0.0-7.0-2.27","5d42abf3c9acd700010c41df","bdp_wmem","Mon Mar 13 2023 13:39:55 GMT-0500 (Central Daylight Time)","556448","Match,No Match","","null","","","","","","<div class='trialBorder'><div class='vertical-center'><img style='vertical-align:center; align:center' src='img/fixation2_sml.jpg'></div><div class='arrayDiv1'><div class='tc'><img class='introPic' src='trustrating_stim/white_mw038.bmp'><br><font color='red'><strong>Keep</strong></font></div></div></div>","null","ARRAY","1","trustrating_stim/white_mw038.bmp","0","noMatchFace","i","1500","","","","",""
"html-keyboard-response","172","376887","0.0-7.0-3.27","5d42abf3c9acd700010c41df","bdp_wmem","Mon Mar 13 2023 13:39:55 GMT-0500 (Central Daylight Time)","556448","Match,No Match","","null","","","","","","<div class='trialBorder'><div class='vertical-center'><img src='img/fixation2_sml.jpg'</img></div></div>","null","DELAY","","","","","","","","","","",""
"html-keyboard-response","173","377694","0.0-7.0-4.27","5d42abf3c9acd700010c41df","bdp_wmem","Mon Mar 13 2023 13:39:55 GMT-0500 (Central Daylight Time)","556448","Match,No Match","","805","","","","","","<div class='trialBorder'><div class='targDiv'><div class='tc'><img class='introPic' src='trustrating_stim/white_mw010.bmp'><br><font color='red'><strong>Keep</strong></font></div></div><div class='respDiv'><div class='respDivL'>Match<br>(e)</div><div class='respDivR'>No Match<br>(i)</div></div></div>","i","TARGET","1","trustrating_stim/white_mw038.bmp","0","noMatchFace","i","1500","trustrating_stim/white_mw010.bmp","red","Keep","REAL","1"
"html-keyboard-response","174","378196","0.0-7.0-5.27","5d42abf3c9acd700010c41df","bdp_wmem","Mon Mar 13 2023 13:39:55 GMT-0500 (Central Daylight Time)","556448","Match,No Match","","null","","","","","","<div class='trialBorder'><div class='vertical-center'><img src='img/correct.jpg'></div><div class='respDiv'><div class='respDivL'>Match<br>(e)</div><div class='respDivR'><font style='color:orange'>No Match<br>(i)</font></div></div></div>","null","FEEDBACK","","","","","","","","","","",""
"html-keyboard-response","175","378698","0.0-7.0-1.28","5d42abf3c9acd700010c41df","bdp_wmem","Mon Mar 13 2023 13:39:55 GMT-0500 (Central Daylight Time)","556448","Match,No Match","","null","","","","","","<div class='trialBorder'><div class='vertical-center'><img src='img/fixation2_sml.jpg'</img></div></div>","null","FIX","","","","","","","","","","",""
"html-keyboard-response","176","380199","0.0-7.0-2.28","5d42abf3c9acd700010c41df","bdp_wmem","Mon Mar 13 2023 13:39:55 GMT-0500 (Central Daylight Time)","556448","Match,No Match","","null","","","","","","<div class='trialBorder'><div class='vertical-center'><img style='vertical-align:center; align:center' src='img/fixation2_sml.jpg'></div><div class='arrayDiv1'><div class='tc'><img class='introPic' src='trustrating_stim/white_mw040.bmp'><br><font color='red'><strong>Keep</strong></font></div></div></div>","null","ARRAY","1","trustrating_stim/white_mw040.bmp","0","Match","e","1500","","","","",""
"html-keyboard-response","177","384201","0.0-7.0-3.28","5d42abf3c9acd700010c41df","bdp_wmem","Mon Mar 13 2023 13:39:55 GMT-0500 (Central Daylight Time)","556448","Match,No Match","","null","","","","","","<div class='trialBorder'><div class='vertical-center'><img src='img/fixation2_sml.jpg'</img></div></div>","null","DELAY","","","","","","","","","","",""
"html-keyboard-response","178","385878","0.0-7.0-4.28","5d42abf3c9acd700010c41df","bdp_wmem","Mon Mar 13 2023 13:39:55 GMT-0500 (Central Daylight Time)","556448","Match,No Match","","1675","","","","","","<div class='trialBorder'><div class='targDiv'><div class='tc'><img class='introPic' src='trustrating_stim/white_mw040.bmp'><br><font color='red'><strong>Keep</strong></font></div></div><div class='respDiv'><div class='respDivL'>Match<br>(e)</div><div class='respDivR'>No Match<br>(i)</div></div></div>","i","TARGET","1","trustrating_stim/white_mw040.bmp","0","Match","e","1500","trustrating_stim/white_mw040.bmp","red","Keep","REAL","0"
"html-keyboard-response","179","386379","0.0-7.0-5.28","5d42abf3c9acd700010c41df","bdp_wmem","Mon Mar 13 2023 13:39:55 GMT-0500 (Central Daylight Time)","556448","Match,No Match","","null","","","","","","<div class='trialBorder'><div class='vertical-center'><img src='img/error.jpg'></div><div class='respDiv'><div class='respDivL'>Match<br>(e)</div><div class='respDivR'><font style='color:orange'>No Match<br>(i)</font></div></div></div>","null","FEEDBACK","","","","","","","","","","",""
"html-keyboard-response","180","386882","0.0-7.0-1.29","5d42abf3c9acd700010c41df","bdp_wmem","Mon Mar 13 2023 13:39:55 GMT-0500 (Central Daylight Time)","556448","Match,No Match","","null","","","","","","<div class='trialBorder'><div class='vertical-center'><img src='img/fixation2_sml.jpg'</img></div></div>","null","FIX","","","","","","","","","","",""
"html-keyboard-response","181","391385","0.0-7.0-2.29","5d42abf3c9acd700010c41df","bdp_wmem","Mon Mar 13 2023 13:39:55 GMT-0500 (Central Daylight Time)","556448","Match,No Match","","null","","","","","","<div class='trialBorder'><div class='vertical-center'><img style='vertical-align:center; align:center' src='img/fixation2_sml.jpg'></div><div class='arrayDiv3'><div class='tl'><img class='introPic' src='trustrating_stim/white_mw040.bmp'><br><font color='red'><strong>Keep</strong></font></div><div class='tc'><img class='introPic' src='trustrating_stim/white_mw092.bmp'><br><font color='green'><strong>Share</strong></font></div><div class='tr'><img class='introPic' src='trustrating_stim/white_mw038.bmp'><br><font color='red'><strong>Keep</strong></font></div></div></div>","null","ARRAY","3","trustrating_stim/white_mw040.bmp,trustrating_stim/white_mw092.bmp,trustrating_stim/white_mw038.bmp","0,1,0","noMatchFace","i","4500","","","","",""
"html-keyboard-response","182","395387","0.0-7.0-3.29","5d42abf3c9acd700010c41df","bdp_wmem","Mon Mar 13 2023 13:39:55 GMT-0500 (Central Daylight Time)","556448","Match,No Match","","null","","","","","","<div class='trialBorder'><div class='vertical-center'><img src='img/fixation2_sml.jpg'</img></div></div>","null","DELAY","","","","","","","","","","",""
"html-keyboard-response","183","396854","0.0-7.0-4.29","5d42abf3c9acd700010c41df","bdp_wmem","Mon Mar 13 2023 13:39:55 GMT-0500 (Central Daylight Time)","556448","Match,No Match","","1464","","","","","","<div class='trialBorder'><div class='targDiv'><div class='tc'><img class='introPic' src='trustrating_stim/white_mw010.bmp'><br><font color='red'><strong>Keep</strong></font></div></div><div class='respDiv'><div class='respDivL'>Match<br>(e)</div><div class='respDivR'>No Match<br>(i)</div></div></div>","i","TARGET","3","trustrating_stim/white_mw040.bmp,trustrating_stim/white_mw092.bmp,trustrating_stim/white_mw038.bmp","0,1,0","noMatchFace","i","4500","trustrating_stim/white_mw010.bmp","red","Keep","REAL","1"
"html-keyboard-response","184","397355","0.0-7.0-5.29","5d42abf3c9acd700010c41df","bdp_wmem","Mon Mar 13 2023 13:39:55 GMT-0500 (Central Daylight Time)","556448","Match,No Match","","null","","","","","","<div class='trialBorder'><div class='vertical-center'><img src='img/correct.jpg'></div><div class='respDiv'><div class='respDivL'>Match<br>(e)</div><div class='respDivR'><font style='color:orange'>No Match<br>(i)</font></div></div></div>","null","FEEDBACK","","","","","","","","","","",""
"html-keyboard-response","185","397857","0.0-7.0-1.30","5d42abf3c9acd700010c41df","bdp_wmem","Mon Mar 13 2023 13:39:55 GMT-0500 (Central Daylight Time)","556448","Match,No Match","","null","","","","","","<div class='trialBorder'><div class='vertical-center'><img src='img/fixation2_sml.jpg'</img></div></div>","null","FIX","","","","","","","","","","",""
"html-keyboard-response","186","399358","0.0-7.0-2.30","5d42abf3c9acd700010c41df","bdp_wmem","Mon Mar 13 2023 13:39:55 GMT-0500 (Central Daylight Time)","556448","Match,No Match","","null","","","","","","<div class='trialBorder'><div class='vertical-center'><img style='vertical-align:center; align:center' src='img/fixation2_sml.jpg'></div><div class='arrayDiv1'><div class='tc'><img class='introPic' src='trustrating_stim/white_mw042.bmp'><br><font color='green'><strong>Share</strong></font></div></div></div>","null","ARRAY","1","trustrating_stim/white_mw042.bmp","1","Match","e","1500","","","","",""
