"trial_type","trial_index","time_elapsed","internal_node_id","subject_id","task","startTime","totalTime","labels","view_history","rt","event","trial","time","trialtype","success","stimulus","key_press","stimType","arraySize","arrayFaces","arrayOutcomes","matchType","corrResp","arrayDur","targFace","targCol","targOutcome","trialType","corr"
"pavlovia","0","4","0.0-0.0","63ea63669423c84daf2c5dbd","bdp_wmem","Wed Mar 15 2023 20:10:13 GMT-0400 (Eastern Daylight Time)","510740","Match,No Match","","","","","","","","","","","","","","","","","","","","",""
"instructions","1","2541","0.0-1.0","63ea63669423c84daf2c5dbd","bdp_wmem","Wed Mar 15 2023 20:10:13 GMT-0400 (Eastern Daylight Time)","510740","Match,No Match","[{""page_index"":0,""viewing_time"":2536}]","2536","","","","","","","","","","","","","","","","","","",""
"","","","","63ea63669423c84daf2c5dbd","bdp_wmem","Wed Mar 15 2023 20:10:13 GMT-0400 (Eastern Daylight Time)","510740","Match,No Match","","","fullscreenenter","2","4536","fullscreenenter","","","","","","","","","","","","","","",""
"fullscreen","2","5515","0.0-2.0","63ea63669423c84daf2c5dbd","bdp_wmem","Wed Mar 15 2023 20:10:13 GMT-0400 (Eastern Daylight Time)","510740","Match,No Match","","","","","","","true","","","","","","","","","","","","","",""
"instructions","3","23282","0.0-4.0","63ea63669423c84daf2c5dbd","bdp_wmem","Wed Mar 15 2023 20:10:13 GMT-0400 (Eastern Daylight Time)","510740","Match,No Match","[{""page_index"":0,""viewing_time"":9194},{""page_index"":1,""viewing_time"":2511},{""page_index"":2,""viewing_time"":1255},{""page_index"":3,""viewing_time"":2831},{""page_index"":4,""viewing_time"":1973}]","17765","","","","","","","","","","","","","","","","","","",""
"html-keyboard-response","4","23785","0.0-5.0-1.0","63ea63669423c84daf2c5dbd","bdp_wmem","Wed Mar 15 2023 20:10:13 GMT-0400 (Eastern Daylight Time)","510740","Match,No Match","","null","","","","","","<div class='trialBorder'><div class='vertical-center'><img src='img/fixation2_sml.jpg'</img></div></div>","null","FIX","","","","","","","","","","",""
"html-keyboard-response","5","26789","0.0-5.0-2.0","63ea63669423c84daf2c5dbd","bdp_wmem","Wed Mar 15 2023 20:10:13 GMT-0400 (Eastern Daylight Time)","510740","Match,No Match","","null","","","","","","<div class='trialBorder'><div class='vertical-center'><img style='vertical-align:center; align:center' src='img/fixation2_sml.jpg'></div><div class='arrayDiv2'><div class='tl'><img class='introPic' src='trustrating_stim/white_mw040.bmp'><br><font color='green'><strong>Share</strong></font></div><div class='tr'><img class='introPic' src='trustrating_stim/white_mw010.bmp'><br><font color='red'><strong>Keep</strong></font></div></div></div>","null","ARRAY","2","trustrating_stim/white_mw040.bmp,trustrating_stim/white_mw010.bmp","1,0","noMatchFace","i","3000","","","","",""
"html-keyboard-response","6","30792","0.0-5.0-3.0","63ea63669423c84daf2c5dbd","bdp_wmem","Wed Mar 15 2023 20:10:13 GMT-0400 (Eastern Daylight Time)","510740","Match,No Match","","null","","","","","","<div class='trialBorder'><div class='vertical-center'><img src='img/fixation2_sml.jpg'</img></div></div>","null","DELAY","","","","","","","","","","",""
"html-keyboard-response","7","34221","0.0-5.0-4.0","63ea63669423c84daf2c5dbd","bdp_wmem","Wed Mar 15 2023 20:10:13 GMT-0400 (Eastern Daylight Time)","510740","Match,No Match","","3427","","","","","","<div class='trialBorder'><div class='targDiv'><div class='tc'><img class='introPic' src='trustrating_stim/white_mw042.bmp'><br><font color='green'><strong>Share</strong></font></div></div><div class='respDiv'><div class='respDivL'>Match<br>(e)</div><div class='respDivR'>No Match<br>(i)</div></div></div>","e","TARGET","2","trustrating_stim/white_mw040.bmp,trustrating_stim/white_mw010.bmp","1,0","noMatchFace","i","3000","trustrating_stim/white_mw042.bmp","green","Share","PRACTICE","0"
"html-keyboard-response","8","34724","0.0-5.0-5.0","63ea63669423c84daf2c5dbd","bdp_wmem","Wed Mar 15 2023 20:10:13 GMT-0400 (Eastern Daylight Time)","510740","Match,No Match","","null","","","","","","<div class='trialBorder'><div class='vertical-center'><img src='img/error.jpg'></div><div class='respDiv'><div class='respDivL'><font style='color:orange'>Match<br>(e)</font></div><div class='respDivR'>No Match<br>(i)</div></div></div>","null","FEEDBACK","","","","","","","","","","",""
"html-keyboard-response","9","35230","0.0-5.0-1.1","63ea63669423c84daf2c5dbd","bdp_wmem","Wed Mar 15 2023 20:10:13 GMT-0400 (Eastern Daylight Time)","510740","Match,No Match","","null","","","","","","<div class='trialBorder'><div class='vertical-center'><img src='img/fixation2_sml.jpg'</img></div></div>","null","FIX","","","","","","","","","","",""
"html-keyboard-response","10","38233","0.0-5.0-2.1","63ea63669423c84daf2c5dbd","bdp_wmem","Wed Mar 15 2023 20:10:13 GMT-0400 (Eastern Daylight Time)","510740","Match,No Match","","null","","","","","","<div class='trialBorder'><div class='vertical-center'><img style='vertical-align:center; align:center' src='img/fixation2_sml.jpg'></div><div class='arrayDiv2'><div class='tl'><img class='introPic' src='trustrating_stim/white_mw003.bmp'><br><font color='green'><strong>Share</strong></font></div><div class='tr'><img class='introPic' src='trustrating_stim/white_mw012.bmp'><br><font color='red'><strong>Keep</strong></font></div></div></div>","null","ARRAY","2","trustrating_stim/white_mw003.bmp,trustrating_stim/white_mw012.bmp","1,0","Match","e","3000","","","","",""
"html-keyboard-response","11","42237","0.0-5.0-3.1","63ea63669423c84daf2c5dbd","bdp_wmem","Wed Mar 15 2023 20:10:13 GMT-0400 (Eastern Daylight Time)","510740","Match,No Match","","null","","","","","","<div class='trialBorder'><div class='vertical-center'><img src='img/fixation2_sml.jpg'</img></div></div>","null","DELAY","","","","","","","","","","",""
"html-keyboard-response","12","44348","0.0-5.0-4.1","63ea63669423c84daf2c5dbd","bdp_wmem","Wed Mar 15 2023 20:10:13 GMT-0400 (Eastern Daylight Time)","510740","Match,No Match","","2109","","","","","","<div class='trialBorder'><div class='targDiv'><div class='tc'><img class='introPic' src='trustrating_stim/white_mw003.bmp'><br><font color='green'><strong>Share</strong></font></div></div><div class='respDiv'><div class='respDivL'>Match<br>(e)</div><div class='respDivR'>No Match<br>(i)</div></div></div>","i","TARGET","2","trustrating_stim/white_mw003.bmp,trustrating_stim/white_mw012.bmp","1,0","Match","e","3000","trustrating_stim/white_mw003.bmp","green","Share","PRACTICE","0"
"html-keyboard-response","13","44851","0.0-5.0-5.1","63ea63669423c84daf2c5dbd","bdp_wmem","Wed Mar 15 2023 20:10:13 GMT-0400 (Eastern Daylight Time)","510740","Match,No Match","","null","","","","","","<div class='trialBorder'><div class='vertical-center'><img src='img/error.jpg'></div><div class='respDiv'><div class='respDivL'>Match<br>(e)</div><div class='respDivR'><font style='color:orange'>No Match<br>(i)</font></div></div></div>","null","FEEDBACK","","","","","","","","","","",""
"html-keyboard-response","14","45352","0.0-5.0-1.2","63ea63669423c84daf2c5dbd","bdp_wmem","Wed Mar 15 2023 20:10:13 GMT-0400 (Eastern Daylight Time)","510740","Match,No Match","","null","","","","","","<div class='trialBorder'><div class='vertical-center'><img src='img/fixation2_sml.jpg'</img></div></div>","null","FIX","","","","","","","","","","",""
"html-keyboard-response","15","49857","0.0-5.0-2.2","63ea63669423c84daf2c5dbd","bdp_wmem","Wed Mar 15 2023 20:10:13 GMT-0400 (Eastern Daylight Time)","510740","Match,No Match","","null","","","","","","<div class='trialBorder'><div class='vertical-center'><img style='vertical-align:center; align:center' src='img/fixation2_sml.jpg'></div><div class='arrayDiv3'><div class='tl'><img class='introPic' src='trustrating_stim/white_mw091.bmp'><br><font color='red'><strong>Keep</strong></font></div><div class='tc'><img class='introPic' src='trustrating_stim/white_mw070.bmp'><br><font color='green'><strong>Share</strong></font></div><div class='tr'><img class='introPic' src='trustrating_stim/white_mw040.bmp'><br><font color='green'><strong>Share</strong></font></div></div></div>","null","ARRAY","3","trustrating_stim/white_mw091.bmp,trustrating_stim/white_mw070.bmp,trustrating_stim/white_mw040.bmp","0,1,1","Match","e","4500","","","","",""
"html-keyboard-response","16","53860","0.0-5.0-3.2","63ea63669423c84daf2c5dbd","bdp_wmem","Wed Mar 15 2023 20:10:13 GMT-0400 (Eastern Daylight Time)","510740","Match,No Match","","null","","","","","","<div class='trialBorder'><div class='vertical-center'><img src='img/fixation2_sml.jpg'</img></div></div>","null","DELAY","","","","","","","","","","",""
"html-keyboard-response","17","55226","0.0-5.0-4.2","63ea63669423c84daf2c5dbd","bdp_wmem","Wed Mar 15 2023 20:10:13 GMT-0400 (Eastern Daylight Time)","510740","Match,No Match","","1364","","","","","","<div class='trialBorder'><div class='targDiv'><div class='tc'><img class='introPic' src='trustrating_stim/white_mw091.bmp'><br><font color='red'><strong>Keep</strong></font></div></div><div class='respDiv'><div class='respDivL'>Match<br>(e)</div><div class='respDivR'>No Match<br>(i)</div></div></div>","i","TARGET","3","trustrating_stim/white_mw091.bmp,trustrating_stim/white_mw070.bmp,trustrating_stim/white_mw040.bmp","0,1,1","Match","e","4500","trustrating_stim/white_mw091.bmp","red","Keep","PRACTICE","0"
"html-keyboard-response","18","55729","0.0-5.0-5.2","63ea63669423c84daf2c5dbd","bdp_wmem","Wed Mar 15 2023 20:10:13 GMT-0400 (Eastern Daylight Time)","510740","Match,No Match","","null","","","","","","<div class='trialBorder'><div class='vertical-center'><img src='img/error.jpg'></div><div class='respDiv'><div class='respDivL'>Match<br>(e)</div><div class='respDivR'><font style='color:orange'>No Match<br>(i)</font></div></div></div>","null","FEEDBACK","","","","","","","","","","",""
"html-keyboard-response","19","56231","0.0-5.0-1.3","63ea63669423c84daf2c5dbd","bdp_wmem","Wed Mar 15 2023 20:10:13 GMT-0400 (Eastern Daylight Time)","510740","Match,No Match","","null","","","","","","<div class='trialBorder'><div class='vertical-center'><img src='img/fixation2_sml.jpg'</img></div></div>","null","FIX","","","","","","","","","","",""
"html-keyboard-response","20","60733","0.0-5.0-2.3","63ea63669423c84daf2c5dbd","bdp_wmem","Wed Mar 15 2023 20:10:13 GMT-0400 (Eastern Daylight Time)","510740","Match,No Match","","null","","","","","","<div class='trialBorder'><div class='vertical-center'><img style='vertical-align:center; align:center' src='img/fixation2_sml.jpg'></div><div class='arrayDiv3'><div class='tl'><img class='introPic' src='trustrating_stim/white_mw003.bmp'><br><font color='red'><strong>Keep</strong></font></div><div class='tc'><img class='introPic' src='trustrating_stim/white_mw085.bmp'><br><font color='red'><strong>Keep</strong></font></div><div class='tr'><img class='introPic' src='trustrating_stim/white_mw070.bmp'><br><font color='green'><strong>Share</strong></font></div></div></div>","null","ARRAY","3","trustrating_stim/white_mw003.bmp,trustrating_stim/white_mw085.bmp,trustrating_stim/white_mw070.bmp","0,0,1","noMatchOutcome","i","4500","","","","",""
"html-keyboard-response","21","64736","0.0-5.0-3.3","63ea63669423c84daf2c5dbd","bdp_wmem","Wed Mar 15 2023 20:10:13 GMT-0400 (Eastern Daylight Time)","510740","Match,No Match","","null","","","","","","<div class='trialBorder'><div class='vertical-center'><img src='img/fixation2_sml.jpg'</img></div></div>","null","DELAY","","","","","","","","","","",""
"html-keyboard-response","22","65333","0.0-5.0-4.3","63ea63669423c84daf2c5dbd","bdp_wmem","Wed Mar 15 2023 20:10:13 GMT-0400 (Eastern Daylight Time)","510740","Match,No Match","","595","","","","","","<div class='trialBorder'><div class='targDiv'><div class='tc'><img class='introPic' src='trustrating_stim/white_mw085.bmp'><br><font color='green'><strong>Share</strong></font></div></div><div class='respDiv'><div class='respDivL'>Match<br>(e)</div><div class='respDivR'>No Match<br>(i)</div></div></div>","e","TARGET","3","trustrating_stim/white_mw003.bmp,trustrating_stim/white_mw085.bmp,trustrating_stim/white_mw070.bmp","0,0,1","noMatchOutcome","i","4500","trustrating_stim/white_mw085.bmp","green","Share","PRACTICE","0"
"html-keyboard-response","23","65835","0.0-5.0-5.3","63ea63669423c84daf2c5dbd","bdp_wmem","Wed Mar 15 2023 20:10:13 GMT-0400 (Eastern Daylight Time)","510740","Match,No Match","","null","","","","","","<div class='trialBorder'><div class='vertical-center'><img src='img/error.jpg'></div><div class='respDiv'><div class='respDivL'><font style='color:orange'>Match<br>(e)</font></div><div class='respDivR'>No Match<br>(i)</div></div></div>","null","FEEDBACK","","","","","","","","","","",""
"html-keyboard-response","24","66336","0.0-5.0-1.4","63ea63669423c84daf2c5dbd","bdp_wmem","Wed Mar 15 2023 20:10:13 GMT-0400 (Eastern Daylight Time)","510740","Match,No Match","","null","","","","","","<div class='trialBorder'><div class='vertical-center'><img src='img/fixation2_sml.jpg'</img></div></div>","null","FIX","","","","","","","","","","",""
"html-keyboard-response","25","67838","0.0-5.0-2.4","63ea63669423c84daf2c5dbd","bdp_wmem","Wed Mar 15 2023 20:10:13 GMT-0400 (Eastern Daylight Time)","510740","Match,No Match","","null","","","","","","<div class='trialBorder'><div class='vertical-center'><img style='vertical-align:center; align:center' src='img/fixation2_sml.jpg'></div><div class='arrayDiv1'><div class='tc'><img class='introPic' src='trustrating_stim/white_mw078.bmp'><br><font color='red'><strong>Keep</strong></font></div></div></div>","null","ARRAY","1","trustrating_stim/white_mw078.bmp","0","Match","e","1500","","","","",""
"html-keyboard-response","26","71840","0.0-5.0-3.4","63ea63669423c84daf2c5dbd","bdp_wmem","Wed Mar 15 2023 20:10:13 GMT-0400 (Eastern Daylight Time)","510740","Match,No Match","","null","","","","","","<div class='trialBorder'><div class='vertical-center'><img src='img/fixation2_sml.jpg'</img></div></div>","null","DELAY","","","","","","","","","","",""
"html-keyboard-response","27","73343","0.0-5.0-4.4","63ea63669423c84daf2c5dbd","bdp_wmem","Wed Mar 15 2023 20:10:13 GMT-0400 (Eastern Daylight Time)","510740","Match,No Match","","1502","","","","","","<div class='trialBorder'><div class='targDiv'><div class='tc'><img class='introPic' src='trustrating_stim/white_mw078.bmp'><br><font color='red'><strong>Keep</strong></font></div></div><div class='respDiv'><div class='respDivL'>Match<br>(e)</div><div class='respDivR'>No Match<br>(i)</div></div></div>","e","TARGET","1","trustrating_stim/white_mw078.bmp","0","Match","e","1500","trustrating_stim/white_mw078.bmp","red","Keep","PRACTICE","1"
"html-keyboard-response","28","73845","0.0-5.0-5.4","63ea63669423c84daf2c5dbd","bdp_wmem","Wed Mar 15 2023 20:10:13 GMT-0400 (Eastern Daylight Time)","510740","Match,No Match","","null","","","","","","<div class='trialBorder'><div class='vertical-center'><img src='img/correct.jpg'></div><div class='respDiv'><div class='respDivL'><font style='color:orange'>Match<br>(e)</font></div><div class='respDivR'>No Match<br>(i)</div></div></div>","null","FEEDBACK","","","","","","","","","","",""
"html-keyboard-response","29","74347","0.0-5.0-1.5","63ea63669423c84daf2c5dbd","bdp_wmem","Wed Mar 15 2023 20:10:13 GMT-0400 (Eastern Daylight Time)","510740","Match,No Match","","null","","","","","","<div class='trialBorder'><div class='vertical-center'><img src='img/fixation2_sml.jpg'</img></div></div>","null","FIX","","","","","","","","","","",""
"html-keyboard-response","30","75852","0.0-5.0-2.5","63ea63669423c84daf2c5dbd","bdp_wmem","Wed Mar 15 2023 20:10:13 GMT-0400 (Eastern Daylight Time)","510740","Match,No Match","","null","","","","","","<div class='trialBorder'><div class='vertical-center'><img style='vertical-align:center; align:center' src='img/fixation2_sml.jpg'></div><div class='arrayDiv1'><div class='tc'><img class='introPic' src='trustrating_stim/white_mw085.bmp'><br><font color='green'><strong>Share</strong></font></div></div></div>","null","ARRAY","1","trustrating_stim/white_mw085.bmp","1","noMatchFace","i","1500","","","","",""
"html-keyboard-response","31","79857","0.0-5.0-3.5","63ea63669423c84daf2c5dbd","bdp_wmem","Wed Mar 15 2023 20:10:13 GMT-0400 (Eastern Daylight Time)","510740","Match,No Match","","null","","","","","","<div class='trialBorder'><div class='vertical-center'><img src='img/fixation2_sml.jpg'</img></div></div>","null","DELAY","","","","","","","","","","",""
"html-keyboard-response","32","80483","0.0-5.0-4.5","63ea63669423c84daf2c5dbd","bdp_wmem","Wed Mar 15 2023 20:10:13 GMT-0400 (Eastern Daylight Time)","510740","Match,No Match","","625","","","","","","<div class='trialBorder'><div class='targDiv'><div class='tc'><img class='introPic' src='trustrating_stim/white_mw003.bmp'><br><font color='green'><strong>Share</strong></font></div></div><div class='respDiv'><div class='respDivL'>Match<br>(e)</div><div class='respDivR'>No Match<br>(i)</div></div></div>","i","TARGET","1","trustrating_stim/white_mw085.bmp","1","noMatchFace","i","1500","trustrating_stim/white_mw003.bmp","green","Share","PRACTICE","1"
"html-keyboard-response","33","80987","0.0-5.0-5.5","63ea63669423c84daf2c5dbd","bdp_wmem","Wed Mar 15 2023 20:10:13 GMT-0400 (Eastern Daylight Time)","510740","Match,No Match","","null","","","","","","<div class='trialBorder'><div class='vertical-center'><img src='img/correct.jpg'></div><div class='respDiv'><div class='respDivL'>Match<br>(e)</div><div class='respDivR'><font style='color:orange'>No Match<br>(i)</font></div></div></div>","null","FEEDBACK","","","","","","","","","","",""
"instructions","34","82566","0.0-6.0","63ea63669423c84daf2c5dbd","bdp_wmem","Wed Mar 15 2023 20:10:13 GMT-0400 (Eastern Daylight Time)","510740","Match,No Match","[{""page_index"":0,""viewing_time"":1579}]","1579","","","","","","","","","","","","","","","","","","",""
"html-keyboard-response","35","83068","0.0-7.0-1.0","63ea63669423c84daf2c5dbd","bdp_wmem","Wed Mar 15 2023 20:10:13 GMT-0400 (Eastern Daylight Time)","510740","Match,No Match","","null","","","","","","<div class='trialBorder'><div class='vertical-center'><img src='img/fixation2_sml.jpg'</img></div></div>","null","FIX","","","","","","","","","","",""
"html-keyboard-response","36","84570","0.0-7.0-2.0","63ea63669423c84daf2c5dbd","bdp_wmem","Wed Mar 15 2023 20:10:13 GMT-0400 (Eastern Daylight Time)","510740","Match,No Match","","null","","","","","","<div class='trialBorder'><div class='vertical-center'><img style='vertical-align:center; align:center' src='img/fixation2_sml.jpg'></div><div class='arrayDiv1'><div class='tc'><img class='introPic' src='trustrating_stim/white_mw091.bmp'><br><font color='green'><strong>Share</strong></font></div></div></div>","null","ARRAY","1","trustrating_stim/white_mw091.bmp","1","Match","e","1500","","","","",""
"html-keyboard-response","37","88571","0.0-7.0-3.0","63ea63669423c84daf2c5dbd","bdp_wmem","Wed Mar 15 2023 20:10:13 GMT-0400 (Eastern Daylight Time)","510740","Match,No Match","","null","","","","","","<div class='trialBorder'><div class='vertical-center'><img src='img/fixation2_sml.jpg'</img></div></div>","null","DELAY","","","","","","","","","","",""
"html-keyboard-response","38","89022","0.0-7.0-4.0","63ea63669423c84daf2c5dbd","bdp_wmem","Wed Mar 15 2023 20:10:13 GMT-0400 (Eastern Daylight Time)","510740","Match,No Match","","449","","","","","","<div class='trialBorder'><div class='targDiv'><div class='tc'><img class='introPic' src='trustrating_stim/white_mw091.bmp'><br><font color='green'><strong>Share</strong></font></div></div><div class='respDiv'><div class='respDivL'>Match<br>(e)</div><div class='respDivR'>No Match<br>(i)</div></div></div>","i","TARGET","1","trustrating_stim/white_mw091.bmp","1","Match","e","1500","trustrating_stim/white_mw091.bmp","green","Share","REAL","0"
"html-keyboard-response","39","89524","0.0-7.0-5.0","63ea63669423c84daf2c5dbd","bdp_wmem","Wed Mar 15 2023 20:10:13 GMT-0400 (Eastern Daylight Time)","510740","Match,No Match","","null","","","","","","<div class='trialBorder'><div class='vertical-center'><img src='img/error.jpg'></div><div class='respDiv'><div class='respDivL'>Match<br>(e)</div><div class='respDivR'><font style='color:orange'>No Match<br>(i)</font></div></div></div>","null","FEEDBACK","","","","","","","","","","",""
"html-keyboard-response","40","90026","0.0-7.0-1.1","63ea63669423c84daf2c5dbd","bdp_wmem","Wed Mar 15 2023 20:10:13 GMT-0400 (Eastern Daylight Time)","510740","Match,No Match","","null","","","","","","<div class='trialBorder'><div class='vertical-center'><img src='img/fixation2_sml.jpg'</img></div></div>","null","FIX","","","","","","","","","","",""
"html-keyboard-response","41","94528","0.0-7.0-2.1","63ea63669423c84daf2c5dbd","bdp_wmem","Wed Mar 15 2023 20:10:13 GMT-0400 (Eastern Daylight Time)","510740","Match,No Match","","null","","","","","","<div class='trialBorder'><div class='vertical-center'><img style='vertical-align:center; align:center' src='img/fixation2_sml.jpg'></div><div class='arrayDiv3'><div class='tl'><img class='introPic' src='trustrating_stim/white_mw038.bmp'><br><font color='red'><strong>Keep</strong></font></div><div class='tc'><img class='introPic' src='trustrating_stim/white_mw085.bmp'><br><font color='green'><strong>Share</strong></font></div><div class='tr'><img class='introPic' src='trustrating_stim/white_mw013.bmp'><br><font color='green'><strong>Share</strong></font></div></div></div>","null","ARRAY","3","trustrating_stim/white_mw038.bmp,trustrating_stim/white_mw085.bmp,trustrating_stim/white_mw013.bmp","0,1,1","noMatchFace","i","4500","","","","",""
"html-keyboard-response","42","98530","0.0-7.0-3.1","63ea63669423c84daf2c5dbd","bdp_wmem","Wed Mar 15 2023 20:10:13 GMT-0400 (Eastern Daylight Time)","510740","Match,No Match","","null","","","","","","<div class='trialBorder'><div class='vertical-center'><img src='img/fixation2_sml.jpg'</img></div></div>","null","DELAY","","","","","","","","","","",""
"html-keyboard-response","43","99029","0.0-7.0-4.1","63ea63669423c84daf2c5dbd","bdp_wmem","Wed Mar 15 2023 20:10:13 GMT-0400 (Eastern Daylight Time)","510740","Match,No Match","","497","","","","","","<div class='trialBorder'><div class='targDiv'><div class='tc'><img class='introPic' src='trustrating_stim/white_mw003.bmp'><br><font color='red'><strong>Keep</strong></font></div></div><div class='respDiv'><div class='respDivL'>Match<br>(e)</div><div class='respDivR'>No Match<br>(i)</div></div></div>","e","TARGET","3","trustrating_stim/white_mw038.bmp,trustrating_stim/white_mw085.bmp,trustrating_stim/white_mw013.bmp","0,1,1","noMatchFace","i","4500","trustrating_stim/white_mw003.bmp","red","Keep","REAL","0"
"html-keyboard-response","44","99531","0.0-7.0-5.1","63ea63669423c84daf2c5dbd","bdp_wmem","Wed Mar 15 2023 20:10:13 GMT-0400 (Eastern Daylight Time)","510740","Match,No Match","","null","","","","","","<div class='trialBorder'><div class='vertical-center'><img src='img/error.jpg'></div><div class='respDiv'><div class='respDivL'><font style='color:orange'>Match<br>(e)</font></div><div class='respDivR'>No Match<br>(i)</div></div></div>","null","FEEDBACK","","","","","","","","","","",""
"html-keyboard-response","45","100032","0.0-7.0-1.2","63ea63669423c84daf2c5dbd","bdp_wmem","Wed Mar 15 2023 20:10:13 GMT-0400 (Eastern Daylight Time)","510740","Match,No Match","","null","","","","","","<div class='trialBorder'><div class='vertical-center'><img src='img/fixation2_sml.jpg'</img></div></div>","null","FIX","","","","","","","","","","",""
"html-keyboard-response","46","103035","0.0-7.0-2.2","63ea63669423c84daf2c5dbd","bdp_wmem","Wed Mar 15 2023 20:10:13 GMT-0400 (Eastern Daylight Time)","510740","Match,No Match","","null","","","","","","<div class='trialBorder'><div class='vertical-center'><img style='vertical-align:center; align:center' src='img/fixation2_sml.jpg'></div><div class='arrayDiv2'><div class='tl'><img class='introPic' src='trustrating_stim/white_mw092.bmp'><br><font color='green'><strong>Share</strong></font></div><div class='tr'><img class='introPic' src='trustrating_stim/white_mw012.bmp'><br><font color='red'><strong>Keep</strong></font></div></div></div>","null","ARRAY","2","trustrating_stim/white_mw092.bmp,trustrating_stim/white_mw012.bmp","1,0","noMatchFace","i","3000","","","","",""
"html-keyboard-response","47","107038","0.0-7.0-3.2","63ea63669423c84daf2c5dbd","bdp_wmem","Wed Mar 15 2023 20:10:13 GMT-0400 (Eastern Daylight Time)","510740","Match,No Match","","null","","","","","","<div class='trialBorder'><div class='vertical-center'><img src='img/fixation2_sml.jpg'</img></div></div>","null","DELAY","","","","","","","","","","",""
"html-keyboard-response","48","107920","0.0-7.0-4.2","63ea63669423c84daf2c5dbd","bdp_wmem","Wed Mar 15 2023 20:10:13 GMT-0400 (Eastern Daylight Time)","510740","Match,No Match","","881","","","","","","<div class='trialBorder'><div class='targDiv'><div class='tc'><img class='introPic' src='trustrating_stim/white_mw042.bmp'><br><font color='green'><strong>Share</strong></font></div></div><div class='respDiv'><div class='respDivL'>Match<br>(e)</div><div class='respDivR'>No Match<br>(i)</div></div></div>","i","TARGET","2","trustrating_stim/white_mw092.bmp,trustrating_stim/white_mw012.bmp","1,0","noMatchFace","i","3000","trustrating_stim/white_mw042.bmp","green","Share","REAL","1"
"html-keyboard-response","49","108422","0.0-7.0-5.2","63ea63669423c84daf2c5dbd","bdp_wmem","Wed Mar 15 2023 20:10:13 GMT-0400 (Eastern Daylight Time)","510740","Match,No Match","","null","","","","","","<div class='trialBorder'><div class='vertical-center'><img src='img/correct.jpg'></div><div class='respDiv'><div class='respDivL'>Match<br>(e)</div><div class='respDivR'><font style='color:orange'>No Match<br>(i)</font></div></div></div>","null","FEEDBACK","","","","","","","","","","",""
"html-keyboard-response","50","108924","0.0-7.0-1.3","63ea63669423c84daf2c5dbd","bdp_wmem","Wed Mar 15 2023 20:10:13 GMT-0400 (Eastern Daylight Time)","510740","Match,No Match","","null","","","","","","<div class='trialBorder'><div class='vertical-center'><img src='img/fixation2_sml.jpg'</img></div></div>","null","FIX","","","","","","","","","","",""
"html-keyboard-response","51","110428","0.0-7.0-2.3","63ea63669423c84daf2c5dbd","bdp_wmem","Wed Mar 15 2023 20:10:13 GMT-0400 (Eastern Daylight Time)","510740","Match,No Match","","null","","","","","","<div class='trialBorder'><div class='vertical-center'><img style='vertical-align:center; align:center' src='img/fixation2_sml.jpg'></div><div class='arrayDiv1'><div class='tc'><img class='introPic' src='trustrating_stim/white_mw092.bmp'><br><font color='green'><strong>Share</strong></font></div></div></div>","null","ARRAY","1","trustrating_stim/white_mw092.bmp","1","Match","e","1500","","","","",""
"html-keyboard-response","52","114431","0.0-7.0-3.3","63ea63669423c84daf2c5dbd","bdp_wmem","Wed Mar 15 2023 20:10:13 GMT-0400 (Eastern Daylight Time)","510740","Match,No Match","","null","","","","","","<div class='trialBorder'><div class='vertical-center'><img src='img/fixation2_sml.jpg'</img></div></div>","null","DELAY","","","","","","","","","","",""
"html-keyboard-response","53","115762","0.0-7.0-4.3","63ea63669423c84daf2c5dbd","bdp_wmem","Wed Mar 15 2023 20:10:13 GMT-0400 (Eastern Daylight Time)","510740","Match,No Match","","1328","","","","","","<div class='trialBorder'><div class='targDiv'><div class='tc'><img class='introPic' src='trustrating_stim/white_mw092.bmp'><br><font color='green'><strong>Share</strong></font></div></div><div class='respDiv'><div class='respDivL'>Match<br>(e)</div><div class='respDivR'>No Match<br>(i)</div></div></div>","i","TARGET","1","trustrating_stim/white_mw092.bmp","1","Match","e","1500","trustrating_stim/white_mw092.bmp","green","Share","REAL","0"
"html-keyboard-response","54","116264","0.0-7.0-5.3","63ea63669423c84daf2c5dbd","bdp_wmem","Wed Mar 15 2023 20:10:13 GMT-0400 (Eastern Daylight Time)","510740","Match,No Match","","null","","","","","","<div class='trialBorder'><div class='vertical-center'><img src='img/error.jpg'></div><div class='respDiv'><div class='respDivL'>Match<br>(e)</div><div class='respDivR'><font style='color:orange'>No Match<br>(i)</font></div></div></div>","null","FEEDBACK","","","","","","","","","","",""
"html-keyboard-response","55","116766","0.0-7.0-1.4","63ea63669423c84daf2c5dbd","bdp_wmem","Wed Mar 15 2023 20:10:13 GMT-0400 (Eastern Daylight Time)","510740","Match,No Match","","null","","","","","","<div class='trialBorder'><div class='vertical-center'><img src='img/fixation2_sml.jpg'</img></div></div>","null","FIX","","","","","","","","","","",""
"html-keyboard-response","56","119770","0.0-7.0-2.4","63ea63669423c84daf2c5dbd","bdp_wmem","Wed Mar 15 2023 20:10:13 GMT-0400 (Eastern Daylight Time)","510740","Match,No Match","","null","","","","","","<div class='trialBorder'><div class='vertical-center'><img style='vertical-align:center; align:center' src='img/fixation2_sml.jpg'></div><div class='arrayDiv2'><div class='tl'><img class='introPic' src='trustrating_stim/white_mw070.bmp'><br><font color='green'><strong>Share</strong></font></div><div class='tr'><img class='introPic' src='trustrating_stim/white_mw085.bmp'><br><font color='red'><strong>Keep</strong></font></div></div></div>","null","ARRAY","2","trustrating_stim/white_mw070.bmp,trustrating_stim/white_mw085.bmp","1,0","noMatchOutcome","i","3000","","","","",""
"html-keyboard-response","57","123772","0.0-7.0-3.4","63ea63669423c84daf2c5dbd","bdp_wmem","Wed Mar 15 2023 20:10:13 GMT-0400 (Eastern Daylight Time)","510740","Match,No Match","","null","","","","","","<div class='trialBorder'><div class='vertical-center'><img src='img/fixation2_sml.jpg'</img></div></div>","null","DELAY","","","","","","","","","","",""
"html-keyboard-response","58","125018","0.0-7.0-4.4","63ea63669423c84daf2c5dbd","bdp_wmem","Wed Mar 15 2023 20:10:13 GMT-0400 (Eastern Daylight Time)","510740","Match,No Match","","1244","","","","","","<div class='trialBorder'><div class='targDiv'><div class='tc'><img class='introPic' src='trustrating_stim/white_mw085.bmp'><br><font color='green'><strong>Share</strong></font></div></div><div class='respDiv'><div class='respDivL'>Match<br>(e)</div><div class='respDivR'>No Match<br>(i)</div></div></div>","e","TARGET","2","trustrating_stim/white_mw070.bmp,trustrating_stim/white_mw085.bmp","1,0","noMatchOutcome","i","3000","trustrating_stim/white_mw085.bmp","green","Share","REAL","0"
"html-keyboard-response","59","125520","0.0-7.0-5.4","63ea63669423c84daf2c5dbd","bdp_wmem","Wed Mar 15 2023 20:10:13 GMT-0400 (Eastern Daylight Time)","510740","Match,No Match","","null","","","","","","<div class='trialBorder'><div class='vertical-center'><img src='img/error.jpg'></div><div class='respDiv'><div class='respDivL'><font style='color:orange'>Match<br>(e)</font></div><div class='respDivR'>No Match<br>(i)</div></div></div>","null","FEEDBACK","","","","","","","","","","",""
"html-keyboard-response","60","126022","0.0-7.0-1.5","63ea63669423c84daf2c5dbd","bdp_wmem","Wed Mar 15 2023 20:10:13 GMT-0400 (Eastern Daylight Time)","510740","Match,No Match","","null","","","","","","<div class='trialBorder'><div class='vertical-center'><img src='img/fixation2_sml.jpg'</img></div></div>","null","FIX","","","","","","","","","","",""
"html-keyboard-response","61","129026","0.0-7.0-2.5","63ea63669423c84daf2c5dbd","bdp_wmem","Wed Mar 15 2023 20:10:13 GMT-0400 (Eastern Daylight Time)","510740","Match,No Match","","null","","","","","","<div class='trialBorder'><div class='vertical-center'><img style='vertical-align:center; align:center' src='img/fixation2_sml.jpg'></div><div class='arrayDiv2'><div class='tl'><img class='introPic' src='trustrating_stim/white_mw078.bmp'><br><font color='green'><strong>Share</strong></font></div><div class='tr'><img class='introPic' src='trustrating_stim/white_mw038.bmp'><br><font color='red'><strong>Keep</strong></font></div></div></div>","null","ARRAY","2","trustrating_stim/white_mw078.bmp,trustrating_stim/white_mw038.bmp","1,0","Match","e","3000","","","","",""
"html-keyboard-response","62","133033","0.0-7.0-3.5","63ea63669423c84daf2c5dbd","bdp_wmem","Wed Mar 15 2023 20:10:13 GMT-0400 (Eastern Daylight Time)","510740","Match,No Match","","null","","","","","","<div class='trialBorder'><div class='vertical-center'><img src='img/fixation2_sml.jpg'</img></div></div>","null","DELAY","","","","","","","","","","",""
"html-keyboard-response","63","134947","0.0-7.0-4.5","63ea63669423c84daf2c5dbd","bdp_wmem","Wed Mar 15 2023 20:10:13 GMT-0400 (Eastern Daylight Time)","510740","Match,No Match","","1912","","","","","","<div class='trialBorder'><div class='targDiv'><div class='tc'><img class='introPic' src='trustrating_stim/white_mw038.bmp'><br><font color='red'><strong>Keep</strong></font></div></div><div class='respDiv'><div class='respDivL'>Match<br>(e)</div><div class='respDivR'>No Match<br>(i)</div></div></div>","e","TARGET","2","trustrating_stim/white_mw078.bmp,trustrating_stim/white_mw038.bmp","1,0","Match","e","3000","trustrating_stim/white_mw038.bmp","red","Keep","REAL","1"
"html-keyboard-response","64","135450","0.0-7.0-5.5","63ea63669423c84daf2c5dbd","bdp_wmem","Wed Mar 15 2023 20:10:13 GMT-0400 (Eastern Daylight Time)","510740","Match,No Match","","null","","","","","","<div class='trialBorder'><div class='vertical-center'><img src='img/correct.jpg'></div><div class='respDiv'><div class='respDivL'><font style='color:orange'>Match<br>(e)</font></div><div class='respDivR'>No Match<br>(i)</div></div></div>","null","FEEDBACK","","","","","","","","","","",""
"html-keyboard-response","65","135951","0.0-7.0-1.6","63ea63669423c84daf2c5dbd","bdp_wmem","Wed Mar 15 2023 20:10:13 GMT-0400 (Eastern Daylight Time)","510740","Match,No Match","","null","","","","","","<div class='trialBorder'><div class='vertical-center'><img src='img/fixation2_sml.jpg'</img></div></div>","null","FIX","","","","","","","","","","",""
"html-keyboard-response","66","137453","0.0-7.0-2.6","63ea63669423c84daf2c5dbd","bdp_wmem","Wed Mar 15 2023 20:10:13 GMT-0400 (Eastern Daylight Time)","510740","Match,No Match","","null","","","","","","<div class='trialBorder'><div class='vertical-center'><img style='vertical-align:center; align:center' src='img/fixation2_sml.jpg'></div><div class='arrayDiv1'><div class='tc'><img class='introPic' src='trustrating_stim/white_mw085.bmp'><br><font color='red'><strong>Keep</strong></font></div></div></div>","null","ARRAY","1","trustrating_stim/white_mw085.bmp","0","Match","e","1500","","","","",""
"html-keyboard-response","67","141455","0.0-7.0-3.6","63ea63669423c84daf2c5dbd","bdp_wmem","Wed Mar 15 2023 20:10:13 GMT-0400 (Eastern Daylight Time)","510740","Match,No Match","","null","","","","","","<div class='trialBorder'><div class='vertical-center'><img src='img/fixation2_sml.jpg'</img></div></div>","null","DELAY","","","","","","","","","","",""
"html-keyboard-response","68","144396","0.0-7.0-4.6","63ea63669423c84daf2c5dbd","bdp_wmem","Wed Mar 15 2023 20:10:13 GMT-0400 (Eastern Daylight Time)","510740","Match,No Match","","2939","","","","","","<div class='trialBorder'><div class='targDiv'><div class='tc'><img class='introPic' src='trustrating_stim/white_mw085.bmp'><br><font color='red'><strong>Keep</strong></font></div></div><div class='respDiv'><div class='respDivL'>Match<br>(e)</div><div class='respDivR'>No Match<br>(i)</div></div></div>","e","TARGET","1","trustrating_stim/white_mw085.bmp","0","Match","e","1500","trustrating_stim/white_mw085.bmp","red","Keep","REAL","1"
"html-keyboard-response","69","144897","0.0-7.0-5.6","63ea63669423c84daf2c5dbd","bdp_wmem","Wed Mar 15 2023 20:10:13 GMT-0400 (Eastern Daylight Time)","510740","Match,No Match","","null","","","","","","<div class='trialBorder'><div class='vertical-center'><img src='img/correct.jpg'></div><div class='respDiv'><div class='respDivL'><font style='color:orange'>Match<br>(e)</font></div><div class='respDivR'>No Match<br>(i)</div></div></div>","null","FEEDBACK","","","","","","","","","","",""
"html-keyboard-response","70","145399","0.0-7.0-1.7","63ea63669423c84daf2c5dbd","bdp_wmem","Wed Mar 15 2023 20:10:13 GMT-0400 (Eastern Daylight Time)","510740","Match,No Match","","null","","","","","","<div class='trialBorder'><div class='vertical-center'><img src='img/fixation2_sml.jpg'</img></div></div>","null","FIX","","","","","","","","","","",""
"html-keyboard-response","71","148402","0.0-7.0-2.7","63ea63669423c84daf2c5dbd","bdp_wmem","Wed Mar 15 2023 20:10:13 GMT-0400 (Eastern Daylight Time)","510740","Match,No Match","","null","","","","","","<div class='trialBorder'><div class='vertical-center'><img style='vertical-align:center; align:center' src='img/fixation2_sml.jpg'></div><div class='arrayDiv2'><div class='tl'><img class='introPic' src='trustrating_stim/white_mw070.bmp'><br><font color='green'><strong>Share</strong></font></div><div class='tr'><img class='introPic' src='trustrating_stim/white_mw012.bmp'><br><font color='red'><strong>Keep</strong></font></div></div></div>","null","ARRAY","2","trustrating_stim/white_mw070.bmp,trustrating_stim/white_mw012.bmp","1,0","noMatchFace","i","3000","","","","",""
"html-keyboard-response","72","152403","0.0-7.0-3.7","63ea63669423c84daf2c5dbd","bdp_wmem","Wed Mar 15 2023 20:10:13 GMT-0400 (Eastern Daylight Time)","510740","Match,No Match","","null","","","","","","<div class='trialBorder'><div class='vertical-center'><img src='img/fixation2_sml.jpg'</img></div></div>","null","DELAY","","","","","","","","","","",""
"html-keyboard-response","73","153944","0.0-7.0-4.7","63ea63669423c84daf2c5dbd","bdp_wmem","Wed Mar 15 2023 20:10:13 GMT-0400 (Eastern Daylight Time)","510740","Match,No Match","","1540","","","","","","<div class='trialBorder'><div class='targDiv'><div class='tc'><img class='introPic' src='trustrating_stim/white_mw013.bmp'><br><font color='green'><strong>Share</strong></font></div></div><div class='respDiv'><div class='respDivL'>Match<br>(e)</div><div class='respDivR'>No Match<br>(i)</div></div></div>","i","TARGET","2","trustrating_stim/white_mw070.bmp,trustrating_stim/white_mw012.bmp","1,0","noMatchFace","i","3000","trustrating_stim/white_mw013.bmp","green","Share","REAL","1"
"html-keyboard-response","74","154447","0.0-7.0-5.7","63ea63669423c84daf2c5dbd","bdp_wmem","Wed Mar 15 2023 20:10:13 GMT-0400 (Eastern Daylight Time)","510740","Match,No Match","","null","","","","","","<div class='trialBorder'><div class='vertical-center'><img src='img/correct.jpg'></div><div class='respDiv'><div class='respDivL'>Match<br>(e)</div><div class='respDivR'><font style='color:orange'>No Match<br>(i)</font></div></div></div>","null","FEEDBACK","","","","","","","","","","",""
"html-keyboard-response","75","154950","0.0-7.0-1.8","63ea63669423c84daf2c5dbd","bdp_wmem","Wed Mar 15 2023 20:10:13 GMT-0400 (Eastern Daylight Time)","510740","Match,No Match","","null","","","","","","<div class='trialBorder'><div class='vertical-center'><img src='img/fixation2_sml.jpg'</img></div></div>","null","FIX","","","","","","","","","","",""
"html-keyboard-response","76","156453","0.0-7.0-2.8","63ea63669423c84daf2c5dbd","bdp_wmem","Wed Mar 15 2023 20:10:13 GMT-0400 (Eastern Daylight Time)","510740","Match,No Match","","null","","","","","","<div class='trialBorder'><div class='vertical-center'><img style='vertical-align:center; align:center' src='img/fixation2_sml.jpg'></div><div class='arrayDiv1'><div class='tc'><img class='introPic' src='trustrating_stim/white_mw091.bmp'><br><font color='green'><strong>Share</strong></font></div></div></div>","null","ARRAY","1","trustrating_stim/white_mw091.bmp","1","noMatchFace","i","1500","","","","",""
"html-keyboard-response","77","160456","0.0-7.0-3.8","63ea63669423c84daf2c5dbd","bdp_wmem","Wed Mar 15 2023 20:10:13 GMT-0400 (Eastern Daylight Time)","510740","Match,No Match","","null","","","","","","<div class='trialBorder'><div class='vertical-center'><img src='img/fixation2_sml.jpg'</img></div></div>","null","DELAY","","","","","","","","","","",""
"html-keyboard-response","78","161330","0.0-7.0-4.8","63ea63669423c84daf2c5dbd","bdp_wmem","Wed Mar 15 2023 20:10:13 GMT-0400 (Eastern Daylight Time)","510740","Match,No Match","","872","","","","","","<div class='trialBorder'><div class='targDiv'><div class='tc'><img class='introPic' src='trustrating_stim/white_mw092.bmp'><br><font color='green'><strong>Share</strong></font></div></div><div class='respDiv'><div class='respDivL'>Match<br>(e)</div><div class='respDivR'>No Match<br>(i)</div></div></div>","i","TARGET","1","trustrating_stim/white_mw091.bmp","1","noMatchFace","i","1500","trustrating_stim/white_mw092.bmp","green","Share","REAL","1"
"html-keyboard-response","79","161832","0.0-7.0-5.8","63ea63669423c84daf2c5dbd","bdp_wmem","Wed Mar 15 2023 20:10:13 GMT-0400 (Eastern Daylight Time)","510740","Match,No Match","","null","","","","","","<div class='trialBorder'><div class='vertical-center'><img src='img/correct.jpg'></div><div class='respDiv'><div class='respDivL'>Match<br>(e)</div><div class='respDivR'><font style='color:orange'>No Match<br>(i)</font></div></div></div>","null","FEEDBACK","","","","","","","","","","",""
"html-keyboard-response","80","162335","0.0-7.0-1.9","63ea63669423c84daf2c5dbd","bdp_wmem","Wed Mar 15 2023 20:10:13 GMT-0400 (Eastern Daylight Time)","510740","Match,No Match","","null","","","","","","<div class='trialBorder'><div class='vertical-center'><img src='img/fixation2_sml.jpg'</img></div></div>","null","FIX","","","","","","","","","","",""
"html-keyboard-response","81","165337","0.0-7.0-2.9","63ea63669423c84daf2c5dbd","bdp_wmem","Wed Mar 15 2023 20:10:13 GMT-0400 (Eastern Daylight Time)","510740","Match,No Match","","null","","","","","","<div class='trialBorder'><div class='vertical-center'><img style='vertical-align:center; align:center' src='img/fixation2_sml.jpg'></div><div class='arrayDiv2'><div class='tl'><img class='introPic' src='trustrating_stim/white_mw038.bmp'><br><font color='green'><strong>Share</strong></font></div><div class='tr'><img class='introPic' src='trustrating_stim/white_mw010.bmp'><br><font color='red'><strong>Keep</strong></font></div></div></div>","null","ARRAY","2","trustrating_stim/white_mw038.bmp,trustrating_stim/white_mw010.bmp","1,0","noMatchOutcome","i","3000","","","","",""
"html-keyboard-response","82","169339","0.0-7.0-3.9","63ea63669423c84daf2c5dbd","bdp_wmem","Wed Mar 15 2023 20:10:13 GMT-0400 (Eastern Daylight Time)","510740","Match,No Match","","null","","","","","","<div class='trialBorder'><div class='vertical-center'><img src='img/fixation2_sml.jpg'</img></div></div>","null","DELAY","","","","","","","","","","",""
"html-keyboard-response","83","169773","0.0-7.0-4.9","63ea63669423c84daf2c5dbd","bdp_wmem","Wed Mar 15 2023 20:10:13 GMT-0400 (Eastern Daylight Time)","510740","Match,No Match","","433","","","","","","<div class='trialBorder'><div class='targDiv'><div class='tc'><img class='introPic' src='trustrating_stim/white_mw010.bmp'><br><font color='green'><strong>Share</strong></font></div></div><div class='respDiv'><div class='respDivL'>Match<br>(e)</div><div class='respDivR'>No Match<br>(i)</div></div></div>","e","TARGET","2","trustrating_stim/white_mw038.bmp,trustrating_stim/white_mw010.bmp","1,0","noMatchOutcome","i","3000","trustrating_stim/white_mw010.bmp","green","Share","REAL","0"
"html-keyboard-response","84","170274","0.0-7.0-5.9","63ea63669423c84daf2c5dbd","bdp_wmem","Wed Mar 15 2023 20:10:13 GMT-0400 (Eastern Daylight Time)","510740","Match,No Match","","null","","","","","","<div class='trialBorder'><div class='vertical-center'><img src='img/error.jpg'></div><div class='respDiv'><div class='respDivL'><font style='color:orange'>Match<br>(e)</font></div><div class='respDivR'>No Match<br>(i)</div></div></div>","null","FEEDBACK","","","","","","","","","","",""
"html-keyboard-response","85","170776","0.0-7.0-1.10","63ea63669423c84daf2c5dbd","bdp_wmem","Wed Mar 15 2023 20:10:13 GMT-0400 (Eastern Daylight Time)","510740","Match,No Match","","null","","","","","","<div class='trialBorder'><div class='vertical-center'><img src='img/fixation2_sml.jpg'</img></div></div>","null","FIX","","","","","","","","","","",""
"html-keyboard-response","86","175279","0.0-7.0-2.10","63ea63669423c84daf2c5dbd","bdp_wmem","Wed Mar 15 2023 20:10:13 GMT-0400 (Eastern Daylight Time)","510740","Match,No Match","","null","","","","","","<div class='trialBorder'><div class='vertical-center'><img style='vertical-align:center; align:center' src='img/fixation2_sml.jpg'></div><div class='arrayDiv3'><div class='tl'><img class='introPic' src='trustrating_stim/white_mw078.bmp'><br><font color='red'><strong>Keep</strong></font></div><div class='tc'><img class='introPic' src='trustrating_stim/white_mw070.bmp'><br><font color='red'><strong>Keep</strong></font></div><div class='tr'><img class='introPic' src='trustrating_stim/white_mw012.bmp'><br><font color='green'><strong>Share</strong></font></div></div></div>","null","ARRAY","3","trustrating_stim/white_mw078.bmp,trustrating_stim/white_mw070.bmp,trustrating_stim/white_mw012.bmp","0,0,1","noMatchOutcome","i","4500","","","","",""
"html-keyboard-response","87","179281","0.0-7.0-3.10","63ea63669423c84daf2c5dbd","bdp_wmem","Wed Mar 15 2023 20:10:13 GMT-0400 (Eastern Daylight Time)","510740","Match,No Match","","null","","","","","","<div class='trialBorder'><div class='vertical-center'><img src='img/fixation2_sml.jpg'</img></div></div>","null","DELAY","","","","","","","","","","",""
"html-keyboard-response","88","179617","0.0-7.0-4.10","63ea63669423c84daf2c5dbd","bdp_wmem","Wed Mar 15 2023 20:10:13 GMT-0400 (Eastern Daylight Time)","510740","Match,No Match","","334","","","","","","<div class='trialBorder'><div class='targDiv'><div class='tc'><img class='introPic' src='trustrating_stim/white_mw078.bmp'><br><font color='green'><strong>Share</strong></font></div></div><div class='respDiv'><div class='respDivL'>Match<br>(e)</div><div class='respDivR'>No Match<br>(i)</div></div></div>","i","TARGET","3","trustrating_stim/white_mw078.bmp,trustrating_stim/white_mw070.bmp,trustrating_stim/white_mw012.bmp","0,0,1","noMatchOutcome","i","4500","trustrating_stim/white_mw078.bmp","green","Share","REAL","1"
"html-keyboard-response","89","180118","0.0-7.0-5.10","63ea63669423c84daf2c5dbd","bdp_wmem","Wed Mar 15 2023 20:10:13 GMT-0400 (Eastern Daylight Time)","510740","Match,No Match","","null","","","","","","<div class='trialBorder'><div class='vertical-center'><img src='img/correct.jpg'></div><div class='respDiv'><div class='respDivL'>Match<br>(e)</div><div class='respDivR'><font style='color:orange'>No Match<br>(i)</font></div></div></div>","null","FEEDBACK","","","","","","","","","","",""
"html-keyboard-response","90","180620","0.0-7.0-1.11","63ea63669423c84daf2c5dbd","bdp_wmem","Wed Mar 15 2023 20:10:13 GMT-0400 (Eastern Daylight Time)","510740","Match,No Match","","null","","","","","","<div class='trialBorder'><div class='vertical-center'><img src='img/fixation2_sml.jpg'</img></div></div>","null","FIX","","","","","","","","","","",""
"html-keyboard-response","91","183623","0.0-7.0-2.11","63ea63669423c84daf2c5dbd","bdp_wmem","Wed Mar 15 2023 20:10:13 GMT-0400 (Eastern Daylight Time)","510740","Match,No Match","","null","","","","","","<div class='trialBorder'><div class='vertical-center'><img style='vertical-align:center; align:center' src='img/fixation2_sml.jpg'></div><div class='arrayDiv2'><div class='tl'><img class='introPic' src='trustrating_stim/white_mw003.bmp'><br><font color='red'><strong>Keep</strong></font></div><div class='tr'><img class='introPic' src='trustrating_stim/white_mw010.bmp'><br><font color='green'><strong>Share</strong></font></div></div></div>","null","ARRAY","2","trustrating_stim/white_mw003.bmp,trustrating_stim/white_mw010.bmp","0,1","Match","e","3000","","","","",""
"html-keyboard-response","92","187625","0.0-7.0-3.11","63ea63669423c84daf2c5dbd","bdp_wmem","Wed Mar 15 2023 20:10:13 GMT-0400 (Eastern Daylight Time)","510740","Match,No Match","","null","","","","","","<div class='trialBorder'><div class='vertical-center'><img src='img/fixation2_sml.jpg'</img></div></div>","null","DELAY","","","","","","","","","","",""
"html-keyboard-response","93","188345","0.0-7.0-4.11","63ea63669423c84daf2c5dbd","bdp_wmem","Wed Mar 15 2023 20:10:13 GMT-0400 (Eastern Daylight Time)","510740","Match,No Match","","718","","","","","","<div class='trialBorder'><div class='targDiv'><div class='tc'><img class='introPic' src='trustrating_stim/white_mw010.bmp'><br><font color='green'><strong>Share</strong></font></div></div><div class='respDiv'><div class='respDivL'>Match<br>(e)</div><div class='respDivR'>No Match<br>(i)</div></div></div>","e","TARGET","2","trustrating_stim/white_mw003.bmp,trustrating_stim/white_mw010.bmp","0,1","Match","e","3000","trustrating_stim/white_mw010.bmp","green","Share","REAL","1"
"html-keyboard-response","94","188846","0.0-7.0-5.11","63ea63669423c84daf2c5dbd","bdp_wmem","Wed Mar 15 2023 20:10:13 GMT-0400 (Eastern Daylight Time)","510740","Match,No Match","","null","","","","","","<div class='trialBorder'><div class='vertical-center'><img src='img/correct.jpg'></div><div class='respDiv'><div class='respDivL'><font style='color:orange'>Match<br>(e)</font></div><div class='respDivR'>No Match<br>(i)</div></div></div>","null","FEEDBACK","","","","","","","","","","",""
"html-keyboard-response","95","189350","0.0-7.0-1.12","63ea63669423c84daf2c5dbd","bdp_wmem","Wed Mar 15 2023 20:10:13 GMT-0400 (Eastern Daylight Time)","510740","Match,No Match","","null","","","","","","<div class='trialBorder'><div class='vertical-center'><img src='img/fixation2_sml.jpg'</img></div></div>","null","FIX","","","","","","","","","","",""
"html-keyboard-response","96","192353","0.0-7.0-2.12","63ea63669423c84daf2c5dbd","bdp_wmem","Wed Mar 15 2023 20:10:13 GMT-0400 (Eastern Daylight Time)","510740","Match,No Match","","null","","","","","","<div class='trialBorder'><div class='vertical-center'><img style='vertical-align:center; align:center' src='img/fixation2_sml.jpg'></div><div class='arrayDiv2'><div class='tl'><img class='introPic' src='trustrating_stim/white_mw012.bmp'><br><font color='green'><strong>Share</strong></font></div><div class='tr'><img class='introPic' src='trustrating_stim/white_mw085.bmp'><br><font color='red'><strong>Keep</strong></font></div></div></div>","null","ARRAY","2","trustrating_stim/white_mw012.bmp,trustrating_stim/white_mw085.bmp","1,0","Match","e","3000","","","","",""
"html-keyboard-response","97","196356","0.0-7.0-3.12","63ea63669423c84daf2c5dbd","bdp_wmem","Wed Mar 15 2023 20:10:13 GMT-0400 (Eastern Daylight Time)","510740","Match,No Match","","null","","","","","","<div class='trialBorder'><div class='vertical-center'><img src='img/fixation2_sml.jpg'</img></div></div>","null","DELAY","","","","","","","","","","",""
"html-keyboard-response","98","200325","0.0-7.0-4.12","63ea63669423c84daf2c5dbd","bdp_wmem","Wed Mar 15 2023 20:10:13 GMT-0400 (Eastern Daylight Time)","510740","Match,No Match","","3969","","","","","","<div class='trialBorder'><div class='targDiv'><div class='tc'><img class='introPic' src='trustrating_stim/white_mw085.bmp'><br><font color='red'><strong>Keep</strong></font></div></div><div class='respDiv'><div class='respDivL'>Match<br>(e)</div><div class='respDivR'>No Match<br>(i)</div></div></div>","i","TARGET","2","trustrating_stim/white_mw012.bmp,trustrating_stim/white_mw085.bmp","1,0","Match","e","3000","trustrating_stim/white_mw085.bmp","red","Keep","REAL","0"
"html-keyboard-response","99","200829","0.0-7.0-5.12","63ea63669423c84daf2c5dbd","bdp_wmem","Wed Mar 15 2023 20:10:13 GMT-0400 (Eastern Daylight Time)","510740","Match,No Match","","null","","","","","","<div class='trialBorder'><div class='vertical-center'><img src='img/error.jpg'></div><div class='respDiv'><div class='respDivL'>Match<br>(e)</div><div class='respDivR'><font style='color:orange'>No Match<br>(i)</font></div></div></div>","null","FEEDBACK","","","","","","","","","","",""
"html-keyboard-response","100","201330","0.0-7.0-1.13","63ea63669423c84daf2c5dbd","bdp_wmem","Wed Mar 15 2023 20:10:13 GMT-0400 (Eastern Daylight Time)","510740","Match,No Match","","null","","","","","","<div class='trialBorder'><div class='vertical-center'><img src='img/fixation2_sml.jpg'</img></div></div>","null","FIX","","","","","","","","","","",""
"html-keyboard-response","101","204332","0.0-7.0-2.13","63ea63669423c84daf2c5dbd","bdp_wmem","Wed Mar 15 2023 20:10:13 GMT-0400 (Eastern Daylight Time)","510740","Match,No Match","","null","","","","","","<div class='trialBorder'><div class='vertical-center'><img style='vertical-align:center; align:center' src='img/fixation2_sml.jpg'></div><div class='arrayDiv2'><div class='tl'><img class='introPic' src='trustrating_stim/white_mw070.bmp'><br><font color='red'><strong>Keep</strong></font></div><div class='tr'><img class='introPic' src='trustrating_stim/white_mw013.bmp'><br><font color='green'><strong>Share</strong></font></div></div></div>","null","ARRAY","2","trustrating_stim/white_mw070.bmp,trustrating_stim/white_mw013.bmp","0,1","noMatchFace","i","3000","","","","",""
"html-keyboard-response","102","208334","0.0-7.0-3.13","63ea63669423c84daf2c5dbd","bdp_wmem","Wed Mar 15 2023 20:10:13 GMT-0400 (Eastern Daylight Time)","510740","Match,No Match","","null","","","","","","<div class='trialBorder'><div class='vertical-center'><img src='img/fixation2_sml.jpg'</img></div></div>","null","DELAY","","","","","","","","","","",""
"html-keyboard-response","103","208739","0.0-7.0-4.13","63ea63669423c84daf2c5dbd","bdp_wmem","Wed Mar 15 2023 20:10:13 GMT-0400 (Eastern Daylight Time)","510740","Match,No Match","","404","","","","","","<div class='trialBorder'><div class='targDiv'><div class='tc'><img class='introPic' src='trustrating_stim/white_mw038.bmp'><br><font color='red'><strong>Keep</strong></font></div></div><div class='respDiv'><div class='respDivL'>Match<br>(e)</div><div class='respDivR'>No Match<br>(i)</div></div></div>","i","TARGET","2","trustrating_stim/white_mw070.bmp,trustrating_stim/white_mw013.bmp","0,1","noMatchFace","i","3000","trustrating_stim/white_mw038.bmp","red","Keep","REAL","1"
"html-keyboard-response","104","209241","0.0-7.0-5.13","63ea63669423c84daf2c5dbd","bdp_wmem","Wed Mar 15 2023 20:10:13 GMT-0400 (Eastern Daylight Time)","510740","Match,No Match","","null","","","","","","<div class='trialBorder'><div class='vertical-center'><img src='img/correct.jpg'></div><div class='respDiv'><div class='respDivL'>Match<br>(e)</div><div class='respDivR'><font style='color:orange'>No Match<br>(i)</font></div></div></div>","null","FEEDBACK","","","","","","","","","","",""
"html-keyboard-response","105","209743","0.0-7.0-1.14","63ea63669423c84daf2c5dbd","bdp_wmem","Wed Mar 15 2023 20:10:13 GMT-0400 (Eastern Daylight Time)","510740","Match,No Match","","null","","","","","","<div class='trialBorder'><div class='vertical-center'><img src='img/fixation2_sml.jpg'</img></div></div>","null","FIX","","","","","","","","","","",""
"html-keyboard-response","106","212745","0.0-7.0-2.14","63ea63669423c84daf2c5dbd","bdp_wmem","Wed Mar 15 2023 20:10:13 GMT-0400 (Eastern Daylight Time)","510740","Match,No Match","","null","","","","","","<div class='trialBorder'><div class='vertical-center'><img style='vertical-align:center; align:center' src='img/fixation2_sml.jpg'></div><div class='arrayDiv2'><div class='tl'><img class='introPic' src='trustrating_stim/white_mw092.bmp'><br><font color='green'><strong>Share</strong></font></div><div class='tr'><img class='introPic' src='trustrating_stim/white_mw040.bmp'><br><font color='red'><strong>Keep</strong></font></div></div></div>","null","ARRAY","2","trustrating_stim/white_mw092.bmp,trustrating_stim/white_mw040.bmp","1,0","noMatchOutcome","i","3000","","","","",""
"html-keyboard-response","107","216748","0.0-7.0-3.14","63ea63669423c84daf2c5dbd","bdp_wmem","Wed Mar 15 2023 20:10:13 GMT-0400 (Eastern Daylight Time)","510740","Match,No Match","","null","","","","","","<div class='trialBorder'><div class='vertical-center'><img src='img/fixation2_sml.jpg'</img></div></div>","null","DELAY","","","","","","","","","","",""
"html-keyboard-response","108","217890","0.0-7.0-4.14","63ea63669423c84daf2c5dbd","bdp_wmem","Wed Mar 15 2023 20:10:13 GMT-0400 (Eastern Daylight Time)","510740","Match,No Match","","1141","","","","","","<div class='trialBorder'><div class='targDiv'><div class='tc'><img class='introPic' src='trustrating_stim/white_mw092.bmp'><br><font color='red'><strong>Keep</strong></font></div></div><div class='respDiv'><div class='respDivL'>Match<br>(e)</div><div class='respDivR'>No Match<br>(i)</div></div></div>","i","TARGET","2","trustrating_stim/white_mw092.bmp,trustrating_stim/white_mw040.bmp","1,0","noMatchOutcome","i","3000","trustrating_stim/white_mw092.bmp","red","Keep","REAL","1"
"html-keyboard-response","109","218391","0.0-7.0-5.14","63ea63669423c84daf2c5dbd","bdp_wmem","Wed Mar 15 2023 20:10:13 GMT-0400 (Eastern Daylight Time)","510740","Match,No Match","","null","","","","","","<div class='trialBorder'><div class='vertical-center'><img src='img/correct.jpg'></div><div class='respDiv'><div class='respDivL'>Match<br>(e)</div><div class='respDivR'><font style='color:orange'>No Match<br>(i)</font></div></div></div>","null","FEEDBACK","","","","","","","","","","",""
"html-keyboard-response","110","218894","0.0-7.0-1.15","63ea63669423c84daf2c5dbd","bdp_wmem","Wed Mar 15 2023 20:10:13 GMT-0400 (Eastern Daylight Time)","510740","Match,No Match","","null","","","","","","<div class='trialBorder'><div class='vertical-center'><img src='img/fixation2_sml.jpg'</img></div></div>","null","FIX","","","","","","","","","","",""
"html-keyboard-response","111","220396","0.0-7.0-2.15","63ea63669423c84daf2c5dbd","bdp_wmem","Wed Mar 15 2023 20:10:13 GMT-0400 (Eastern Daylight Time)","510740","Match,No Match","","null","","","","","","<div class='trialBorder'><div class='vertical-center'><img style='vertical-align:center; align:center' src='img/fixation2_sml.jpg'></div><div class='arrayDiv1'><div class='tc'><img class='introPic' src='trustrating_stim/white_mw070.bmp'><br><font color='green'><strong>Share</strong></font></div></div></div>","null","ARRAY","1","trustrating_stim/white_mw070.bmp","1","Match","e","1500","","","","",""
"html-keyboard-response","112","224402","0.0-7.0-3.15","63ea63669423c84daf2c5dbd","bdp_wmem","Wed Mar 15 2023 20:10:13 GMT-0400 (Eastern Daylight Time)","510740","Match,No Match","","null","","","","","","<div class='trialBorder'><div class='vertical-center'><img src='img/fixation2_sml.jpg'</img></div></div>","null","DELAY","","","","","","","","","","",""
"html-keyboard-response","113","230118","0.0-7.0-4.15","63ea63669423c84daf2c5dbd","bdp_wmem","Wed Mar 15 2023 20:10:13 GMT-0400 (Eastern Daylight Time)","510740","Match,No Match","","5715","","","","","","<div class='trialBorder'><div class='targDiv'><div class='tc'><img class='introPic' src='trustrating_stim/white_mw070.bmp'><br><font color='green'><strong>Share</strong></font></div></div><div class='respDiv'><div class='respDivL'>Match<br>(e)</div><div class='respDivR'>No Match<br>(i)</div></div></div>","i","TARGET","1","trustrating_stim/white_mw070.bmp","1","Match","e","1500","trustrating_stim/white_mw070.bmp","green","Share","REAL","0"
"html-keyboard-response","114","230620","0.0-7.0-5.15","63ea63669423c84daf2c5dbd","bdp_wmem","Wed Mar 15 2023 20:10:13 GMT-0400 (Eastern Daylight Time)","510740","Match,No Match","","null","","","","","","<div class='trialBorder'><div class='vertical-center'><img src='img/error.jpg'></div><div class='respDiv'><div class='respDivL'>Match<br>(e)</div><div class='respDivR'><font style='color:orange'>No Match<br>(i)</font></div></div></div>","null","FEEDBACK","","","","","","","","","","",""
"html-keyboard-response","115","231123","0.0-7.0-1.16","63ea63669423c84daf2c5dbd","bdp_wmem","Wed Mar 15 2023 20:10:13 GMT-0400 (Eastern Daylight Time)","510740","Match,No Match","","null","","","","","","<div class='trialBorder'><div class='vertical-center'><img src='img/fixation2_sml.jpg'</img></div></div>","null","FIX","","","","","","","","","","",""
"html-keyboard-response","116","234125","0.0-7.0-2.16","63ea63669423c84daf2c5dbd","bdp_wmem","Wed Mar 15 2023 20:10:13 GMT-0400 (Eastern Daylight Time)","510740","Match,No Match","","null","","","","","","<div class='trialBorder'><div class='vertical-center'><img style='vertical-align:center; align:center' src='img/fixation2_sml.jpg'></div><div class='arrayDiv2'><div class='tl'><img class='introPic' src='trustrating_stim/white_mw003.bmp'><br><font color='green'><strong>Share</strong></font></div><div class='tr'><img class='introPic' src='trustrating_stim/white_mw010.bmp'><br><font color='red'><strong>Keep</strong></font></div></div></div>","null","ARRAY","2","trustrating_stim/white_mw003.bmp,trustrating_stim/white_mw010.bmp","1,0","Match","e","3000","","","","",""
"html-keyboard-response","117","238127","0.0-7.0-3.16","63ea63669423c84daf2c5dbd","bdp_wmem","Wed Mar 15 2023 20:10:13 GMT-0400 (Eastern Daylight Time)","510740","Match,No Match","","null","","","","","","<div class='trialBorder'><div class='vertical-center'><img src='img/fixation2_sml.jpg'</img></div></div>","null","DELAY","","","","","","","","","","",""
"html-keyboard-response","118","239662","0.0-7.0-4.16","63ea63669423c84daf2c5dbd","bdp_wmem","Wed Mar 15 2023 20:10:13 GMT-0400 (Eastern Daylight Time)","510740","Match,No Match","","1532","","","","","","<div class='trialBorder'><div class='targDiv'><div class='tc'><img class='introPic' src='trustrating_stim/white_mw003.bmp'><br><font color='green'><strong>Share</strong></font></div></div><div class='respDiv'><div class='respDivL'>Match<br>(e)</div><div class='respDivR'>No Match<br>(i)</div></div></div>","i","TARGET","2","trustrating_stim/white_mw003.bmp,trustrating_stim/white_mw010.bmp","1,0","Match","e","3000","trustrating_stim/white_mw003.bmp","green","Share","REAL","0"
"html-keyboard-response","119","240164","0.0-7.0-5.16","63ea63669423c84daf2c5dbd","bdp_wmem","Wed Mar 15 2023 20:10:13 GMT-0400 (Eastern Daylight Time)","510740","Match,No Match","","null","","","","","","<div class='trialBorder'><div class='vertical-center'><img src='img/error.jpg'></div><div class='respDiv'><div class='respDivL'>Match<br>(e)</div><div class='respDivR'><font style='color:orange'>No Match<br>(i)</font></div></div></div>","null","FEEDBACK","","","","","","","","","","",""
"html-keyboard-response","120","240666","0.0-7.0-1.17","63ea63669423c84daf2c5dbd","bdp_wmem","Wed Mar 15 2023 20:10:13 GMT-0400 (Eastern Daylight Time)","510740","Match,No Match","","null","","","","","","<div class='trialBorder'><div class='vertical-center'><img src='img/fixation2_sml.jpg'</img></div></div>","null","FIX","","","","","","","","","","",""
"html-keyboard-response","121","242168","0.0-7.0-2.17","63ea63669423c84daf2c5dbd","bdp_wmem","Wed Mar 15 2023 20:10:13 GMT-0400 (Eastern Daylight Time)","510740","Match,No Match","","null","","","","","","<div class='trialBorder'><div class='vertical-center'><img style='vertical-align:center; align:center' src='img/fixation2_sml.jpg'></div><div class='arrayDiv1'><div class='tc'><img class='introPic' src='trustrating_stim/white_mw040.bmp'><br><font color='red'><strong>Keep</strong></font></div></div></div>","null","ARRAY","1","trustrating_stim/white_mw040.bmp","0","noMatchFace","i","1500","","","","",""
"html-keyboard-response","122","246169","0.0-7.0-3.17","63ea63669423c84daf2c5dbd","bdp_wmem","Wed Mar 15 2023 20:10:13 GMT-0400 (Eastern Daylight Time)","510740","Match,No Match","","null","","","","","","<div class='trialBorder'><div class='vertical-center'><img src='img/fixation2_sml.jpg'</img></div></div>","null","DELAY","","","","","","","","","","",""
"html-keyboard-response","123","246682","0.0-7.0-4.17","63ea63669423c84daf2c5dbd","bdp_wmem","Wed Mar 15 2023 20:10:13 GMT-0400 (Eastern Daylight Time)","510740","Match,No Match","","512","","","","","","<div class='trialBorder'><div class='targDiv'><div class='tc'><img class='introPic' src='trustrating_stim/white_mw092.bmp'><br><font color='red'><strong>Keep</strong></font></div></div><div class='respDiv'><div class='respDivL'>Match<br>(e)</div><div class='respDivR'>No Match<br>(i)</div></div></div>","i","TARGET","1","trustrating_stim/white_mw040.bmp","0","noMatchFace","i","1500","trustrating_stim/white_mw092.bmp","red","Keep","REAL","1"
"html-keyboard-response","124","247183","0.0-7.0-5.17","63ea63669423c84daf2c5dbd","bdp_wmem","Wed Mar 15 2023 20:10:13 GMT-0400 (Eastern Daylight Time)","510740","Match,No Match","","null","","","","","","<div class='trialBorder'><div class='vertical-center'><img src='img/correct.jpg'></div><div class='respDiv'><div class='respDivL'>Match<br>(e)</div><div class='respDivR'><font style='color:orange'>No Match<br>(i)</font></div></div></div>","null","FEEDBACK","","","","","","","","","","",""
"html-keyboard-response","125","247685","0.0-7.0-1.18","63ea63669423c84daf2c5dbd","bdp_wmem","Wed Mar 15 2023 20:10:13 GMT-0400 (Eastern Daylight Time)","510740","Match,No Match","","null","","","","","","<div class='trialBorder'><div class='vertical-center'><img src='img/fixation2_sml.jpg'</img></div></div>","null","FIX","","","","","","","","","","",""
"html-keyboard-response","126","252187","0.0-7.0-2.18","63ea63669423c84daf2c5dbd","bdp_wmem","Wed Mar 15 2023 20:10:13 GMT-0400 (Eastern Daylight Time)","510740","Match,No Match","","null","","","","","","<div class='trialBorder'><div class='vertical-center'><img style='vertical-align:center; align:center' src='img/fixation2_sml.jpg'></div><div class='arrayDiv3'><div class='tl'><img class='introPic' src='trustrating_stim/white_mw010.bmp'><br><font color='red'><strong>Keep</strong></font></div><div class='tc'><img class='introPic' src='trustrating_stim/white_mw042.bmp'><br><font color='red'><strong>Keep</strong></font></div><div class='tr'><img class='introPic' src='trustrating_stim/white_mw038.bmp'><br><font color='green'><strong>Share</strong></font></div></div></div>","null","ARRAY","3","trustrating_stim/white_mw010.bmp,trustrating_stim/white_mw042.bmp,trustrating_stim/white_mw038.bmp","0,0,1","noMatchOutcome","i","4500","","","","",""
"html-keyboard-response","127","256189","0.0-7.0-3.18","63ea63669423c84daf2c5dbd","bdp_wmem","Wed Mar 15 2023 20:10:13 GMT-0400 (Eastern Daylight Time)","510740","Match,No Match","","null","","","","","","<div class='trialBorder'><div class='vertical-center'><img src='img/fixation2_sml.jpg'</img></div></div>","null","DELAY","","","","","","","","","","",""
"html-keyboard-response","128","259855","0.0-7.0-4.18","63ea63669423c84daf2c5dbd","bdp_wmem","Wed Mar 15 2023 20:10:13 GMT-0400 (Eastern Daylight Time)","510740","Match,No Match","","3663","","","","","","<div class='trialBorder'><div class='targDiv'><div class='tc'><img class='introPic' src='trustrating_stim/white_mw042.bmp'><br><font color='green'><strong>Share</strong></font></div></div><div class='respDiv'><div class='respDivL'>Match<br>(e)</div><div class='respDivR'>No Match<br>(i)</div></div></div>","i","TARGET","3","trustrating_stim/white_mw010.bmp,trustrating_stim/white_mw042.bmp,trustrating_stim/white_mw038.bmp","0,0,1","noMatchOutcome","i","4500","trustrating_stim/white_mw042.bmp","green","Share","REAL","1"
"html-keyboard-response","129","260362","0.0-7.0-5.18","63ea63669423c84daf2c5dbd","bdp_wmem","Wed Mar 15 2023 20:10:13 GMT-0400 (Eastern Daylight Time)","510740","Match,No Match","","null","","","","","","<div class='trialBorder'><div class='vertical-center'><img src='img/correct.jpg'></div><div class='respDiv'><div class='respDivL'>Match<br>(e)</div><div class='respDivR'><font style='color:orange'>No Match<br>(i)</font></div></div></div>","null","FEEDBACK","","","","","","","","","","",""
"html-keyboard-response","130","260866","0.0-7.0-1.19","63ea63669423c84daf2c5dbd","bdp_wmem","Wed Mar 15 2023 20:10:13 GMT-0400 (Eastern Daylight Time)","510740","Match,No Match","","null","","","","","","<div class='trialBorder'><div class='vertical-center'><img src='img/fixation2_sml.jpg'</img></div></div>","null","FIX","","","","","","","","","","",""
"html-keyboard-response","131","265368","0.0-7.0-2.19","63ea63669423c84daf2c5dbd","bdp_wmem","Wed Mar 15 2023 20:10:13 GMT-0400 (Eastern Daylight Time)","510740","Match,No Match","","null","","","","","","<div class='trialBorder'><div class='vertical-center'><img style='vertical-align:center; align:center' src='img/fixation2_sml.jpg'></div><div class='arrayDiv3'><div class='tl'><img class='introPic' src='trustrating_stim/white_mw092.bmp'><br><font color='green'><strong>Share</strong></font></div><div class='tc'><img class='introPic' src='trustrating_stim/white_mw010.bmp'><br><font color='red'><strong>Keep</strong></font></div><div class='tr'><img class='introPic' src='trustrating_stim/white_mw091.bmp'><br><font color='green'><strong>Share</strong></font></div></div></div>","null","ARRAY","3","trustrating_stim/white_mw092.bmp,trustrating_stim/white_mw010.bmp,trustrating_stim/white_mw091.bmp","1,0,1","noMatchFace","i","4500","","","","",""
"html-keyboard-response","132","269371","0.0-7.0-3.19","63ea63669423c84daf2c5dbd","bdp_wmem","Wed Mar 15 2023 20:10:13 GMT-0400 (Eastern Daylight Time)","510740","Match,No Match","","null","","","","","","<div class='trialBorder'><div class='vertical-center'><img src='img/fixation2_sml.jpg'</img></div></div>","null","DELAY","","","","","","","","","","",""
"html-keyboard-response","133","269817","0.0-7.0-4.19","63ea63669423c84daf2c5dbd","bdp_wmem","Wed Mar 15 2023 20:10:13 GMT-0400 (Eastern Daylight Time)","510740","Match,No Match","","445","","","","","","<div class='trialBorder'><div class='targDiv'><div class='tc'><img class='introPic' src='trustrating_stim/white_mw070.bmp'><br><font color='red'><strong>Keep</strong></font></div></div><div class='respDiv'><div class='respDivL'>Match<br>(e)</div><div class='respDivR'>No Match<br>(i)</div></div></div>","i","TARGET","3","trustrating_stim/white_mw092.bmp,trustrating_stim/white_mw010.bmp,trustrating_stim/white_mw091.bmp","1,0,1","noMatchFace","i","4500","trustrating_stim/white_mw070.bmp","red","Keep","REAL","1"
"html-keyboard-response","134","270319","0.0-7.0-5.19","63ea63669423c84daf2c5dbd","bdp_wmem","Wed Mar 15 2023 20:10:13 GMT-0400 (Eastern Daylight Time)","510740","Match,No Match","","null","","","","","","<div class='trialBorder'><div class='vertical-center'><img src='img/correct.jpg'></div><div class='respDiv'><div class='respDivL'>Match<br>(e)</div><div class='respDivR'><font style='color:orange'>No Match<br>(i)</font></div></div></div>","null","FEEDBACK","","","","","","","","","","",""
"html-keyboard-response","135","270821","0.0-7.0-1.20","63ea63669423c84daf2c5dbd","bdp_wmem","Wed Mar 15 2023 20:10:13 GMT-0400 (Eastern Daylight Time)","510740","Match,No Match","","null","","","","","","<div class='trialBorder'><div class='vertical-center'><img src='img/fixation2_sml.jpg'</img></div></div>","null","FIX","","","","","","","","","","",""
"html-keyboard-response","136","275323","0.0-7.0-2.20","63ea63669423c84daf2c5dbd","bdp_wmem","Wed Mar 15 2023 20:10:13 GMT-0400 (Eastern Daylight Time)","510740","Match,No Match","","null","","","","","","<div class='trialBorder'><div class='vertical-center'><img style='vertical-align:center; align:center' src='img/fixation2_sml.jpg'></div><div class='arrayDiv3'><div class='tl'><img class='introPic' src='trustrating_stim/white_mw085.bmp'><br><font color='green'><strong>Share</strong></font></div><div class='tc'><img class='introPic' src='trustrating_stim/white_mw040.bmp'><br><font color='red'><strong>Keep</strong></font></div><div class='tr'><img class='introPic' src='trustrating_stim/white_mw013.bmp'><br><font color='red'><strong>Keep</strong></font></div></div></div>","null","ARRAY","3","trustrating_stim/white_mw085.bmp,trustrating_stim/white_mw040.bmp,trustrating_stim/white_mw013.bmp","1,0,0","noMatchOutcome","i","4500","","","","",""
"html-keyboard-response","137","279325","0.0-7.0-3.20","63ea63669423c84daf2c5dbd","bdp_wmem","Wed Mar 15 2023 20:10:13 GMT-0400 (Eastern Daylight Time)","510740","Match,No Match","","null","","","","","","<div class='trialBorder'><div class='vertical-center'><img src='img/fixation2_sml.jpg'</img></div></div>","null","DELAY","","","","","","","","","","",""
"html-keyboard-response","138","280188","0.0-7.0-4.20","63ea63669423c84daf2c5dbd","bdp_wmem","Wed Mar 15 2023 20:10:13 GMT-0400 (Eastern Daylight Time)","510740","Match,No Match","","862","","","","","","<div class='trialBorder'><div class='targDiv'><div class='tc'><img class='introPic' src='trustrating_stim/white_mw040.bmp'><br><font color='green'><strong>Share</strong></font></div></div><div class='respDiv'><div class='respDivL'>Match<br>(e)</div><div class='respDivR'>No Match<br>(i)</div></div></div>","i","TARGET","3","trustrating_stim/white_mw085.bmp,trustrating_stim/white_mw040.bmp,trustrating_stim/white_mw013.bmp","1,0,0","noMatchOutcome","i","4500","trustrating_stim/white_mw040.bmp","green","Share","REAL","1"
"html-keyboard-response","139","280690","0.0-7.0-5.20","63ea63669423c84daf2c5dbd","bdp_wmem","Wed Mar 15 2023 20:10:13 GMT-0400 (Eastern Daylight Time)","510740","Match,No Match","","null","","","","","","<div class='trialBorder'><div class='vertical-center'><img src='img/correct.jpg'></div><div class='respDiv'><div class='respDivL'>Match<br>(e)</div><div class='respDivR'><font style='color:orange'>No Match<br>(i)</font></div></div></div>","null","FEEDBACK","","","","","","","","","","",""
"html-keyboard-response","140","281192","0.0-7.0-1.21","63ea63669423c84daf2c5dbd","bdp_wmem","Wed Mar 15 2023 20:10:13 GMT-0400 (Eastern Daylight Time)","510740","Match,No Match","","null","","","","","","<div class='trialBorder'><div class='vertical-center'><img src='img/fixation2_sml.jpg'</img></div></div>","null","FIX","","","","","","","","","","",""
"html-keyboard-response","141","282694","0.0-7.0-2.21","63ea63669423c84daf2c5dbd","bdp_wmem","Wed Mar 15 2023 20:10:13 GMT-0400 (Eastern Daylight Time)","510740","Match,No Match","","null","","","","","","<div class='trialBorder'><div class='vertical-center'><img style='vertical-align:center; align:center' src='img/fixation2_sml.jpg'></div><div class='arrayDiv1'><div class='tc'><img class='introPic' src='trustrating_stim/white_mw070.bmp'><br><font color='green'><strong>Share</strong></font></div></div></div>","null","ARRAY","1","trustrating_stim/white_mw070.bmp","1","noMatchFace","i","1500","","","","",""
"html-keyboard-response","142","286696","0.0-7.0-3.21","63ea63669423c84daf2c5dbd","bdp_wmem","Wed Mar 15 2023 20:10:13 GMT-0400 (Eastern Daylight Time)","510740","Match,No Match","","null","","","","","","<div class='trialBorder'><div class='vertical-center'><img src='img/fixation2_sml.jpg'</img></div></div>","null","DELAY","","","","","","","","","","",""
"html-keyboard-response","143","287768","0.0-7.0-4.21","63ea63669423c84daf2c5dbd","bdp_wmem","Wed Mar 15 2023 20:10:13 GMT-0400 (Eastern Daylight Time)","510740","Match,No Match","","1071","","","","","","<div class='trialBorder'><div class='targDiv'><div class='tc'><img class='introPic' src='trustrating_stim/white_mw092.bmp'><br><font color='green'><strong>Share</strong></font></div></div><div class='respDiv'><div class='respDivL'>Match<br>(e)</div><div class='respDivR'>No Match<br>(i)</div></div></div>","i","TARGET","1","trustrating_stim/white_mw070.bmp","1","noMatchFace","i","1500","trustrating_stim/white_mw092.bmp","green","Share","REAL","1"
"html-keyboard-response","144","288269","0.0-7.0-5.21","63ea63669423c84daf2c5dbd","bdp_wmem","Wed Mar 15 2023 20:10:13 GMT-0400 (Eastern Daylight Time)","510740","Match,No Match","","null","","","","","","<div class='trialBorder'><div class='vertical-center'><img src='img/correct.jpg'></div><div class='respDiv'><div class='respDivL'>Match<br>(e)</div><div class='respDivR'><font style='color:orange'>No Match<br>(i)</font></div></div></div>","null","FEEDBACK","","","","","","","","","","",""
"html-keyboard-response","145","288772","0.0-7.0-1.22","63ea63669423c84daf2c5dbd","bdp_wmem","Wed Mar 15 2023 20:10:13 GMT-0400 (Eastern Daylight Time)","510740","Match,No Match","","null","","","","","","<div class='trialBorder'><div class='vertical-center'><img src='img/fixation2_sml.jpg'</img></div></div>","null","FIX","","","","","","","","","","",""
"html-keyboard-response","146","293274","0.0-7.0-2.22","63ea63669423c84daf2c5dbd","bdp_wmem","Wed Mar 15 2023 20:10:13 GMT-0400 (Eastern Daylight Time)","510740","Match,No Match","","null","","","","","","<div class='trialBorder'><div class='vertical-center'><img style='vertical-align:center; align:center' src='img/fixation2_sml.jpg'></div><div class='arrayDiv3'><div class='tl'><img class='introPic' src='trustrating_stim/white_mw013.bmp'><br><font color='green'><strong>Share</strong></font></div><div class='tc'><img class='introPic' src='trustrating_stim/white_mw085.bmp'><br><font color='green'><strong>Share</strong></font></div><div class='tr'><img class='introPic' src='trustrating_stim/white_mw091.bmp'><br><font color='red'><strong>Keep</strong></font></div></div></div>","null","ARRAY","3","trustrating_stim/white_mw013.bmp,trustrating_stim/white_mw085.bmp,trustrating_stim/white_mw091.bmp","1,1,0","Match","e","4500","","","","",""
"html-keyboard-response","147","297276","0.0-7.0-3.22","63ea63669423c84daf2c5dbd","bdp_wmem","Wed Mar 15 2023 20:10:13 GMT-0400 (Eastern Daylight Time)","510740","Match,No Match","","null","","","","","","<div class='trialBorder'><div class='vertical-center'><img src='img/fixation2_sml.jpg'</img></div></div>","null","DELAY","","","","","","","","","","",""
"html-keyboard-response","148","297389","0.0-7.0-4.22","63ea63669423c84daf2c5dbd","bdp_wmem","Wed Mar 15 2023 20:10:13 GMT-0400 (Eastern Daylight Time)","510740","Match,No Match","","111","","","","","","<div class='trialBorder'><div class='targDiv'><div class='tc'><img class='introPic' src='trustrating_stim/white_mw085.bmp'><br><font color='green'><strong>Share</strong></font></div></div><div class='respDiv'><div class='respDivL'>Match<br>(e)</div><div class='respDivR'>No Match<br>(i)</div></div></div>","i","TARGET","3","trustrating_stim/white_mw013.bmp,trustrating_stim/white_mw085.bmp,trustrating_stim/white_mw091.bmp","1,1,0","Match","e","4500","trustrating_stim/white_mw085.bmp","green","Share","REAL","0"
"html-keyboard-response","149","297891","0.0-7.0-5.22","63ea63669423c84daf2c5dbd","bdp_wmem","Wed Mar 15 2023 20:10:13 GMT-0400 (Eastern Daylight Time)","510740","Match,No Match","","null","","","","","","<div class='trialBorder'><div class='vertical-center'><img src='img/error.jpg'></div><div class='respDiv'><div class='respDivL'>Match<br>(e)</div><div class='respDivR'><font style='color:orange'>No Match<br>(i)</font></div></div></div>","null","FEEDBACK","","","","","","","","","","",""
"html-keyboard-response","150","298394","0.0-7.0-1.23","63ea63669423c84daf2c5dbd","bdp_wmem","Wed Mar 15 2023 20:10:13 GMT-0400 (Eastern Daylight Time)","510740","Match,No Match","","null","","","","","","<div class='trialBorder'><div class='vertical-center'><img src='img/fixation2_sml.jpg'</img></div></div>","null","FIX","","","","","","","","","","",""
"html-keyboard-response","151","302896","0.0-7.0-2.23","63ea63669423c84daf2c5dbd","bdp_wmem","Wed Mar 15 2023 20:10:13 GMT-0400 (Eastern Daylight Time)","510740","Match,No Match","","null","","","","","","<div class='trialBorder'><div class='vertical-center'><img style='vertical-align:center; align:center' src='img/fixation2_sml.jpg'></div><div class='arrayDiv3'><div class='tl'><img class='introPic' src='trustrating_stim/white_mw085.bmp'><br><font color='red'><strong>Keep</strong></font></div><div class='tc'><img class='introPic' src='trustrating_stim/white_mw013.bmp'><br><font color='green'><strong>Share</strong></font></div><div class='tr'><img class='introPic' src='trustrating_stim/white_mw012.bmp'><br><font color='green'><strong>Share</strong></font></div></div></div>","null","ARRAY","3","trustrating_stim/white_mw085.bmp,trustrating_stim/white_mw013.bmp,trustrating_stim/white_mw012.bmp","0,1,1","Match","e","4500","","","","",""
"html-keyboard-response","152","306897","0.0-7.0-3.23","63ea63669423c84daf2c5dbd","bdp_wmem","Wed Mar 15 2023 20:10:13 GMT-0400 (Eastern Daylight Time)","510740","Match,No Match","","null","","","","","","<div class='trialBorder'><div class='vertical-center'><img src='img/fixation2_sml.jpg'</img></div></div>","null","DELAY","","","","","","","","","","",""
"html-keyboard-response","153","307068","0.0-7.0-4.23","63ea63669423c84daf2c5dbd","bdp_wmem","Wed Mar 15 2023 20:10:13 GMT-0400 (Eastern Daylight Time)","510740","Match,No Match","","170","","","","","","<div class='trialBorder'><div class='targDiv'><div class='tc'><img class='introPic' src='trustrating_stim/white_mw085.bmp'><br><font color='red'><strong>Keep</strong></font></div></div><div class='respDiv'><div class='respDivL'>Match<br>(e)</div><div class='respDivR'>No Match<br>(i)</div></div></div>","i","TARGET","3","trustrating_stim/white_mw085.bmp,trustrating_stim/white_mw013.bmp,trustrating_stim/white_mw012.bmp","0,1,1","Match","e","4500","trustrating_stim/white_mw085.bmp","red","Keep","REAL","0"
"html-keyboard-response","154","307570","0.0-7.0-5.23","63ea63669423c84daf2c5dbd","bdp_wmem","Wed Mar 15 2023 20:10:13 GMT-0400 (Eastern Daylight Time)","510740","Match,No Match","","null","","","","","","<div class='trialBorder'><div class='vertical-center'><img src='img/error.jpg'></div><div class='respDiv'><div class='respDivL'>Match<br>(e)</div><div class='respDivR'><font style='color:orange'>No Match<br>(i)</font></div></div></div>","null","FEEDBACK","","","","","","","","","","",""
"html-keyboard-response","155","308072","0.0-7.0-1.24","63ea63669423c84daf2c5dbd","bdp_wmem","Wed Mar 15 2023 20:10:13 GMT-0400 (Eastern Daylight Time)","510740","Match,No Match","","null","","","","","","<div class='trialBorder'><div class='vertical-center'><img src='img/fixation2_sml.jpg'</img></div></div>","null","FIX","","","","","","","","","","",""
"html-keyboard-response","156","312576","0.0-7.0-2.24","63ea63669423c84daf2c5dbd","bdp_wmem","Wed Mar 15 2023 20:10:13 GMT-0400 (Eastern Daylight Time)","510740","Match,No Match","","null","","","","","","<div class='trialBorder'><div class='vertical-center'><img style='vertical-align:center; align:center' src='img/fixation2_sml.jpg'></div><div class='arrayDiv3'><div class='tl'><img class='introPic' src='trustrating_stim/white_mw091.bmp'><br><font color='green'><strong>Share</strong></font></div><div class='tc'><img class='introPic' src='trustrating_stim/white_mw092.bmp'><br><font color='green'><strong>Share</strong></font></div><div class='tr'><img class='introPic' src='trustrating_stim/white_mw038.bmp'><br><font color='red'><strong>Keep</strong></font></div></div></div>","null","ARRAY","3","trustrating_stim/white_mw091.bmp,trustrating_stim/white_mw092.bmp,trustrating_stim/white_mw038.bmp","1,1,0","Match","e","4500","","","","",""
"html-keyboard-response","157","316579","0.0-7.0-3.24","63ea63669423c84daf2c5dbd","bdp_wmem","Wed Mar 15 2023 20:10:13 GMT-0400 (Eastern Daylight Time)","510740","Match,No Match","","null","","","","","","<div class='trialBorder'><div class='vertical-center'><img src='img/fixation2_sml.jpg'</img></div></div>","null","DELAY","","","","","","","","","","",""
"html-keyboard-response","158","316896","0.0-7.0-4.24","63ea63669423c84daf2c5dbd","bdp_wmem","Wed Mar 15 2023 20:10:13 GMT-0400 (Eastern Daylight Time)","510740","Match,No Match","","316","","","","","","<div class='trialBorder'><div class='targDiv'><div class='tc'><img class='introPic' src='trustrating_stim/white_mw092.bmp'><br><font color='green'><strong>Share</strong></font></div></div><div class='respDiv'><div class='respDivL'>Match<br>(e)</div><div class='respDivR'>No Match<br>(i)</div></div></div>","e","TARGET","3","trustrating_stim/white_mw091.bmp,trustrating_stim/white_mw092.bmp,trustrating_stim/white_mw038.bmp","1,1,0","Match","e","4500","trustrating_stim/white_mw092.bmp","green","Share","REAL","1"
"html-keyboard-response","159","317403","0.0-7.0-5.24","63ea63669423c84daf2c5dbd","bdp_wmem","Wed Mar 15 2023 20:10:13 GMT-0400 (Eastern Daylight Time)","510740","Match,No Match","","null","","","","","","<div class='trialBorder'><div class='vertical-center'><img src='img/correct.jpg'></div><div class='respDiv'><div class='respDivL'><font style='color:orange'>Match<br>(e)</font></div><div class='respDivR'>No Match<br>(i)</div></div></div>","null","FEEDBACK","","","","","","","","","","",""
"html-keyboard-response","160","317906","0.0-7.0-1.25","63ea63669423c84daf2c5dbd","bdp_wmem","Wed Mar 15 2023 20:10:13 GMT-0400 (Eastern Daylight Time)","510740","Match,No Match","","null","","","","","","<div class='trialBorder'><div class='vertical-center'><img src='img/fixation2_sml.jpg'</img></div></div>","null","FIX","","","","","","","","","","",""
"html-keyboard-response","161","322409","0.0-7.0-2.25","63ea63669423c84daf2c5dbd","bdp_wmem","Wed Mar 15 2023 20:10:13 GMT-0400 (Eastern Daylight Time)","510740","Match,No Match","","null","","","","","","<div class='trialBorder'><div class='vertical-center'><img style='vertical-align:center; align:center' src='img/fixation2_sml.jpg'></div><div class='arrayDiv3'><div class='tl'><img class='introPic' src='trustrating_stim/white_mw013.bmp'><br><font color='red'><strong>Keep</strong></font></div><div class='tc'><img class='introPic' src='trustrating_stim/white_mw012.bmp'><br><font color='red'><strong>Keep</strong></font></div><div class='tr'><img class='introPic' src='trustrating_stim/white_mw078.bmp'><br><font color='green'><strong>Share</strong></font></div></div></div>","null","ARRAY","3","trustrating_stim/white_mw013.bmp,trustrating_stim/white_mw012.bmp,trustrating_stim/white_mw078.bmp","0,0,1","Match","e","4500","","","","",""
"html-keyboard-response","162","326410","0.0-7.0-3.25","63ea63669423c84daf2c5dbd","bdp_wmem","Wed Mar 15 2023 20:10:13 GMT-0400 (Eastern Daylight Time)","510740","Match,No Match","","null","","","","","","<div class='trialBorder'><div class='vertical-center'><img src='img/fixation2_sml.jpg'</img></div></div>","null","DELAY","","","","","","","","","","",""
"html-keyboard-response","163","326678","0.0-7.0-4.25","63ea63669423c84daf2c5dbd","bdp_wmem","Wed Mar 15 2023 20:10:13 GMT-0400 (Eastern Daylight Time)","510740","Match,No Match","","266","","","","","","<div class='trialBorder'><div class='targDiv'><div class='tc'><img class='introPic' src='trustrating_stim/white_mw013.bmp'><br><font color='red'><strong>Keep</strong></font></div></div><div class='respDiv'><div class='respDivL'>Match<br>(e)</div><div class='respDivR'>No Match<br>(i)</div></div></div>","e","TARGET","3","trustrating_stim/white_mw013.bmp,trustrating_stim/white_mw012.bmp,trustrating_stim/white_mw078.bmp","0,0,1","Match","e","4500","trustrating_stim/white_mw013.bmp","red","Keep","REAL","1"
"html-keyboard-response","164","327183","0.0-7.0-5.25","63ea63669423c84daf2c5dbd","bdp_wmem","Wed Mar 15 2023 20:10:13 GMT-0400 (Eastern Daylight Time)","510740","Match,No Match","","null","","","","","","<div class='trialBorder'><div class='vertical-center'><img src='img/correct.jpg'></div><div class='respDiv'><div class='respDivL'><font style='color:orange'>Match<br>(e)</font></div><div class='respDivR'>No Match<br>(i)</div></div></div>","null","FEEDBACK","","","","","","","","","","",""
"html-keyboard-response","165","327686","0.0-7.0-1.26","63ea63669423c84daf2c5dbd","bdp_wmem","Wed Mar 15 2023 20:10:13 GMT-0400 (Eastern Daylight Time)","510740","Match,No Match","","null","","","","","","<div class='trialBorder'><div class='vertical-center'><img src='img/fixation2_sml.jpg'</img></div></div>","null","FIX","","","","","","","","","","",""
"html-keyboard-response","166","330687","0.0-7.0-2.26","63ea63669423c84daf2c5dbd","bdp_wmem","Wed Mar 15 2023 20:10:13 GMT-0400 (Eastern Daylight Time)","510740","Match,No Match","","null","","","","","","<div class='trialBorder'><div class='vertical-center'><img style='vertical-align:center; align:center' src='img/fixation2_sml.jpg'></div><div class='arrayDiv2'><div class='tl'><img class='introPic' src='trustrating_stim/white_mw085.bmp'><br><font color='green'><strong>Share</strong></font></div><div class='tr'><img class='introPic' src='trustrating_stim/white_mw038.bmp'><br><font color='red'><strong>Keep</strong></font></div></div></div>","null","ARRAY","2","trustrating_stim/white_mw085.bmp,trustrating_stim/white_mw038.bmp","1,0","Match","e","3000","","","","",""
"html-keyboard-response","167","334689","0.0-7.0-3.26","63ea63669423c84daf2c5dbd","bdp_wmem","Wed Mar 15 2023 20:10:13 GMT-0400 (Eastern Daylight Time)","510740","Match,No Match","","null","","","","","","<div class='trialBorder'><div class='vertical-center'><img src='img/fixation2_sml.jpg'</img></div></div>","null","DELAY","","","","","","","","","","",""
"html-keyboard-response","168","335084","0.0-7.0-4.26","63ea63669423c84daf2c5dbd","bdp_wmem","Wed Mar 15 2023 20:10:13 GMT-0400 (Eastern Daylight Time)","510740","Match,No Match","","394","","","","","","<div class='trialBorder'><div class='targDiv'><div class='tc'><img class='introPic' src='trustrating_stim/white_mw085.bmp'><br><font color='green'><strong>Share</strong></font></div></div><div class='respDiv'><div class='respDivL'>Match<br>(e)</div><div class='respDivR'>No Match<br>(i)</div></div></div>","e","TARGET","2","trustrating_stim/white_mw085.bmp,trustrating_stim/white_mw038.bmp","1,0","Match","e","3000","trustrating_stim/white_mw085.bmp","green","Share","REAL","1"
"html-keyboard-response","169","335586","0.0-7.0-5.26","63ea63669423c84daf2c5dbd","bdp_wmem","Wed Mar 15 2023 20:10:13 GMT-0400 (Eastern Daylight Time)","510740","Match,No Match","","null","","","","","","<div class='trialBorder'><div class='vertical-center'><img src='img/correct.jpg'></div><div class='respDiv'><div class='respDivL'><font style='color:orange'>Match<br>(e)</font></div><div class='respDivR'>No Match<br>(i)</div></div></div>","null","FEEDBACK","","","","","","","","","","",""
"html-keyboard-response","170","336088","0.0-7.0-1.27","63ea63669423c84daf2c5dbd","bdp_wmem","Wed Mar 15 2023 20:10:13 GMT-0400 (Eastern Daylight Time)","510740","Match,No Match","","null","","","","","","<div class='trialBorder'><div class='vertical-center'><img src='img/fixation2_sml.jpg'</img></div></div>","null","FIX","","","","","","","","","","",""
"html-keyboard-response","171","337590","0.0-7.0-2.27","63ea63669423c84daf2c5dbd","bdp_wmem","Wed Mar 15 2023 20:10:13 GMT-0400 (Eastern Daylight Time)","510740","Match,No Match","","null","","","","","","<div class='trialBorder'><div class='vertical-center'><img style='vertical-align:center; align:center' src='img/fixation2_sml.jpg'></div><div class='arrayDiv1'><div class='tc'><img class='introPic' src='trustrating_stim/white_mw010.bmp'><br><font color='green'><strong>Share</strong></font></div></div></div>","null","ARRAY","1","trustrating_stim/white_mw010.bmp","1","noMatchOutcome","i","1500","","","","",""
"html-keyboard-response","172","341592","0.0-7.0-3.27","63ea63669423c84daf2c5dbd","bdp_wmem","Wed Mar 15 2023 20:10:13 GMT-0400 (Eastern Daylight Time)","510740","Match,No Match","","null","","","","","","<div class='trialBorder'><div class='vertical-center'><img src='img/fixation2_sml.jpg'</img></div></div>","null","DELAY","","","","","","","","","","",""
"html-keyboard-response","173","342014","0.0-7.0-4.27","63ea63669423c84daf2c5dbd","bdp_wmem","Wed Mar 15 2023 20:10:13 GMT-0400 (Eastern Daylight Time)","510740","Match,No Match","","422","","","","","","<div class='trialBorder'><div class='targDiv'><div class='tc'><img class='introPic' src='trustrating_stim/white_mw010.bmp'><br><font color='red'><strong>Keep</strong></font></div></div><div class='respDiv'><div class='respDivL'>Match<br>(e)</div><div class='respDivR'>No Match<br>(i)</div></div></div>","e","TARGET","1","trustrating_stim/white_mw010.bmp","1","noMatchOutcome","i","1500","trustrating_stim/white_mw010.bmp","red","Keep","REAL","0"
"html-keyboard-response","174","342517","0.0-7.0-5.27","63ea63669423c84daf2c5dbd","bdp_wmem","Wed Mar 15 2023 20:10:13 GMT-0400 (Eastern Daylight Time)","510740","Match,No Match","","null","","","","","","<div class='trialBorder'><div class='vertical-center'><img src='img/error.jpg'></div><div class='respDiv'><div class='respDivL'><font style='color:orange'>Match<br>(e)</font></div><div class='respDivR'>No Match<br>(i)</div></div></div>","null","FEEDBACK","","","","","","","","","","",""
"html-keyboard-response","175","343020","0.0-7.0-1.28","63ea63669423c84daf2c5dbd","bdp_wmem","Wed Mar 15 2023 20:10:13 GMT-0400 (Eastern Daylight Time)","510740","Match,No Match","","null","","","","","","<div class='trialBorder'><div class='vertical-center'><img src='img/fixation2_sml.jpg'</img></div></div>","null","FIX","","","","","","","","","","",""
"html-keyboard-response","176","344522","0.0-7.0-2.28","63ea63669423c84daf2c5dbd","bdp_wmem","Wed Mar 15 2023 20:10:13 GMT-0400 (Eastern Daylight Time)","510740","Match,No Match","","null","","","","","","<div class='trialBorder'><div class='vertical-center'><img style='vertical-align:center; align:center' src='img/fixation2_sml.jpg'></div><div class='arrayDiv1'><div class='tc'><img class='introPic' src='trustrating_stim/white_mw070.bmp'><br><font color='red'><strong>Keep</strong></font></div></div></div>","null","ARRAY","1","trustrating_stim/white_mw070.bmp","0","Match","e","1500","","","","",""
"html-keyboard-response","177","348525","0.0-7.0-3.28","63ea63669423c84daf2c5dbd","bdp_wmem","Wed Mar 15 2023 20:10:13 GMT-0400 (Eastern Daylight Time)","510740","Match,No Match","","null","","","","","","<div class='trialBorder'><div class='vertical-center'><img src='img/fixation2_sml.jpg'</img></div></div>","null","DELAY","","","","","","","","","","",""
"html-keyboard-response","178","349018","0.0-7.0-4.28","63ea63669423c84daf2c5dbd","bdp_wmem","Wed Mar 15 2023 20:10:13 GMT-0400 (Eastern Daylight Time)","510740","Match,No Match","","491","","","","","","<div class='trialBorder'><div class='targDiv'><div class='tc'><img class='introPic' src='trustrating_stim/white_mw070.bmp'><br><font color='red'><strong>Keep</strong></font></div></div><div class='respDiv'><div class='respDivL'>Match<br>(e)</div><div class='respDivR'>No Match<br>(i)</div></div></div>","i","TARGET","1","trustrating_stim/white_mw070.bmp","0","Match","e","1500","trustrating_stim/white_mw070.bmp","red","Keep","REAL","0"
"html-keyboard-response","179","349520","0.0-7.0-5.28","63ea63669423c84daf2c5dbd","bdp_wmem","Wed Mar 15 2023 20:10:13 GMT-0400 (Eastern Daylight Time)","510740","Match,No Match","","null","","","","","","<div class='trialBorder'><div class='vertical-center'><img src='img/error.jpg'></div><div class='respDiv'><div class='respDivL'>Match<br>(e)</div><div class='respDivR'><font style='color:orange'>No Match<br>(i)</font></div></div></div>","null","FEEDBACK","","","","","","","","","","",""
"html-keyboard-response","180","350022","0.0-7.0-1.29","63ea63669423c84daf2c5dbd","bdp_wmem","Wed Mar 15 2023 20:10:13 GMT-0400 (Eastern Daylight Time)","510740","Match,No Match","","null","","","","","","<div class='trialBorder'><div class='vertical-center'><img src='img/fixation2_sml.jpg'</img></div></div>","null","FIX","","","","","","","","","","",""
"html-keyboard-response","181","354526","0.0-7.0-2.29","63ea63669423c84daf2c5dbd","bdp_wmem","Wed Mar 15 2023 20:10:13 GMT-0400 (Eastern Daylight Time)","510740","Match,No Match","","null","","","","","","<div class='trialBorder'><div class='vertical-center'><img style='vertical-align:center; align:center' src='img/fixation2_sml.jpg'></div><div class='arrayDiv3'><div class='tl'><img class='introPic' src='trustrating_stim/white_mw092.bmp'><br><font color='red'><strong>Keep</strong></font></div><div class='tc'><img class='introPic' src='trustrating_stim/white_mw042.bmp'><br><font color='red'><strong>Keep</strong></font></div><div class='tr'><img class='introPic' src='trustrating_stim/white_mw078.bmp'><br><font color='green'><strong>Share</strong></font></div></div></div>","null","ARRAY","3","trustrating_stim/white_mw092.bmp,trustrating_stim/white_mw042.bmp,trustrating_stim/white_mw078.bmp","0,0,1","noMatchFace","i","4500","","","","",""
"html-keyboard-response","182","358527","0.0-7.0-3.29","63ea63669423c84daf2c5dbd","bdp_wmem","Wed Mar 15 2023 20:10:13 GMT-0400 (Eastern Daylight Time)","510740","Match,No Match","","null","","","","","","<div class='trialBorder'><div class='vertical-center'><img src='img/fixation2_sml.jpg'</img></div></div>","null","DELAY","","","","","","","","","","",""
"html-keyboard-response","183","358802","0.0-7.0-4.29","63ea63669423c84daf2c5dbd","bdp_wmem","Wed Mar 15 2023 20:10:13 GMT-0400 (Eastern Daylight Time)","510740","Match,No Match","","274","","","","","","<div class='trialBorder'><div class='targDiv'><div class='tc'><img class='introPic' src='trustrating_stim/white_mw085.bmp'><br><font color='red'><strong>Keep</strong></font></div></div><div class='respDiv'><div class='respDivL'>Match<br>(e)</div><div class='respDivR'>No Match<br>(i)</div></div></div>","i","TARGET","3","trustrating_stim/white_mw092.bmp,trustrating_stim/white_mw042.bmp,trustrating_stim/white_mw078.bmp","0,0,1","noMatchFace","i","4500","trustrating_stim/white_mw085.bmp","red","Keep","REAL","1"
"html-keyboard-response","184","359303","0.0-7.0-5.29","63ea63669423c84daf2c5dbd","bdp_wmem","Wed Mar 15 2023 20:10:13 GMT-0400 (Eastern Daylight Time)","510740","Match,No Match","","null","","","","","","<div class='trialBorder'><div class='vertical-center'><img src='img/correct.jpg'></div><div class='respDiv'><div class='respDivL'>Match<br>(e)</div><div class='respDivR'><font style='color:orange'>No Match<br>(i)</font></div></div></div>","null","FEEDBACK","","","","","","","","","","",""
"html-keyboard-response","185","359804","0.0-7.0-1.30","63ea63669423c84daf2c5dbd","bdp_wmem","Wed Mar 15 2023 20:10:13 GMT-0400 (Eastern Daylight Time)","510740","Match,No Match","","null","","","","","","<div class='trialBorder'><div class='vertical-center'><img src='img/fixation2_sml.jpg'</img></div></div>","null","FIX","","","","","","","","","","",""
"html-keyboard-response","186","364309","0.0-7.0-2.30","63ea63669423c84daf2c5dbd","bdp_wmem","Wed Mar 15 2023 20:10:13 GMT-0400 (Eastern Daylight Time)","510740","Match,No Match","","null","","","","","","<div class='trialBorder'><div class='vertical-center'><img style='vertical-align:center; align:center' src='img/fixation2_sml.jpg'></div><div class='arrayDiv3'><div class='tl'><img class='introPic' src='trustrating_stim/white_mw091.bmp'><br><font color='red'><strong>Keep</strong></font></div><div class='tc'><img class='introPic' src='trustrating_stim/white_mw085.bmp'><br><font color='green'><strong>Share</strong></font></div><div class='tr'><img class='introPic' src='trustrating_stim/white_mw038.bmp'><br><font color='red'><strong>Keep</strong></font></div></div></div>","null","ARRAY","3","trustrating_stim/white_mw091.bmp,trustrating_stim/white_mw085.bmp,trustrating_stim/white_mw038.bmp","0,1,0","noMatchFace","i","4500","","","","",""
"html-keyboard-response","187","368312","0.0-7.0-3.30","63ea63669423c84daf2c5dbd","bdp_wmem","Wed Mar 15 2023 20:10:13 GMT-0400 (Eastern Daylight Time)","510740","Match,No Match","","null","","","","","","<div class='trialBorder'><div class='vertical-center'><img src='img/fixation2_sml.jpg'</img></div></div>","null","DELAY","","","","","","","","","","",""
