"trial_type","trial_index","time_elapsed","internal_node_id","subject_id","task","startTime","totalTime","labels","view_history","rt","event","trial","time","trialtype","success","stimulus","key_press","stimType","arraySize","arrayFaces","arrayOutcomes","matchType","corrResp","arrayDur","targFace","targCol","targOutcome","trialType","corr"
"pavlovia","0","4","0.0-0.0","5edc0583f16dff0c806bdbb6","bdp_wmem","Sun Mar 12 2023 23:15:52 GMT-0400 (Eastern Daylight Time)","564870","Match,No Match","","","","","","","","","","","","","","","","","","","","",""
"instructions","1","2360","0.0-1.0","5edc0583f16dff0c806bdbb6","bdp_wmem","Sun Mar 12 2023 23:15:52 GMT-0400 (Eastern Daylight Time)","564870","Match,No Match","[{""page_index"":0,""viewing_time"":2355}]","2356","","","","","","","","","","","","","","","","","","",""
"","","","","5edc0583f16dff0c806bdbb6","bdp_wmem","Sun Mar 12 2023 23:15:52 GMT-0400 (Eastern Daylight Time)","564870","Match,No Match","","","fullscreenenter","2","3507","fullscreenenter","","","","","","","","","","","","","","",""
"fullscreen","2","4457","0.0-2.0","5edc0583f16dff0c806bdbb6","bdp_wmem","Sun Mar 12 2023 23:15:52 GMT-0400 (Eastern Daylight Time)","564870","Match,No Match","","","","","","","true","","","","","","","","","","","","","",""
"instructions","3","89344","0.0-4.0","5edc0583f16dff0c806bdbb6","bdp_wmem","Sun Mar 12 2023 23:15:52 GMT-0400 (Eastern Daylight Time)","564870","Match,No Match","[{""page_index"":0,""viewing_time"":21676},{""page_index"":1,""viewing_time"":25665},{""page_index"":2,""viewing_time"":4601},{""page_index"":3,""viewing_time"":3238},{""page_index"":4,""viewing_time"":29706}]","84886","","","","","","","","","","","","","","","","","","",""
"html-keyboard-response","4","89847","0.0-5.0-1.0","5edc0583f16dff0c806bdbb6","bdp_wmem","Sun Mar 12 2023 23:15:52 GMT-0400 (Eastern Daylight Time)","564870","Match,No Match","","null","","","","","","<div class='trialBorder'><div class='vertical-center'><img src='img/fixation2_sml.jpg'</img></div></div>","null","FIX","","","","","","","","","","",""
"html-keyboard-response","5","92851","0.0-5.0-2.0","5edc0583f16dff0c806bdbb6","bdp_wmem","Sun Mar 12 2023 23:15:52 GMT-0400 (Eastern Daylight Time)","564870","Match,No Match","","null","","","","","","<div class='trialBorder'><div class='vertical-center'><img style='vertical-align:center; align:center' src='img/fixation2_sml.jpg'></div><div class='arrayDiv2'><div class='tl'><img class='introPic' src='trustrating_stim/white_mw038.bmp'><br><font color='green'><strong>Share</strong></font></div><div class='tr'><img class='introPic' src='trustrating_stim/white_mw010.bmp'><br><font color='red'><strong>Keep</strong></font></div></div></div>","null","ARRAY","2","trustrating_stim/white_mw038.bmp,trustrating_stim/white_mw010.bmp","1,0","noMatchFace","i","3000","","","","",""
"html-keyboard-response","6","96853","0.0-5.0-3.0","5edc0583f16dff0c806bdbb6","bdp_wmem","Sun Mar 12 2023 23:15:52 GMT-0400 (Eastern Daylight Time)","564870","Match,No Match","","null","","","","","","<div class='trialBorder'><div class='vertical-center'><img src='img/fixation2_sml.jpg'</img></div></div>","null","DELAY","","","","","","","","","","",""
"html-keyboard-response","7","97970","0.0-5.0-4.0","5edc0583f16dff0c806bdbb6","bdp_wmem","Sun Mar 12 2023 23:15:52 GMT-0400 (Eastern Daylight Time)","564870","Match,No Match","","1115","","","","","","<div class='trialBorder'><div class='targDiv'><div class='tc'><img class='introPic' src='trustrating_stim/white_mw040.bmp'><br><font color='red'><strong>Keep</strong></font></div></div><div class='respDiv'><div class='respDivL'>Match<br>(e)</div><div class='respDivR'>No Match<br>(i)</div></div></div>","i","TARGET","2","trustrating_stim/white_mw038.bmp,trustrating_stim/white_mw010.bmp","1,0","noMatchFace","i","3000","trustrating_stim/white_mw040.bmp","red","Keep","PRACTICE","1"
"html-keyboard-response","8","98473","0.0-5.0-5.0","5edc0583f16dff0c806bdbb6","bdp_wmem","Sun Mar 12 2023 23:15:52 GMT-0400 (Eastern Daylight Time)","564870","Match,No Match","","null","","","","","","<div class='trialBorder'><div class='vertical-center'><img src='img/correct.jpg'></div><div class='respDiv'><div class='respDivL'>Match<br>(e)</div><div class='respDivR'><font style='color:orange'>No Match<br>(i)</font></div></div></div>","null","FEEDBACK","","","","","","","","","","",""
"html-keyboard-response","9","98976","0.0-5.0-1.1","5edc0583f16dff0c806bdbb6","bdp_wmem","Sun Mar 12 2023 23:15:52 GMT-0400 (Eastern Daylight Time)","564870","Match,No Match","","null","","","","","","<div class='trialBorder'><div class='vertical-center'><img src='img/fixation2_sml.jpg'</img></div></div>","null","FIX","","","","","","","","","","",""
"html-keyboard-response","10","100478","0.0-5.0-2.1","5edc0583f16dff0c806bdbb6","bdp_wmem","Sun Mar 12 2023 23:15:52 GMT-0400 (Eastern Daylight Time)","564870","Match,No Match","","null","","","","","","<div class='trialBorder'><div class='vertical-center'><img style='vertical-align:center; align:center' src='img/fixation2_sml.jpg'></div><div class='arrayDiv1'><div class='tc'><img class='introPic' src='trustrating_stim/white_mw070.bmp'><br><font color='green'><strong>Share</strong></font></div></div></div>","null","ARRAY","1","trustrating_stim/white_mw070.bmp","1","noMatchFace","i","1500","","","","",""
"html-keyboard-response","11","104481","0.0-5.0-3.1","5edc0583f16dff0c806bdbb6","bdp_wmem","Sun Mar 12 2023 23:15:52 GMT-0400 (Eastern Daylight Time)","564870","Match,No Match","","null","","","","","","<div class='trialBorder'><div class='vertical-center'><img src='img/fixation2_sml.jpg'</img></div></div>","null","DELAY","","","","","","","","","","",""
"html-keyboard-response","12","106048","0.0-5.0-4.1","5edc0583f16dff0c806bdbb6","bdp_wmem","Sun Mar 12 2023 23:15:52 GMT-0400 (Eastern Daylight Time)","564870","Match,No Match","","1564","","","","","","<div class='trialBorder'><div class='targDiv'><div class='tc'><img class='introPic' src='trustrating_stim/white_mw042.bmp'><br><font color='green'><strong>Share</strong></font></div></div><div class='respDiv'><div class='respDivL'>Match<br>(e)</div><div class='respDivR'>No Match<br>(i)</div></div></div>","i","TARGET","1","trustrating_stim/white_mw070.bmp","1","noMatchFace","i","1500","trustrating_stim/white_mw042.bmp","green","Share","PRACTICE","1"
"html-keyboard-response","13","106549","0.0-5.0-5.1","5edc0583f16dff0c806bdbb6","bdp_wmem","Sun Mar 12 2023 23:15:52 GMT-0400 (Eastern Daylight Time)","564870","Match,No Match","","null","","","","","","<div class='trialBorder'><div class='vertical-center'><img src='img/correct.jpg'></div><div class='respDiv'><div class='respDivL'>Match<br>(e)</div><div class='respDivR'><font style='color:orange'>No Match<br>(i)</font></div></div></div>","null","FEEDBACK","","","","","","","","","","",""
"html-keyboard-response","14","107051","0.0-5.0-1.2","5edc0583f16dff0c806bdbb6","bdp_wmem","Sun Mar 12 2023 23:15:52 GMT-0400 (Eastern Daylight Time)","564870","Match,No Match","","null","","","","","","<div class='trialBorder'><div class='vertical-center'><img src='img/fixation2_sml.jpg'</img></div></div>","null","FIX","","","","","","","","","","",""
"html-keyboard-response","15","111553","0.0-5.0-2.2","5edc0583f16dff0c806bdbb6","bdp_wmem","Sun Mar 12 2023 23:15:52 GMT-0400 (Eastern Daylight Time)","564870","Match,No Match","","null","","","","","","<div class='trialBorder'><div class='vertical-center'><img style='vertical-align:center; align:center' src='img/fixation2_sml.jpg'></div><div class='arrayDiv3'><div class='tl'><img class='introPic' src='trustrating_stim/white_mw042.bmp'><br><font color='red'><strong>Keep</strong></font></div><div class='tc'><img class='introPic' src='trustrating_stim/white_mw085.bmp'><br><font color='green'><strong>Share</strong></font></div><div class='tr'><img class='introPic' src='trustrating_stim/white_mw038.bmp'><br><font color='red'><strong>Keep</strong></font></div></div></div>","null","ARRAY","3","trustrating_stim/white_mw042.bmp,trustrating_stim/white_mw085.bmp,trustrating_stim/white_mw038.bmp","0,1,0","noMatchOutcome","i","4500","","","","",""
"html-keyboard-response","16","115556","0.0-5.0-3.2","5edc0583f16dff0c806bdbb6","bdp_wmem","Sun Mar 12 2023 23:15:52 GMT-0400 (Eastern Daylight Time)","564870","Match,No Match","","null","","","","","","<div class='trialBorder'><div class='vertical-center'><img src='img/fixation2_sml.jpg'</img></div></div>","null","DELAY","","","","","","","","","","",""
"html-keyboard-response","17","116813","0.0-5.0-4.2","5edc0583f16dff0c806bdbb6","bdp_wmem","Sun Mar 12 2023 23:15:52 GMT-0400 (Eastern Daylight Time)","564870","Match,No Match","","1255","","","","","","<div class='trialBorder'><div class='targDiv'><div class='tc'><img class='introPic' src='trustrating_stim/white_mw038.bmp'><br><font color='green'><strong>Share</strong></font></div></div><div class='respDiv'><div class='respDivL'>Match<br>(e)</div><div class='respDivR'>No Match<br>(i)</div></div></div>","i","TARGET","3","trustrating_stim/white_mw042.bmp,trustrating_stim/white_mw085.bmp,trustrating_stim/white_mw038.bmp","0,1,0","noMatchOutcome","i","4500","trustrating_stim/white_mw038.bmp","green","Share","PRACTICE","1"
"html-keyboard-response","18","117316","0.0-5.0-5.2","5edc0583f16dff0c806bdbb6","bdp_wmem","Sun Mar 12 2023 23:15:52 GMT-0400 (Eastern Daylight Time)","564870","Match,No Match","","null","","","","","","<div class='trialBorder'><div class='vertical-center'><img src='img/correct.jpg'></div><div class='respDiv'><div class='respDivL'>Match<br>(e)</div><div class='respDivR'><font style='color:orange'>No Match<br>(i)</font></div></div></div>","null","FEEDBACK","","","","","","","","","","",""
"html-keyboard-response","19","117818","0.0-5.0-1.3","5edc0583f16dff0c806bdbb6","bdp_wmem","Sun Mar 12 2023 23:15:52 GMT-0400 (Eastern Daylight Time)","564870","Match,No Match","","null","","","","","","<div class='trialBorder'><div class='vertical-center'><img src='img/fixation2_sml.jpg'</img></div></div>","null","FIX","","","","","","","","","","",""
"html-keyboard-response","20","119320","0.0-5.0-2.3","5edc0583f16dff0c806bdbb6","bdp_wmem","Sun Mar 12 2023 23:15:52 GMT-0400 (Eastern Daylight Time)","564870","Match,No Match","","null","","","","","","<div class='trialBorder'><div class='vertical-center'><img style='vertical-align:center; align:center' src='img/fixation2_sml.jpg'></div><div class='arrayDiv1'><div class='tc'><img class='introPic' src='trustrating_stim/white_mw012.bmp'><br><font color='red'><strong>Keep</strong></font></div></div></div>","null","ARRAY","1","trustrating_stim/white_mw012.bmp","0","Match","e","1500","","","","",""
"html-keyboard-response","21","123322","0.0-5.0-3.3","5edc0583f16dff0c806bdbb6","bdp_wmem","Sun Mar 12 2023 23:15:52 GMT-0400 (Eastern Daylight Time)","564870","Match,No Match","","null","","","","","","<div class='trialBorder'><div class='vertical-center'><img src='img/fixation2_sml.jpg'</img></div></div>","null","DELAY","","","","","","","","","","",""
"html-keyboard-response","22","124302","0.0-5.0-4.3","5edc0583f16dff0c806bdbb6","bdp_wmem","Sun Mar 12 2023 23:15:52 GMT-0400 (Eastern Daylight Time)","564870","Match,No Match","","979","","","","","","<div class='trialBorder'><div class='targDiv'><div class='tc'><img class='introPic' src='trustrating_stim/white_mw012.bmp'><br><font color='red'><strong>Keep</strong></font></div></div><div class='respDiv'><div class='respDivL'>Match<br>(e)</div><div class='respDivR'>No Match<br>(i)</div></div></div>","e","TARGET","1","trustrating_stim/white_mw012.bmp","0","Match","e","1500","trustrating_stim/white_mw012.bmp","red","Keep","PRACTICE","1"
"html-keyboard-response","23","124804","0.0-5.0-5.3","5edc0583f16dff0c806bdbb6","bdp_wmem","Sun Mar 12 2023 23:15:52 GMT-0400 (Eastern Daylight Time)","564870","Match,No Match","","null","","","","","","<div class='trialBorder'><div class='vertical-center'><img src='img/correct.jpg'></div><div class='respDiv'><div class='respDivL'><font style='color:orange'>Match<br>(e)</font></div><div class='respDivR'>No Match<br>(i)</div></div></div>","null","FEEDBACK","","","","","","","","","","",""
"html-keyboard-response","24","125306","0.0-5.0-1.4","5edc0583f16dff0c806bdbb6","bdp_wmem","Sun Mar 12 2023 23:15:52 GMT-0400 (Eastern Daylight Time)","564870","Match,No Match","","null","","","","","","<div class='trialBorder'><div class='vertical-center'><img src='img/fixation2_sml.jpg'</img></div></div>","null","FIX","","","","","","","","","","",""
"html-keyboard-response","25","128309","0.0-5.0-2.4","5edc0583f16dff0c806bdbb6","bdp_wmem","Sun Mar 12 2023 23:15:52 GMT-0400 (Eastern Daylight Time)","564870","Match,No Match","","null","","","","","","<div class='trialBorder'><div class='vertical-center'><img style='vertical-align:center; align:center' src='img/fixation2_sml.jpg'></div><div class='arrayDiv2'><div class='tl'><img class='introPic' src='trustrating_stim/white_mw013.bmp'><br><font color='red'><strong>Keep</strong></font></div><div class='tr'><img class='introPic' src='trustrating_stim/white_mw010.bmp'><br><font color='green'><strong>Share</strong></font></div></div></div>","null","ARRAY","2","trustrating_stim/white_mw013.bmp,trustrating_stim/white_mw010.bmp","0,1","Match","e","3000","","","","",""
"html-keyboard-response","26","132311","0.0-5.0-3.4","5edc0583f16dff0c806bdbb6","bdp_wmem","Sun Mar 12 2023 23:15:52 GMT-0400 (Eastern Daylight Time)","564870","Match,No Match","","null","","","","","","<div class='trialBorder'><div class='vertical-center'><img src='img/fixation2_sml.jpg'</img></div></div>","null","DELAY","","","","","","","","","","",""
"html-keyboard-response","27","133270","0.0-5.0-4.4","5edc0583f16dff0c806bdbb6","bdp_wmem","Sun Mar 12 2023 23:15:52 GMT-0400 (Eastern Daylight Time)","564870","Match,No Match","","957","","","","","","<div class='trialBorder'><div class='targDiv'><div class='tc'><img class='introPic' src='trustrating_stim/white_mw013.bmp'><br><font color='red'><strong>Keep</strong></font></div></div><div class='respDiv'><div class='respDivL'>Match<br>(e)</div><div class='respDivR'>No Match<br>(i)</div></div></div>","i","TARGET","2","trustrating_stim/white_mw013.bmp,trustrating_stim/white_mw010.bmp","0,1","Match","e","3000","trustrating_stim/white_mw013.bmp","red","Keep","PRACTICE","0"
"html-keyboard-response","28","133771","0.0-5.0-5.4","5edc0583f16dff0c806bdbb6","bdp_wmem","Sun Mar 12 2023 23:15:52 GMT-0400 (Eastern Daylight Time)","564870","Match,No Match","","null","","","","","","<div class='trialBorder'><div class='vertical-center'><img src='img/error.jpg'></div><div class='respDiv'><div class='respDivL'>Match<br>(e)</div><div class='respDivR'><font style='color:orange'>No Match<br>(i)</font></div></div></div>","null","FEEDBACK","","","","","","","","","","",""
"html-keyboard-response","29","134274","0.0-5.0-1.5","5edc0583f16dff0c806bdbb6","bdp_wmem","Sun Mar 12 2023 23:15:52 GMT-0400 (Eastern Daylight Time)","564870","Match,No Match","","null","","","","","","<div class='trialBorder'><div class='vertical-center'><img src='img/fixation2_sml.jpg'</img></div></div>","null","FIX","","","","","","","","","","",""
"html-keyboard-response","30","138776","0.0-5.0-2.5","5edc0583f16dff0c806bdbb6","bdp_wmem","Sun Mar 12 2023 23:15:52 GMT-0400 (Eastern Daylight Time)","564870","Match,No Match","","null","","","","","","<div class='trialBorder'><div class='vertical-center'><img style='vertical-align:center; align:center' src='img/fixation2_sml.jpg'></div><div class='arrayDiv3'><div class='tl'><img class='introPic' src='trustrating_stim/white_mw078.bmp'><br><font color='green'><strong>Share</strong></font></div><div class='tc'><img class='introPic' src='trustrating_stim/white_mw012.bmp'><br><font color='green'><strong>Share</strong></font></div><div class='tr'><img class='introPic' src='trustrating_stim/white_mw013.bmp'><br><font color='red'><strong>Keep</strong></font></div></div></div>","null","ARRAY","3","trustrating_stim/white_mw078.bmp,trustrating_stim/white_mw012.bmp,trustrating_stim/white_mw013.bmp","1,1,0","Match","e","4500","","","","",""
"html-keyboard-response","31","142778","0.0-5.0-3.5","5edc0583f16dff0c806bdbb6","bdp_wmem","Sun Mar 12 2023 23:15:52 GMT-0400 (Eastern Daylight Time)","564870","Match,No Match","","null","","","","","","<div class='trialBorder'><div class='vertical-center'><img src='img/fixation2_sml.jpg'</img></div></div>","null","DELAY","","","","","","","","","","",""
"html-keyboard-response","32","143783","0.0-5.0-4.5","5edc0583f16dff0c806bdbb6","bdp_wmem","Sun Mar 12 2023 23:15:52 GMT-0400 (Eastern Daylight Time)","564870","Match,No Match","","1003","","","","","","<div class='trialBorder'><div class='targDiv'><div class='tc'><img class='introPic' src='trustrating_stim/white_mw012.bmp'><br><font color='green'><strong>Share</strong></font></div></div><div class='respDiv'><div class='respDivL'>Match<br>(e)</div><div class='respDivR'>No Match<br>(i)</div></div></div>","i","TARGET","3","trustrating_stim/white_mw078.bmp,trustrating_stim/white_mw012.bmp,trustrating_stim/white_mw013.bmp","1,1,0","Match","e","4500","trustrating_stim/white_mw012.bmp","green","Share","PRACTICE","0"
"html-keyboard-response","33","144285","0.0-5.0-5.5","5edc0583f16dff0c806bdbb6","bdp_wmem","Sun Mar 12 2023 23:15:52 GMT-0400 (Eastern Daylight Time)","564870","Match,No Match","","null","","","","","","<div class='trialBorder'><div class='vertical-center'><img src='img/error.jpg'></div><div class='respDiv'><div class='respDivL'>Match<br>(e)</div><div class='respDivR'><font style='color:orange'>No Match<br>(i)</font></div></div></div>","null","FEEDBACK","","","","","","","","","","",""
"instructions","34","147680","0.0-6.0","5edc0583f16dff0c806bdbb6","bdp_wmem","Sun Mar 12 2023 23:15:52 GMT-0400 (Eastern Daylight Time)","564870","Match,No Match","[{""page_index"":0,""viewing_time"":3394}]","3395","","","","","","","","","","","","","","","","","","",""
"html-keyboard-response","35","148181","0.0-7.0-1.0","5edc0583f16dff0c806bdbb6","bdp_wmem","Sun Mar 12 2023 23:15:52 GMT-0400 (Eastern Daylight Time)","564870","Match,No Match","","null","","","","","","<div class='trialBorder'><div class='vertical-center'><img src='img/fixation2_sml.jpg'</img></div></div>","null","FIX","","","","","","","","","","",""
"html-keyboard-response","36","149684","0.0-7.0-2.0","5edc0583f16dff0c806bdbb6","bdp_wmem","Sun Mar 12 2023 23:15:52 GMT-0400 (Eastern Daylight Time)","564870","Match,No Match","","null","","","","","","<div class='trialBorder'><div class='vertical-center'><img style='vertical-align:center; align:center' src='img/fixation2_sml.jpg'></div><div class='arrayDiv1'><div class='tc'><img class='introPic' src='trustrating_stim/white_mw091.bmp'><br><font color='red'><strong>Keep</strong></font></div></div></div>","null","ARRAY","1","trustrating_stim/white_mw091.bmp","0","Match","e","1500","","","","",""
"html-keyboard-response","37","153686","0.0-7.0-3.0","5edc0583f16dff0c806bdbb6","bdp_wmem","Sun Mar 12 2023 23:15:52 GMT-0400 (Eastern Daylight Time)","564870","Match,No Match","","null","","","","","","<div class='trialBorder'><div class='vertical-center'><img src='img/fixation2_sml.jpg'</img></div></div>","null","DELAY","","","","","","","","","","",""
"html-keyboard-response","38","154427","0.0-7.0-4.0","5edc0583f16dff0c806bdbb6","bdp_wmem","Sun Mar 12 2023 23:15:52 GMT-0400 (Eastern Daylight Time)","564870","Match,No Match","","739","","","","","","<div class='trialBorder'><div class='targDiv'><div class='tc'><img class='introPic' src='trustrating_stim/white_mw091.bmp'><br><font color='red'><strong>Keep</strong></font></div></div><div class='respDiv'><div class='respDivL'>Match<br>(e)</div><div class='respDivR'>No Match<br>(i)</div></div></div>","e","TARGET","1","trustrating_stim/white_mw091.bmp","0","Match","e","1500","trustrating_stim/white_mw091.bmp","red","Keep","REAL","1"
"html-keyboard-response","39","154930","0.0-7.0-5.0","5edc0583f16dff0c806bdbb6","bdp_wmem","Sun Mar 12 2023 23:15:52 GMT-0400 (Eastern Daylight Time)","564870","Match,No Match","","null","","","","","","<div class='trialBorder'><div class='vertical-center'><img src='img/correct.jpg'></div><div class='respDiv'><div class='respDivL'><font style='color:orange'>Match<br>(e)</font></div><div class='respDivR'>No Match<br>(i)</div></div></div>","null","FEEDBACK","","","","","","","","","","",""
"html-keyboard-response","40","155432","0.0-7.0-1.1","5edc0583f16dff0c806bdbb6","bdp_wmem","Sun Mar 12 2023 23:15:52 GMT-0400 (Eastern Daylight Time)","564870","Match,No Match","","null","","","","","","<div class='trialBorder'><div class='vertical-center'><img src='img/fixation2_sml.jpg'</img></div></div>","null","FIX","","","","","","","","","","",""
"html-keyboard-response","41","156935","0.0-7.0-2.1","5edc0583f16dff0c806bdbb6","bdp_wmem","Sun Mar 12 2023 23:15:52 GMT-0400 (Eastern Daylight Time)","564870","Match,No Match","","null","","","","","","<div class='trialBorder'><div class='vertical-center'><img style='vertical-align:center; align:center' src='img/fixation2_sml.jpg'></div><div class='arrayDiv1'><div class='tc'><img class='introPic' src='trustrating_stim/white_mw092.bmp'><br><font color='green'><strong>Share</strong></font></div></div></div>","null","ARRAY","1","trustrating_stim/white_mw092.bmp","1","noMatchFace","i","1500","","","","",""
"html-keyboard-response","42","160937","0.0-7.0-3.1","5edc0583f16dff0c806bdbb6","bdp_wmem","Sun Mar 12 2023 23:15:52 GMT-0400 (Eastern Daylight Time)","564870","Match,No Match","","null","","","","","","<div class='trialBorder'><div class='vertical-center'><img src='img/fixation2_sml.jpg'</img></div></div>","null","DELAY","","","","","","","","","","",""
"html-keyboard-response","43","161732","0.0-7.0-4.1","5edc0583f16dff0c806bdbb6","bdp_wmem","Sun Mar 12 2023 23:15:52 GMT-0400 (Eastern Daylight Time)","564870","Match,No Match","","793","","","","","","<div class='trialBorder'><div class='targDiv'><div class='tc'><img class='introPic' src='trustrating_stim/white_mw042.bmp'><br><font color='green'><strong>Share</strong></font></div></div><div class='respDiv'><div class='respDivL'>Match<br>(e)</div><div class='respDivR'>No Match<br>(i)</div></div></div>","e","TARGET","1","trustrating_stim/white_mw092.bmp","1","noMatchFace","i","1500","trustrating_stim/white_mw042.bmp","green","Share","REAL","0"
"html-keyboard-response","44","162234","0.0-7.0-5.1","5edc0583f16dff0c806bdbb6","bdp_wmem","Sun Mar 12 2023 23:15:52 GMT-0400 (Eastern Daylight Time)","564870","Match,No Match","","null","","","","","","<div class='trialBorder'><div class='vertical-center'><img src='img/error.jpg'></div><div class='respDiv'><div class='respDivL'><font style='color:orange'>Match<br>(e)</font></div><div class='respDivR'>No Match<br>(i)</div></div></div>","null","FEEDBACK","","","","","","","","","","",""
"html-keyboard-response","45","162738","0.0-7.0-1.2","5edc0583f16dff0c806bdbb6","bdp_wmem","Sun Mar 12 2023 23:15:52 GMT-0400 (Eastern Daylight Time)","564870","Match,No Match","","null","","","","","","<div class='trialBorder'><div class='vertical-center'><img src='img/fixation2_sml.jpg'</img></div></div>","null","FIX","","","","","","","","","","",""
"html-keyboard-response","46","165741","0.0-7.0-2.2","5edc0583f16dff0c806bdbb6","bdp_wmem","Sun Mar 12 2023 23:15:52 GMT-0400 (Eastern Daylight Time)","564870","Match,No Match","","null","","","","","","<div class='trialBorder'><div class='vertical-center'><img style='vertical-align:center; align:center' src='img/fixation2_sml.jpg'></div><div class='arrayDiv2'><div class='tl'><img class='introPic' src='trustrating_stim/white_mw042.bmp'><br><font color='red'><strong>Keep</strong></font></div><div class='tr'><img class='introPic' src='trustrating_stim/white_mw010.bmp'><br><font color='green'><strong>Share</strong></font></div></div></div>","null","ARRAY","2","trustrating_stim/white_mw042.bmp,trustrating_stim/white_mw010.bmp","0,1","noMatchFace","i","3000","","","","",""
"html-keyboard-response","47","169744","0.0-7.0-3.2","5edc0583f16dff0c806bdbb6","bdp_wmem","Sun Mar 12 2023 23:15:52 GMT-0400 (Eastern Daylight Time)","564870","Match,No Match","","null","","","","","","<div class='trialBorder'><div class='vertical-center'><img src='img/fixation2_sml.jpg'</img></div></div>","null","DELAY","","","","","","","","","","",""
"html-keyboard-response","48","171253","0.0-7.0-4.2","5edc0583f16dff0c806bdbb6","bdp_wmem","Sun Mar 12 2023 23:15:52 GMT-0400 (Eastern Daylight Time)","564870","Match,No Match","","1508","","","","","","<div class='trialBorder'><div class='targDiv'><div class='tc'><img class='introPic' src='trustrating_stim/white_mw003.bmp'><br><font color='red'><strong>Keep</strong></font></div></div><div class='respDiv'><div class='respDivL'>Match<br>(e)</div><div class='respDivR'>No Match<br>(i)</div></div></div>","i","TARGET","2","trustrating_stim/white_mw042.bmp,trustrating_stim/white_mw010.bmp","0,1","noMatchFace","i","3000","trustrating_stim/white_mw003.bmp","red","Keep","REAL","1"
"html-keyboard-response","49","171756","0.0-7.0-5.2","5edc0583f16dff0c806bdbb6","bdp_wmem","Sun Mar 12 2023 23:15:52 GMT-0400 (Eastern Daylight Time)","564870","Match,No Match","","null","","","","","","<div class='trialBorder'><div class='vertical-center'><img src='img/correct.jpg'></div><div class='respDiv'><div class='respDivL'>Match<br>(e)</div><div class='respDivR'><font style='color:orange'>No Match<br>(i)</font></div></div></div>","null","FEEDBACK","","","","","","","","","","",""
"html-keyboard-response","50","172257","0.0-7.0-1.3","5edc0583f16dff0c806bdbb6","bdp_wmem","Sun Mar 12 2023 23:15:52 GMT-0400 (Eastern Daylight Time)","564870","Match,No Match","","null","","","","","","<div class='trialBorder'><div class='vertical-center'><img src='img/fixation2_sml.jpg'</img></div></div>","null","FIX","","","","","","","","","","",""
"html-keyboard-response","51","176761","0.0-7.0-2.3","5edc0583f16dff0c806bdbb6","bdp_wmem","Sun Mar 12 2023 23:15:52 GMT-0400 (Eastern Daylight Time)","564870","Match,No Match","","null","","","","","","<div class='trialBorder'><div class='vertical-center'><img style='vertical-align:center; align:center' src='img/fixation2_sml.jpg'></div><div class='arrayDiv3'><div class='tl'><img class='introPic' src='trustrating_stim/white_mw085.bmp'><br><font color='green'><strong>Share</strong></font></div><div class='tc'><img class='introPic' src='trustrating_stim/white_mw070.bmp'><br><font color='green'><strong>Share</strong></font></div><div class='tr'><img class='introPic' src='trustrating_stim/white_mw013.bmp'><br><font color='red'><strong>Keep</strong></font></div></div></div>","null","ARRAY","3","trustrating_stim/white_mw085.bmp,trustrating_stim/white_mw070.bmp,trustrating_stim/white_mw013.bmp","1,1,0","noMatchOutcome","i","4500","","","","",""
"html-keyboard-response","52","180763","0.0-7.0-3.3","5edc0583f16dff0c806bdbb6","bdp_wmem","Sun Mar 12 2023 23:15:52 GMT-0400 (Eastern Daylight Time)","564870","Match,No Match","","null","","","","","","<div class='trialBorder'><div class='vertical-center'><img src='img/fixation2_sml.jpg'</img></div></div>","null","DELAY","","","","","","","","","","",""
"html-keyboard-response","53","181987","0.0-7.0-4.3","5edc0583f16dff0c806bdbb6","bdp_wmem","Sun Mar 12 2023 23:15:52 GMT-0400 (Eastern Daylight Time)","564870","Match,No Match","","1221","","","","","","<div class='trialBorder'><div class='targDiv'><div class='tc'><img class='introPic' src='trustrating_stim/white_mw085.bmp'><br><font color='red'><strong>Keep</strong></font></div></div><div class='respDiv'><div class='respDivL'>Match<br>(e)</div><div class='respDivR'>No Match<br>(i)</div></div></div>","e","TARGET","3","trustrating_stim/white_mw085.bmp,trustrating_stim/white_mw070.bmp,trustrating_stim/white_mw013.bmp","1,1,0","noMatchOutcome","i","4500","trustrating_stim/white_mw085.bmp","red","Keep","REAL","0"
"html-keyboard-response","54","182489","0.0-7.0-5.3","5edc0583f16dff0c806bdbb6","bdp_wmem","Sun Mar 12 2023 23:15:52 GMT-0400 (Eastern Daylight Time)","564870","Match,No Match","","null","","","","","","<div class='trialBorder'><div class='vertical-center'><img src='img/error.jpg'></div><div class='respDiv'><div class='respDivL'><font style='color:orange'>Match<br>(e)</font></div><div class='respDivR'>No Match<br>(i)</div></div></div>","null","FEEDBACK","","","","","","","","","","",""
"html-keyboard-response","55","182991","0.0-7.0-1.4","5edc0583f16dff0c806bdbb6","bdp_wmem","Sun Mar 12 2023 23:15:52 GMT-0400 (Eastern Daylight Time)","564870","Match,No Match","","null","","","","","","<div class='trialBorder'><div class='vertical-center'><img src='img/fixation2_sml.jpg'</img></div></div>","null","FIX","","","","","","","","","","",""
"html-keyboard-response","56","185994","0.0-7.0-2.4","5edc0583f16dff0c806bdbb6","bdp_wmem","Sun Mar 12 2023 23:15:52 GMT-0400 (Eastern Daylight Time)","564870","Match,No Match","","null","","","","","","<div class='trialBorder'><div class='vertical-center'><img style='vertical-align:center; align:center' src='img/fixation2_sml.jpg'></div><div class='arrayDiv2'><div class='tl'><img class='introPic' src='trustrating_stim/white_mw012.bmp'><br><font color='green'><strong>Share</strong></font></div><div class='tr'><img class='introPic' src='trustrating_stim/white_mw092.bmp'><br><font color='red'><strong>Keep</strong></font></div></div></div>","null","ARRAY","2","trustrating_stim/white_mw012.bmp,trustrating_stim/white_mw092.bmp","1,0","Match","e","3000","","","","",""
"html-keyboard-response","57","189997","0.0-7.0-3.4","5edc0583f16dff0c806bdbb6","bdp_wmem","Sun Mar 12 2023 23:15:52 GMT-0400 (Eastern Daylight Time)","564870","Match,No Match","","null","","","","","","<div class='trialBorder'><div class='vertical-center'><img src='img/fixation2_sml.jpg'</img></div></div>","null","DELAY","","","","","","","","","","",""
"html-keyboard-response","58","192012","0.0-7.0-4.4","5edc0583f16dff0c806bdbb6","bdp_wmem","Sun Mar 12 2023 23:15:52 GMT-0400 (Eastern Daylight Time)","564870","Match,No Match","","2013","","","","","","<div class='trialBorder'><div class='targDiv'><div class='tc'><img class='introPic' src='trustrating_stim/white_mw092.bmp'><br><font color='red'><strong>Keep</strong></font></div></div><div class='respDiv'><div class='respDivL'>Match<br>(e)</div><div class='respDivR'>No Match<br>(i)</div></div></div>","e","TARGET","2","trustrating_stim/white_mw012.bmp,trustrating_stim/white_mw092.bmp","1,0","Match","e","3000","trustrating_stim/white_mw092.bmp","red","Keep","REAL","1"
"html-keyboard-response","59","192516","0.0-7.0-5.4","5edc0583f16dff0c806bdbb6","bdp_wmem","Sun Mar 12 2023 23:15:52 GMT-0400 (Eastern Daylight Time)","564870","Match,No Match","","null","","","","","","<div class='trialBorder'><div class='vertical-center'><img src='img/correct.jpg'></div><div class='respDiv'><div class='respDivL'><font style='color:orange'>Match<br>(e)</font></div><div class='respDivR'>No Match<br>(i)</div></div></div>","null","FEEDBACK","","","","","","","","","","",""
"html-keyboard-response","60","193018","0.0-7.0-1.5","5edc0583f16dff0c806bdbb6","bdp_wmem","Sun Mar 12 2023 23:15:52 GMT-0400 (Eastern Daylight Time)","564870","Match,No Match","","null","","","","","","<div class='trialBorder'><div class='vertical-center'><img src='img/fixation2_sml.jpg'</img></div></div>","null","FIX","","","","","","","","","","",""
"html-keyboard-response","61","194521","0.0-7.0-2.5","5edc0583f16dff0c806bdbb6","bdp_wmem","Sun Mar 12 2023 23:15:52 GMT-0400 (Eastern Daylight Time)","564870","Match,No Match","","null","","","","","","<div class='trialBorder'><div class='vertical-center'><img style='vertical-align:center; align:center' src='img/fixation2_sml.jpg'></div><div class='arrayDiv1'><div class='tc'><img class='introPic' src='trustrating_stim/white_mw010.bmp'><br><font color='red'><strong>Keep</strong></font></div></div></div>","null","ARRAY","1","trustrating_stim/white_mw010.bmp","0","Match","e","1500","","","","",""
"html-keyboard-response","62","198523","0.0-7.0-3.5","5edc0583f16dff0c806bdbb6","bdp_wmem","Sun Mar 12 2023 23:15:52 GMT-0400 (Eastern Daylight Time)","564870","Match,No Match","","null","","","","","","<div class='trialBorder'><div class='vertical-center'><img src='img/fixation2_sml.jpg'</img></div></div>","null","DELAY","","","","","","","","","","",""
"html-keyboard-response","63","199433","0.0-7.0-4.5","5edc0583f16dff0c806bdbb6","bdp_wmem","Sun Mar 12 2023 23:15:52 GMT-0400 (Eastern Daylight Time)","564870","Match,No Match","","907","","","","","","<div class='trialBorder'><div class='targDiv'><div class='tc'><img class='introPic' src='trustrating_stim/white_mw010.bmp'><br><font color='red'><strong>Keep</strong></font></div></div><div class='respDiv'><div class='respDivL'>Match<br>(e)</div><div class='respDivR'>No Match<br>(i)</div></div></div>","e","TARGET","1","trustrating_stim/white_mw010.bmp","0","Match","e","1500","trustrating_stim/white_mw010.bmp","red","Keep","REAL","1"
"html-keyboard-response","64","199934","0.0-7.0-5.5","5edc0583f16dff0c806bdbb6","bdp_wmem","Sun Mar 12 2023 23:15:52 GMT-0400 (Eastern Daylight Time)","564870","Match,No Match","","null","","","","","","<div class='trialBorder'><div class='vertical-center'><img src='img/correct.jpg'></div><div class='respDiv'><div class='respDivL'><font style='color:orange'>Match<br>(e)</font></div><div class='respDivR'>No Match<br>(i)</div></div></div>","null","FEEDBACK","","","","","","","","","","",""
"html-keyboard-response","65","200435","0.0-7.0-1.6","5edc0583f16dff0c806bdbb6","bdp_wmem","Sun Mar 12 2023 23:15:52 GMT-0400 (Eastern Daylight Time)","564870","Match,No Match","","null","","","","","","<div class='trialBorder'><div class='vertical-center'><img src='img/fixation2_sml.jpg'</img></div></div>","null","FIX","","","","","","","","","","",""
"html-keyboard-response","66","203438","0.0-7.0-2.6","5edc0583f16dff0c806bdbb6","bdp_wmem","Sun Mar 12 2023 23:15:52 GMT-0400 (Eastern Daylight Time)","564870","Match,No Match","","null","","","","","","<div class='trialBorder'><div class='vertical-center'><img style='vertical-align:center; align:center' src='img/fixation2_sml.jpg'></div><div class='arrayDiv2'><div class='tl'><img class='introPic' src='trustrating_stim/white_mw042.bmp'><br><font color='red'><strong>Keep</strong></font></div><div class='tr'><img class='introPic' src='trustrating_stim/white_mw040.bmp'><br><font color='green'><strong>Share</strong></font></div></div></div>","null","ARRAY","2","trustrating_stim/white_mw042.bmp,trustrating_stim/white_mw040.bmp","0,1","Match","e","3000","","","","",""
"html-keyboard-response","67","207439","0.0-7.0-3.6","5edc0583f16dff0c806bdbb6","bdp_wmem","Sun Mar 12 2023 23:15:52 GMT-0400 (Eastern Daylight Time)","564870","Match,No Match","","null","","","","","","<div class='trialBorder'><div class='vertical-center'><img src='img/fixation2_sml.jpg'</img></div></div>","null","DELAY","","","","","","","","","","",""
"html-keyboard-response","68","208607","0.0-7.0-4.6","5edc0583f16dff0c806bdbb6","bdp_wmem","Sun Mar 12 2023 23:15:52 GMT-0400 (Eastern Daylight Time)","564870","Match,No Match","","1165","","","","","","<div class='trialBorder'><div class='targDiv'><div class='tc'><img class='introPic' src='trustrating_stim/white_mw042.bmp'><br><font color='red'><strong>Keep</strong></font></div></div><div class='respDiv'><div class='respDivL'>Match<br>(e)</div><div class='respDivR'>No Match<br>(i)</div></div></div>","i","TARGET","2","trustrating_stim/white_mw042.bmp,trustrating_stim/white_mw040.bmp","0,1","Match","e","3000","trustrating_stim/white_mw042.bmp","red","Keep","REAL","0"
"html-keyboard-response","69","209108","0.0-7.0-5.6","5edc0583f16dff0c806bdbb6","bdp_wmem","Sun Mar 12 2023 23:15:52 GMT-0400 (Eastern Daylight Time)","564870","Match,No Match","","null","","","","","","<div class='trialBorder'><div class='vertical-center'><img src='img/error.jpg'></div><div class='respDiv'><div class='respDivL'>Match<br>(e)</div><div class='respDivR'><font style='color:orange'>No Match<br>(i)</font></div></div></div>","null","FEEDBACK","","","","","","","","","","",""
"html-keyboard-response","70","209611","0.0-7.0-1.7","5edc0583f16dff0c806bdbb6","bdp_wmem","Sun Mar 12 2023 23:15:52 GMT-0400 (Eastern Daylight Time)","564870","Match,No Match","","null","","","","","","<div class='trialBorder'><div class='vertical-center'><img src='img/fixation2_sml.jpg'</img></div></div>","null","FIX","","","","","","","","","","",""
"html-keyboard-response","71","212614","0.0-7.0-2.7","5edc0583f16dff0c806bdbb6","bdp_wmem","Sun Mar 12 2023 23:15:52 GMT-0400 (Eastern Daylight Time)","564870","Match,No Match","","null","","","","","","<div class='trialBorder'><div class='vertical-center'><img style='vertical-align:center; align:center' src='img/fixation2_sml.jpg'></div><div class='arrayDiv2'><div class='tl'><img class='introPic' src='trustrating_stim/white_mw012.bmp'><br><font color='red'><strong>Keep</strong></font></div><div class='tr'><img class='introPic' src='trustrating_stim/white_mw038.bmp'><br><font color='green'><strong>Share</strong></font></div></div></div>","null","ARRAY","2","trustrating_stim/white_mw012.bmp,trustrating_stim/white_mw038.bmp","0,1","Match","e","3000","","","","",""
"html-keyboard-response","72","216616","0.0-7.0-3.7","5edc0583f16dff0c806bdbb6","bdp_wmem","Sun Mar 12 2023 23:15:52 GMT-0400 (Eastern Daylight Time)","564870","Match,No Match","","null","","","","","","<div class='trialBorder'><div class='vertical-center'><img src='img/fixation2_sml.jpg'</img></div></div>","null","DELAY","","","","","","","","","","",""
"html-keyboard-response","73","217742","0.0-7.0-4.7","5edc0583f16dff0c806bdbb6","bdp_wmem","Sun Mar 12 2023 23:15:52 GMT-0400 (Eastern Daylight Time)","564870","Match,No Match","","1124","","","","","","<div class='trialBorder'><div class='targDiv'><div class='tc'><img class='introPic' src='trustrating_stim/white_mw038.bmp'><br><font color='green'><strong>Share</strong></font></div></div><div class='respDiv'><div class='respDivL'>Match<br>(e)</div><div class='respDivR'>No Match<br>(i)</div></div></div>","e","TARGET","2","trustrating_stim/white_mw012.bmp,trustrating_stim/white_mw038.bmp","0,1","Match","e","3000","trustrating_stim/white_mw038.bmp","green","Share","REAL","1"
"html-keyboard-response","74","218243","0.0-7.0-5.7","5edc0583f16dff0c806bdbb6","bdp_wmem","Sun Mar 12 2023 23:15:52 GMT-0400 (Eastern Daylight Time)","564870","Match,No Match","","null","","","","","","<div class='trialBorder'><div class='vertical-center'><img src='img/correct.jpg'></div><div class='respDiv'><div class='respDivL'><font style='color:orange'>Match<br>(e)</font></div><div class='respDivR'>No Match<br>(i)</div></div></div>","null","FEEDBACK","","","","","","","","","","",""
"html-keyboard-response","75","218745","0.0-7.0-1.8","5edc0583f16dff0c806bdbb6","bdp_wmem","Sun Mar 12 2023 23:15:52 GMT-0400 (Eastern Daylight Time)","564870","Match,No Match","","null","","","","","","<div class='trialBorder'><div class='vertical-center'><img src='img/fixation2_sml.jpg'</img></div></div>","null","FIX","","","","","","","","","","",""
"html-keyboard-response","76","223248","0.0-7.0-2.8","5edc0583f16dff0c806bdbb6","bdp_wmem","Sun Mar 12 2023 23:15:52 GMT-0400 (Eastern Daylight Time)","564870","Match,No Match","","null","","","","","","<div class='trialBorder'><div class='vertical-center'><img style='vertical-align:center; align:center' src='img/fixation2_sml.jpg'></div><div class='arrayDiv3'><div class='tl'><img class='introPic' src='trustrating_stim/white_mw010.bmp'><br><font color='red'><strong>Keep</strong></font></div><div class='tc'><img class='introPic' src='trustrating_stim/white_mw013.bmp'><br><font color='green'><strong>Share</strong></font></div><div class='tr'><img class='introPic' src='trustrating_stim/white_mw092.bmp'><br><font color='green'><strong>Share</strong></font></div></div></div>","null","ARRAY","3","trustrating_stim/white_mw010.bmp,trustrating_stim/white_mw013.bmp,trustrating_stim/white_mw092.bmp","0,1,1","Match","e","4500","","","","",""
"html-keyboard-response","77","227249","0.0-7.0-3.8","5edc0583f16dff0c806bdbb6","bdp_wmem","Sun Mar 12 2023 23:15:52 GMT-0400 (Eastern Daylight Time)","564870","Match,No Match","","null","","","","","","<div class='trialBorder'><div class='vertical-center'><img src='img/fixation2_sml.jpg'</img></div></div>","null","DELAY","","","","","","","","","","",""
"html-keyboard-response","78","227595","0.0-7.0-4.8","5edc0583f16dff0c806bdbb6","bdp_wmem","Sun Mar 12 2023 23:15:52 GMT-0400 (Eastern Daylight Time)","564870","Match,No Match","","345","","","","","","<div class='trialBorder'><div class='targDiv'><div class='tc'><img class='introPic' src='trustrating_stim/white_mw013.bmp'><br><font color='green'><strong>Share</strong></font></div></div><div class='respDiv'><div class='respDivL'>Match<br>(e)</div><div class='respDivR'>No Match<br>(i)</div></div></div>","e","TARGET","3","trustrating_stim/white_mw010.bmp,trustrating_stim/white_mw013.bmp,trustrating_stim/white_mw092.bmp","0,1,1","Match","e","4500","trustrating_stim/white_mw013.bmp","green","Share","REAL","1"
"html-keyboard-response","79","228096","0.0-7.0-5.8","5edc0583f16dff0c806bdbb6","bdp_wmem","Sun Mar 12 2023 23:15:52 GMT-0400 (Eastern Daylight Time)","564870","Match,No Match","","null","","","","","","<div class='trialBorder'><div class='vertical-center'><img src='img/correct.jpg'></div><div class='respDiv'><div class='respDivL'><font style='color:orange'>Match<br>(e)</font></div><div class='respDivR'>No Match<br>(i)</div></div></div>","null","FEEDBACK","","","","","","","","","","",""
"html-keyboard-response","80","228599","0.0-7.0-1.9","5edc0583f16dff0c806bdbb6","bdp_wmem","Sun Mar 12 2023 23:15:52 GMT-0400 (Eastern Daylight Time)","564870","Match,No Match","","null","","","","","","<div class='trialBorder'><div class='vertical-center'><img src='img/fixation2_sml.jpg'</img></div></div>","null","FIX","","","","","","","","","","",""
"html-keyboard-response","81","233101","0.0-7.0-2.9","5edc0583f16dff0c806bdbb6","bdp_wmem","Sun Mar 12 2023 23:15:52 GMT-0400 (Eastern Daylight Time)","564870","Match,No Match","","null","","","","","","<div class='trialBorder'><div class='vertical-center'><img style='vertical-align:center; align:center' src='img/fixation2_sml.jpg'></div><div class='arrayDiv3'><div class='tl'><img class='introPic' src='trustrating_stim/white_mw038.bmp'><br><font color='green'><strong>Share</strong></font></div><div class='tc'><img class='introPic' src='trustrating_stim/white_mw040.bmp'><br><font color='green'><strong>Share</strong></font></div><div class='tr'><img class='introPic' src='trustrating_stim/white_mw012.bmp'><br><font color='red'><strong>Keep</strong></font></div></div></div>","null","ARRAY","3","trustrating_stim/white_mw038.bmp,trustrating_stim/white_mw040.bmp,trustrating_stim/white_mw012.bmp","1,1,0","Match","e","4500","","","","",""
"html-keyboard-response","82","237103","0.0-7.0-3.9","5edc0583f16dff0c806bdbb6","bdp_wmem","Sun Mar 12 2023 23:15:52 GMT-0400 (Eastern Daylight Time)","564870","Match,No Match","","null","","","","","","<div class='trialBorder'><div class='vertical-center'><img src='img/fixation2_sml.jpg'</img></div></div>","null","DELAY","","","","","","","","","","",""
"html-keyboard-response","83","237593","0.0-7.0-4.9","5edc0583f16dff0c806bdbb6","bdp_wmem","Sun Mar 12 2023 23:15:52 GMT-0400 (Eastern Daylight Time)","564870","Match,No Match","","488","","","","","","<div class='trialBorder'><div class='targDiv'><div class='tc'><img class='introPic' src='trustrating_stim/white_mw038.bmp'><br><font color='green'><strong>Share</strong></font></div></div><div class='respDiv'><div class='respDivL'>Match<br>(e)</div><div class='respDivR'>No Match<br>(i)</div></div></div>","e","TARGET","3","trustrating_stim/white_mw038.bmp,trustrating_stim/white_mw040.bmp,trustrating_stim/white_mw012.bmp","1,1,0","Match","e","4500","trustrating_stim/white_mw038.bmp","green","Share","REAL","1"
"html-keyboard-response","84","238096","0.0-7.0-5.9","5edc0583f16dff0c806bdbb6","bdp_wmem","Sun Mar 12 2023 23:15:52 GMT-0400 (Eastern Daylight Time)","564870","Match,No Match","","null","","","","","","<div class='trialBorder'><div class='vertical-center'><img src='img/correct.jpg'></div><div class='respDiv'><div class='respDivL'><font style='color:orange'>Match<br>(e)</font></div><div class='respDivR'>No Match<br>(i)</div></div></div>","null","FEEDBACK","","","","","","","","","","",""
"html-keyboard-response","85","238598","0.0-7.0-1.10","5edc0583f16dff0c806bdbb6","bdp_wmem","Sun Mar 12 2023 23:15:52 GMT-0400 (Eastern Daylight Time)","564870","Match,No Match","","null","","","","","","<div class='trialBorder'><div class='vertical-center'><img src='img/fixation2_sml.jpg'</img></div></div>","null","FIX","","","","","","","","","","",""
"html-keyboard-response","86","243101","0.0-7.0-2.10","5edc0583f16dff0c806bdbb6","bdp_wmem","Sun Mar 12 2023 23:15:52 GMT-0400 (Eastern Daylight Time)","564870","Match,No Match","","null","","","","","","<div class='trialBorder'><div class='vertical-center'><img style='vertical-align:center; align:center' src='img/fixation2_sml.jpg'></div><div class='arrayDiv3'><div class='tl'><img class='introPic' src='trustrating_stim/white_mw078.bmp'><br><font color='red'><strong>Keep</strong></font></div><div class='tc'><img class='introPic' src='trustrating_stim/white_mw040.bmp'><br><font color='red'><strong>Keep</strong></font></div><div class='tr'><img class='introPic' src='trustrating_stim/white_mw070.bmp'><br><font color='green'><strong>Share</strong></font></div></div></div>","null","ARRAY","3","trustrating_stim/white_mw078.bmp,trustrating_stim/white_mw040.bmp,trustrating_stim/white_mw070.bmp","0,0,1","Match","e","4500","","","","",""
"html-keyboard-response","87","247102","0.0-7.0-3.10","5edc0583f16dff0c806bdbb6","bdp_wmem","Sun Mar 12 2023 23:15:52 GMT-0400 (Eastern Daylight Time)","564870","Match,No Match","","null","","","","","","<div class='trialBorder'><div class='vertical-center'><img src='img/fixation2_sml.jpg'</img></div></div>","null","DELAY","","","","","","","","","","",""
"html-keyboard-response","88","247382","0.0-7.0-4.10","5edc0583f16dff0c806bdbb6","bdp_wmem","Sun Mar 12 2023 23:15:52 GMT-0400 (Eastern Daylight Time)","564870","Match,No Match","","277","","","","","","<div class='trialBorder'><div class='targDiv'><div class='tc'><img class='introPic' src='trustrating_stim/white_mw040.bmp'><br><font color='red'><strong>Keep</strong></font></div></div><div class='respDiv'><div class='respDivL'>Match<br>(e)</div><div class='respDivR'>No Match<br>(i)</div></div></div>","i","TARGET","3","trustrating_stim/white_mw078.bmp,trustrating_stim/white_mw040.bmp,trustrating_stim/white_mw070.bmp","0,0,1","Match","e","4500","trustrating_stim/white_mw040.bmp","red","Keep","REAL","0"
"html-keyboard-response","89","247883","0.0-7.0-5.10","5edc0583f16dff0c806bdbb6","bdp_wmem","Sun Mar 12 2023 23:15:52 GMT-0400 (Eastern Daylight Time)","564870","Match,No Match","","null","","","","","","<div class='trialBorder'><div class='vertical-center'><img src='img/error.jpg'></div><div class='respDiv'><div class='respDivL'>Match<br>(e)</div><div class='respDivR'><font style='color:orange'>No Match<br>(i)</font></div></div></div>","null","FEEDBACK","","","","","","","","","","",""
"html-keyboard-response","90","248386","0.0-7.0-1.11","5edc0583f16dff0c806bdbb6","bdp_wmem","Sun Mar 12 2023 23:15:52 GMT-0400 (Eastern Daylight Time)","564870","Match,No Match","","null","","","","","","<div class='trialBorder'><div class='vertical-center'><img src='img/fixation2_sml.jpg'</img></div></div>","null","FIX","","","","","","","","","","",""
"html-keyboard-response","91","251387","0.0-7.0-2.11","5edc0583f16dff0c806bdbb6","bdp_wmem","Sun Mar 12 2023 23:15:52 GMT-0400 (Eastern Daylight Time)","564870","Match,No Match","","null","","","","","","<div class='trialBorder'><div class='vertical-center'><img style='vertical-align:center; align:center' src='img/fixation2_sml.jpg'></div><div class='arrayDiv2'><div class='tl'><img class='introPic' src='trustrating_stim/white_mw013.bmp'><br><font color='green'><strong>Share</strong></font></div><div class='tr'><img class='introPic' src='trustrating_stim/white_mw012.bmp'><br><font color='red'><strong>Keep</strong></font></div></div></div>","null","ARRAY","2","trustrating_stim/white_mw013.bmp,trustrating_stim/white_mw012.bmp","1,0","Match","e","3000","","","","",""
"html-keyboard-response","92","255390","0.0-7.0-3.11","5edc0583f16dff0c806bdbb6","bdp_wmem","Sun Mar 12 2023 23:15:52 GMT-0400 (Eastern Daylight Time)","564870","Match,No Match","","null","","","","","","<div class='trialBorder'><div class='vertical-center'><img src='img/fixation2_sml.jpg'</img></div></div>","null","DELAY","","","","","","","","","","",""
"html-keyboard-response","93","256013","0.0-7.0-4.11","5edc0583f16dff0c806bdbb6","bdp_wmem","Sun Mar 12 2023 23:15:52 GMT-0400 (Eastern Daylight Time)","564870","Match,No Match","","621","","","","","","<div class='trialBorder'><div class='targDiv'><div class='tc'><img class='introPic' src='trustrating_stim/white_mw013.bmp'><br><font color='green'><strong>Share</strong></font></div></div><div class='respDiv'><div class='respDivL'>Match<br>(e)</div><div class='respDivR'>No Match<br>(i)</div></div></div>","e","TARGET","2","trustrating_stim/white_mw013.bmp,trustrating_stim/white_mw012.bmp","1,0","Match","e","3000","trustrating_stim/white_mw013.bmp","green","Share","REAL","1"
"html-keyboard-response","94","256515","0.0-7.0-5.11","5edc0583f16dff0c806bdbb6","bdp_wmem","Sun Mar 12 2023 23:15:52 GMT-0400 (Eastern Daylight Time)","564870","Match,No Match","","null","","","","","","<div class='trialBorder'><div class='vertical-center'><img src='img/correct.jpg'></div><div class='respDiv'><div class='respDivL'><font style='color:orange'>Match<br>(e)</font></div><div class='respDivR'>No Match<br>(i)</div></div></div>","null","FEEDBACK","","","","","","","","","","",""
"html-keyboard-response","95","257017","0.0-7.0-1.12","5edc0583f16dff0c806bdbb6","bdp_wmem","Sun Mar 12 2023 23:15:52 GMT-0400 (Eastern Daylight Time)","564870","Match,No Match","","null","","","","","","<div class='trialBorder'><div class='vertical-center'><img src='img/fixation2_sml.jpg'</img></div></div>","null","FIX","","","","","","","","","","",""
"html-keyboard-response","96","261518","0.0-7.0-2.12","5edc0583f16dff0c806bdbb6","bdp_wmem","Sun Mar 12 2023 23:15:52 GMT-0400 (Eastern Daylight Time)","564870","Match,No Match","","null","","","","","","<div class='trialBorder'><div class='vertical-center'><img style='vertical-align:center; align:center' src='img/fixation2_sml.jpg'></div><div class='arrayDiv3'><div class='tl'><img class='introPic' src='trustrating_stim/white_mw070.bmp'><br><font color='red'><strong>Keep</strong></font></div><div class='tc'><img class='introPic' src='trustrating_stim/white_mw003.bmp'><br><font color='red'><strong>Keep</strong></font></div><div class='tr'><img class='introPic' src='trustrating_stim/white_mw085.bmp'><br><font color='green'><strong>Share</strong></font></div></div></div>","null","ARRAY","3","trustrating_stim/white_mw070.bmp,trustrating_stim/white_mw003.bmp,trustrating_stim/white_mw085.bmp","0,0,1","Match","e","4500","","","","",""
"html-keyboard-response","97","265521","0.0-7.0-3.12","5edc0583f16dff0c806bdbb6","bdp_wmem","Sun Mar 12 2023 23:15:52 GMT-0400 (Eastern Daylight Time)","564870","Match,No Match","","null","","","","","","<div class='trialBorder'><div class='vertical-center'><img src='img/fixation2_sml.jpg'</img></div></div>","null","DELAY","","","","","","","","","","",""
"html-keyboard-response","98","266193","0.0-7.0-4.12","5edc0583f16dff0c806bdbb6","bdp_wmem","Sun Mar 12 2023 23:15:52 GMT-0400 (Eastern Daylight Time)","564870","Match,No Match","","670","","","","","","<div class='trialBorder'><div class='targDiv'><div class='tc'><img class='introPic' src='trustrating_stim/white_mw003.bmp'><br><font color='red'><strong>Keep</strong></font></div></div><div class='respDiv'><div class='respDivL'>Match<br>(e)</div><div class='respDivR'>No Match<br>(i)</div></div></div>","i","TARGET","3","trustrating_stim/white_mw070.bmp,trustrating_stim/white_mw003.bmp,trustrating_stim/white_mw085.bmp","0,0,1","Match","e","4500","trustrating_stim/white_mw003.bmp","red","Keep","REAL","0"
"html-keyboard-response","99","266695","0.0-7.0-5.12","5edc0583f16dff0c806bdbb6","bdp_wmem","Sun Mar 12 2023 23:15:52 GMT-0400 (Eastern Daylight Time)","564870","Match,No Match","","null","","","","","","<div class='trialBorder'><div class='vertical-center'><img src='img/error.jpg'></div><div class='respDiv'><div class='respDivL'>Match<br>(e)</div><div class='respDivR'><font style='color:orange'>No Match<br>(i)</font></div></div></div>","null","FEEDBACK","","","","","","","","","","",""
"html-keyboard-response","100","267197","0.0-7.0-1.13","5edc0583f16dff0c806bdbb6","bdp_wmem","Sun Mar 12 2023 23:15:52 GMT-0400 (Eastern Daylight Time)","564870","Match,No Match","","null","","","","","","<div class='trialBorder'><div class='vertical-center'><img src='img/fixation2_sml.jpg'</img></div></div>","null","FIX","","","","","","","","","","",""
"html-keyboard-response","101","271700","0.0-7.0-2.13","5edc0583f16dff0c806bdbb6","bdp_wmem","Sun Mar 12 2023 23:15:52 GMT-0400 (Eastern Daylight Time)","564870","Match,No Match","","null","","","","","","<div class='trialBorder'><div class='vertical-center'><img style='vertical-align:center; align:center' src='img/fixation2_sml.jpg'></div><div class='arrayDiv3'><div class='tl'><img class='introPic' src='trustrating_stim/white_mw038.bmp'><br><font color='red'><strong>Keep</strong></font></div><div class='tc'><img class='introPic' src='trustrating_stim/white_mw010.bmp'><br><font color='green'><strong>Share</strong></font></div><div class='tr'><img class='introPic' src='trustrating_stim/white_mw091.bmp'><br><font color='red'><strong>Keep</strong></font></div></div></div>","null","ARRAY","3","trustrating_stim/white_mw038.bmp,trustrating_stim/white_mw010.bmp,trustrating_stim/white_mw091.bmp","0,1,0","noMatchOutcome","i","4500","","","","",""
"html-keyboard-response","102","275702","0.0-7.0-3.13","5edc0583f16dff0c806bdbb6","bdp_wmem","Sun Mar 12 2023 23:15:52 GMT-0400 (Eastern Daylight Time)","564870","Match,No Match","","null","","","","","","<div class='trialBorder'><div class='vertical-center'><img src='img/fixation2_sml.jpg'</img></div></div>","null","DELAY","","","","","","","","","","",""
"html-keyboard-response","103","276108","0.0-7.0-4.13","5edc0583f16dff0c806bdbb6","bdp_wmem","Sun Mar 12 2023 23:15:52 GMT-0400 (Eastern Daylight Time)","564870","Match,No Match","","404","","","","","","<div class='trialBorder'><div class='targDiv'><div class='tc'><img class='introPic' src='trustrating_stim/white_mw010.bmp'><br><font color='red'><strong>Keep</strong></font></div></div><div class='respDiv'><div class='respDivL'>Match<br>(e)</div><div class='respDivR'>No Match<br>(i)</div></div></div>","e","TARGET","3","trustrating_stim/white_mw038.bmp,trustrating_stim/white_mw010.bmp,trustrating_stim/white_mw091.bmp","0,1,0","noMatchOutcome","i","4500","trustrating_stim/white_mw010.bmp","red","Keep","REAL","0"
"html-keyboard-response","104","276610","0.0-7.0-5.13","5edc0583f16dff0c806bdbb6","bdp_wmem","Sun Mar 12 2023 23:15:52 GMT-0400 (Eastern Daylight Time)","564870","Match,No Match","","null","","","","","","<div class='trialBorder'><div class='vertical-center'><img src='img/error.jpg'></div><div class='respDiv'><div class='respDivL'><font style='color:orange'>Match<br>(e)</font></div><div class='respDivR'>No Match<br>(i)</div></div></div>","null","FEEDBACK","","","","","","","","","","",""
"html-keyboard-response","105","277112","0.0-7.0-1.14","5edc0583f16dff0c806bdbb6","bdp_wmem","Sun Mar 12 2023 23:15:52 GMT-0400 (Eastern Daylight Time)","564870","Match,No Match","","null","","","","","","<div class='trialBorder'><div class='vertical-center'><img src='img/fixation2_sml.jpg'</img></div></div>","null","FIX","","","","","","","","","","",""
"html-keyboard-response","106","280114","0.0-7.0-2.14","5edc0583f16dff0c806bdbb6","bdp_wmem","Sun Mar 12 2023 23:15:52 GMT-0400 (Eastern Daylight Time)","564870","Match,No Match","","null","","","","","","<div class='trialBorder'><div class='vertical-center'><img style='vertical-align:center; align:center' src='img/fixation2_sml.jpg'></div><div class='arrayDiv2'><div class='tl'><img class='introPic' src='trustrating_stim/white_mw038.bmp'><br><font color='red'><strong>Keep</strong></font></div><div class='tr'><img class='introPic' src='trustrating_stim/white_mw078.bmp'><br><font color='green'><strong>Share</strong></font></div></div></div>","null","ARRAY","2","trustrating_stim/white_mw038.bmp,trustrating_stim/white_mw078.bmp","0,1","noMatchOutcome","i","3000","","","","",""
"html-keyboard-response","107","284117","0.0-7.0-3.14","5edc0583f16dff0c806bdbb6","bdp_wmem","Sun Mar 12 2023 23:15:52 GMT-0400 (Eastern Daylight Time)","564870","Match,No Match","","null","","","","","","<div class='trialBorder'><div class='vertical-center'><img src='img/fixation2_sml.jpg'</img></div></div>","null","DELAY","","","","","","","","","","",""
"html-keyboard-response","108","284502","0.0-7.0-4.14","5edc0583f16dff0c806bdbb6","bdp_wmem","Sun Mar 12 2023 23:15:52 GMT-0400 (Eastern Daylight Time)","564870","Match,No Match","","382","","","","","","<div class='trialBorder'><div class='targDiv'><div class='tc'><img class='introPic' src='trustrating_stim/white_mw078.bmp'><br><font color='red'><strong>Keep</strong></font></div></div><div class='respDiv'><div class='respDivL'>Match<br>(e)</div><div class='respDivR'>No Match<br>(i)</div></div></div>","i","TARGET","2","trustrating_stim/white_mw038.bmp,trustrating_stim/white_mw078.bmp","0,1","noMatchOutcome","i","3000","trustrating_stim/white_mw078.bmp","red","Keep","REAL","1"
"html-keyboard-response","109","285005","0.0-7.0-5.14","5edc0583f16dff0c806bdbb6","bdp_wmem","Sun Mar 12 2023 23:15:52 GMT-0400 (Eastern Daylight Time)","564870","Match,No Match","","null","","","","","","<div class='trialBorder'><div class='vertical-center'><img src='img/correct.jpg'></div><div class='respDiv'><div class='respDivL'>Match<br>(e)</div><div class='respDivR'><font style='color:orange'>No Match<br>(i)</font></div></div></div>","null","FEEDBACK","","","","","","","","","","",""
"html-keyboard-response","110","285507","0.0-7.0-1.15","5edc0583f16dff0c806bdbb6","bdp_wmem","Sun Mar 12 2023 23:15:52 GMT-0400 (Eastern Daylight Time)","564870","Match,No Match","","null","","","","","","<div class='trialBorder'><div class='vertical-center'><img src='img/fixation2_sml.jpg'</img></div></div>","null","FIX","","","","","","","","","","",""
"html-keyboard-response","111","288509","0.0-7.0-2.15","5edc0583f16dff0c806bdbb6","bdp_wmem","Sun Mar 12 2023 23:15:52 GMT-0400 (Eastern Daylight Time)","564870","Match,No Match","","null","","","","","","<div class='trialBorder'><div class='vertical-center'><img style='vertical-align:center; align:center' src='img/fixation2_sml.jpg'></div><div class='arrayDiv2'><div class='tl'><img class='introPic' src='trustrating_stim/white_mw003.bmp'><br><font color='green'><strong>Share</strong></font></div><div class='tr'><img class='introPic' src='trustrating_stim/white_mw091.bmp'><br><font color='red'><strong>Keep</strong></font></div></div></div>","null","ARRAY","2","trustrating_stim/white_mw003.bmp,trustrating_stim/white_mw091.bmp","1,0","noMatchFace","i","3000","","","","",""
"html-keyboard-response","112","292511","0.0-7.0-3.15","5edc0583f16dff0c806bdbb6","bdp_wmem","Sun Mar 12 2023 23:15:52 GMT-0400 (Eastern Daylight Time)","564870","Match,No Match","","null","","","","","","<div class='trialBorder'><div class='vertical-center'><img src='img/fixation2_sml.jpg'</img></div></div>","null","DELAY","","","","","","","","","","",""
"html-keyboard-response","113","292794","0.0-7.0-4.15","5edc0583f16dff0c806bdbb6","bdp_wmem","Sun Mar 12 2023 23:15:52 GMT-0400 (Eastern Daylight Time)","564870","Match,No Match","","280","","","","","","<div class='trialBorder'><div class='targDiv'><div class='tc'><img class='introPic' src='trustrating_stim/white_mw070.bmp'><br><font color='red'><strong>Keep</strong></font></div></div><div class='respDiv'><div class='respDivL'>Match<br>(e)</div><div class='respDivR'>No Match<br>(i)</div></div></div>","i","TARGET","2","trustrating_stim/white_mw003.bmp,trustrating_stim/white_mw091.bmp","1,0","noMatchFace","i","3000","trustrating_stim/white_mw070.bmp","red","Keep","REAL","1"
"html-keyboard-response","114","293296","0.0-7.0-5.15","5edc0583f16dff0c806bdbb6","bdp_wmem","Sun Mar 12 2023 23:15:52 GMT-0400 (Eastern Daylight Time)","564870","Match,No Match","","null","","","","","","<div class='trialBorder'><div class='vertical-center'><img src='img/correct.jpg'></div><div class='respDiv'><div class='respDivL'>Match<br>(e)</div><div class='respDivR'><font style='color:orange'>No Match<br>(i)</font></div></div></div>","null","FEEDBACK","","","","","","","","","","",""
"html-keyboard-response","115","293797","0.0-7.0-1.16","5edc0583f16dff0c806bdbb6","bdp_wmem","Sun Mar 12 2023 23:15:52 GMT-0400 (Eastern Daylight Time)","564870","Match,No Match","","null","","","","","","<div class='trialBorder'><div class='vertical-center'><img src='img/fixation2_sml.jpg'</img></div></div>","null","FIX","","","","","","","","","","",""
"html-keyboard-response","116","298300","0.0-7.0-2.16","5edc0583f16dff0c806bdbb6","bdp_wmem","Sun Mar 12 2023 23:15:52 GMT-0400 (Eastern Daylight Time)","564870","Match,No Match","","null","","","","","","<div class='trialBorder'><div class='vertical-center'><img style='vertical-align:center; align:center' src='img/fixation2_sml.jpg'></div><div class='arrayDiv3'><div class='tl'><img class='introPic' src='trustrating_stim/white_mw040.bmp'><br><font color='green'><strong>Share</strong></font></div><div class='tc'><img class='introPic' src='trustrating_stim/white_mw012.bmp'><br><font color='green'><strong>Share</strong></font></div><div class='tr'><img class='introPic' src='trustrating_stim/white_mw070.bmp'><br><font color='red'><strong>Keep</strong></font></div></div></div>","null","ARRAY","3","trustrating_stim/white_mw040.bmp,trustrating_stim/white_mw012.bmp,trustrating_stim/white_mw070.bmp","1,1,0","Match","e","4500","","","","",""
"html-keyboard-response","117","302303","0.0-7.0-3.16","5edc0583f16dff0c806bdbb6","bdp_wmem","Sun Mar 12 2023 23:15:52 GMT-0400 (Eastern Daylight Time)","564870","Match,No Match","","null","","","","","","<div class='trialBorder'><div class='vertical-center'><img src='img/fixation2_sml.jpg'</img></div></div>","null","DELAY","","","","","","","","","","",""
"html-keyboard-response","118","302654","0.0-7.0-4.16","5edc0583f16dff0c806bdbb6","bdp_wmem","Sun Mar 12 2023 23:15:52 GMT-0400 (Eastern Daylight Time)","564870","Match,No Match","","349","","","","","","<div class='trialBorder'><div class='targDiv'><div class='tc'><img class='introPic' src='trustrating_stim/white_mw012.bmp'><br><font color='green'><strong>Share</strong></font></div></div><div class='respDiv'><div class='respDivL'>Match<br>(e)</div><div class='respDivR'>No Match<br>(i)</div></div></div>","i","TARGET","3","trustrating_stim/white_mw040.bmp,trustrating_stim/white_mw012.bmp,trustrating_stim/white_mw070.bmp","1,1,0","Match","e","4500","trustrating_stim/white_mw012.bmp","green","Share","REAL","0"
"html-keyboard-response","119","303156","0.0-7.0-5.16","5edc0583f16dff0c806bdbb6","bdp_wmem","Sun Mar 12 2023 23:15:52 GMT-0400 (Eastern Daylight Time)","564870","Match,No Match","","null","","","","","","<div class='trialBorder'><div class='vertical-center'><img src='img/error.jpg'></div><div class='respDiv'><div class='respDivL'>Match<br>(e)</div><div class='respDivR'><font style='color:orange'>No Match<br>(i)</font></div></div></div>","null","FEEDBACK","","","","","","","","","","",""
"html-keyboard-response","120","303659","0.0-7.0-1.17","5edc0583f16dff0c806bdbb6","bdp_wmem","Sun Mar 12 2023 23:15:52 GMT-0400 (Eastern Daylight Time)","564870","Match,No Match","","null","","","","","","<div class='trialBorder'><div class='vertical-center'><img src='img/fixation2_sml.jpg'</img></div></div>","null","FIX","","","","","","","","","","",""
"html-keyboard-response","121","306662","0.0-7.0-2.17","5edc0583f16dff0c806bdbb6","bdp_wmem","Sun Mar 12 2023 23:15:52 GMT-0400 (Eastern Daylight Time)","564870","Match,No Match","","null","","","","","","<div class='trialBorder'><div class='vertical-center'><img style='vertical-align:center; align:center' src='img/fixation2_sml.jpg'></div><div class='arrayDiv2'><div class='tl'><img class='introPic' src='trustrating_stim/white_mw091.bmp'><br><font color='red'><strong>Keep</strong></font></div><div class='tr'><img class='introPic' src='trustrating_stim/white_mw012.bmp'><br><font color='green'><strong>Share</strong></font></div></div></div>","null","ARRAY","2","trustrating_stim/white_mw091.bmp,trustrating_stim/white_mw012.bmp","0,1","noMatchOutcome","i","3000","","","","",""
"html-keyboard-response","122","310663","0.0-7.0-3.17","5edc0583f16dff0c806bdbb6","bdp_wmem","Sun Mar 12 2023 23:15:52 GMT-0400 (Eastern Daylight Time)","564870","Match,No Match","","null","","","","","","<div class='trialBorder'><div class='vertical-center'><img src='img/fixation2_sml.jpg'</img></div></div>","null","DELAY","","","","","","","","","","",""
"html-keyboard-response","123","311823","0.0-7.0-4.17","5edc0583f16dff0c806bdbb6","bdp_wmem","Sun Mar 12 2023 23:15:52 GMT-0400 (Eastern Daylight Time)","564870","Match,No Match","","1157","","","","","","<div class='trialBorder'><div class='targDiv'><div class='tc'><img class='introPic' src='trustrating_stim/white_mw091.bmp'><br><font color='green'><strong>Share</strong></font></div></div><div class='respDiv'><div class='respDivL'>Match<br>(e)</div><div class='respDivR'>No Match<br>(i)</div></div></div>","e","TARGET","2","trustrating_stim/white_mw091.bmp,trustrating_stim/white_mw012.bmp","0,1","noMatchOutcome","i","3000","trustrating_stim/white_mw091.bmp","green","Share","REAL","0"
"html-keyboard-response","124","312324","0.0-7.0-5.17","5edc0583f16dff0c806bdbb6","bdp_wmem","Sun Mar 12 2023 23:15:52 GMT-0400 (Eastern Daylight Time)","564870","Match,No Match","","null","","","","","","<div class='trialBorder'><div class='vertical-center'><img src='img/error.jpg'></div><div class='respDiv'><div class='respDivL'><font style='color:orange'>Match<br>(e)</font></div><div class='respDivR'>No Match<br>(i)</div></div></div>","null","FEEDBACK","","","","","","","","","","",""
"html-keyboard-response","125","312826","0.0-7.0-1.18","5edc0583f16dff0c806bdbb6","bdp_wmem","Sun Mar 12 2023 23:15:52 GMT-0400 (Eastern Daylight Time)","564870","Match,No Match","","null","","","","","","<div class='trialBorder'><div class='vertical-center'><img src='img/fixation2_sml.jpg'</img></div></div>","null","FIX","","","","","","","","","","",""
"html-keyboard-response","126","317330","0.0-7.0-2.18","5edc0583f16dff0c806bdbb6","bdp_wmem","Sun Mar 12 2023 23:15:52 GMT-0400 (Eastern Daylight Time)","564870","Match,No Match","","null","","","","","","<div class='trialBorder'><div class='vertical-center'><img style='vertical-align:center; align:center' src='img/fixation2_sml.jpg'></div><div class='arrayDiv3'><div class='tl'><img class='introPic' src='trustrating_stim/white_mw078.bmp'><br><font color='green'><strong>Share</strong></font></div><div class='tc'><img class='introPic' src='trustrating_stim/white_mw092.bmp'><br><font color='red'><strong>Keep</strong></font></div><div class='tr'><img class='introPic' src='trustrating_stim/white_mw010.bmp'><br><font color='red'><strong>Keep</strong></font></div></div></div>","null","ARRAY","3","trustrating_stim/white_mw078.bmp,trustrating_stim/white_mw092.bmp,trustrating_stim/white_mw010.bmp","1,0,0","noMatchOutcome","i","4500","","","","",""
"html-keyboard-response","127","321332","0.0-7.0-3.18","5edc0583f16dff0c806bdbb6","bdp_wmem","Sun Mar 12 2023 23:15:52 GMT-0400 (Eastern Daylight Time)","564870","Match,No Match","","null","","","","","","<div class='trialBorder'><div class='vertical-center'><img src='img/fixation2_sml.jpg'</img></div></div>","null","DELAY","","","","","","","","","","",""
"html-keyboard-response","128","321708","0.0-7.0-4.18","5edc0583f16dff0c806bdbb6","bdp_wmem","Sun Mar 12 2023 23:15:52 GMT-0400 (Eastern Daylight Time)","564870","Match,No Match","","374","","","","","","<div class='trialBorder'><div class='targDiv'><div class='tc'><img class='introPic' src='trustrating_stim/white_mw092.bmp'><br><font color='green'><strong>Share</strong></font></div></div><div class='respDiv'><div class='respDivL'>Match<br>(e)</div><div class='respDivR'>No Match<br>(i)</div></div></div>","i","TARGET","3","trustrating_stim/white_mw078.bmp,trustrating_stim/white_mw092.bmp,trustrating_stim/white_mw010.bmp","1,0,0","noMatchOutcome","i","4500","trustrating_stim/white_mw092.bmp","green","Share","REAL","1"
"html-keyboard-response","129","322210","0.0-7.0-5.18","5edc0583f16dff0c806bdbb6","bdp_wmem","Sun Mar 12 2023 23:15:52 GMT-0400 (Eastern Daylight Time)","564870","Match,No Match","","null","","","","","","<div class='trialBorder'><div class='vertical-center'><img src='img/correct.jpg'></div><div class='respDiv'><div class='respDivL'>Match<br>(e)</div><div class='respDivR'><font style='color:orange'>No Match<br>(i)</font></div></div></div>","null","FEEDBACK","","","","","","","","","","",""
"html-keyboard-response","130","322712","0.0-7.0-1.19","5edc0583f16dff0c806bdbb6","bdp_wmem","Sun Mar 12 2023 23:15:52 GMT-0400 (Eastern Daylight Time)","564870","Match,No Match","","null","","","","","","<div class='trialBorder'><div class='vertical-center'><img src='img/fixation2_sml.jpg'</img></div></div>","null","FIX","","","","","","","","","","",""
"html-keyboard-response","131","327215","0.0-7.0-2.19","5edc0583f16dff0c806bdbb6","bdp_wmem","Sun Mar 12 2023 23:15:52 GMT-0400 (Eastern Daylight Time)","564870","Match,No Match","","null","","","","","","<div class='trialBorder'><div class='vertical-center'><img style='vertical-align:center; align:center' src='img/fixation2_sml.jpg'></div><div class='arrayDiv3'><div class='tl'><img class='introPic' src='trustrating_stim/white_mw091.bmp'><br><font color='green'><strong>Share</strong></font></div><div class='tc'><img class='introPic' src='trustrating_stim/white_mw092.bmp'><br><font color='red'><strong>Keep</strong></font></div><div class='tr'><img class='introPic' src='trustrating_stim/white_mw042.bmp'><br><font color='green'><strong>Share</strong></font></div></div></div>","null","ARRAY","3","trustrating_stim/white_mw091.bmp,trustrating_stim/white_mw092.bmp,trustrating_stim/white_mw042.bmp","1,0,1","noMatchFace","i","4500","","","","",""
"html-keyboard-response","132","331216","0.0-7.0-3.19","5edc0583f16dff0c806bdbb6","bdp_wmem","Sun Mar 12 2023 23:15:52 GMT-0400 (Eastern Daylight Time)","564870","Match,No Match","","null","","","","","","<div class='trialBorder'><div class='vertical-center'><img src='img/fixation2_sml.jpg'</img></div></div>","null","DELAY","","","","","","","","","","",""
"html-keyboard-response","133","331629","0.0-7.0-4.19","5edc0583f16dff0c806bdbb6","bdp_wmem","Sun Mar 12 2023 23:15:52 GMT-0400 (Eastern Daylight Time)","564870","Match,No Match","","411","","","","","","<div class='trialBorder'><div class='targDiv'><div class='tc'><img class='introPic' src='trustrating_stim/white_mw010.bmp'><br><font color='green'><strong>Share</strong></font></div></div><div class='respDiv'><div class='respDivL'>Match<br>(e)</div><div class='respDivR'>No Match<br>(i)</div></div></div>","e","TARGET","3","trustrating_stim/white_mw091.bmp,trustrating_stim/white_mw092.bmp,trustrating_stim/white_mw042.bmp","1,0,1","noMatchFace","i","4500","trustrating_stim/white_mw010.bmp","green","Share","REAL","0"
"html-keyboard-response","134","332132","0.0-7.0-5.19","5edc0583f16dff0c806bdbb6","bdp_wmem","Sun Mar 12 2023 23:15:52 GMT-0400 (Eastern Daylight Time)","564870","Match,No Match","","null","","","","","","<div class='trialBorder'><div class='vertical-center'><img src='img/error.jpg'></div><div class='respDiv'><div class='respDivL'><font style='color:orange'>Match<br>(e)</font></div><div class='respDivR'>No Match<br>(i)</div></div></div>","null","FEEDBACK","","","","","","","","","","",""
"html-keyboard-response","135","332635","0.0-7.0-1.20","5edc0583f16dff0c806bdbb6","bdp_wmem","Sun Mar 12 2023 23:15:52 GMT-0400 (Eastern Daylight Time)","564870","Match,No Match","","null","","","","","","<div class='trialBorder'><div class='vertical-center'><img src='img/fixation2_sml.jpg'</img></div></div>","null","FIX","","","","","","","","","","",""
"html-keyboard-response","136","334138","0.0-7.0-2.20","5edc0583f16dff0c806bdbb6","bdp_wmem","Sun Mar 12 2023 23:15:52 GMT-0400 (Eastern Daylight Time)","564870","Match,No Match","","null","","","","","","<div class='trialBorder'><div class='vertical-center'><img style='vertical-align:center; align:center' src='img/fixation2_sml.jpg'></div><div class='arrayDiv1'><div class='tc'><img class='introPic' src='trustrating_stim/white_mw012.bmp'><br><font color='red'><strong>Keep</strong></font></div></div></div>","null","ARRAY","1","trustrating_stim/white_mw012.bmp","0","Match","e","1500","","","","",""
"html-keyboard-response","137","338141","0.0-7.0-3.20","5edc0583f16dff0c806bdbb6","bdp_wmem","Sun Mar 12 2023 23:15:52 GMT-0400 (Eastern Daylight Time)","564870","Match,No Match","","null","","","","","","<div class='trialBorder'><div class='vertical-center'><img src='img/fixation2_sml.jpg'</img></div></div>","null","DELAY","","","","","","","","","","",""
"html-keyboard-response","138","338538","0.0-7.0-4.20","5edc0583f16dff0c806bdbb6","bdp_wmem","Sun Mar 12 2023 23:15:52 GMT-0400 (Eastern Daylight Time)","564870","Match,No Match","","396","","","","","","<div class='trialBorder'><div class='targDiv'><div class='tc'><img class='introPic' src='trustrating_stim/white_mw012.bmp'><br><font color='red'><strong>Keep</strong></font></div></div><div class='respDiv'><div class='respDivL'>Match<br>(e)</div><div class='respDivR'>No Match<br>(i)</div></div></div>","e","TARGET","1","trustrating_stim/white_mw012.bmp","0","Match","e","1500","trustrating_stim/white_mw012.bmp","red","Keep","REAL","1"
"html-keyboard-response","139","339041","0.0-7.0-5.20","5edc0583f16dff0c806bdbb6","bdp_wmem","Sun Mar 12 2023 23:15:52 GMT-0400 (Eastern Daylight Time)","564870","Match,No Match","","null","","","","","","<div class='trialBorder'><div class='vertical-center'><img src='img/correct.jpg'></div><div class='respDiv'><div class='respDivL'><font style='color:orange'>Match<br>(e)</font></div><div class='respDivR'>No Match<br>(i)</div></div></div>","null","FEEDBACK","","","","","","","","","","",""
"html-keyboard-response","140","339542","0.0-7.0-1.21","5edc0583f16dff0c806bdbb6","bdp_wmem","Sun Mar 12 2023 23:15:52 GMT-0400 (Eastern Daylight Time)","564870","Match,No Match","","null","","","","","","<div class='trialBorder'><div class='vertical-center'><img src='img/fixation2_sml.jpg'</img></div></div>","null","FIX","","","","","","","","","","",""
"html-keyboard-response","141","341045","0.0-7.0-2.21","5edc0583f16dff0c806bdbb6","bdp_wmem","Sun Mar 12 2023 23:15:52 GMT-0400 (Eastern Daylight Time)","564870","Match,No Match","","null","","","","","","<div class='trialBorder'><div class='vertical-center'><img style='vertical-align:center; align:center' src='img/fixation2_sml.jpg'></div><div class='arrayDiv1'><div class='tc'><img class='introPic' src='trustrating_stim/white_mw013.bmp'><br><font color='green'><strong>Share</strong></font></div></div></div>","null","ARRAY","1","trustrating_stim/white_mw013.bmp","1","Match","e","1500","","","","",""
"html-keyboard-response","142","345047","0.0-7.0-3.21","5edc0583f16dff0c806bdbb6","bdp_wmem","Sun Mar 12 2023 23:15:52 GMT-0400 (Eastern Daylight Time)","564870","Match,No Match","","null","","","","","","<div class='trialBorder'><div class='vertical-center'><img src='img/fixation2_sml.jpg'</img></div></div>","null","DELAY","","","","","","","","","","",""
"html-keyboard-response","143","345704","0.0-7.0-4.21","5edc0583f16dff0c806bdbb6","bdp_wmem","Sun Mar 12 2023 23:15:52 GMT-0400 (Eastern Daylight Time)","564870","Match,No Match","","656","","","","","","<div class='trialBorder'><div class='targDiv'><div class='tc'><img class='introPic' src='trustrating_stim/white_mw013.bmp'><br><font color='green'><strong>Share</strong></font></div></div><div class='respDiv'><div class='respDivL'>Match<br>(e)</div><div class='respDivR'>No Match<br>(i)</div></div></div>","e","TARGET","1","trustrating_stim/white_mw013.bmp","1","Match","e","1500","trustrating_stim/white_mw013.bmp","green","Share","REAL","1"
"html-keyboard-response","144","346206","0.0-7.0-5.21","5edc0583f16dff0c806bdbb6","bdp_wmem","Sun Mar 12 2023 23:15:52 GMT-0400 (Eastern Daylight Time)","564870","Match,No Match","","null","","","","","","<div class='trialBorder'><div class='vertical-center'><img src='img/correct.jpg'></div><div class='respDiv'><div class='respDivL'><font style='color:orange'>Match<br>(e)</font></div><div class='respDivR'>No Match<br>(i)</div></div></div>","null","FEEDBACK","","","","","","","","","","",""
"html-keyboard-response","145","346708","0.0-7.0-1.22","5edc0583f16dff0c806bdbb6","bdp_wmem","Sun Mar 12 2023 23:15:52 GMT-0400 (Eastern Daylight Time)","564870","Match,No Match","","null","","","","","","<div class='trialBorder'><div class='vertical-center'><img src='img/fixation2_sml.jpg'</img></div></div>","null","FIX","","","","","","","","","","",""
"html-keyboard-response","146","349711","0.0-7.0-2.22","5edc0583f16dff0c806bdbb6","bdp_wmem","Sun Mar 12 2023 23:15:52 GMT-0400 (Eastern Daylight Time)","564870","Match,No Match","","null","","","","","","<div class='trialBorder'><div class='vertical-center'><img style='vertical-align:center; align:center' src='img/fixation2_sml.jpg'></div><div class='arrayDiv2'><div class='tl'><img class='introPic' src='trustrating_stim/white_mw092.bmp'><br><font color='red'><strong>Keep</strong></font></div><div class='tr'><img class='introPic' src='trustrating_stim/white_mw042.bmp'><br><font color='green'><strong>Share</strong></font></div></div></div>","null","ARRAY","2","trustrating_stim/white_mw092.bmp,trustrating_stim/white_mw042.bmp","0,1","noMatchOutcome","i","3000","","","","",""
"html-keyboard-response","147","353714","0.0-7.0-3.22","5edc0583f16dff0c806bdbb6","bdp_wmem","Sun Mar 12 2023 23:15:52 GMT-0400 (Eastern Daylight Time)","564870","Match,No Match","","null","","","","","","<div class='trialBorder'><div class='vertical-center'><img src='img/fixation2_sml.jpg'</img></div></div>","null","DELAY","","","","","","","","","","",""
"html-keyboard-response","148","354386","0.0-7.0-4.22","5edc0583f16dff0c806bdbb6","bdp_wmem","Sun Mar 12 2023 23:15:52 GMT-0400 (Eastern Daylight Time)","564870","Match,No Match","","671","","","","","","<div class='trialBorder'><div class='targDiv'><div class='tc'><img class='introPic' src='trustrating_stim/white_mw092.bmp'><br><font color='green'><strong>Share</strong></font></div></div><div class='respDiv'><div class='respDivL'>Match<br>(e)</div><div class='respDivR'>No Match<br>(i)</div></div></div>","e","TARGET","2","trustrating_stim/white_mw092.bmp,trustrating_stim/white_mw042.bmp","0,1","noMatchOutcome","i","3000","trustrating_stim/white_mw092.bmp","green","Share","REAL","0"
"html-keyboard-response","149","354889","0.0-7.0-5.22","5edc0583f16dff0c806bdbb6","bdp_wmem","Sun Mar 12 2023 23:15:52 GMT-0400 (Eastern Daylight Time)","564870","Match,No Match","","null","","","","","","<div class='trialBorder'><div class='vertical-center'><img src='img/error.jpg'></div><div class='respDiv'><div class='respDivL'><font style='color:orange'>Match<br>(e)</font></div><div class='respDivR'>No Match<br>(i)</div></div></div>","null","FEEDBACK","","","","","","","","","","",""
"html-keyboard-response","150","355390","0.0-7.0-1.23","5edc0583f16dff0c806bdbb6","bdp_wmem","Sun Mar 12 2023 23:15:52 GMT-0400 (Eastern Daylight Time)","564870","Match,No Match","","null","","","","","","<div class='trialBorder'><div class='vertical-center'><img src='img/fixation2_sml.jpg'</img></div></div>","null","FIX","","","","","","","","","","",""
"html-keyboard-response","151","356892","0.0-7.0-2.23","5edc0583f16dff0c806bdbb6","bdp_wmem","Sun Mar 12 2023 23:15:52 GMT-0400 (Eastern Daylight Time)","564870","Match,No Match","","null","","","","","","<div class='trialBorder'><div class='vertical-center'><img style='vertical-align:center; align:center' src='img/fixation2_sml.jpg'></div><div class='arrayDiv1'><div class='tc'><img class='introPic' src='trustrating_stim/white_mw078.bmp'><br><font color='green'><strong>Share</strong></font></div></div></div>","null","ARRAY","1","trustrating_stim/white_mw078.bmp","1","noMatchOutcome","i","1500","","","","",""
"html-keyboard-response","152","360894","0.0-7.0-3.23","5edc0583f16dff0c806bdbb6","bdp_wmem","Sun Mar 12 2023 23:15:52 GMT-0400 (Eastern Daylight Time)","564870","Match,No Match","","null","","","","","","<div class='trialBorder'><div class='vertical-center'><img src='img/fixation2_sml.jpg'</img></div></div>","null","DELAY","","","","","","","","","","",""
"html-keyboard-response","153","361472","0.0-7.0-4.23","5edc0583f16dff0c806bdbb6","bdp_wmem","Sun Mar 12 2023 23:15:52 GMT-0400 (Eastern Daylight Time)","564870","Match,No Match","","576","","","","","","<div class='trialBorder'><div class='targDiv'><div class='tc'><img class='introPic' src='trustrating_stim/white_mw078.bmp'><br><font color='red'><strong>Keep</strong></font></div></div><div class='respDiv'><div class='respDivL'>Match<br>(e)</div><div class='respDivR'>No Match<br>(i)</div></div></div>","e","TARGET","1","trustrating_stim/white_mw078.bmp","1","noMatchOutcome","i","1500","trustrating_stim/white_mw078.bmp","red","Keep","REAL","0"
"html-keyboard-response","154","361974","0.0-7.0-5.23","5edc0583f16dff0c806bdbb6","bdp_wmem","Sun Mar 12 2023 23:15:52 GMT-0400 (Eastern Daylight Time)","564870","Match,No Match","","null","","","","","","<div class='trialBorder'><div class='vertical-center'><img src='img/error.jpg'></div><div class='respDiv'><div class='respDivL'><font style='color:orange'>Match<br>(e)</font></div><div class='respDivR'>No Match<br>(i)</div></div></div>","null","FEEDBACK","","","","","","","","","","",""
"html-keyboard-response","155","362476","0.0-7.0-1.24","5edc0583f16dff0c806bdbb6","bdp_wmem","Sun Mar 12 2023 23:15:52 GMT-0400 (Eastern Daylight Time)","564870","Match,No Match","","null","","","","","","<div class='trialBorder'><div class='vertical-center'><img src='img/fixation2_sml.jpg'</img></div></div>","null","FIX","","","","","","","","","","",""
"html-keyboard-response","156","366978","0.0-7.0-2.24","5edc0583f16dff0c806bdbb6","bdp_wmem","Sun Mar 12 2023 23:15:52 GMT-0400 (Eastern Daylight Time)","564870","Match,No Match","","null","","","","","","<div class='trialBorder'><div class='vertical-center'><img style='vertical-align:center; align:center' src='img/fixation2_sml.jpg'></div><div class='arrayDiv3'><div class='tl'><img class='introPic' src='trustrating_stim/white_mw091.bmp'><br><font color='green'><strong>Share</strong></font></div><div class='tc'><img class='introPic' src='trustrating_stim/white_mw040.bmp'><br><font color='green'><strong>Share</strong></font></div><div class='tr'><img class='introPic' src='trustrating_stim/white_mw013.bmp'><br><font color='red'><strong>Keep</strong></font></div></div></div>","null","ARRAY","3","trustrating_stim/white_mw091.bmp,trustrating_stim/white_mw040.bmp,trustrating_stim/white_mw013.bmp","1,1,0","noMatchFace","i","4500","","","","",""
"html-keyboard-response","157","370981","0.0-7.0-3.24","5edc0583f16dff0c806bdbb6","bdp_wmem","Sun Mar 12 2023 23:15:52 GMT-0400 (Eastern Daylight Time)","564870","Match,No Match","","null","","","","","","<div class='trialBorder'><div class='vertical-center'><img src='img/fixation2_sml.jpg'</img></div></div>","null","DELAY","","","","","","","","","","",""
"html-keyboard-response","158","371559","0.0-7.0-4.24","5edc0583f16dff0c806bdbb6","bdp_wmem","Sun Mar 12 2023 23:15:52 GMT-0400 (Eastern Daylight Time)","564870","Match,No Match","","576","","","","","","<div class='trialBorder'><div class='targDiv'><div class='tc'><img class='introPic' src='trustrating_stim/white_mw085.bmp'><br><font color='red'><strong>Keep</strong></font></div></div><div class='respDiv'><div class='respDivL'>Match<br>(e)</div><div class='respDivR'>No Match<br>(i)</div></div></div>","e","TARGET","3","trustrating_stim/white_mw091.bmp,trustrating_stim/white_mw040.bmp,trustrating_stim/white_mw013.bmp","1,1,0","noMatchFace","i","4500","trustrating_stim/white_mw085.bmp","red","Keep","REAL","0"
"html-keyboard-response","159","372061","0.0-7.0-5.24","5edc0583f16dff0c806bdbb6","bdp_wmem","Sun Mar 12 2023 23:15:52 GMT-0400 (Eastern Daylight Time)","564870","Match,No Match","","null","","","","","","<div class='trialBorder'><div class='vertical-center'><img src='img/error.jpg'></div><div class='respDiv'><div class='respDivL'><font style='color:orange'>Match<br>(e)</font></div><div class='respDivR'>No Match<br>(i)</div></div></div>","null","FEEDBACK","","","","","","","","","","",""
"html-keyboard-response","160","372564","0.0-7.0-1.25","5edc0583f16dff0c806bdbb6","bdp_wmem","Sun Mar 12 2023 23:15:52 GMT-0400 (Eastern Daylight Time)","564870","Match,No Match","","null","","","","","","<div class='trialBorder'><div class='vertical-center'><img src='img/fixation2_sml.jpg'</img></div></div>","null","FIX","","","","","","","","","","",""
"html-keyboard-response","161","374066","0.0-7.0-2.25","5edc0583f16dff0c806bdbb6","bdp_wmem","Sun Mar 12 2023 23:15:52 GMT-0400 (Eastern Daylight Time)","564870","Match,No Match","","null","","","","","","<div class='trialBorder'><div class='vertical-center'><img style='vertical-align:center; align:center' src='img/fixation2_sml.jpg'></div><div class='arrayDiv1'><div class='tc'><img class='introPic' src='trustrating_stim/white_mw085.bmp'><br><font color='green'><strong>Share</strong></font></div></div></div>","null","ARRAY","1","trustrating_stim/white_mw085.bmp","1","noMatchOutcome","i","1500","","","","",""
"html-keyboard-response","162","378069","0.0-7.0-3.25","5edc0583f16dff0c806bdbb6","bdp_wmem","Sun Mar 12 2023 23:15:52 GMT-0400 (Eastern Daylight Time)","564870","Match,No Match","","null","","","","","","<div class='trialBorder'><div class='vertical-center'><img src='img/fixation2_sml.jpg'</img></div></div>","null","DELAY","","","","","","","","","","",""
"html-keyboard-response","163","378702","0.0-7.0-4.25","5edc0583f16dff0c806bdbb6","bdp_wmem","Sun Mar 12 2023 23:15:52 GMT-0400 (Eastern Daylight Time)","564870","Match,No Match","","630","","","","","","<div class='trialBorder'><div class='targDiv'><div class='tc'><img class='introPic' src='trustrating_stim/white_mw085.bmp'><br><font color='red'><strong>Keep</strong></font></div></div><div class='respDiv'><div class='respDivL'>Match<br>(e)</div><div class='respDivR'>No Match<br>(i)</div></div></div>","e","TARGET","1","trustrating_stim/white_mw085.bmp","1","noMatchOutcome","i","1500","trustrating_stim/white_mw085.bmp","red","Keep","REAL","0"
"html-keyboard-response","164","379204","0.0-7.0-5.25","5edc0583f16dff0c806bdbb6","bdp_wmem","Sun Mar 12 2023 23:15:52 GMT-0400 (Eastern Daylight Time)","564870","Match,No Match","","null","","","","","","<div class='trialBorder'><div class='vertical-center'><img src='img/error.jpg'></div><div class='respDiv'><div class='respDivL'><font style='color:orange'>Match<br>(e)</font></div><div class='respDivR'>No Match<br>(i)</div></div></div>","null","FEEDBACK","","","","","","","","","","",""
"html-keyboard-response","165","379705","0.0-7.0-1.26","5edc0583f16dff0c806bdbb6","bdp_wmem","Sun Mar 12 2023 23:15:52 GMT-0400 (Eastern Daylight Time)","564870","Match,No Match","","null","","","","","","<div class='trialBorder'><div class='vertical-center'><img src='img/fixation2_sml.jpg'</img></div></div>","null","FIX","","","","","","","","","","",""
"html-keyboard-response","166","382708","0.0-7.0-2.26","5edc0583f16dff0c806bdbb6","bdp_wmem","Sun Mar 12 2023 23:15:52 GMT-0400 (Eastern Daylight Time)","564870","Match,No Match","","null","","","","","","<div class='trialBorder'><div class='vertical-center'><img style='vertical-align:center; align:center' src='img/fixation2_sml.jpg'></div><div class='arrayDiv2'><div class='tl'><img class='introPic' src='trustrating_stim/white_mw042.bmp'><br><font color='red'><strong>Keep</strong></font></div><div class='tr'><img class='introPic' src='trustrating_stim/white_mw003.bmp'><br><font color='green'><strong>Share</strong></font></div></div></div>","null","ARRAY","2","trustrating_stim/white_mw042.bmp,trustrating_stim/white_mw003.bmp","0,1","noMatchOutcome","i","3000","","","","",""
"html-keyboard-response","167","386710","0.0-7.0-3.26","5edc0583f16dff0c806bdbb6","bdp_wmem","Sun Mar 12 2023 23:15:52 GMT-0400 (Eastern Daylight Time)","564870","Match,No Match","","null","","","","","","<div class='trialBorder'><div class='vertical-center'><img src='img/fixation2_sml.jpg'</img></div></div>","null","DELAY","","","","","","","","","","",""
"html-keyboard-response","168","387430","0.0-7.0-4.26","5edc0583f16dff0c806bdbb6","bdp_wmem","Sun Mar 12 2023 23:15:52 GMT-0400 (Eastern Daylight Time)","564870","Match,No Match","","718","","","","","","<div class='trialBorder'><div class='targDiv'><div class='tc'><img class='introPic' src='trustrating_stim/white_mw042.bmp'><br><font color='green'><strong>Share</strong></font></div></div><div class='respDiv'><div class='respDivL'>Match<br>(e)</div><div class='respDivR'>No Match<br>(i)</div></div></div>","e","TARGET","2","trustrating_stim/white_mw042.bmp,trustrating_stim/white_mw003.bmp","0,1","noMatchOutcome","i","3000","trustrating_stim/white_mw042.bmp","green","Share","REAL","0"
"html-keyboard-response","169","387932","0.0-7.0-5.26","5edc0583f16dff0c806bdbb6","bdp_wmem","Sun Mar 12 2023 23:15:52 GMT-0400 (Eastern Daylight Time)","564870","Match,No Match","","null","","","","","","<div class='trialBorder'><div class='vertical-center'><img src='img/error.jpg'></div><div class='respDiv'><div class='respDivL'><font style='color:orange'>Match<br>(e)</font></div><div class='respDivR'>No Match<br>(i)</div></div></div>","null","FEEDBACK","","","","","","","","","","",""
"html-keyboard-response","170","388434","0.0-7.0-1.27","5edc0583f16dff0c806bdbb6","bdp_wmem","Sun Mar 12 2023 23:15:52 GMT-0400 (Eastern Daylight Time)","564870","Match,No Match","","null","","","","","","<div class='trialBorder'><div class='vertical-center'><img src='img/fixation2_sml.jpg'</img></div></div>","null","FIX","","","","","","","","","","",""
"html-keyboard-response","171","391436","0.0-7.0-2.27","5edc0583f16dff0c806bdbb6","bdp_wmem","Sun Mar 12 2023 23:15:52 GMT-0400 (Eastern Daylight Time)","564870","Match,No Match","","null","","","","","","<div class='trialBorder'><div class='vertical-center'><img style='vertical-align:center; align:center' src='img/fixation2_sml.jpg'></div><div class='arrayDiv2'><div class='tl'><img class='introPic' src='trustrating_stim/white_mw091.bmp'><br><font color='green'><strong>Share</strong></font></div><div class='tr'><img class='introPic' src='trustrating_stim/white_mw042.bmp'><br><font color='red'><strong>Keep</strong></font></div></div></div>","null","ARRAY","2","trustrating_stim/white_mw091.bmp,trustrating_stim/white_mw042.bmp","1,0","noMatchFace","i","3000","","","","",""
"html-keyboard-response","172","395438","0.0-7.0-3.27","5edc0583f16dff0c806bdbb6","bdp_wmem","Sun Mar 12 2023 23:15:52 GMT-0400 (Eastern Daylight Time)","564870","Match,No Match","","null","","","","","","<div class='trialBorder'><div class='vertical-center'><img src='img/fixation2_sml.jpg'</img></div></div>","null","DELAY","","","","","","","","","","",""
"html-keyboard-response","173","395841","0.0-7.0-4.27","5edc0583f16dff0c806bdbb6","bdp_wmem","Sun Mar 12 2023 23:15:52 GMT-0400 (Eastern Daylight Time)","564870","Match,No Match","","401","","","","","","<div class='trialBorder'><div class='targDiv'><div class='tc'><img class='introPic' src='trustrating_stim/white_mw078.bmp'><br><font color='red'><strong>Keep</strong></font></div></div><div class='respDiv'><div class='respDivL'>Match<br>(e)</div><div class='respDivR'>No Match<br>(i)</div></div></div>","i","TARGET","2","trustrating_stim/white_mw091.bmp,trustrating_stim/white_mw042.bmp","1,0","noMatchFace","i","3000","trustrating_stim/white_mw078.bmp","red","Keep","REAL","1"
"html-keyboard-response","174","396343","0.0-7.0-5.27","5edc0583f16dff0c806bdbb6","bdp_wmem","Sun Mar 12 2023 23:15:52 GMT-0400 (Eastern Daylight Time)","564870","Match,No Match","","null","","","","","","<div class='trialBorder'><div class='vertical-center'><img src='img/correct.jpg'></div><div class='respDiv'><div class='respDivL'>Match<br>(e)</div><div class='respDivR'><font style='color:orange'>No Match<br>(i)</font></div></div></div>","null","FEEDBACK","","","","","","","","","","",""
"html-keyboard-response","175","396845","0.0-7.0-1.28","5edc0583f16dff0c806bdbb6","bdp_wmem","Sun Mar 12 2023 23:15:52 GMT-0400 (Eastern Daylight Time)","564870","Match,No Match","","null","","","","","","<div class='trialBorder'><div class='vertical-center'><img src='img/fixation2_sml.jpg'</img></div></div>","null","FIX","","","","","","","","","","",""
"html-keyboard-response","176","398348","0.0-7.0-2.28","5edc0583f16dff0c806bdbb6","bdp_wmem","Sun Mar 12 2023 23:15:52 GMT-0400 (Eastern Daylight Time)","564870","Match,No Match","","null","","","","","","<div class='trialBorder'><div class='vertical-center'><img style='vertical-align:center; align:center' src='img/fixation2_sml.jpg'></div><div class='arrayDiv1'><div class='tc'><img class='introPic' src='trustrating_stim/white_mw078.bmp'><br><font color='green'><strong>Share</strong></font></div></div></div>","null","ARRAY","1","trustrating_stim/white_mw078.bmp","1","Match","e","1500","","","","",""
"html-keyboard-response","177","402349","0.0-7.0-3.28","5edc0583f16dff0c806bdbb6","bdp_wmem","Sun Mar 12 2023 23:15:52 GMT-0400 (Eastern Daylight Time)","564870","Match,No Match","","null","","","","","","<div class='trialBorder'><div class='vertical-center'><img src='img/fixation2_sml.jpg'</img></div></div>","null","DELAY","","","","","","","","","","",""
"html-keyboard-response","178","402935","0.0-7.0-4.28","5edc0583f16dff0c806bdbb6","bdp_wmem","Sun Mar 12 2023 23:15:52 GMT-0400 (Eastern Daylight Time)","564870","Match,No Match","","585","","","","","","<div class='trialBorder'><div class='targDiv'><div class='tc'><img class='introPic' src='trustrating_stim/white_mw078.bmp'><br><font color='green'><strong>Share</strong></font></div></div><div class='respDiv'><div class='respDivL'>Match<br>(e)</div><div class='respDivR'>No Match<br>(i)</div></div></div>","i","TARGET","1","trustrating_stim/white_mw078.bmp","1","Match","e","1500","trustrating_stim/white_mw078.bmp","green","Share","REAL","0"
"html-keyboard-response","179","403436","0.0-7.0-5.28","5edc0583f16dff0c806bdbb6","bdp_wmem","Sun Mar 12 2023 23:15:52 GMT-0400 (Eastern Daylight Time)","564870","Match,No Match","","null","","","","","","<div class='trialBorder'><div class='vertical-center'><img src='img/error.jpg'></div><div class='respDiv'><div class='respDivL'>Match<br>(e)</div><div class='respDivR'><font style='color:orange'>No Match<br>(i)</font></div></div></div>","null","FEEDBACK","","","","","","","","","","",""
"html-keyboard-response","180","403938","0.0-7.0-1.29","5edc0583f16dff0c806bdbb6","bdp_wmem","Sun Mar 12 2023 23:15:52 GMT-0400 (Eastern Daylight Time)","564870","Match,No Match","","null","","","","","","<div class='trialBorder'><div class='vertical-center'><img src='img/fixation2_sml.jpg'</img></div></div>","null","FIX","","","","","","","","","","",""
"html-keyboard-response","181","405440","0.0-7.0-2.29","5edc0583f16dff0c806bdbb6","bdp_wmem","Sun Mar 12 2023 23:15:52 GMT-0400 (Eastern Daylight Time)","564870","Match,No Match","","null","","","","","","<div class='trialBorder'><div class='vertical-center'><img style='vertical-align:center; align:center' src='img/fixation2_sml.jpg'></div><div class='arrayDiv1'><div class='tc'><img class='introPic' src='trustrating_stim/white_mw070.bmp'><br><font color='green'><strong>Share</strong></font></div></div></div>","null","ARRAY","1","trustrating_stim/white_mw070.bmp","1","Match","e","1500","","","","",""
"html-keyboard-response","182","409442","0.0-7.0-3.29","5edc0583f16dff0c806bdbb6","bdp_wmem","Sun Mar 12 2023 23:15:52 GMT-0400 (Eastern Daylight Time)","564870","Match,No Match","","null","","","","","","<div class='trialBorder'><div class='vertical-center'><img src='img/fixation2_sml.jpg'</img></div></div>","null","DELAY","","","","","","","","","","",""
"html-keyboard-response","183","410031","0.0-7.0-4.29","5edc0583f16dff0c806bdbb6","bdp_wmem","Sun Mar 12 2023 23:15:52 GMT-0400 (Eastern Daylight Time)","564870","Match,No Match","","586","","","","","","<div class='trialBorder'><div class='targDiv'><div class='tc'><img class='introPic' src='trustrating_stim/white_mw070.bmp'><br><font color='green'><strong>Share</strong></font></div></div><div class='respDiv'><div class='respDivL'>Match<br>(e)</div><div class='respDivR'>No Match<br>(i)</div></div></div>","i","TARGET","1","trustrating_stim/white_mw070.bmp","1","Match","e","1500","trustrating_stim/white_mw070.bmp","green","Share","REAL","0"
"html-keyboard-response","184","410532","0.0-7.0-5.29","5edc0583f16dff0c806bdbb6","bdp_wmem","Sun Mar 12 2023 23:15:52 GMT-0400 (Eastern Daylight Time)","564870","Match,No Match","","null","","","","","","<div class='trialBorder'><div class='vertical-center'><img src='img/error.jpg'></div><div class='respDiv'><div class='respDivL'>Match<br>(e)</div><div class='respDivR'><font style='color:orange'>No Match<br>(i)</font></div></div></div>","null","FEEDBACK","","","","","","","","","","",""
"html-keyboard-response","185","411035","0.0-7.0-1.30","5edc0583f16dff0c806bdbb6","bdp_wmem","Sun Mar 12 2023 23:15:52 GMT-0400 (Eastern Daylight Time)","564870","Match,No Match","","null","","","","","","<div class='trialBorder'><div class='vertical-center'><img src='img/fixation2_sml.jpg'</img></div></div>","null","FIX","","","","","","","","","","",""
"html-keyboard-response","186","415538","0.0-7.0-2.30","5edc0583f16dff0c806bdbb6","bdp_wmem","Sun Mar 12 2023 23:15:52 GMT-0400 (Eastern Daylight Time)","564870","Match,No Match","","null","","","","","","<div class='trialBorder'><div class='vertical-center'><img style='vertical-align:center; align:center' src='img/fixation2_sml.jpg'></div><div class='arrayDiv3'><div class='tl'><img class='introPic' src='trustrating_stim/white_mw038.bmp'><br><font color='green'><strong>Share</strong></font></div><div class='tc'><img class='introPic' src='trustrating_stim/white_mw085.bmp'><br><font color='red'><strong>Keep</strong></font></div><div class='tr'><img class='introPic' src='trustrating_stim/white_mw012.bmp'><br><font color='red'><strong>Keep</strong></font></div></div></div>","null","ARRAY","3","trustrating_stim/white_mw038.bmp,trustrating_stim/white_mw085.bmp,trustrating_stim/white_mw012.bmp","1,0,0","noMatchOutcome","i","4500","","","","",""
"html-keyboard-response","187","419540","0.0-7.0-3.30","5edc0583f16dff0c806bdbb6","bdp_wmem","Sun Mar 12 2023 23:15:52 GMT-0400 (Eastern Daylight Time)","564870","Match,No Match","","null","","","","","","<div class='trialBorder'><div class='vertical-center'><img src='img/fixation2_sml.jpg'</img></div></div>","null","DELAY","","","","","","","","","","",""
