"trial_type","trial_index","time_elapsed","internal_node_id","subject_id","task","startTime","totalTime","labels","view_history","rt","event","trial","time","trialtype","success","stimulus","key_press","stimType","arraySize","arrayFaces","arrayOutcomes","matchType","corrResp","arrayDur","targFace","targCol","targOutcome","trialType","corr"
"pavlovia","0","5","0.0-0.0","","bdp_wmem","Wed Mar 02 2022 19:37:47 GMT-0500 (Eastern Standard Time)","788490","Match,No Match","","","","","","","","","","","","","","","","","","","","",""
"instructions","1","23398","0.0-1.0","","bdp_wmem","Wed Mar 02 2022 19:37:47 GMT-0500 (Eastern Standard Time)","788490","Match,No Match","[{""page_index"":0,""viewing_time"":23393}]","23393","","","","","","","","","","","","","","","","","","",""
"","","","","","bdp_wmem","Wed Mar 02 2022 19:37:47 GMT-0500 (Eastern Standard Time)","788490","Match,No Match","","","fullscreenenter","2","28128","fullscreenenter","","","","","","","","","","","","","","",""
"fullscreen","2","29065","0.0-2.0","","bdp_wmem","Wed Mar 02 2022 19:37:47 GMT-0500 (Eastern Standard Time)","788490","Match,No Match","","","","","","","true","","","","","","","","","","","","","",""
"instructions","3","250524","0.0-4.0","","bdp_wmem","Wed Mar 02 2022 19:37:47 GMT-0500 (Eastern Standard Time)","788490","Match,No Match","[{""page_index"":0,""viewing_time"":64658},{""page_index"":1,""viewing_time"":63321},{""page_index"":2,""viewing_time"":44318},{""page_index"":3,""viewing_time"":19248},{""page_index"":4,""viewing_time"":29913}]","221458","","","","","","","","","","","","","","","","","","",""
"html-keyboard-response","4","251027","0.0-5.0-1.0","","bdp_wmem","Wed Mar 02 2022 19:37:47 GMT-0500 (Eastern Standard Time)","788490","Match,No Match","","null","","","","","","<div class='trialBorder'><div class='vertical-center'><img src='img/fixation2_sml.jpg'</img></div></div>","null","FIX","","","","","","","","","","",""
"html-keyboard-response","5","254033","0.0-5.0-2.0","","bdp_wmem","Wed Mar 02 2022 19:37:47 GMT-0500 (Eastern Standard Time)","788490","Match,No Match","","null","","","","","","<div class='trialBorder'><div class='vertical-center'><img style='vertical-align:center; align:center' src='img/fixation2_sml.jpg'></div><div class='arrayDiv2'><div class='tl'><img class='introPic' src='trustrating_stim/white_mw012.bmp'><br><font color='red'><strong>Keep</strong></font></div><div class='tr'><img class='introPic' src='trustrating_stim/white_mw091.bmp'><br><font color='green'><strong>Share</strong></font></div></div></div>","null","ARRAY","2","trustrating_stim/white_mw012.bmp,trustrating_stim/white_mw091.bmp","0,1","noMatchFace","i","3000","","","","",""
"html-keyboard-response","6","258038","0.0-5.0-3.0","","bdp_wmem","Wed Mar 02 2022 19:37:47 GMT-0500 (Eastern Standard Time)","788490","Match,No Match","","null","","","","","","<div class='trialBorder'><div class='vertical-center'><img src='img/fixation2_sml.jpg'</img></div></div>","null","DELAY","","","","","","","","","","",""
"html-keyboard-response","7","262180","0.0-5.0-4.0","","bdp_wmem","Wed Mar 02 2022 19:37:47 GMT-0500 (Eastern Standard Time)","788490","Match,No Match","","4140","","","","","","<div class='trialBorder'><div class='targDiv'><div class='tc'><img class='introPic' src='trustrating_stim/white_mw092.bmp'><br><font color='green'><strong>Share</strong></font></div></div><div class='respDiv'><div class='respDivL'>Match<br>(e)</div><div class='respDivR'>No Match<br>(i)</div></div></div>","i","TARGET","2","trustrating_stim/white_mw012.bmp,trustrating_stim/white_mw091.bmp","0,1","noMatchFace","i","3000","trustrating_stim/white_mw092.bmp","green","Share","PRACTICE","1"
"html-keyboard-response","8","262682","0.0-5.0-5.0","","bdp_wmem","Wed Mar 02 2022 19:37:47 GMT-0500 (Eastern Standard Time)","788490","Match,No Match","","null","","","","","","<div class='trialBorder'><div class='vertical-center'><img src='img/correct.jpg'></div><div class='respDiv'><div class='respDivL'>Match<br>(e)</div><div class='respDivR'><font style='color:orange'>No Match<br>(i)</font></div></div></div>","null","FEEDBACK","","","","","","","","","","",""
"html-keyboard-response","9","263185","0.0-5.0-1.1","","bdp_wmem","Wed Mar 02 2022 19:37:47 GMT-0500 (Eastern Standard Time)","788490","Match,No Match","","null","","","","","","<div class='trialBorder'><div class='vertical-center'><img src='img/fixation2_sml.jpg'</img></div></div>","null","FIX","","","","","","","","","","",""
"html-keyboard-response","10","267688","0.0-5.0-2.1","","bdp_wmem","Wed Mar 02 2022 19:37:47 GMT-0500 (Eastern Standard Time)","788490","Match,No Match","","null","","","","","","<div class='trialBorder'><div class='vertical-center'><img style='vertical-align:center; align:center' src='img/fixation2_sml.jpg'></div><div class='arrayDiv3'><div class='tl'><img class='introPic' src='trustrating_stim/white_mw012.bmp'><br><font color='green'><strong>Share</strong></font></div><div class='tc'><img class='introPic' src='trustrating_stim/white_mw015.bmp'><br><font color='green'><strong>Share</strong></font></div><div class='tr'><img class='introPic' src='trustrating_stim/white_mw013.bmp'><br><font color='red'><strong>Keep</strong></font></div></div></div>","null","ARRAY","3","trustrating_stim/white_mw012.bmp,trustrating_stim/white_mw015.bmp,trustrating_stim/white_mw013.bmp","1,1,0","Match","e","4500","","","","",""
"html-keyboard-response","11","271692","0.0-5.0-3.1","","bdp_wmem","Wed Mar 02 2022 19:37:47 GMT-0500 (Eastern Standard Time)","788490","Match,No Match","","null","","","","","","<div class='trialBorder'><div class='vertical-center'><img src='img/fixation2_sml.jpg'</img></div></div>","null","DELAY","","","","","","","","","","",""
"html-keyboard-response","12","273351","0.0-5.0-4.1","","bdp_wmem","Wed Mar 02 2022 19:37:47 GMT-0500 (Eastern Standard Time)","788490","Match,No Match","","1657","","","","","","<div class='trialBorder'><div class='targDiv'><div class='tc'><img class='introPic' src='trustrating_stim/white_mw012.bmp'><br><font color='green'><strong>Share</strong></font></div></div><div class='respDiv'><div class='respDivL'>Match<br>(e)</div><div class='respDivR'>No Match<br>(i)</div></div></div>","e","TARGET","3","trustrating_stim/white_mw012.bmp,trustrating_stim/white_mw015.bmp,trustrating_stim/white_mw013.bmp","1,1,0","Match","e","4500","trustrating_stim/white_mw012.bmp","green","Share","PRACTICE","1"
"html-keyboard-response","13","273853","0.0-5.0-5.1","","bdp_wmem","Wed Mar 02 2022 19:37:47 GMT-0500 (Eastern Standard Time)","788490","Match,No Match","","null","","","","","","<div class='trialBorder'><div class='vertical-center'><img src='img/correct.jpg'></div><div class='respDiv'><div class='respDivL'><font style='color:orange'>Match<br>(e)</font></div><div class='respDivR'>No Match<br>(i)</div></div></div>","null","FEEDBACK","","","","","","","","","","",""
"html-keyboard-response","14","274355","0.0-5.0-1.2","","bdp_wmem","Wed Mar 02 2022 19:37:47 GMT-0500 (Eastern Standard Time)","788490","Match,No Match","","null","","","","","","<div class='trialBorder'><div class='vertical-center'><img src='img/fixation2_sml.jpg'</img></div></div>","null","FIX","","","","","","","","","","",""
"html-keyboard-response","15","278860","0.0-5.0-2.2","","bdp_wmem","Wed Mar 02 2022 19:37:47 GMT-0500 (Eastern Standard Time)","788490","Match,No Match","","null","","","","","","<div class='trialBorder'><div class='vertical-center'><img style='vertical-align:center; align:center' src='img/fixation2_sml.jpg'></div><div class='arrayDiv3'><div class='tl'><img class='introPic' src='trustrating_stim/white_mw015.bmp'><br><font color='red'><strong>Keep</strong></font></div><div class='tc'><img class='introPic' src='trustrating_stim/white_mw013.bmp'><br><font color='red'><strong>Keep</strong></font></div><div class='tr'><img class='introPic' src='trustrating_stim/white_00807_941205_fb_edt.bmp'><br><font color='green'><strong>Share</strong></font></div></div></div>","null","ARRAY","3","trustrating_stim/white_mw015.bmp,trustrating_stim/white_mw013.bmp,trustrating_stim/white_00807_941205_fb_edt.bmp","0,0,1","noMatchOutcome","i","4500","","","","",""
"html-keyboard-response","16","282861","0.0-5.0-3.2","","bdp_wmem","Wed Mar 02 2022 19:37:47 GMT-0500 (Eastern Standard Time)","788490","Match,No Match","","null","","","","","","<div class='trialBorder'><div class='vertical-center'><img src='img/fixation2_sml.jpg'</img></div></div>","null","DELAY","","","","","","","","","","",""
"html-keyboard-response","17","285117","0.0-5.0-4.2","","bdp_wmem","Wed Mar 02 2022 19:37:47 GMT-0500 (Eastern Standard Time)","788490","Match,No Match","","2254","","","","","","<div class='trialBorder'><div class='targDiv'><div class='tc'><img class='introPic' src='trustrating_stim/white_00807_941205_fb_edt.bmp'><br><font color='red'><strong>Keep</strong></font></div></div><div class='respDiv'><div class='respDivL'>Match<br>(e)</div><div class='respDivR'>No Match<br>(i)</div></div></div>","e","TARGET","3","trustrating_stim/white_mw015.bmp,trustrating_stim/white_mw013.bmp,trustrating_stim/white_00807_941205_fb_edt.bmp","0,0,1","noMatchOutcome","i","4500","trustrating_stim/white_00807_941205_fb_edt.bmp","red","Keep","PRACTICE","0"
"html-keyboard-response","18","285619","0.0-5.0-5.2","","bdp_wmem","Wed Mar 02 2022 19:37:47 GMT-0500 (Eastern Standard Time)","788490","Match,No Match","","null","","","","","","<div class='trialBorder'><div class='vertical-center'><img src='img/error.jpg'></div><div class='respDiv'><div class='respDivL'><font style='color:orange'>Match<br>(e)</font></div><div class='respDivR'>No Match<br>(i)</div></div></div>","null","FEEDBACK","","","","","","","","","","",""
"html-keyboard-response","19","286124","0.0-5.0-1.3","","bdp_wmem","Wed Mar 02 2022 19:37:47 GMT-0500 (Eastern Standard Time)","788490","Match,No Match","","null","","","","","","<div class='trialBorder'><div class='vertical-center'><img src='img/fixation2_sml.jpg'</img></div></div>","null","FIX","","","","","","","","","","",""
"html-keyboard-response","20","287628","0.0-5.0-2.3","","bdp_wmem","Wed Mar 02 2022 19:37:47 GMT-0500 (Eastern Standard Time)","788490","Match,No Match","","null","","","","","","<div class='trialBorder'><div class='vertical-center'><img style='vertical-align:center; align:center' src='img/fixation2_sml.jpg'></div><div class='arrayDiv1'><div class='tc'><img class='introPic' src='trustrating_stim/white_00807_941205_fb_edt.bmp'><br><font color='green'><strong>Share</strong></font></div></div></div>","null","ARRAY","1","trustrating_stim/white_00807_941205_fb_edt.bmp","1","Match","e","1500","","","","",""
"html-keyboard-response","21","291634","0.0-5.0-3.3","","bdp_wmem","Wed Mar 02 2022 19:37:47 GMT-0500 (Eastern Standard Time)","788490","Match,No Match","","null","","","","","","<div class='trialBorder'><div class='vertical-center'><img src='img/fixation2_sml.jpg'</img></div></div>","null","DELAY","","","","","","","","","","",""
"html-keyboard-response","22","295504","0.0-5.0-4.3","","bdp_wmem","Wed Mar 02 2022 19:37:47 GMT-0500 (Eastern Standard Time)","788490","Match,No Match","","3869","","","","","","<div class='trialBorder'><div class='targDiv'><div class='tc'><img class='introPic' src='trustrating_stim/white_00807_941205_fb_edt.bmp'><br><font color='green'><strong>Share</strong></font></div></div><div class='respDiv'><div class='respDivL'>Match<br>(e)</div><div class='respDivR'>No Match<br>(i)</div></div></div>","e","TARGET","1","trustrating_stim/white_00807_941205_fb_edt.bmp","1","Match","e","1500","trustrating_stim/white_00807_941205_fb_edt.bmp","green","Share","PRACTICE","1"
"html-keyboard-response","23","296007","0.0-5.0-5.3","","bdp_wmem","Wed Mar 02 2022 19:37:47 GMT-0500 (Eastern Standard Time)","788490","Match,No Match","","null","","","","","","<div class='trialBorder'><div class='vertical-center'><img src='img/correct.jpg'></div><div class='respDiv'><div class='respDivL'><font style='color:orange'>Match<br>(e)</font></div><div class='respDivR'>No Match<br>(i)</div></div></div>","null","FEEDBACK","","","","","","","","","","",""
"html-keyboard-response","24","296508","0.0-5.0-1.4","","bdp_wmem","Wed Mar 02 2022 19:37:47 GMT-0500 (Eastern Standard Time)","788490","Match,No Match","","null","","","","","","<div class='trialBorder'><div class='vertical-center'><img src='img/fixation2_sml.jpg'</img></div></div>","null","FIX","","","","","","","","","","",""
"html-keyboard-response","25","299511","0.0-5.0-2.4","","bdp_wmem","Wed Mar 02 2022 19:37:47 GMT-0500 (Eastern Standard Time)","788490","Match,No Match","","null","","","","","","<div class='trialBorder'><div class='vertical-center'><img style='vertical-align:center; align:center' src='img/fixation2_sml.jpg'></div><div class='arrayDiv2'><div class='tl'><img class='introPic' src='trustrating_stim/white_mw015.bmp'><br><font color='green'><strong>Share</strong></font></div><div class='tr'><img class='introPic' src='trustrating_stim/white_mw003.bmp'><br><font color='red'><strong>Keep</strong></font></div></div></div>","null","ARRAY","2","trustrating_stim/white_mw015.bmp,trustrating_stim/white_mw003.bmp","1,0","Match","e","3000","","","","",""
"html-keyboard-response","26","303516","0.0-5.0-3.4","","bdp_wmem","Wed Mar 02 2022 19:37:47 GMT-0500 (Eastern Standard Time)","788490","Match,No Match","","null","","","","","","<div class='trialBorder'><div class='vertical-center'><img src='img/fixation2_sml.jpg'</img></div></div>","null","DELAY","","","","","","","","","","",""
"html-keyboard-response","27","306593","0.0-5.0-4.4","","bdp_wmem","Wed Mar 02 2022 19:37:47 GMT-0500 (Eastern Standard Time)","788490","Match,No Match","","3074","","","","","","<div class='trialBorder'><div class='targDiv'><div class='tc'><img class='introPic' src='trustrating_stim/white_mw003.bmp'><br><font color='red'><strong>Keep</strong></font></div></div><div class='respDiv'><div class='respDivL'>Match<br>(e)</div><div class='respDivR'>No Match<br>(i)</div></div></div>","e","TARGET","2","trustrating_stim/white_mw015.bmp,trustrating_stim/white_mw003.bmp","1,0","Match","e","3000","trustrating_stim/white_mw003.bmp","red","Keep","PRACTICE","1"
"html-keyboard-response","28","307095","0.0-5.0-5.4","","bdp_wmem","Wed Mar 02 2022 19:37:47 GMT-0500 (Eastern Standard Time)","788490","Match,No Match","","null","","","","","","<div class='trialBorder'><div class='vertical-center'><img src='img/correct.jpg'></div><div class='respDiv'><div class='respDivL'><font style='color:orange'>Match<br>(e)</font></div><div class='respDivR'>No Match<br>(i)</div></div></div>","null","FEEDBACK","","","","","","","","","","",""
"html-keyboard-response","29","307597","0.0-5.0-1.5","","bdp_wmem","Wed Mar 02 2022 19:37:47 GMT-0500 (Eastern Standard Time)","788490","Match,No Match","","null","","","","","","<div class='trialBorder'><div class='vertical-center'><img src='img/fixation2_sml.jpg'</img></div></div>","null","FIX","","","","","","","","","","",""
"html-keyboard-response","30","309102","0.0-5.0-2.5","","bdp_wmem","Wed Mar 02 2022 19:37:47 GMT-0500 (Eastern Standard Time)","788490","Match,No Match","","null","","","","","","<div class='trialBorder'><div class='vertical-center'><img style='vertical-align:center; align:center' src='img/fixation2_sml.jpg'></div><div class='arrayDiv1'><div class='tc'><img class='introPic' src='trustrating_stim/white_mw015.bmp'><br><font color='red'><strong>Keep</strong></font></div></div></div>","null","ARRAY","1","trustrating_stim/white_mw015.bmp","0","noMatchFace","i","1500","","","","",""
"html-keyboard-response","31","313106","0.0-5.0-3.5","","bdp_wmem","Wed Mar 02 2022 19:37:47 GMT-0500 (Eastern Standard Time)","788490","Match,No Match","","null","","","","","","<div class='trialBorder'><div class='vertical-center'><img src='img/fixation2_sml.jpg'</img></div></div>","null","DELAY","","","","","","","","","","",""
"html-keyboard-response","32","316201","0.0-5.0-4.5","","bdp_wmem","Wed Mar 02 2022 19:37:47 GMT-0500 (Eastern Standard Time)","788490","Match,No Match","","3093","","","","","","<div class='trialBorder'><div class='targDiv'><div class='tc'><img class='introPic' src='trustrating_stim/white_mw091.bmp'><br><font color='red'><strong>Keep</strong></font></div></div><div class='respDiv'><div class='respDivL'>Match<br>(e)</div><div class='respDivR'>No Match<br>(i)</div></div></div>","i","TARGET","1","trustrating_stim/white_mw015.bmp","0","noMatchFace","i","1500","trustrating_stim/white_mw091.bmp","red","Keep","PRACTICE","1"
"html-keyboard-response","33","316703","0.0-5.0-5.5","","bdp_wmem","Wed Mar 02 2022 19:37:47 GMT-0500 (Eastern Standard Time)","788490","Match,No Match","","null","","","","","","<div class='trialBorder'><div class='vertical-center'><img src='img/correct.jpg'></div><div class='respDiv'><div class='respDivL'>Match<br>(e)</div><div class='respDivR'><font style='color:orange'>No Match<br>(i)</font></div></div></div>","null","FEEDBACK","","","","","","","","","","",""
"instructions","34","331077","0.0-6.0","","bdp_wmem","Wed Mar 02 2022 19:37:47 GMT-0500 (Eastern Standard Time)","788490","Match,No Match","[{""page_index"":0,""viewing_time"":14373}]","14373","","","","","","","","","","","","","","","","","","",""
"html-keyboard-response","35","331578","0.0-7.0-1.0","","bdp_wmem","Wed Mar 02 2022 19:37:47 GMT-0500 (Eastern Standard Time)","788490","Match,No Match","","null","","","","","","<div class='trialBorder'><div class='vertical-center'><img src='img/fixation2_sml.jpg'</img></div></div>","null","FIX","","","","","","","","","","",""
"html-keyboard-response","36","333081","0.0-7.0-2.0","","bdp_wmem","Wed Mar 02 2022 19:37:47 GMT-0500 (Eastern Standard Time)","788490","Match,No Match","","null","","","","","","<div class='trialBorder'><div class='vertical-center'><img style='vertical-align:center; align:center' src='img/fixation2_sml.jpg'></div><div class='arrayDiv1'><div class='tc'><img class='introPic' src='trustrating_stim/white_mw091.bmp'><br><font color='red'><strong>Keep</strong></font></div></div></div>","null","ARRAY","1","trustrating_stim/white_mw091.bmp","0","noMatchOutcome","i","1500","","","","",""
"html-keyboard-response","37","337085","0.0-7.0-3.0","","bdp_wmem","Wed Mar 02 2022 19:37:47 GMT-0500 (Eastern Standard Time)","788490","Match,No Match","","null","","","","","","<div class='trialBorder'><div class='vertical-center'><img src='img/fixation2_sml.jpg'</img></div></div>","null","DELAY","","","","","","","","","","",""
"html-keyboard-response","38","338657","0.0-7.0-4.0","","bdp_wmem","Wed Mar 02 2022 19:37:47 GMT-0500 (Eastern Standard Time)","788490","Match,No Match","","1570","","","","","","<div class='trialBorder'><div class='targDiv'><div class='tc'><img class='introPic' src='trustrating_stim/white_mw091.bmp'><br><font color='green'><strong>Share</strong></font></div></div><div class='respDiv'><div class='respDivL'>Match<br>(e)</div><div class='respDivR'>No Match<br>(i)</div></div></div>","i","TARGET","1","trustrating_stim/white_mw091.bmp","0","noMatchOutcome","i","1500","trustrating_stim/white_mw091.bmp","green","Share","REAL","1"
"html-keyboard-response","39","339160","0.0-7.0-5.0","","bdp_wmem","Wed Mar 02 2022 19:37:47 GMT-0500 (Eastern Standard Time)","788490","Match,No Match","","null","","","","","","<div class='trialBorder'><div class='vertical-center'><img src='img/correct.jpg'></div><div class='respDiv'><div class='respDivL'>Match<br>(e)</div><div class='respDivR'><font style='color:orange'>No Match<br>(i)</font></div></div></div>","null","FEEDBACK","","","","","","","","","","",""
"html-keyboard-response","40","339662","0.0-7.0-1.1","","bdp_wmem","Wed Mar 02 2022 19:37:47 GMT-0500 (Eastern Standard Time)","788490","Match,No Match","","null","","","","","","<div class='trialBorder'><div class='vertical-center'><img src='img/fixation2_sml.jpg'</img></div></div>","null","FIX","","","","","","","","","","",""
"html-keyboard-response","41","341165","0.0-7.0-2.1","","bdp_wmem","Wed Mar 02 2022 19:37:47 GMT-0500 (Eastern Standard Time)","788490","Match,No Match","","null","","","","","","<div class='trialBorder'><div class='vertical-center'><img style='vertical-align:center; align:center' src='img/fixation2_sml.jpg'></div><div class='arrayDiv1'><div class='tc'><img class='introPic' src='trustrating_stim/white_mw040.bmp'><br><font color='green'><strong>Share</strong></font></div></div></div>","null","ARRAY","1","trustrating_stim/white_mw040.bmp","1","Match","e","1500","","","","",""
"html-keyboard-response","42","345170","0.0-7.0-3.1","","bdp_wmem","Wed Mar 02 2022 19:37:47 GMT-0500 (Eastern Standard Time)","788490","Match,No Match","","null","","","","","","<div class='trialBorder'><div class='vertical-center'><img src='img/fixation2_sml.jpg'</img></div></div>","null","DELAY","","","","","","","","","","",""
"html-keyboard-response","43","346842","0.0-7.0-4.1","","bdp_wmem","Wed Mar 02 2022 19:37:47 GMT-0500 (Eastern Standard Time)","788490","Match,No Match","","1669","","","","","","<div class='trialBorder'><div class='targDiv'><div class='tc'><img class='introPic' src='trustrating_stim/white_mw040.bmp'><br><font color='green'><strong>Share</strong></font></div></div><div class='respDiv'><div class='respDivL'>Match<br>(e)</div><div class='respDivR'>No Match<br>(i)</div></div></div>","e","TARGET","1","trustrating_stim/white_mw040.bmp","1","Match","e","1500","trustrating_stim/white_mw040.bmp","green","Share","REAL","1"
"html-keyboard-response","44","347343","0.0-7.0-5.1","","bdp_wmem","Wed Mar 02 2022 19:37:47 GMT-0500 (Eastern Standard Time)","788490","Match,No Match","","null","","","","","","<div class='trialBorder'><div class='vertical-center'><img src='img/correct.jpg'></div><div class='respDiv'><div class='respDivL'><font style='color:orange'>Match<br>(e)</font></div><div class='respDivR'>No Match<br>(i)</div></div></div>","null","FEEDBACK","","","","","","","","","","",""
"html-keyboard-response","45","347848","0.0-7.0-1.2","","bdp_wmem","Wed Mar 02 2022 19:37:47 GMT-0500 (Eastern Standard Time)","788490","Match,No Match","","null","","","","","","<div class='trialBorder'><div class='vertical-center'><img src='img/fixation2_sml.jpg'</img></div></div>","null","FIX","","","","","","","","","","",""
"html-keyboard-response","46","350854","0.0-7.0-2.2","","bdp_wmem","Wed Mar 02 2022 19:37:47 GMT-0500 (Eastern Standard Time)","788490","Match,No Match","","null","","","","","","<div class='trialBorder'><div class='vertical-center'><img style='vertical-align:center; align:center' src='img/fixation2_sml.jpg'></div><div class='arrayDiv2'><div class='tl'><img class='introPic' src='trustrating_stim/white_mw012.bmp'><br><font color='red'><strong>Keep</strong></font></div><div class='tr'><img class='introPic' src='trustrating_stim/white_00050_931230_fa_edt.bmp'><br><font color='green'><strong>Share</strong></font></div></div></div>","null","ARRAY","2","trustrating_stim/white_mw012.bmp,trustrating_stim/white_00050_931230_fa_edt.bmp","0,1","Match","e","3000","","","","",""
"html-keyboard-response","47","354856","0.0-7.0-3.2","","bdp_wmem","Wed Mar 02 2022 19:37:47 GMT-0500 (Eastern Standard Time)","788490","Match,No Match","","null","","","","","","<div class='trialBorder'><div class='vertical-center'><img src='img/fixation2_sml.jpg'</img></div></div>","null","DELAY","","","","","","","","","","",""
"html-keyboard-response","48","356459","0.0-7.0-4.2","","bdp_wmem","Wed Mar 02 2022 19:37:47 GMT-0500 (Eastern Standard Time)","788490","Match,No Match","","1601","","","","","","<div class='trialBorder'><div class='targDiv'><div class='tc'><img class='introPic' src='trustrating_stim/white_00050_931230_fa_edt.bmp'><br><font color='green'><strong>Share</strong></font></div></div><div class='respDiv'><div class='respDivL'>Match<br>(e)</div><div class='respDivR'>No Match<br>(i)</div></div></div>","e","TARGET","2","trustrating_stim/white_mw012.bmp,trustrating_stim/white_00050_931230_fa_edt.bmp","0,1","Match","e","3000","trustrating_stim/white_00050_931230_fa_edt.bmp","green","Share","REAL","1"
"html-keyboard-response","49","356964","0.0-7.0-5.2","","bdp_wmem","Wed Mar 02 2022 19:37:47 GMT-0500 (Eastern Standard Time)","788490","Match,No Match","","null","","","","","","<div class='trialBorder'><div class='vertical-center'><img src='img/correct.jpg'></div><div class='respDiv'><div class='respDivL'><font style='color:orange'>Match<br>(e)</font></div><div class='respDivR'>No Match<br>(i)</div></div></div>","null","FEEDBACK","","","","","","","","","","",""
"html-keyboard-response","50","357469","0.0-7.0-1.3","","bdp_wmem","Wed Mar 02 2022 19:37:47 GMT-0500 (Eastern Standard Time)","788490","Match,No Match","","null","","","","","","<div class='trialBorder'><div class='vertical-center'><img src='img/fixation2_sml.jpg'</img></div></div>","null","FIX","","","","","","","","","","",""
"html-keyboard-response","51","361972","0.0-7.0-2.3","","bdp_wmem","Wed Mar 02 2022 19:37:47 GMT-0500 (Eastern Standard Time)","788490","Match,No Match","","null","","","","","","<div class='trialBorder'><div class='vertical-center'><img style='vertical-align:center; align:center' src='img/fixation2_sml.jpg'></div><div class='arrayDiv3'><div class='tl'><img class='introPic' src='trustrating_stim/white_mw015.bmp'><br><font color='green'><strong>Share</strong></font></div><div class='tc'><img class='introPic' src='trustrating_stim/white_mw038.bmp'><br><font color='green'><strong>Share</strong></font></div><div class='tr'><img class='introPic' src='trustrating_stim/white_mw033.bmp'><br><font color='red'><strong>Keep</strong></font></div></div></div>","null","ARRAY","3","trustrating_stim/white_mw015.bmp,trustrating_stim/white_mw038.bmp,trustrating_stim/white_mw033.bmp","1,1,0","Match","e","4500","","","","",""
"html-keyboard-response","52","365976","0.0-7.0-3.3","","bdp_wmem","Wed Mar 02 2022 19:37:47 GMT-0500 (Eastern Standard Time)","788490","Match,No Match","","null","","","","","","<div class='trialBorder'><div class='vertical-center'><img src='img/fixation2_sml.jpg'</img></div></div>","null","DELAY","","","","","","","","","","",""
"html-keyboard-response","53","367539","0.0-7.0-4.3","","bdp_wmem","Wed Mar 02 2022 19:37:47 GMT-0500 (Eastern Standard Time)","788490","Match,No Match","","1561","","","","","","<div class='trialBorder'><div class='targDiv'><div class='tc'><img class='introPic' src='trustrating_stim/white_mw015.bmp'><br><font color='green'><strong>Share</strong></font></div></div><div class='respDiv'><div class='respDivL'>Match<br>(e)</div><div class='respDivR'>No Match<br>(i)</div></div></div>","i","TARGET","3","trustrating_stim/white_mw015.bmp,trustrating_stim/white_mw038.bmp,trustrating_stim/white_mw033.bmp","1,1,0","Match","e","4500","trustrating_stim/white_mw015.bmp","green","Share","REAL","0"
"html-keyboard-response","54","368040","0.0-7.0-5.3","","bdp_wmem","Wed Mar 02 2022 19:37:47 GMT-0500 (Eastern Standard Time)","788490","Match,No Match","","null","","","","","","<div class='trialBorder'><div class='vertical-center'><img src='img/error.jpg'></div><div class='respDiv'><div class='respDivL'>Match<br>(e)</div><div class='respDivR'><font style='color:orange'>No Match<br>(i)</font></div></div></div>","null","FEEDBACK","","","","","","","","","","",""
"html-keyboard-response","55","368543","0.0-7.0-1.4","","bdp_wmem","Wed Mar 02 2022 19:37:47 GMT-0500 (Eastern Standard Time)","788490","Match,No Match","","null","","","","","","<div class='trialBorder'><div class='vertical-center'><img src='img/fixation2_sml.jpg'</img></div></div>","null","FIX","","","","","","","","","","",""
"html-keyboard-response","56","370046","0.0-7.0-2.4","","bdp_wmem","Wed Mar 02 2022 19:37:47 GMT-0500 (Eastern Standard Time)","788490","Match,No Match","","null","","","","","","<div class='trialBorder'><div class='vertical-center'><img style='vertical-align:center; align:center' src='img/fixation2_sml.jpg'></div><div class='arrayDiv1'><div class='tc'><img class='introPic' src='trustrating_stim/white_mw012.bmp'><br><font color='red'><strong>Keep</strong></font></div></div></div>","null","ARRAY","1","trustrating_stim/white_mw012.bmp","0","Match","e","1500","","","","",""
"html-keyboard-response","57","374051","0.0-7.0-3.4","","bdp_wmem","Wed Mar 02 2022 19:37:47 GMT-0500 (Eastern Standard Time)","788490","Match,No Match","","null","","","","","","<div class='trialBorder'><div class='vertical-center'><img src='img/fixation2_sml.jpg'</img></div></div>","null","DELAY","","","","","","","","","","",""
"html-keyboard-response","58","375288","0.0-7.0-4.4","","bdp_wmem","Wed Mar 02 2022 19:37:47 GMT-0500 (Eastern Standard Time)","788490","Match,No Match","","1235","","","","","","<div class='trialBorder'><div class='targDiv'><div class='tc'><img class='introPic' src='trustrating_stim/white_mw012.bmp'><br><font color='red'><strong>Keep</strong></font></div></div><div class='respDiv'><div class='respDivL'>Match<br>(e)</div><div class='respDivR'>No Match<br>(i)</div></div></div>","e","TARGET","1","trustrating_stim/white_mw012.bmp","0","Match","e","1500","trustrating_stim/white_mw012.bmp","red","Keep","REAL","1"
"html-keyboard-response","59","375790","0.0-7.0-5.4","","bdp_wmem","Wed Mar 02 2022 19:37:47 GMT-0500 (Eastern Standard Time)","788490","Match,No Match","","null","","","","","","<div class='trialBorder'><div class='vertical-center'><img src='img/correct.jpg'></div><div class='respDiv'><div class='respDivL'><font style='color:orange'>Match<br>(e)</font></div><div class='respDivR'>No Match<br>(i)</div></div></div>","null","FEEDBACK","","","","","","","","","","",""
"html-keyboard-response","60","376292","0.0-7.0-1.5","","bdp_wmem","Wed Mar 02 2022 19:37:47 GMT-0500 (Eastern Standard Time)","788490","Match,No Match","","null","","","","","","<div class='trialBorder'><div class='vertical-center'><img src='img/fixation2_sml.jpg'</img></div></div>","null","FIX","","","","","","","","","","",""
"html-keyboard-response","61","379295","0.0-7.0-2.5","","bdp_wmem","Wed Mar 02 2022 19:37:47 GMT-0500 (Eastern Standard Time)","788490","Match,No Match","","null","","","","","","<div class='trialBorder'><div class='vertical-center'><img style='vertical-align:center; align:center' src='img/fixation2_sml.jpg'></div><div class='arrayDiv2'><div class='tl'><img class='introPic' src='trustrating_stim/white_mw070.bmp'><br><font color='red'><strong>Keep</strong></font></div><div class='tr'><img class='introPic' src='trustrating_stim/white_mw015.bmp'><br><font color='green'><strong>Share</strong></font></div></div></div>","null","ARRAY","2","trustrating_stim/white_mw070.bmp,trustrating_stim/white_mw015.bmp","0,1","noMatchFace","i","3000","","","","",""
"html-keyboard-response","62","383299","0.0-7.0-3.5","","bdp_wmem","Wed Mar 02 2022 19:37:47 GMT-0500 (Eastern Standard Time)","788490","Match,No Match","","null","","","","","","<div class='trialBorder'><div class='vertical-center'><img src='img/fixation2_sml.jpg'</img></div></div>","null","DELAY","","","","","","","","","","",""
"html-keyboard-response","63","384813","0.0-7.0-4.5","","bdp_wmem","Wed Mar 02 2022 19:37:47 GMT-0500 (Eastern Standard Time)","788490","Match,No Match","","1511","","","","","","<div class='trialBorder'><div class='targDiv'><div class='tc'><img class='introPic' src='trustrating_stim/white_mw091.bmp'><br><font color='red'><strong>Keep</strong></font></div></div><div class='respDiv'><div class='respDivL'>Match<br>(e)</div><div class='respDivR'>No Match<br>(i)</div></div></div>","i","TARGET","2","trustrating_stim/white_mw070.bmp,trustrating_stim/white_mw015.bmp","0,1","noMatchFace","i","3000","trustrating_stim/white_mw091.bmp","red","Keep","REAL","1"
"html-keyboard-response","64","385315","0.0-7.0-5.5","","bdp_wmem","Wed Mar 02 2022 19:37:47 GMT-0500 (Eastern Standard Time)","788490","Match,No Match","","null","","","","","","<div class='trialBorder'><div class='vertical-center'><img src='img/correct.jpg'></div><div class='respDiv'><div class='respDivL'>Match<br>(e)</div><div class='respDivR'><font style='color:orange'>No Match<br>(i)</font></div></div></div>","null","FEEDBACK","","","","","","","","","","",""
"html-keyboard-response","65","385817","0.0-7.0-1.6","","bdp_wmem","Wed Mar 02 2022 19:37:47 GMT-0500 (Eastern Standard Time)","788490","Match,No Match","","null","","","","","","<div class='trialBorder'><div class='vertical-center'><img src='img/fixation2_sml.jpg'</img></div></div>","null","FIX","","","","","","","","","","",""
"html-keyboard-response","66","388821","0.0-7.0-2.6","","bdp_wmem","Wed Mar 02 2022 19:37:47 GMT-0500 (Eastern Standard Time)","788490","Match,No Match","","null","","","","","","<div class='trialBorder'><div class='vertical-center'><img style='vertical-align:center; align:center' src='img/fixation2_sml.jpg'></div><div class='arrayDiv2'><div class='tl'><img class='introPic' src='trustrating_stim/white_mw003.bmp'><br><font color='red'><strong>Keep</strong></font></div><div class='tr'><img class='introPic' src='trustrating_stim/white_mw038.bmp'><br><font color='green'><strong>Share</strong></font></div></div></div>","null","ARRAY","2","trustrating_stim/white_mw003.bmp,trustrating_stim/white_mw038.bmp","0,1","noMatchFace","i","3000","","","","",""
"html-keyboard-response","67","392825","0.0-7.0-3.6","","bdp_wmem","Wed Mar 02 2022 19:37:47 GMT-0500 (Eastern Standard Time)","788490","Match,No Match","","null","","","","","","<div class='trialBorder'><div class='vertical-center'><img src='img/fixation2_sml.jpg'</img></div></div>","null","DELAY","","","","","","","","","","",""
"html-keyboard-response","68","394149","0.0-7.0-4.6","","bdp_wmem","Wed Mar 02 2022 19:37:47 GMT-0500 (Eastern Standard Time)","788490","Match,No Match","","1323","","","","","","<div class='trialBorder'><div class='targDiv'><div class='tc'><img class='introPic' src='trustrating_stim/white_00050_931230_fa_edt.bmp'><br><font color='green'><strong>Share</strong></font></div></div><div class='respDiv'><div class='respDivL'>Match<br>(e)</div><div class='respDivR'>No Match<br>(i)</div></div></div>","i","TARGET","2","trustrating_stim/white_mw003.bmp,trustrating_stim/white_mw038.bmp","0,1","noMatchFace","i","3000","trustrating_stim/white_00050_931230_fa_edt.bmp","green","Share","REAL","1"
"html-keyboard-response","69","394651","0.0-7.0-5.6","","bdp_wmem","Wed Mar 02 2022 19:37:47 GMT-0500 (Eastern Standard Time)","788490","Match,No Match","","null","","","","","","<div class='trialBorder'><div class='vertical-center'><img src='img/correct.jpg'></div><div class='respDiv'><div class='respDivL'>Match<br>(e)</div><div class='respDivR'><font style='color:orange'>No Match<br>(i)</font></div></div></div>","null","FEEDBACK","","","","","","","","","","",""
"html-keyboard-response","70","395155","0.0-7.0-1.7","","bdp_wmem","Wed Mar 02 2022 19:37:47 GMT-0500 (Eastern Standard Time)","788490","Match,No Match","","null","","","","","","<div class='trialBorder'><div class='vertical-center'><img src='img/fixation2_sml.jpg'</img></div></div>","null","FIX","","","","","","","","","","",""
"html-keyboard-response","71","398158","0.0-7.0-2.7","","bdp_wmem","Wed Mar 02 2022 19:37:47 GMT-0500 (Eastern Standard Time)","788490","Match,No Match","","null","","","","","","<div class='trialBorder'><div class='vertical-center'><img style='vertical-align:center; align:center' src='img/fixation2_sml.jpg'></div><div class='arrayDiv2'><div class='tl'><img class='introPic' src='trustrating_stim/white_00050_931230_fa_edt.bmp'><br><font color='green'><strong>Share</strong></font></div><div class='tr'><img class='introPic' src='trustrating_stim/white_mw070.bmp'><br><font color='red'><strong>Keep</strong></font></div></div></div>","null","ARRAY","2","trustrating_stim/white_00050_931230_fa_edt.bmp,trustrating_stim/white_mw070.bmp","1,0","Match","e","3000","","","","",""
"html-keyboard-response","72","402163","0.0-7.0-3.7","","bdp_wmem","Wed Mar 02 2022 19:37:47 GMT-0500 (Eastern Standard Time)","788490","Match,No Match","","null","","","","","","<div class='trialBorder'><div class='vertical-center'><img src='img/fixation2_sml.jpg'</img></div></div>","null","DELAY","","","","","","","","","","",""
"html-keyboard-response","73","403677","0.0-7.0-4.7","","bdp_wmem","Wed Mar 02 2022 19:37:47 GMT-0500 (Eastern Standard Time)","788490","Match,No Match","","1512","","","","","","<div class='trialBorder'><div class='targDiv'><div class='tc'><img class='introPic' src='trustrating_stim/white_mw070.bmp'><br><font color='red'><strong>Keep</strong></font></div></div><div class='respDiv'><div class='respDivL'>Match<br>(e)</div><div class='respDivR'>No Match<br>(i)</div></div></div>","e","TARGET","2","trustrating_stim/white_00050_931230_fa_edt.bmp,trustrating_stim/white_mw070.bmp","1,0","Match","e","3000","trustrating_stim/white_mw070.bmp","red","Keep","REAL","1"
"html-keyboard-response","74","404179","0.0-7.0-5.7","","bdp_wmem","Wed Mar 02 2022 19:37:47 GMT-0500 (Eastern Standard Time)","788490","Match,No Match","","null","","","","","","<div class='trialBorder'><div class='vertical-center'><img src='img/correct.jpg'></div><div class='respDiv'><div class='respDivL'><font style='color:orange'>Match<br>(e)</font></div><div class='respDivR'>No Match<br>(i)</div></div></div>","null","FEEDBACK","","","","","","","","","","",""
"html-keyboard-response","75","404681","0.0-7.0-1.8","","bdp_wmem","Wed Mar 02 2022 19:37:47 GMT-0500 (Eastern Standard Time)","788490","Match,No Match","","null","","","","","","<div class='trialBorder'><div class='vertical-center'><img src='img/fixation2_sml.jpg'</img></div></div>","null","FIX","","","","","","","","","","",""
"html-keyboard-response","76","407684","0.0-7.0-2.8","","bdp_wmem","Wed Mar 02 2022 19:37:47 GMT-0500 (Eastern Standard Time)","788490","Match,No Match","","null","","","","","","<div class='trialBorder'><div class='vertical-center'><img style='vertical-align:center; align:center' src='img/fixation2_sml.jpg'></div><div class='arrayDiv2'><div class='tl'><img class='introPic' src='trustrating_stim/white_mw013.bmp'><br><font color='green'><strong>Share</strong></font></div><div class='tr'><img class='introPic' src='trustrating_stim/white_mw012.bmp'><br><font color='red'><strong>Keep</strong></font></div></div></div>","null","ARRAY","2","trustrating_stim/white_mw013.bmp,trustrating_stim/white_mw012.bmp","1,0","Match","e","3000","","","","",""
"html-keyboard-response","77","411689","0.0-7.0-3.8","","bdp_wmem","Wed Mar 02 2022 19:37:47 GMT-0500 (Eastern Standard Time)","788490","Match,No Match","","null","","","","","","<div class='trialBorder'><div class='vertical-center'><img src='img/fixation2_sml.jpg'</img></div></div>","null","DELAY","","","","","","","","","","",""
"html-keyboard-response","78","413196","0.0-7.0-4.8","","bdp_wmem","Wed Mar 02 2022 19:37:47 GMT-0500 (Eastern Standard Time)","788490","Match,No Match","","1505","","","","","","<div class='trialBorder'><div class='targDiv'><div class='tc'><img class='introPic' src='trustrating_stim/white_mw012.bmp'><br><font color='red'><strong>Keep</strong></font></div></div><div class='respDiv'><div class='respDivL'>Match<br>(e)</div><div class='respDivR'>No Match<br>(i)</div></div></div>","e","TARGET","2","trustrating_stim/white_mw013.bmp,trustrating_stim/white_mw012.bmp","1,0","Match","e","3000","trustrating_stim/white_mw012.bmp","red","Keep","REAL","1"
"html-keyboard-response","79","413700","0.0-7.0-5.8","","bdp_wmem","Wed Mar 02 2022 19:37:47 GMT-0500 (Eastern Standard Time)","788490","Match,No Match","","null","","","","","","<div class='trialBorder'><div class='vertical-center'><img src='img/correct.jpg'></div><div class='respDiv'><div class='respDivL'><font style='color:orange'>Match<br>(e)</font></div><div class='respDivR'>No Match<br>(i)</div></div></div>","null","FEEDBACK","","","","","","","","","","",""
"html-keyboard-response","80","414202","0.0-7.0-1.9","","bdp_wmem","Wed Mar 02 2022 19:37:47 GMT-0500 (Eastern Standard Time)","788490","Match,No Match","","null","","","","","","<div class='trialBorder'><div class='vertical-center'><img src='img/fixation2_sml.jpg'</img></div></div>","null","FIX","","","","","","","","","","",""
"html-keyboard-response","81","415705","0.0-7.0-2.9","","bdp_wmem","Wed Mar 02 2022 19:37:47 GMT-0500 (Eastern Standard Time)","788490","Match,No Match","","null","","","","","","<div class='trialBorder'><div class='vertical-center'><img style='vertical-align:center; align:center' src='img/fixation2_sml.jpg'></div><div class='arrayDiv1'><div class='tc'><img class='introPic' src='trustrating_stim/white_00807_941205_fb_edt.bmp'><br><font color='red'><strong>Keep</strong></font></div></div></div>","null","ARRAY","1","trustrating_stim/white_00807_941205_fb_edt.bmp","0","noMatchOutcome","i","1500","","","","",""
"html-keyboard-response","82","419710","0.0-7.0-3.9","","bdp_wmem","Wed Mar 02 2022 19:37:47 GMT-0500 (Eastern Standard Time)","788490","Match,No Match","","null","","","","","","<div class='trialBorder'><div class='vertical-center'><img src='img/fixation2_sml.jpg'</img></div></div>","null","DELAY","","","","","","","","","","",""
"html-keyboard-response","83","420933","0.0-7.0-4.9","","bdp_wmem","Wed Mar 02 2022 19:37:47 GMT-0500 (Eastern Standard Time)","788490","Match,No Match","","1221","","","","","","<div class='trialBorder'><div class='targDiv'><div class='tc'><img class='introPic' src='trustrating_stim/white_00807_941205_fb_edt.bmp'><br><font color='green'><strong>Share</strong></font></div></div><div class='respDiv'><div class='respDivL'>Match<br>(e)</div><div class='respDivR'>No Match<br>(i)</div></div></div>","i","TARGET","1","trustrating_stim/white_00807_941205_fb_edt.bmp","0","noMatchOutcome","i","1500","trustrating_stim/white_00807_941205_fb_edt.bmp","green","Share","REAL","1"
"html-keyboard-response","84","421434","0.0-7.0-5.9","","bdp_wmem","Wed Mar 02 2022 19:37:47 GMT-0500 (Eastern Standard Time)","788490","Match,No Match","","null","","","","","","<div class='trialBorder'><div class='vertical-center'><img src='img/correct.jpg'></div><div class='respDiv'><div class='respDivL'>Match<br>(e)</div><div class='respDivR'><font style='color:orange'>No Match<br>(i)</font></div></div></div>","null","FEEDBACK","","","","","","","","","","",""
"html-keyboard-response","85","421940","0.0-7.0-1.10","","bdp_wmem","Wed Mar 02 2022 19:37:47 GMT-0500 (Eastern Standard Time)","788490","Match,No Match","","null","","","","","","<div class='trialBorder'><div class='vertical-center'><img src='img/fixation2_sml.jpg'</img></div></div>","null","FIX","","","","","","","","","","",""
"html-keyboard-response","86","423444","0.0-7.0-2.10","","bdp_wmem","Wed Mar 02 2022 19:37:47 GMT-0500 (Eastern Standard Time)","788490","Match,No Match","","null","","","","","","<div class='trialBorder'><div class='vertical-center'><img style='vertical-align:center; align:center' src='img/fixation2_sml.jpg'></div><div class='arrayDiv1'><div class='tc'><img class='introPic' src='trustrating_stim/white_mw003.bmp'><br><font color='green'><strong>Share</strong></font></div></div></div>","null","ARRAY","1","trustrating_stim/white_mw003.bmp","1","Match","e","1500","","","","",""
"html-keyboard-response","87","427449","0.0-7.0-3.10","","bdp_wmem","Wed Mar 02 2022 19:37:47 GMT-0500 (Eastern Standard Time)","788490","Match,No Match","","null","","","","","","<div class='trialBorder'><div class='vertical-center'><img src='img/fixation2_sml.jpg'</img></div></div>","null","DELAY","","","","","","","","","","",""
"html-keyboard-response","88","428291","0.0-7.0-4.10","","bdp_wmem","Wed Mar 02 2022 19:37:47 GMT-0500 (Eastern Standard Time)","788490","Match,No Match","","839","","","","","","<div class='trialBorder'><div class='targDiv'><div class='tc'><img class='introPic' src='trustrating_stim/white_mw003.bmp'><br><font color='green'><strong>Share</strong></font></div></div><div class='respDiv'><div class='respDivL'>Match<br>(e)</div><div class='respDivR'>No Match<br>(i)</div></div></div>","e","TARGET","1","trustrating_stim/white_mw003.bmp","1","Match","e","1500","trustrating_stim/white_mw003.bmp","green","Share","REAL","1"
"html-keyboard-response","89","428793","0.0-7.0-5.10","","bdp_wmem","Wed Mar 02 2022 19:37:47 GMT-0500 (Eastern Standard Time)","788490","Match,No Match","","null","","","","","","<div class='trialBorder'><div class='vertical-center'><img src='img/correct.jpg'></div><div class='respDiv'><div class='respDivL'><font style='color:orange'>Match<br>(e)</font></div><div class='respDivR'>No Match<br>(i)</div></div></div>","null","FEEDBACK","","","","","","","","","","",""
"html-keyboard-response","90","429296","0.0-7.0-1.11","","bdp_wmem","Wed Mar 02 2022 19:37:47 GMT-0500 (Eastern Standard Time)","788490","Match,No Match","","null","","","","","","<div class='trialBorder'><div class='vertical-center'><img src='img/fixation2_sml.jpg'</img></div></div>","null","FIX","","","","","","","","","","",""
"html-keyboard-response","91","433802","0.0-7.0-2.11","","bdp_wmem","Wed Mar 02 2022 19:37:47 GMT-0500 (Eastern Standard Time)","788490","Match,No Match","","null","","","","","","<div class='trialBorder'><div class='vertical-center'><img style='vertical-align:center; align:center' src='img/fixation2_sml.jpg'></div><div class='arrayDiv3'><div class='tl'><img class='introPic' src='trustrating_stim/white_mw070.bmp'><br><font color='green'><strong>Share</strong></font></div><div class='tc'><img class='introPic' src='trustrating_stim/white_mw003.bmp'><br><font color='red'><strong>Keep</strong></font></div><div class='tr'><img class='introPic' src='trustrating_stim/white_mw092.bmp'><br><font color='green'><strong>Share</strong></font></div></div></div>","null","ARRAY","3","trustrating_stim/white_mw070.bmp,trustrating_stim/white_mw003.bmp,trustrating_stim/white_mw092.bmp","1,0,1","Match","e","4500","","","","",""
"html-keyboard-response","92","437808","0.0-7.0-3.11","","bdp_wmem","Wed Mar 02 2022 19:37:47 GMT-0500 (Eastern Standard Time)","788490","Match,No Match","","null","","","","","","<div class='trialBorder'><div class='vertical-center'><img src='img/fixation2_sml.jpg'</img></div></div>","null","DELAY","","","","","","","","","","",""
"html-keyboard-response","93","439346","0.0-7.0-4.11","","bdp_wmem","Wed Mar 02 2022 19:37:47 GMT-0500 (Eastern Standard Time)","788490","Match,No Match","","1536","","","","","","<div class='trialBorder'><div class='targDiv'><div class='tc'><img class='introPic' src='trustrating_stim/white_mw070.bmp'><br><font color='green'><strong>Share</strong></font></div></div><div class='respDiv'><div class='respDivL'>Match<br>(e)</div><div class='respDivR'>No Match<br>(i)</div></div></div>","e","TARGET","3","trustrating_stim/white_mw070.bmp,trustrating_stim/white_mw003.bmp,trustrating_stim/white_mw092.bmp","1,0,1","Match","e","4500","trustrating_stim/white_mw070.bmp","green","Share","REAL","1"
"html-keyboard-response","94","439849","0.0-7.0-5.11","","bdp_wmem","Wed Mar 02 2022 19:37:47 GMT-0500 (Eastern Standard Time)","788490","Match,No Match","","null","","","","","","<div class='trialBorder'><div class='vertical-center'><img src='img/correct.jpg'></div><div class='respDiv'><div class='respDivL'><font style='color:orange'>Match<br>(e)</font></div><div class='respDivR'>No Match<br>(i)</div></div></div>","null","FEEDBACK","","","","","","","","","","",""
"html-keyboard-response","95","440352","0.0-7.0-1.12","","bdp_wmem","Wed Mar 02 2022 19:37:47 GMT-0500 (Eastern Standard Time)","788490","Match,No Match","","null","","","","","","<div class='trialBorder'><div class='vertical-center'><img src='img/fixation2_sml.jpg'</img></div></div>","null","FIX","","","","","","","","","","",""
"html-keyboard-response","96","443355","0.0-7.0-2.12","","bdp_wmem","Wed Mar 02 2022 19:37:47 GMT-0500 (Eastern Standard Time)","788490","Match,No Match","","null","","","","","","<div class='trialBorder'><div class='vertical-center'><img style='vertical-align:center; align:center' src='img/fixation2_sml.jpg'></div><div class='arrayDiv2'><div class='tl'><img class='introPic' src='trustrating_stim/white_mw033.bmp'><br><font color='green'><strong>Share</strong></font></div><div class='tr'><img class='introPic' src='trustrating_stim/white_mw092.bmp'><br><font color='red'><strong>Keep</strong></font></div></div></div>","null","ARRAY","2","trustrating_stim/white_mw033.bmp,trustrating_stim/white_mw092.bmp","1,0","noMatchFace","i","3000","","","","",""
"html-keyboard-response","97","447359","0.0-7.0-3.12","","bdp_wmem","Wed Mar 02 2022 19:37:47 GMT-0500 (Eastern Standard Time)","788490","Match,No Match","","null","","","","","","<div class='trialBorder'><div class='vertical-center'><img src='img/fixation2_sml.jpg'</img></div></div>","null","DELAY","","","","","","","","","","",""
"html-keyboard-response","98","448380","0.0-7.0-4.12","","bdp_wmem","Wed Mar 02 2022 19:37:47 GMT-0500 (Eastern Standard Time)","788490","Match,No Match","","1019","","","","","","<div class='trialBorder'><div class='targDiv'><div class='tc'><img class='introPic' src='trustrating_stim/white_mw012.bmp'><br><font color='red'><strong>Keep</strong></font></div></div><div class='respDiv'><div class='respDivL'>Match<br>(e)</div><div class='respDivR'>No Match<br>(i)</div></div></div>","i","TARGET","2","trustrating_stim/white_mw033.bmp,trustrating_stim/white_mw092.bmp","1,0","noMatchFace","i","3000","trustrating_stim/white_mw012.bmp","red","Keep","REAL","1"
"html-keyboard-response","99","448881","0.0-7.0-5.12","","bdp_wmem","Wed Mar 02 2022 19:37:47 GMT-0500 (Eastern Standard Time)","788490","Match,No Match","","null","","","","","","<div class='trialBorder'><div class='vertical-center'><img src='img/correct.jpg'></div><div class='respDiv'><div class='respDivL'>Match<br>(e)</div><div class='respDivR'><font style='color:orange'>No Match<br>(i)</font></div></div></div>","null","FEEDBACK","","","","","","","","","","",""
"html-keyboard-response","100","449385","0.0-7.0-1.13","","bdp_wmem","Wed Mar 02 2022 19:37:47 GMT-0500 (Eastern Standard Time)","788490","Match,No Match","","null","","","","","","<div class='trialBorder'><div class='vertical-center'><img src='img/fixation2_sml.jpg'</img></div></div>","null","FIX","","","","","","","","","","",""
"html-keyboard-response","101","450889","0.0-7.0-2.13","","bdp_wmem","Wed Mar 02 2022 19:37:47 GMT-0500 (Eastern Standard Time)","788490","Match,No Match","","null","","","","","","<div class='trialBorder'><div class='vertical-center'><img style='vertical-align:center; align:center' src='img/fixation2_sml.jpg'></div><div class='arrayDiv1'><div class='tc'><img class='introPic' src='trustrating_stim/white_mw038.bmp'><br><font color='green'><strong>Share</strong></font></div></div></div>","null","ARRAY","1","trustrating_stim/white_mw038.bmp","1","Match","e","1500","","","","",""
"html-keyboard-response","102","454891","0.0-7.0-3.13","","bdp_wmem","Wed Mar 02 2022 19:37:47 GMT-0500 (Eastern Standard Time)","788490","Match,No Match","","null","","","","","","<div class='trialBorder'><div class='vertical-center'><img src='img/fixation2_sml.jpg'</img></div></div>","null","DELAY","","","","","","","","","","",""
"html-keyboard-response","103","456255","0.0-7.0-4.13","","bdp_wmem","Wed Mar 02 2022 19:37:47 GMT-0500 (Eastern Standard Time)","788490","Match,No Match","","1362","","","","","","<div class='trialBorder'><div class='targDiv'><div class='tc'><img class='introPic' src='trustrating_stim/white_mw038.bmp'><br><font color='green'><strong>Share</strong></font></div></div><div class='respDiv'><div class='respDivL'>Match<br>(e)</div><div class='respDivR'>No Match<br>(i)</div></div></div>","e","TARGET","1","trustrating_stim/white_mw038.bmp","1","Match","e","1500","trustrating_stim/white_mw038.bmp","green","Share","REAL","1"
"html-keyboard-response","104","456756","0.0-7.0-5.13","","bdp_wmem","Wed Mar 02 2022 19:37:47 GMT-0500 (Eastern Standard Time)","788490","Match,No Match","","null","","","","","","<div class='trialBorder'><div class='vertical-center'><img src='img/correct.jpg'></div><div class='respDiv'><div class='respDivL'><font style='color:orange'>Match<br>(e)</font></div><div class='respDivR'>No Match<br>(i)</div></div></div>","null","FEEDBACK","","","","","","","","","","",""
"html-keyboard-response","105","457259","0.0-7.0-1.14","","bdp_wmem","Wed Mar 02 2022 19:37:47 GMT-0500 (Eastern Standard Time)","788490","Match,No Match","","null","","","","","","<div class='trialBorder'><div class='vertical-center'><img src='img/fixation2_sml.jpg'</img></div></div>","null","FIX","","","","","","","","","","",""
"html-keyboard-response","106","461764","0.0-7.0-2.14","","bdp_wmem","Wed Mar 02 2022 19:37:47 GMT-0500 (Eastern Standard Time)","788490","Match,No Match","","null","","","","","","<div class='trialBorder'><div class='vertical-center'><img style='vertical-align:center; align:center' src='img/fixation2_sml.jpg'></div><div class='arrayDiv3'><div class='tl'><img class='introPic' src='trustrating_stim/white_mw003.bmp'><br><font color='green'><strong>Share</strong></font></div><div class='tc'><img class='introPic' src='trustrating_stim/white_mw038.bmp'><br><font color='red'><strong>Keep</strong></font></div><div class='tr'><img class='introPic' src='trustrating_stim/white_00807_941205_fb_edt.bmp'><br><font color='green'><strong>Share</strong></font></div></div></div>","null","ARRAY","3","trustrating_stim/white_mw003.bmp,trustrating_stim/white_mw038.bmp,trustrating_stim/white_00807_941205_fb_edt.bmp","1,0,1","noMatchFace","i","4500","","","","",""
"html-keyboard-response","107","465769","0.0-7.0-3.14","","bdp_wmem","Wed Mar 02 2022 19:37:47 GMT-0500 (Eastern Standard Time)","788490","Match,No Match","","null","","","","","","<div class='trialBorder'><div class='vertical-center'><img src='img/fixation2_sml.jpg'</img></div></div>","null","DELAY","","","","","","","","","","",""
"html-keyboard-response","108","467518","0.0-7.0-4.14","","bdp_wmem","Wed Mar 02 2022 19:37:47 GMT-0500 (Eastern Standard Time)","788490","Match,No Match","","1748","","","","","","<div class='trialBorder'><div class='targDiv'><div class='tc'><img class='introPic' src='trustrating_stim/white_mw070.bmp'><br><font color='red'><strong>Keep</strong></font></div></div><div class='respDiv'><div class='respDivL'>Match<br>(e)</div><div class='respDivR'>No Match<br>(i)</div></div></div>","e","TARGET","3","trustrating_stim/white_mw003.bmp,trustrating_stim/white_mw038.bmp,trustrating_stim/white_00807_941205_fb_edt.bmp","1,0,1","noMatchFace","i","4500","trustrating_stim/white_mw070.bmp","red","Keep","REAL","0"
"html-keyboard-response","109","468021","0.0-7.0-5.14","","bdp_wmem","Wed Mar 02 2022 19:37:47 GMT-0500 (Eastern Standard Time)","788490","Match,No Match","","null","","","","","","<div class='trialBorder'><div class='vertical-center'><img src='img/error.jpg'></div><div class='respDiv'><div class='respDivL'><font style='color:orange'>Match<br>(e)</font></div><div class='respDivR'>No Match<br>(i)</div></div></div>","null","FEEDBACK","","","","","","","","","","",""
"html-keyboard-response","110","468523","0.0-7.0-1.15","","bdp_wmem","Wed Mar 02 2022 19:37:47 GMT-0500 (Eastern Standard Time)","788490","Match,No Match","","null","","","","","","<div class='trialBorder'><div class='vertical-center'><img src='img/fixation2_sml.jpg'</img></div></div>","null","FIX","","","","","","","","","","",""
"html-keyboard-response","111","473029","0.0-7.0-2.15","","bdp_wmem","Wed Mar 02 2022 19:37:47 GMT-0500 (Eastern Standard Time)","788490","Match,No Match","","null","","","","","","<div class='trialBorder'><div class='vertical-center'><img style='vertical-align:center; align:center' src='img/fixation2_sml.jpg'></div><div class='arrayDiv3'><div class='tl'><img class='introPic' src='trustrating_stim/white_mw003.bmp'><br><font color='red'><strong>Keep</strong></font></div><div class='tc'><img class='introPic' src='trustrating_stim/white_00807_941205_fb_edt.bmp'><br><font color='green'><strong>Share</strong></font></div><div class='tr'><img class='introPic' src='trustrating_stim/white_mw012.bmp'><br><font color='green'><strong>Share</strong></font></div></div></div>","null","ARRAY","3","trustrating_stim/white_mw003.bmp,trustrating_stim/white_00807_941205_fb_edt.bmp,trustrating_stim/white_mw012.bmp","0,1,1","Match","e","4500","","","","",""
"html-keyboard-response","112","477034","0.0-7.0-3.15","","bdp_wmem","Wed Mar 02 2022 19:37:47 GMT-0500 (Eastern Standard Time)","788490","Match,No Match","","null","","","","","","<div class='trialBorder'><div class='vertical-center'><img src='img/fixation2_sml.jpg'</img></div></div>","null","DELAY","","","","","","","","","","",""
"html-keyboard-response","113","477917","0.0-7.0-4.15","","bdp_wmem","Wed Mar 02 2022 19:37:47 GMT-0500 (Eastern Standard Time)","788490","Match,No Match","","880","","","","","","<div class='trialBorder'><div class='targDiv'><div class='tc'><img class='introPic' src='trustrating_stim/white_00807_941205_fb_edt.bmp'><br><font color='green'><strong>Share</strong></font></div></div><div class='respDiv'><div class='respDivL'>Match<br>(e)</div><div class='respDivR'>No Match<br>(i)</div></div></div>","i","TARGET","3","trustrating_stim/white_mw003.bmp,trustrating_stim/white_00807_941205_fb_edt.bmp,trustrating_stim/white_mw012.bmp","0,1,1","Match","e","4500","trustrating_stim/white_00807_941205_fb_edt.bmp","green","Share","REAL","0"
"html-keyboard-response","114","478418","0.0-7.0-5.15","","bdp_wmem","Wed Mar 02 2022 19:37:47 GMT-0500 (Eastern Standard Time)","788490","Match,No Match","","null","","","","","","<div class='trialBorder'><div class='vertical-center'><img src='img/error.jpg'></div><div class='respDiv'><div class='respDivL'>Match<br>(e)</div><div class='respDivR'><font style='color:orange'>No Match<br>(i)</font></div></div></div>","null","FEEDBACK","","","","","","","","","","",""
"html-keyboard-response","115","478922","0.0-7.0-1.16","","bdp_wmem","Wed Mar 02 2022 19:37:47 GMT-0500 (Eastern Standard Time)","788490","Match,No Match","","null","","","","","","<div class='trialBorder'><div class='vertical-center'><img src='img/fixation2_sml.jpg'</img></div></div>","null","FIX","","","","","","","","","","",""
"html-keyboard-response","116","480426","0.0-7.0-2.16","","bdp_wmem","Wed Mar 02 2022 19:37:47 GMT-0500 (Eastern Standard Time)","788490","Match,No Match","","null","","","","","","<div class='trialBorder'><div class='vertical-center'><img style='vertical-align:center; align:center' src='img/fixation2_sml.jpg'></div><div class='arrayDiv1'><div class='tc'><img class='introPic' src='trustrating_stim/white_mw003.bmp'><br><font color='red'><strong>Keep</strong></font></div></div></div>","null","ARRAY","1","trustrating_stim/white_mw003.bmp","0","noMatchOutcome","i","1500","","","","",""
"html-keyboard-response","117","484431","0.0-7.0-3.16","","bdp_wmem","Wed Mar 02 2022 19:37:47 GMT-0500 (Eastern Standard Time)","788490","Match,No Match","","null","","","","","","<div class='trialBorder'><div class='vertical-center'><img src='img/fixation2_sml.jpg'</img></div></div>","null","DELAY","","","","","","","","","","",""
"html-keyboard-response","118","485791","0.0-7.0-4.16","","bdp_wmem","Wed Mar 02 2022 19:37:47 GMT-0500 (Eastern Standard Time)","788490","Match,No Match","","1358","","","","","","<div class='trialBorder'><div class='targDiv'><div class='tc'><img class='introPic' src='trustrating_stim/white_mw003.bmp'><br><font color='green'><strong>Share</strong></font></div></div><div class='respDiv'><div class='respDivL'>Match<br>(e)</div><div class='respDivR'>No Match<br>(i)</div></div></div>","i","TARGET","1","trustrating_stim/white_mw003.bmp","0","noMatchOutcome","i","1500","trustrating_stim/white_mw003.bmp","green","Share","REAL","1"
"html-keyboard-response","119","486293","0.0-7.0-5.16","","bdp_wmem","Wed Mar 02 2022 19:37:47 GMT-0500 (Eastern Standard Time)","788490","Match,No Match","","null","","","","","","<div class='trialBorder'><div class='vertical-center'><img src='img/correct.jpg'></div><div class='respDiv'><div class='respDivL'>Match<br>(e)</div><div class='respDivR'><font style='color:orange'>No Match<br>(i)</font></div></div></div>","null","FEEDBACK","","","","","","","","","","",""
"html-keyboard-response","120","486795","0.0-7.0-1.17","","bdp_wmem","Wed Mar 02 2022 19:37:47 GMT-0500 (Eastern Standard Time)","788490","Match,No Match","","null","","","","","","<div class='trialBorder'><div class='vertical-center'><img src='img/fixation2_sml.jpg'</img></div></div>","null","FIX","","","","","","","","","","",""
"html-keyboard-response","121","489798","0.0-7.0-2.17","","bdp_wmem","Wed Mar 02 2022 19:37:47 GMT-0500 (Eastern Standard Time)","788490","Match,No Match","","null","","","","","","<div class='trialBorder'><div class='vertical-center'><img style='vertical-align:center; align:center' src='img/fixation2_sml.jpg'></div><div class='arrayDiv2'><div class='tl'><img class='introPic' src='trustrating_stim/white_mw015.bmp'><br><font color='red'><strong>Keep</strong></font></div><div class='tr'><img class='introPic' src='trustrating_stim/white_00050_931230_fa_edt.bmp'><br><font color='green'><strong>Share</strong></font></div></div></div>","null","ARRAY","2","trustrating_stim/white_mw015.bmp,trustrating_stim/white_00050_931230_fa_edt.bmp","0,1","Match","e","3000","","","","",""
"html-keyboard-response","122","493802","0.0-7.0-3.17","","bdp_wmem","Wed Mar 02 2022 19:37:47 GMT-0500 (Eastern Standard Time)","788490","Match,No Match","","null","","","","","","<div class='trialBorder'><div class='vertical-center'><img src='img/fixation2_sml.jpg'</img></div></div>","null","DELAY","","","","","","","","","","",""
"html-keyboard-response","123","496402","0.0-7.0-4.17","","bdp_wmem","Wed Mar 02 2022 19:37:47 GMT-0500 (Eastern Standard Time)","788490","Match,No Match","","2598","","","","","","<div class='trialBorder'><div class='targDiv'><div class='tc'><img class='introPic' src='trustrating_stim/white_mw015.bmp'><br><font color='red'><strong>Keep</strong></font></div></div><div class='respDiv'><div class='respDivL'>Match<br>(e)</div><div class='respDivR'>No Match<br>(i)</div></div></div>","e","TARGET","2","trustrating_stim/white_mw015.bmp,trustrating_stim/white_00050_931230_fa_edt.bmp","0,1","Match","e","3000","trustrating_stim/white_mw015.bmp","red","Keep","REAL","1"
"html-keyboard-response","124","496907","0.0-7.0-5.17","","bdp_wmem","Wed Mar 02 2022 19:37:47 GMT-0500 (Eastern Standard Time)","788490","Match,No Match","","null","","","","","","<div class='trialBorder'><div class='vertical-center'><img src='img/correct.jpg'></div><div class='respDiv'><div class='respDivL'><font style='color:orange'>Match<br>(e)</font></div><div class='respDivR'>No Match<br>(i)</div></div></div>","null","FEEDBACK","","","","","","","","","","",""
"html-keyboard-response","125","497408","0.0-7.0-1.18","","bdp_wmem","Wed Mar 02 2022 19:37:47 GMT-0500 (Eastern Standard Time)","788490","Match,No Match","","null","","","","","","<div class='trialBorder'><div class='vertical-center'><img src='img/fixation2_sml.jpg'</img></div></div>","null","FIX","","","","","","","","","","",""
"html-keyboard-response","126","498912","0.0-7.0-2.18","","bdp_wmem","Wed Mar 02 2022 19:37:47 GMT-0500 (Eastern Standard Time)","788490","Match,No Match","","null","","","","","","<div class='trialBorder'><div class='vertical-center'><img style='vertical-align:center; align:center' src='img/fixation2_sml.jpg'></div><div class='arrayDiv1'><div class='tc'><img class='introPic' src='trustrating_stim/white_mw038.bmp'><br><font color='red'><strong>Keep</strong></font></div></div></div>","null","ARRAY","1","trustrating_stim/white_mw038.bmp","0","noMatchFace","i","1500","","","","",""
"html-keyboard-response","127","502917","0.0-7.0-3.18","","bdp_wmem","Wed Mar 02 2022 19:37:47 GMT-0500 (Eastern Standard Time)","788490","Match,No Match","","null","","","","","","<div class='trialBorder'><div class='vertical-center'><img src='img/fixation2_sml.jpg'</img></div></div>","null","DELAY","","","","","","","","","","",""
"html-keyboard-response","128","504345","0.0-7.0-4.18","","bdp_wmem","Wed Mar 02 2022 19:37:47 GMT-0500 (Eastern Standard Time)","788490","Match,No Match","","1425","","","","","","<div class='trialBorder'><div class='targDiv'><div class='tc'><img class='introPic' src='trustrating_stim/white_00050_931230_fa_edt.bmp'><br><font color='red'><strong>Keep</strong></font></div></div><div class='respDiv'><div class='respDivL'>Match<br>(e)</div><div class='respDivR'>No Match<br>(i)</div></div></div>","i","TARGET","1","trustrating_stim/white_mw038.bmp","0","noMatchFace","i","1500","trustrating_stim/white_00050_931230_fa_edt.bmp","red","Keep","REAL","1"
"html-keyboard-response","129","504848","0.0-7.0-5.18","","bdp_wmem","Wed Mar 02 2022 19:37:47 GMT-0500 (Eastern Standard Time)","788490","Match,No Match","","null","","","","","","<div class='trialBorder'><div class='vertical-center'><img src='img/correct.jpg'></div><div class='respDiv'><div class='respDivL'>Match<br>(e)</div><div class='respDivR'><font style='color:orange'>No Match<br>(i)</font></div></div></div>","null","FEEDBACK","","","","","","","","","","",""
"html-keyboard-response","130","505353","0.0-7.0-1.19","","bdp_wmem","Wed Mar 02 2022 19:37:47 GMT-0500 (Eastern Standard Time)","788490","Match,No Match","","null","","","","","","<div class='trialBorder'><div class='vertical-center'><img src='img/fixation2_sml.jpg'</img></div></div>","null","FIX","","","","","","","","","","",""
"html-keyboard-response","131","509856","0.0-7.0-2.19","","bdp_wmem","Wed Mar 02 2022 19:37:47 GMT-0500 (Eastern Standard Time)","788490","Match,No Match","","null","","","","","","<div class='trialBorder'><div class='vertical-center'><img style='vertical-align:center; align:center' src='img/fixation2_sml.jpg'></div><div class='arrayDiv3'><div class='tl'><img class='introPic' src='trustrating_stim/white_mw091.bmp'><br><font color='red'><strong>Keep</strong></font></div><div class='tc'><img class='introPic' src='trustrating_stim/white_mw092.bmp'><br><font color='green'><strong>Share</strong></font></div><div class='tr'><img class='introPic' src='trustrating_stim/white_mw012.bmp'><br><font color='green'><strong>Share</strong></font></div></div></div>","null","ARRAY","3","trustrating_stim/white_mw091.bmp,trustrating_stim/white_mw092.bmp,trustrating_stim/white_mw012.bmp","0,1,1","Match","e","4500","","","","",""
"html-keyboard-response","132","513861","0.0-7.0-3.19","","bdp_wmem","Wed Mar 02 2022 19:37:47 GMT-0500 (Eastern Standard Time)","788490","Match,No Match","","null","","","","","","<div class='trialBorder'><div class='vertical-center'><img src='img/fixation2_sml.jpg'</img></div></div>","null","DELAY","","","","","","","","","","",""
"html-keyboard-response","133","515795","0.0-7.0-4.19","","bdp_wmem","Wed Mar 02 2022 19:37:47 GMT-0500 (Eastern Standard Time)","788490","Match,No Match","","1932","","","","","","<div class='trialBorder'><div class='targDiv'><div class='tc'><img class='introPic' src='trustrating_stim/white_mw092.bmp'><br><font color='green'><strong>Share</strong></font></div></div><div class='respDiv'><div class='respDivL'>Match<br>(e)</div><div class='respDivR'>No Match<br>(i)</div></div></div>","e","TARGET","3","trustrating_stim/white_mw091.bmp,trustrating_stim/white_mw092.bmp,trustrating_stim/white_mw012.bmp","0,1,1","Match","e","4500","trustrating_stim/white_mw092.bmp","green","Share","REAL","1"
"html-keyboard-response","134","516299","0.0-7.0-5.19","","bdp_wmem","Wed Mar 02 2022 19:37:47 GMT-0500 (Eastern Standard Time)","788490","Match,No Match","","null","","","","","","<div class='trialBorder'><div class='vertical-center'><img src='img/correct.jpg'></div><div class='respDiv'><div class='respDivL'><font style='color:orange'>Match<br>(e)</font></div><div class='respDivR'>No Match<br>(i)</div></div></div>","null","FEEDBACK","","","","","","","","","","",""
"html-keyboard-response","135","516802","0.0-7.0-1.20","","bdp_wmem","Wed Mar 02 2022 19:37:47 GMT-0500 (Eastern Standard Time)","788490","Match,No Match","","null","","","","","","<div class='trialBorder'><div class='vertical-center'><img src='img/fixation2_sml.jpg'</img></div></div>","null","FIX","","","","","","","","","","",""
"html-keyboard-response","136","521307","0.0-7.0-2.20","","bdp_wmem","Wed Mar 02 2022 19:37:47 GMT-0500 (Eastern Standard Time)","788490","Match,No Match","","null","","","","","","<div class='trialBorder'><div class='vertical-center'><img style='vertical-align:center; align:center' src='img/fixation2_sml.jpg'></div><div class='arrayDiv3'><div class='tl'><img class='introPic' src='trustrating_stim/white_00807_941205_fb_edt.bmp'><br><font color='green'><strong>Share</strong></font></div><div class='tc'><img class='introPic' src='trustrating_stim/white_mw070.bmp'><br><font color='green'><strong>Share</strong></font></div><div class='tr'><img class='introPic' src='trustrating_stim/white_mw038.bmp'><br><font color='red'><strong>Keep</strong></font></div></div></div>","null","ARRAY","3","trustrating_stim/white_00807_941205_fb_edt.bmp,trustrating_stim/white_mw070.bmp,trustrating_stim/white_mw038.bmp","1,1,0","noMatchFace","i","4500","","","","",""
"html-keyboard-response","137","525308","0.0-7.0-3.20","","bdp_wmem","Wed Mar 02 2022 19:37:47 GMT-0500 (Eastern Standard Time)","788490","Match,No Match","","null","","","","","","<div class='trialBorder'><div class='vertical-center'><img src='img/fixation2_sml.jpg'</img></div></div>","null","DELAY","","","","","","","","","","",""
"html-keyboard-response","138","526696","0.0-7.0-4.20","","bdp_wmem","Wed Mar 02 2022 19:37:47 GMT-0500 (Eastern Standard Time)","788490","Match,No Match","","1386","","","","","","<div class='trialBorder'><div class='targDiv'><div class='tc'><img class='introPic' src='trustrating_stim/white_mw033.bmp'><br><font color='green'><strong>Share</strong></font></div></div><div class='respDiv'><div class='respDivL'>Match<br>(e)</div><div class='respDivR'>No Match<br>(i)</div></div></div>","e","TARGET","3","trustrating_stim/white_00807_941205_fb_edt.bmp,trustrating_stim/white_mw070.bmp,trustrating_stim/white_mw038.bmp","1,1,0","noMatchFace","i","4500","trustrating_stim/white_mw033.bmp","green","Share","REAL","0"
"html-keyboard-response","139","527197","0.0-7.0-5.20","","bdp_wmem","Wed Mar 02 2022 19:37:47 GMT-0500 (Eastern Standard Time)","788490","Match,No Match","","null","","","","","","<div class='trialBorder'><div class='vertical-center'><img src='img/error.jpg'></div><div class='respDiv'><div class='respDivL'><font style='color:orange'>Match<br>(e)</font></div><div class='respDivR'>No Match<br>(i)</div></div></div>","null","FEEDBACK","","","","","","","","","","",""
"html-keyboard-response","140","527702","0.0-7.0-1.21","","bdp_wmem","Wed Mar 02 2022 19:37:47 GMT-0500 (Eastern Standard Time)","788490","Match,No Match","","null","","","","","","<div class='trialBorder'><div class='vertical-center'><img src='img/fixation2_sml.jpg'</img></div></div>","null","FIX","","","","","","","","","","",""
"html-keyboard-response","141","529206","0.0-7.0-2.21","","bdp_wmem","Wed Mar 02 2022 19:37:47 GMT-0500 (Eastern Standard Time)","788490","Match,No Match","","null","","","","","","<div class='trialBorder'><div class='vertical-center'><img style='vertical-align:center; align:center' src='img/fixation2_sml.jpg'></div><div class='arrayDiv1'><div class='tc'><img class='introPic' src='trustrating_stim/white_mw012.bmp'><br><font color='red'><strong>Keep</strong></font></div></div></div>","null","ARRAY","1","trustrating_stim/white_mw012.bmp","0","Match","e","1500","","","","",""
"html-keyboard-response","142","533211","0.0-7.0-3.21","","bdp_wmem","Wed Mar 02 2022 19:37:47 GMT-0500 (Eastern Standard Time)","788490","Match,No Match","","null","","","","","","<div class='trialBorder'><div class='vertical-center'><img src='img/fixation2_sml.jpg'</img></div></div>","null","DELAY","","","","","","","","","","",""
"html-keyboard-response","143","534523","0.0-7.0-4.21","","bdp_wmem","Wed Mar 02 2022 19:37:47 GMT-0500 (Eastern Standard Time)","788490","Match,No Match","","1310","","","","","","<div class='trialBorder'><div class='targDiv'><div class='tc'><img class='introPic' src='trustrating_stim/white_mw012.bmp'><br><font color='red'><strong>Keep</strong></font></div></div><div class='respDiv'><div class='respDivL'>Match<br>(e)</div><div class='respDivR'>No Match<br>(i)</div></div></div>","e","TARGET","1","trustrating_stim/white_mw012.bmp","0","Match","e","1500","trustrating_stim/white_mw012.bmp","red","Keep","REAL","1"
"html-keyboard-response","144","535025","0.0-7.0-5.21","","bdp_wmem","Wed Mar 02 2022 19:37:47 GMT-0500 (Eastern Standard Time)","788490","Match,No Match","","null","","","","","","<div class='trialBorder'><div class='vertical-center'><img src='img/correct.jpg'></div><div class='respDiv'><div class='respDivL'><font style='color:orange'>Match<br>(e)</font></div><div class='respDivR'>No Match<br>(i)</div></div></div>","null","FEEDBACK","","","","","","","","","","",""
"html-keyboard-response","145","535527","0.0-7.0-1.22","","bdp_wmem","Wed Mar 02 2022 19:37:47 GMT-0500 (Eastern Standard Time)","788490","Match,No Match","","null","","","","","","<div class='trialBorder'><div class='vertical-center'><img src='img/fixation2_sml.jpg'</img></div></div>","null","FIX","","","","","","","","","","",""
"html-keyboard-response","146","538530","0.0-7.0-2.22","","bdp_wmem","Wed Mar 02 2022 19:37:47 GMT-0500 (Eastern Standard Time)","788490","Match,No Match","","null","","","","","","<div class='trialBorder'><div class='vertical-center'><img style='vertical-align:center; align:center' src='img/fixation2_sml.jpg'></div><div class='arrayDiv2'><div class='tl'><img class='introPic' src='trustrating_stim/white_mw012.bmp'><br><font color='green'><strong>Share</strong></font></div><div class='tr'><img class='introPic' src='trustrating_stim/white_mw091.bmp'><br><font color='red'><strong>Keep</strong></font></div></div></div>","null","ARRAY","2","trustrating_stim/white_mw012.bmp,trustrating_stim/white_mw091.bmp","1,0","Match","e","3000","","","","",""
"html-keyboard-response","147","542534","0.0-7.0-3.22","","bdp_wmem","Wed Mar 02 2022 19:37:47 GMT-0500 (Eastern Standard Time)","788490","Match,No Match","","null","","","","","","<div class='trialBorder'><div class='vertical-center'><img src='img/fixation2_sml.jpg'</img></div></div>","null","DELAY","","","","","","","","","","",""
"html-keyboard-response","148","544096","0.0-7.0-4.22","","bdp_wmem","Wed Mar 02 2022 19:37:47 GMT-0500 (Eastern Standard Time)","788490","Match,No Match","","1560","","","","","","<div class='trialBorder'><div class='targDiv'><div class='tc'><img class='introPic' src='trustrating_stim/white_mw012.bmp'><br><font color='green'><strong>Share</strong></font></div></div><div class='respDiv'><div class='respDivL'>Match<br>(e)</div><div class='respDivR'>No Match<br>(i)</div></div></div>","e","TARGET","2","trustrating_stim/white_mw012.bmp,trustrating_stim/white_mw091.bmp","1,0","Match","e","3000","trustrating_stim/white_mw012.bmp","green","Share","REAL","1"
"html-keyboard-response","149","544598","0.0-7.0-5.22","","bdp_wmem","Wed Mar 02 2022 19:37:47 GMT-0500 (Eastern Standard Time)","788490","Match,No Match","","null","","","","","","<div class='trialBorder'><div class='vertical-center'><img src='img/correct.jpg'></div><div class='respDiv'><div class='respDivL'><font style='color:orange'>Match<br>(e)</font></div><div class='respDivR'>No Match<br>(i)</div></div></div>","null","FEEDBACK","","","","","","","","","","",""
"html-keyboard-response","150","545100","0.0-7.0-1.23","","bdp_wmem","Wed Mar 02 2022 19:37:47 GMT-0500 (Eastern Standard Time)","788490","Match,No Match","","null","","","","","","<div class='trialBorder'><div class='vertical-center'><img src='img/fixation2_sml.jpg'</img></div></div>","null","FIX","","","","","","","","","","",""
"html-keyboard-response","151","548103","0.0-7.0-2.23","","bdp_wmem","Wed Mar 02 2022 19:37:47 GMT-0500 (Eastern Standard Time)","788490","Match,No Match","","null","","","","","","<div class='trialBorder'><div class='vertical-center'><img style='vertical-align:center; align:center' src='img/fixation2_sml.jpg'></div><div class='arrayDiv2'><div class='tl'><img class='introPic' src='trustrating_stim/white_mw091.bmp'><br><font color='green'><strong>Share</strong></font></div><div class='tr'><img class='introPic' src='trustrating_stim/white_mw040.bmp'><br><font color='red'><strong>Keep</strong></font></div></div></div>","null","ARRAY","2","trustrating_stim/white_mw091.bmp,trustrating_stim/white_mw040.bmp","1,0","noMatchOutcome","i","3000","","","","",""
"html-keyboard-response","152","552107","0.0-7.0-3.23","","bdp_wmem","Wed Mar 02 2022 19:37:47 GMT-0500 (Eastern Standard Time)","788490","Match,No Match","","null","","","","","","<div class='trialBorder'><div class='vertical-center'><img src='img/fixation2_sml.jpg'</img></div></div>","null","DELAY","","","","","","","","","","",""
"html-keyboard-response","153","553267","0.0-7.0-4.23","","bdp_wmem","Wed Mar 02 2022 19:37:47 GMT-0500 (Eastern Standard Time)","788490","Match,No Match","","1158","","","","","","<div class='trialBorder'><div class='targDiv'><div class='tc'><img class='introPic' src='trustrating_stim/white_mw091.bmp'><br><font color='red'><strong>Keep</strong></font></div></div><div class='respDiv'><div class='respDivL'>Match<br>(e)</div><div class='respDivR'>No Match<br>(i)</div></div></div>","i","TARGET","2","trustrating_stim/white_mw091.bmp,trustrating_stim/white_mw040.bmp","1,0","noMatchOutcome","i","3000","trustrating_stim/white_mw091.bmp","red","Keep","REAL","1"
"html-keyboard-response","154","553769","0.0-7.0-5.23","","bdp_wmem","Wed Mar 02 2022 19:37:47 GMT-0500 (Eastern Standard Time)","788490","Match,No Match","","null","","","","","","<div class='trialBorder'><div class='vertical-center'><img src='img/correct.jpg'></div><div class='respDiv'><div class='respDivL'>Match<br>(e)</div><div class='respDivR'><font style='color:orange'>No Match<br>(i)</font></div></div></div>","null","FEEDBACK","","","","","","","","","","",""
"html-keyboard-response","155","554273","0.0-7.0-1.24","","bdp_wmem","Wed Mar 02 2022 19:37:47 GMT-0500 (Eastern Standard Time)","788490","Match,No Match","","null","","","","","","<div class='trialBorder'><div class='vertical-center'><img src='img/fixation2_sml.jpg'</img></div></div>","null","FIX","","","","","","","","","","",""
"html-keyboard-response","156","555777","0.0-7.0-2.24","","bdp_wmem","Wed Mar 02 2022 19:37:47 GMT-0500 (Eastern Standard Time)","788490","Match,No Match","","null","","","","","","<div class='trialBorder'><div class='vertical-center'><img style='vertical-align:center; align:center' src='img/fixation2_sml.jpg'></div><div class='arrayDiv1'><div class='tc'><img class='introPic' src='trustrating_stim/white_mw033.bmp'><br><font color='red'><strong>Keep</strong></font></div></div></div>","null","ARRAY","1","trustrating_stim/white_mw033.bmp","0","noMatchOutcome","i","1500","","","","",""
"html-keyboard-response","157","559782","0.0-7.0-3.24","","bdp_wmem","Wed Mar 02 2022 19:37:47 GMT-0500 (Eastern Standard Time)","788490","Match,No Match","","null","","","","","","<div class='trialBorder'><div class='vertical-center'><img src='img/fixation2_sml.jpg'</img></div></div>","null","DELAY","","","","","","","","","","",""
"html-keyboard-response","158","561087","0.0-7.0-4.24","","bdp_wmem","Wed Mar 02 2022 19:37:47 GMT-0500 (Eastern Standard Time)","788490","Match,No Match","","1303","","","","","","<div class='trialBorder'><div class='targDiv'><div class='tc'><img class='introPic' src='trustrating_stim/white_mw033.bmp'><br><font color='green'><strong>Share</strong></font></div></div><div class='respDiv'><div class='respDivL'>Match<br>(e)</div><div class='respDivR'>No Match<br>(i)</div></div></div>","i","TARGET","1","trustrating_stim/white_mw033.bmp","0","noMatchOutcome","i","1500","trustrating_stim/white_mw033.bmp","green","Share","REAL","1"
"html-keyboard-response","159","561590","0.0-7.0-5.24","","bdp_wmem","Wed Mar 02 2022 19:37:47 GMT-0500 (Eastern Standard Time)","788490","Match,No Match","","null","","","","","","<div class='trialBorder'><div class='vertical-center'><img src='img/correct.jpg'></div><div class='respDiv'><div class='respDivL'>Match<br>(e)</div><div class='respDivR'><font style='color:orange'>No Match<br>(i)</font></div></div></div>","null","FEEDBACK","","","","","","","","","","",""
"html-keyboard-response","160","562093","0.0-7.0-1.25","","bdp_wmem","Wed Mar 02 2022 19:37:47 GMT-0500 (Eastern Standard Time)","788490","Match,No Match","","null","","","","","","<div class='trialBorder'><div class='vertical-center'><img src='img/fixation2_sml.jpg'</img></div></div>","null","FIX","","","","","","","","","","",""
"html-keyboard-response","161","566598","0.0-7.0-2.25","","bdp_wmem","Wed Mar 02 2022 19:37:47 GMT-0500 (Eastern Standard Time)","788490","Match,No Match","","null","","","","","","<div class='trialBorder'><div class='vertical-center'><img style='vertical-align:center; align:center' src='img/fixation2_sml.jpg'></div><div class='arrayDiv3'><div class='tl'><img class='introPic' src='trustrating_stim/white_mw033.bmp'><br><font color='red'><strong>Keep</strong></font></div><div class='tc'><img class='introPic' src='trustrating_stim/white_mw003.bmp'><br><font color='red'><strong>Keep</strong></font></div><div class='tr'><img class='introPic' src='trustrating_stim/white_mw013.bmp'><br><font color='green'><strong>Share</strong></font></div></div></div>","null","ARRAY","3","trustrating_stim/white_mw033.bmp,trustrating_stim/white_mw003.bmp,trustrating_stim/white_mw013.bmp","0,0,1","noMatchFace","i","4500","","","","",""
"html-keyboard-response","162","570604","0.0-7.0-3.25","","bdp_wmem","Wed Mar 02 2022 19:37:47 GMT-0500 (Eastern Standard Time)","788490","Match,No Match","","null","","","","","","<div class='trialBorder'><div class='vertical-center'><img src='img/fixation2_sml.jpg'</img></div></div>","null","DELAY","","","","","","","","","","",""
"html-keyboard-response","163","572512","0.0-7.0-4.25","","bdp_wmem","Wed Mar 02 2022 19:37:47 GMT-0500 (Eastern Standard Time)","788490","Match,No Match","","1905","","","","","","<div class='trialBorder'><div class='targDiv'><div class='tc'><img class='introPic' src='trustrating_stim/white_mw038.bmp'><br><font color='green'><strong>Share</strong></font></div></div><div class='respDiv'><div class='respDivL'>Match<br>(e)</div><div class='respDivR'>No Match<br>(i)</div></div></div>","i","TARGET","3","trustrating_stim/white_mw033.bmp,trustrating_stim/white_mw003.bmp,trustrating_stim/white_mw013.bmp","0,0,1","noMatchFace","i","4500","trustrating_stim/white_mw038.bmp","green","Share","REAL","1"
"html-keyboard-response","164","573014","0.0-7.0-5.25","","bdp_wmem","Wed Mar 02 2022 19:37:47 GMT-0500 (Eastern Standard Time)","788490","Match,No Match","","null","","","","","","<div class='trialBorder'><div class='vertical-center'><img src='img/correct.jpg'></div><div class='respDiv'><div class='respDivL'>Match<br>(e)</div><div class='respDivR'><font style='color:orange'>No Match<br>(i)</font></div></div></div>","null","FEEDBACK","","","","","","","","","","",""
"html-keyboard-response","165","573517","0.0-7.0-1.26","","bdp_wmem","Wed Mar 02 2022 19:37:47 GMT-0500 (Eastern Standard Time)","788490","Match,No Match","","null","","","","","","<div class='trialBorder'><div class='vertical-center'><img src='img/fixation2_sml.jpg'</img></div></div>","null","FIX","","","","","","","","","","",""
"html-keyboard-response","166","575020","0.0-7.0-2.26","","bdp_wmem","Wed Mar 02 2022 19:37:47 GMT-0500 (Eastern Standard Time)","788490","Match,No Match","","null","","","","","","<div class='trialBorder'><div class='vertical-center'><img style='vertical-align:center; align:center' src='img/fixation2_sml.jpg'></div><div class='arrayDiv1'><div class='tc'><img class='introPic' src='trustrating_stim/white_00050_931230_fa_edt.bmp'><br><font color='red'><strong>Keep</strong></font></div></div></div>","null","ARRAY","1","trustrating_stim/white_00050_931230_fa_edt.bmp","0","Match","e","1500","","","","",""
"html-keyboard-response","167","579025","0.0-7.0-3.26","","bdp_wmem","Wed Mar 02 2022 19:37:47 GMT-0500 (Eastern Standard Time)","788490","Match,No Match","","null","","","","","","<div class='trialBorder'><div class='vertical-center'><img src='img/fixation2_sml.jpg'</img></div></div>","null","DELAY","","","","","","","","","","",""
"html-keyboard-response","168","580264","0.0-7.0-4.26","","bdp_wmem","Wed Mar 02 2022 19:37:47 GMT-0500 (Eastern Standard Time)","788490","Match,No Match","","1237","","","","","","<div class='trialBorder'><div class='targDiv'><div class='tc'><img class='introPic' src='trustrating_stim/white_00050_931230_fa_edt.bmp'><br><font color='red'><strong>Keep</strong></font></div></div><div class='respDiv'><div class='respDivL'>Match<br>(e)</div><div class='respDivR'>No Match<br>(i)</div></div></div>","e","TARGET","1","trustrating_stim/white_00050_931230_fa_edt.bmp","0","Match","e","1500","trustrating_stim/white_00050_931230_fa_edt.bmp","red","Keep","REAL","1"
"html-keyboard-response","169","580766","0.0-7.0-5.26","","bdp_wmem","Wed Mar 02 2022 19:37:47 GMT-0500 (Eastern Standard Time)","788490","Match,No Match","","null","","","","","","<div class='trialBorder'><div class='vertical-center'><img src='img/correct.jpg'></div><div class='respDiv'><div class='respDivL'><font style='color:orange'>Match<br>(e)</font></div><div class='respDivR'>No Match<br>(i)</div></div></div>","null","FEEDBACK","","","","","","","","","","",""
"html-keyboard-response","170","581270","0.0-7.0-1.27","","bdp_wmem","Wed Mar 02 2022 19:37:47 GMT-0500 (Eastern Standard Time)","788490","Match,No Match","","null","","","","","","<div class='trialBorder'><div class='vertical-center'><img src='img/fixation2_sml.jpg'</img></div></div>","null","FIX","","","","","","","","","","",""
"html-keyboard-response","171","582776","0.0-7.0-2.27","","bdp_wmem","Wed Mar 02 2022 19:37:47 GMT-0500 (Eastern Standard Time)","788490","Match,No Match","","null","","","","","","<div class='trialBorder'><div class='vertical-center'><img style='vertical-align:center; align:center' src='img/fixation2_sml.jpg'></div><div class='arrayDiv1'><div class='tc'><img class='introPic' src='trustrating_stim/white_00050_931230_fa_edt.bmp'><br><font color='red'><strong>Keep</strong></font></div></div></div>","null","ARRAY","1","trustrating_stim/white_00050_931230_fa_edt.bmp","0","noMatchFace","i","1500","","","","",""
"html-keyboard-response","172","586780","0.0-7.0-3.27","","bdp_wmem","Wed Mar 02 2022 19:37:47 GMT-0500 (Eastern Standard Time)","788490","Match,No Match","","null","","","","","","<div class='trialBorder'><div class='vertical-center'><img src='img/fixation2_sml.jpg'</img></div></div>","null","DELAY","","","","","","","","","","",""
"html-keyboard-response","173","588767","0.0-7.0-4.27","","bdp_wmem","Wed Mar 02 2022 19:37:47 GMT-0500 (Eastern Standard Time)","788490","Match,No Match","","1985","","","","","","<div class='trialBorder'><div class='targDiv'><div class='tc'><img class='introPic' src='trustrating_stim/white_mw013.bmp'><br><font color='red'><strong>Keep</strong></font></div></div><div class='respDiv'><div class='respDivL'>Match<br>(e)</div><div class='respDivR'>No Match<br>(i)</div></div></div>","i","TARGET","1","trustrating_stim/white_00050_931230_fa_edt.bmp","0","noMatchFace","i","1500","trustrating_stim/white_mw013.bmp","red","Keep","REAL","1"
"html-keyboard-response","174","589271","0.0-7.0-5.27","","bdp_wmem","Wed Mar 02 2022 19:37:47 GMT-0500 (Eastern Standard Time)","788490","Match,No Match","","null","","","","","","<div class='trialBorder'><div class='vertical-center'><img src='img/correct.jpg'></div><div class='respDiv'><div class='respDivL'>Match<br>(e)</div><div class='respDivR'><font style='color:orange'>No Match<br>(i)</font></div></div></div>","null","FEEDBACK","","","","","","","","","","",""
"html-keyboard-response","175","589773","0.0-7.0-1.28","","bdp_wmem","Wed Mar 02 2022 19:37:47 GMT-0500 (Eastern Standard Time)","788490","Match,No Match","","null","","","","","","<div class='trialBorder'><div class='vertical-center'><img src='img/fixation2_sml.jpg'</img></div></div>","null","FIX","","","","","","","","","","",""
"html-keyboard-response","176","592776","0.0-7.0-2.28","","bdp_wmem","Wed Mar 02 2022 19:37:47 GMT-0500 (Eastern Standard Time)","788490","Match,No Match","","null","","","","","","<div class='trialBorder'><div class='vertical-center'><img style='vertical-align:center; align:center' src='img/fixation2_sml.jpg'></div><div class='arrayDiv2'><div class='tl'><img class='introPic' src='trustrating_stim/white_00050_931230_fa_edt.bmp'><br><font color='red'><strong>Keep</strong></font></div><div class='tr'><img class='introPic' src='trustrating_stim/white_mw040.bmp'><br><font color='green'><strong>Share</strong></font></div></div></div>","null","ARRAY","2","trustrating_stim/white_00050_931230_fa_edt.bmp,trustrating_stim/white_mw040.bmp","0,1","noMatchFace","i","3000","","","","",""
"html-keyboard-response","177","596780","0.0-7.0-3.28","","bdp_wmem","Wed Mar 02 2022 19:37:47 GMT-0500 (Eastern Standard Time)","788490","Match,No Match","","null","","","","","","<div class='trialBorder'><div class='vertical-center'><img src='img/fixation2_sml.jpg'</img></div></div>","null","DELAY","","","","","","","","","","",""
"html-keyboard-response","178","598575","0.0-7.0-4.28","","bdp_wmem","Wed Mar 02 2022 19:37:47 GMT-0500 (Eastern Standard Time)","788490","Match,No Match","","1793","","","","","","<div class='trialBorder'><div class='targDiv'><div class='tc'><img class='introPic' src='trustrating_stim/white_mw070.bmp'><br><font color='red'><strong>Keep</strong></font></div></div><div class='respDiv'><div class='respDivL'>Match<br>(e)</div><div class='respDivR'>No Match<br>(i)</div></div></div>","i","TARGET","2","trustrating_stim/white_00050_931230_fa_edt.bmp,trustrating_stim/white_mw040.bmp","0,1","noMatchFace","i","3000","trustrating_stim/white_mw070.bmp","red","Keep","REAL","1"
"html-keyboard-response","179","599079","0.0-7.0-5.28","","bdp_wmem","Wed Mar 02 2022 19:37:47 GMT-0500 (Eastern Standard Time)","788490","Match,No Match","","null","","","","","","<div class='trialBorder'><div class='vertical-center'><img src='img/correct.jpg'></div><div class='respDiv'><div class='respDivL'>Match<br>(e)</div><div class='respDivR'><font style='color:orange'>No Match<br>(i)</font></div></div></div>","null","FEEDBACK","","","","","","","","","","",""
"html-keyboard-response","180","599585","0.0-7.0-1.29","","bdp_wmem","Wed Mar 02 2022 19:37:47 GMT-0500 (Eastern Standard Time)","788490","Match,No Match","","null","","","","","","<div class='trialBorder'><div class='vertical-center'><img src='img/fixation2_sml.jpg'</img></div></div>","null","FIX","","","","","","","","","","",""
"html-keyboard-response","181","601090","0.0-7.0-2.29","","bdp_wmem","Wed Mar 02 2022 19:37:47 GMT-0500 (Eastern Standard Time)","788490","Match,No Match","","null","","","","","","<div class='trialBorder'><div class='vertical-center'><img style='vertical-align:center; align:center' src='img/fixation2_sml.jpg'></div><div class='arrayDiv1'><div class='tc'><img class='introPic' src='trustrating_stim/white_mw003.bmp'><br><font color='red'><strong>Keep</strong></font></div></div></div>","null","ARRAY","1","trustrating_stim/white_mw003.bmp","0","Match","e","1500","","","","",""
"html-keyboard-response","182","605095","0.0-7.0-3.29","","bdp_wmem","Wed Mar 02 2022 19:37:47 GMT-0500 (Eastern Standard Time)","788490","Match,No Match","","null","","","","","","<div class='trialBorder'><div class='vertical-center'><img src='img/fixation2_sml.jpg'</img></div></div>","null","DELAY","","","","","","","","","","",""
"html-keyboard-response","183","606431","0.0-7.0-4.29","","bdp_wmem","Wed Mar 02 2022 19:37:47 GMT-0500 (Eastern Standard Time)","788490","Match,No Match","","1333","","","","","","<div class='trialBorder'><div class='targDiv'><div class='tc'><img class='introPic' src='trustrating_stim/white_mw003.bmp'><br><font color='red'><strong>Keep</strong></font></div></div><div class='respDiv'><div class='respDivL'>Match<br>(e)</div><div class='respDivR'>No Match<br>(i)</div></div></div>","e","TARGET","1","trustrating_stim/white_mw003.bmp","0","Match","e","1500","trustrating_stim/white_mw003.bmp","red","Keep","REAL","1"
"html-keyboard-response","184","606932","0.0-7.0-5.29","","bdp_wmem","Wed Mar 02 2022 19:37:47 GMT-0500 (Eastern Standard Time)","788490","Match,No Match","","null","","","","","","<div class='trialBorder'><div class='vertical-center'><img src='img/correct.jpg'></div><div class='respDiv'><div class='respDivL'><font style='color:orange'>Match<br>(e)</font></div><div class='respDivR'>No Match<br>(i)</div></div></div>","null","FEEDBACK","","","","","","","","","","",""
"html-keyboard-response","185","607436","0.0-7.0-1.30","","bdp_wmem","Wed Mar 02 2022 19:37:47 GMT-0500 (Eastern Standard Time)","788490","Match,No Match","","null","","","","","","<div class='trialBorder'><div class='vertical-center'><img src='img/fixation2_sml.jpg'</img></div></div>","null","FIX","","","","","","","","","","",""
"html-keyboard-response","186","608940","0.0-7.0-2.30","","bdp_wmem","Wed Mar 02 2022 19:37:47 GMT-0500 (Eastern Standard Time)","788490","Match,No Match","","null","","","","","","<div class='trialBorder'><div class='vertical-center'><img style='vertical-align:center; align:center' src='img/fixation2_sml.jpg'></div><div class='arrayDiv1'><div class='tc'><img class='introPic' src='trustrating_stim/white_00807_941205_fb_edt.bmp'><br><font color='green'><strong>Share</strong></font></div></div></div>","null","ARRAY","1","trustrating_stim/white_00807_941205_fb_edt.bmp","1","noMatchFace","i","1500","","","","",""
"html-keyboard-response","187","612946","0.0-7.0-3.30","","bdp_wmem","Wed Mar 02 2022 19:37:47 GMT-0500 (Eastern Standard Time)","788490","Match,No Match","","null","","","","","","<div class='trialBorder'><div class='vertical-center'><img src='img/fixation2_sml.jpg'</img></div></div>","null","DELAY","","","","","","","","","","",""
"html-keyboard-response","188","614242","0.0-7.0-4.30","","bdp_wmem","Wed Mar 02 2022 19:37:47 GMT-0500 (Eastern Standard Time)","788490","Match,No Match","","1294","","","","","","<div class='trialBorder'><div class='targDiv'><div class='tc'><img class='introPic' src='trustrating_stim/white_mw091.bmp'><br><font color='green'><strong>Share</strong></font></div></div><div class='respDiv'><div class='respDivL'>Match<br>(e)</div><div class='respDivR'>No Match<br>(i)</div></div></div>","i","TARGET","1","trustrating_stim/white_00807_941205_fb_edt.bmp","1","noMatchFace","i","1500","trustrating_stim/white_mw091.bmp","green","Share","REAL","1"
"html-keyboard-response","189","614743","0.0-7.0-5.30","","bdp_wmem","Wed Mar 02 2022 19:37:47 GMT-0500 (Eastern Standard Time)","788490","Match,No Match","","null","","","","","","<div class='trialBorder'><div class='vertical-center'><img src='img/correct.jpg'></div><div class='respDiv'><div class='respDivL'>Match<br>(e)</div><div class='respDivR'><font style='color:orange'>No Match<br>(i)</font></div></div></div>","null","FEEDBACK","","","","","","","","","","",""
"html-keyboard-response","190","615246","0.0-7.0-1.31","","bdp_wmem","Wed Mar 02 2022 19:37:47 GMT-0500 (Eastern Standard Time)","788490","Match,No Match","","null","","","","","","<div class='trialBorder'><div class='vertical-center'><img src='img/fixation2_sml.jpg'</img></div></div>","null","FIX","","","","","","","","","","",""
"html-keyboard-response","191","616748","0.0-7.0-2.31","","bdp_wmem","Wed Mar 02 2022 19:37:47 GMT-0500 (Eastern Standard Time)","788490","Match,No Match","","null","","","","","","<div class='trialBorder'><div class='vertical-center'><img style='vertical-align:center; align:center' src='img/fixation2_sml.jpg'></div><div class='arrayDiv1'><div class='tc'><img class='introPic' src='trustrating_stim/white_mw003.bmp'><br><font color='red'><strong>Keep</strong></font></div></div></div>","null","ARRAY","1","trustrating_stim/white_mw003.bmp","0","noMatchFace","i","1500","","","","",""
"html-keyboard-response","192","620754","0.0-7.0-3.31","","bdp_wmem","Wed Mar 02 2022 19:37:47 GMT-0500 (Eastern Standard Time)","788490","Match,No Match","","null","","","","","","<div class='trialBorder'><div class='vertical-center'><img src='img/fixation2_sml.jpg'</img></div></div>","null","DELAY","","","","","","","","","","",""
"html-keyboard-response","193","621889","0.0-7.0-4.31","","bdp_wmem","Wed Mar 02 2022 19:37:47 GMT-0500 (Eastern Standard Time)","788490","Match,No Match","","1133","","","","","","<div class='trialBorder'><div class='targDiv'><div class='tc'><img class='introPic' src='trustrating_stim/white_mw015.bmp'><br><font color='red'><strong>Keep</strong></font></div></div><div class='respDiv'><div class='respDivL'>Match<br>(e)</div><div class='respDivR'>No Match<br>(i)</div></div></div>","i","TARGET","1","trustrating_stim/white_mw003.bmp","0","noMatchFace","i","1500","trustrating_stim/white_mw015.bmp","red","Keep","REAL","1"
"html-keyboard-response","194","622391","0.0-7.0-5.31","","bdp_wmem","Wed Mar 02 2022 19:37:47 GMT-0500 (Eastern Standard Time)","788490","Match,No Match","","null","","","","","","<div class='trialBorder'><div class='vertical-center'><img src='img/correct.jpg'></div><div class='respDiv'><div class='respDivL'>Match<br>(e)</div><div class='respDivR'><font style='color:orange'>No Match<br>(i)</font></div></div></div>","null","FEEDBACK","","","","","","","","","","",""
"html-keyboard-response","195","622894","0.0-7.0-1.32","","bdp_wmem","Wed Mar 02 2022 19:37:47 GMT-0500 (Eastern Standard Time)","788490","Match,No Match","","null","","","","","","<div class='trialBorder'><div class='vertical-center'><img src='img/fixation2_sml.jpg'</img></div></div>","null","FIX","","","","","","","","","","",""
"html-keyboard-response","196","625897","0.0-7.0-2.32","","bdp_wmem","Wed Mar 02 2022 19:37:47 GMT-0500 (Eastern Standard Time)","788490","Match,No Match","","null","","","","","","<div class='trialBorder'><div class='vertical-center'><img style='vertical-align:center; align:center' src='img/fixation2_sml.jpg'></div><div class='arrayDiv2'><div class='tl'><img class='introPic' src='trustrating_stim/white_mw012.bmp'><br><font color='red'><strong>Keep</strong></font></div><div class='tr'><img class='introPic' src='trustrating_stim/white_mw013.bmp'><br><font color='green'><strong>Share</strong></font></div></div></div>","null","ARRAY","2","trustrating_stim/white_mw012.bmp,trustrating_stim/white_mw013.bmp","0,1","noMatchOutcome","i","3000","","","","",""
"html-keyboard-response","197","629901","0.0-7.0-3.32","","bdp_wmem","Wed Mar 02 2022 19:37:47 GMT-0500 (Eastern Standard Time)","788490","Match,No Match","","null","","","","","","<div class='trialBorder'><div class='vertical-center'><img src='img/fixation2_sml.jpg'</img></div></div>","null","DELAY","","","","","","","","","","",""
"html-keyboard-response","198","631783","0.0-7.0-4.32","","bdp_wmem","Wed Mar 02 2022 19:37:47 GMT-0500 (Eastern Standard Time)","788490","Match,No Match","","1879","","","","","","<div class='trialBorder'><div class='targDiv'><div class='tc'><img class='introPic' src='trustrating_stim/white_mw012.bmp'><br><font color='green'><strong>Share</strong></font></div></div><div class='respDiv'><div class='respDivL'>Match<br>(e)</div><div class='respDivR'>No Match<br>(i)</div></div></div>","i","TARGET","2","trustrating_stim/white_mw012.bmp,trustrating_stim/white_mw013.bmp","0,1","noMatchOutcome","i","3000","trustrating_stim/white_mw012.bmp","green","Share","REAL","1"
