"trial_type","trial_index","time_elapsed","internal_node_id","subject_id","task","startTime","totalTime","labels","view_history","rt","event","trial","time","trialtype","success","stimulus","key_press","stimType","arraySize","arrayFaces","arrayOutcomes","matchType","corrResp","arrayDur","targFace","targCol","targOutcome","trialType","corr"
"pavlovia","0","4","0.0-0.0","63b6be60f23fd8e0399f668c","bdp_wmem","Wed Mar 15 2023 16:01:55 GMT-0400 (Eastern Daylight Time)","622719","Match,No Match","","","","","","","","","","","","","","","","","","","","",""
"instructions","1","3429","0.0-1.0","63b6be60f23fd8e0399f668c","bdp_wmem","Wed Mar 15 2023 16:01:55 GMT-0400 (Eastern Daylight Time)","622719","Match,No Match","[{""page_index"":0,""viewing_time"":3424}]","3424","","","","","","","","","","","","","","","","","","",""
"","","","","63b6be60f23fd8e0399f668c","bdp_wmem","Wed Mar 15 2023 16:01:55 GMT-0400 (Eastern Daylight Time)","622719","Match,No Match","","","fullscreenenter","2","5708","fullscreenenter","","","","","","","","","","","","","","",""
"fullscreen","2","6693","0.0-2.0","63b6be60f23fd8e0399f668c","bdp_wmem","Wed Mar 15 2023 16:01:55 GMT-0400 (Eastern Daylight Time)","622719","Match,No Match","","","","","","","true","","","","","","","","","","","","","",""
"instructions","3","121508","0.0-4.0","63b6be60f23fd8e0399f668c","bdp_wmem","Wed Mar 15 2023 16:01:55 GMT-0400 (Eastern Daylight Time)","622719","Match,No Match","[{""page_index"":0,""viewing_time"":41221},{""page_index"":1,""viewing_time"":36324},{""page_index"":2,""viewing_time"":19426},{""page_index"":3,""viewing_time"":5384},{""page_index"":4,""viewing_time"":12458}]","114813","","","","","","","","","","","","","","","","","","",""
"html-keyboard-response","4","122018","0.0-5.0-1.0","63b6be60f23fd8e0399f668c","bdp_wmem","Wed Mar 15 2023 16:01:55 GMT-0400 (Eastern Daylight Time)","622719","Match,No Match","","null","","","","","","<div class='trialBorder'><div class='vertical-center'><img src='img/fixation2_sml.jpg'</img></div></div>","null","FIX","","","","","","","","","","",""
"html-keyboard-response","5","126529","0.0-5.0-2.0","63b6be60f23fd8e0399f668c","bdp_wmem","Wed Mar 15 2023 16:01:55 GMT-0400 (Eastern Daylight Time)","622719","Match,No Match","","null","","","","","","<div class='trialBorder'><div class='vertical-center'><img style='vertical-align:center; align:center' src='img/fixation2_sml.jpg'></div><div class='arrayDiv3'><div class='tl'><img class='introPic' src='trustrating_stim/white_mw042.bmp'><br><font color='green'><strong>Share</strong></font></div><div class='tc'><img class='introPic' src='trustrating_stim/white_mw003.bmp'><br><font color='red'><strong>Keep</strong></font></div><div class='tr'><img class='introPic' src='trustrating_stim/white_mw038.bmp'><br><font color='red'><strong>Keep</strong></font></div></div></div>","null","ARRAY","3","trustrating_stim/white_mw042.bmp,trustrating_stim/white_mw003.bmp,trustrating_stim/white_mw038.bmp","1,0,0","noMatchOutcome","i","4500","","","","",""
"html-keyboard-response","6","130536","0.0-5.0-3.0","63b6be60f23fd8e0399f668c","bdp_wmem","Wed Mar 15 2023 16:01:55 GMT-0400 (Eastern Daylight Time)","622719","Match,No Match","","null","","","","","","<div class='trialBorder'><div class='vertical-center'><img src='img/fixation2_sml.jpg'</img></div></div>","null","DELAY","","","","","","","","","","",""
"html-keyboard-response","7","132583","0.0-5.0-4.0","63b6be60f23fd8e0399f668c","bdp_wmem","Wed Mar 15 2023 16:01:55 GMT-0400 (Eastern Daylight Time)","622719","Match,No Match","","2043","","","","","","<div class='trialBorder'><div class='targDiv'><div class='tc'><img class='introPic' src='trustrating_stim/white_mw003.bmp'><br><font color='green'><strong>Share</strong></font></div></div><div class='respDiv'><div class='respDivL'>Match<br>(e)</div><div class='respDivR'>No Match<br>(i)</div></div></div>","i","TARGET","3","trustrating_stim/white_mw042.bmp,trustrating_stim/white_mw003.bmp,trustrating_stim/white_mw038.bmp","1,0,0","noMatchOutcome","i","4500","trustrating_stim/white_mw003.bmp","green","Share","PRACTICE","1"
"html-keyboard-response","8","133089","0.0-5.0-5.0","63b6be60f23fd8e0399f668c","bdp_wmem","Wed Mar 15 2023 16:01:55 GMT-0400 (Eastern Daylight Time)","622719","Match,No Match","","null","","","","","","<div class='trialBorder'><div class='vertical-center'><img src='img/correct.jpg'></div><div class='respDiv'><div class='respDivL'>Match<br>(e)</div><div class='respDivR'><font style='color:orange'>No Match<br>(i)</font></div></div></div>","null","FEEDBACK","","","","","","","","","","",""
"html-keyboard-response","9","133592","0.0-5.0-1.1","63b6be60f23fd8e0399f668c","bdp_wmem","Wed Mar 15 2023 16:01:55 GMT-0400 (Eastern Daylight Time)","622719","Match,No Match","","null","","","","","","<div class='trialBorder'><div class='vertical-center'><img src='img/fixation2_sml.jpg'</img></div></div>","null","FIX","","","","","","","","","","",""
"html-keyboard-response","10","135096","0.0-5.0-2.1","63b6be60f23fd8e0399f668c","bdp_wmem","Wed Mar 15 2023 16:01:55 GMT-0400 (Eastern Daylight Time)","622719","Match,No Match","","null","","","","","","<div class='trialBorder'><div class='vertical-center'><img style='vertical-align:center; align:center' src='img/fixation2_sml.jpg'></div><div class='arrayDiv1'><div class='tc'><img class='introPic' src='trustrating_stim/white_mw092.bmp'><br><font color='green'><strong>Share</strong></font></div></div></div>","null","ARRAY","1","trustrating_stim/white_mw092.bmp","1","noMatchFace","i","1500","","","","",""
"html-keyboard-response","11","139105","0.0-5.0-3.1","63b6be60f23fd8e0399f668c","bdp_wmem","Wed Mar 15 2023 16:01:55 GMT-0400 (Eastern Daylight Time)","622719","Match,No Match","","null","","","","","","<div class='trialBorder'><div class='vertical-center'><img src='img/fixation2_sml.jpg'</img></div></div>","null","DELAY","","","","","","","","","","",""
"html-keyboard-response","12","140119","0.0-5.0-4.1","63b6be60f23fd8e0399f668c","bdp_wmem","Wed Mar 15 2023 16:01:55 GMT-0400 (Eastern Daylight Time)","622719","Match,No Match","","1011","","","","","","<div class='trialBorder'><div class='targDiv'><div class='tc'><img class='introPic' src='trustrating_stim/white_mw040.bmp'><br><font color='green'><strong>Share</strong></font></div></div><div class='respDiv'><div class='respDivL'>Match<br>(e)</div><div class='respDivR'>No Match<br>(i)</div></div></div>","i","TARGET","1","trustrating_stim/white_mw092.bmp","1","noMatchFace","i","1500","trustrating_stim/white_mw040.bmp","green","Share","PRACTICE","1"
"html-keyboard-response","13","140625","0.0-5.0-5.1","63b6be60f23fd8e0399f668c","bdp_wmem","Wed Mar 15 2023 16:01:55 GMT-0400 (Eastern Daylight Time)","622719","Match,No Match","","null","","","","","","<div class='trialBorder'><div class='vertical-center'><img src='img/correct.jpg'></div><div class='respDiv'><div class='respDivL'>Match<br>(e)</div><div class='respDivR'><font style='color:orange'>No Match<br>(i)</font></div></div></div>","null","FEEDBACK","","","","","","","","","","",""
"html-keyboard-response","14","141128","0.0-5.0-1.2","63b6be60f23fd8e0399f668c","bdp_wmem","Wed Mar 15 2023 16:01:55 GMT-0400 (Eastern Daylight Time)","622719","Match,No Match","","null","","","","","","<div class='trialBorder'><div class='vertical-center'><img src='img/fixation2_sml.jpg'</img></div></div>","null","FIX","","","","","","","","","","",""
"html-keyboard-response","15","142632","0.0-5.0-2.2","63b6be60f23fd8e0399f668c","bdp_wmem","Wed Mar 15 2023 16:01:55 GMT-0400 (Eastern Daylight Time)","622719","Match,No Match","","null","","","","","","<div class='trialBorder'><div class='vertical-center'><img style='vertical-align:center; align:center' src='img/fixation2_sml.jpg'></div><div class='arrayDiv1'><div class='tc'><img class='introPic' src='trustrating_stim/white_mw085.bmp'><br><font color='red'><strong>Keep</strong></font></div></div></div>","null","ARRAY","1","trustrating_stim/white_mw085.bmp","0","Match","e","1500","","","","",""
"html-keyboard-response","16","146641","0.0-5.0-3.2","63b6be60f23fd8e0399f668c","bdp_wmem","Wed Mar 15 2023 16:01:55 GMT-0400 (Eastern Daylight Time)","622719","Match,No Match","","null","","","","","","<div class='trialBorder'><div class='vertical-center'><img src='img/fixation2_sml.jpg'</img></div></div>","null","DELAY","","","","","","","","","","",""
"html-keyboard-response","17","147386","0.0-5.0-4.2","63b6be60f23fd8e0399f668c","bdp_wmem","Wed Mar 15 2023 16:01:55 GMT-0400 (Eastern Daylight Time)","622719","Match,No Match","","742","","","","","","<div class='trialBorder'><div class='targDiv'><div class='tc'><img class='introPic' src='trustrating_stim/white_mw085.bmp'><br><font color='red'><strong>Keep</strong></font></div></div><div class='respDiv'><div class='respDivL'>Match<br>(e)</div><div class='respDivR'>No Match<br>(i)</div></div></div>","e","TARGET","1","trustrating_stim/white_mw085.bmp","0","Match","e","1500","trustrating_stim/white_mw085.bmp","red","Keep","PRACTICE","1"
"html-keyboard-response","18","147890","0.0-5.0-5.2","63b6be60f23fd8e0399f668c","bdp_wmem","Wed Mar 15 2023 16:01:55 GMT-0400 (Eastern Daylight Time)","622719","Match,No Match","","null","","","","","","<div class='trialBorder'><div class='vertical-center'><img src='img/correct.jpg'></div><div class='respDiv'><div class='respDivL'><font style='color:orange'>Match<br>(e)</font></div><div class='respDivR'>No Match<br>(i)</div></div></div>","null","FEEDBACK","","","","","","","","","","",""
"html-keyboard-response","19","148392","0.0-5.0-1.3","63b6be60f23fd8e0399f668c","bdp_wmem","Wed Mar 15 2023 16:01:55 GMT-0400 (Eastern Daylight Time)","622719","Match,No Match","","null","","","","","","<div class='trialBorder'><div class='vertical-center'><img src='img/fixation2_sml.jpg'</img></div></div>","null","FIX","","","","","","","","","","",""
"html-keyboard-response","20","151400","0.0-5.0-2.3","63b6be60f23fd8e0399f668c","bdp_wmem","Wed Mar 15 2023 16:01:55 GMT-0400 (Eastern Daylight Time)","622719","Match,No Match","","null","","","","","","<div class='trialBorder'><div class='vertical-center'><img style='vertical-align:center; align:center' src='img/fixation2_sml.jpg'></div><div class='arrayDiv2'><div class='tl'><img class='introPic' src='trustrating_stim/white_mw040.bmp'><br><font color='green'><strong>Share</strong></font></div><div class='tr'><img class='introPic' src='trustrating_stim/white_mw085.bmp'><br><font color='red'><strong>Keep</strong></font></div></div></div>","null","ARRAY","2","trustrating_stim/white_mw040.bmp,trustrating_stim/white_mw085.bmp","1,0","noMatchOutcome","i","3000","","","","",""
"html-keyboard-response","21","155409","0.0-5.0-3.3","63b6be60f23fd8e0399f668c","bdp_wmem","Wed Mar 15 2023 16:01:55 GMT-0400 (Eastern Daylight Time)","622719","Match,No Match","","null","","","","","","<div class='trialBorder'><div class='vertical-center'><img src='img/fixation2_sml.jpg'</img></div></div>","null","DELAY","","","","","","","","","","",""
"html-keyboard-response","22","157939","0.0-5.0-4.3","63b6be60f23fd8e0399f668c","bdp_wmem","Wed Mar 15 2023 16:01:55 GMT-0400 (Eastern Daylight Time)","622719","Match,No Match","","2526","","","","","","<div class='trialBorder'><div class='targDiv'><div class='tc'><img class='introPic' src='trustrating_stim/white_mw040.bmp'><br><font color='red'><strong>Keep</strong></font></div></div><div class='respDiv'><div class='respDivL'>Match<br>(e)</div><div class='respDivR'>No Match<br>(i)</div></div></div>","i","TARGET","2","trustrating_stim/white_mw040.bmp,trustrating_stim/white_mw085.bmp","1,0","noMatchOutcome","i","3000","trustrating_stim/white_mw040.bmp","red","Keep","PRACTICE","1"
"html-keyboard-response","23","158441","0.0-5.0-5.3","63b6be60f23fd8e0399f668c","bdp_wmem","Wed Mar 15 2023 16:01:55 GMT-0400 (Eastern Daylight Time)","622719","Match,No Match","","null","","","","","","<div class='trialBorder'><div class='vertical-center'><img src='img/correct.jpg'></div><div class='respDiv'><div class='respDivL'>Match<br>(e)</div><div class='respDivR'><font style='color:orange'>No Match<br>(i)</font></div></div></div>","null","FEEDBACK","","","","","","","","","","",""
"html-keyboard-response","24","158946","0.0-5.0-1.4","63b6be60f23fd8e0399f668c","bdp_wmem","Wed Mar 15 2023 16:01:55 GMT-0400 (Eastern Daylight Time)","622719","Match,No Match","","null","","","","","","<div class='trialBorder'><div class='vertical-center'><img src='img/fixation2_sml.jpg'</img></div></div>","null","FIX","","","","","","","","","","",""
"html-keyboard-response","25","161954","0.0-5.0-2.4","63b6be60f23fd8e0399f668c","bdp_wmem","Wed Mar 15 2023 16:01:55 GMT-0400 (Eastern Daylight Time)","622719","Match,No Match","","null","","","","","","<div class='trialBorder'><div class='vertical-center'><img style='vertical-align:center; align:center' src='img/fixation2_sml.jpg'></div><div class='arrayDiv2'><div class='tl'><img class='introPic' src='trustrating_stim/white_mw085.bmp'><br><font color='red'><strong>Keep</strong></font></div><div class='tr'><img class='introPic' src='trustrating_stim/white_mw003.bmp'><br><font color='green'><strong>Share</strong></font></div></div></div>","null","ARRAY","2","trustrating_stim/white_mw085.bmp,trustrating_stim/white_mw003.bmp","0,1","Match","e","3000","","","","",""
"html-keyboard-response","26","165963","0.0-5.0-3.4","63b6be60f23fd8e0399f668c","bdp_wmem","Wed Mar 15 2023 16:01:55 GMT-0400 (Eastern Daylight Time)","622719","Match,No Match","","null","","","","","","<div class='trialBorder'><div class='vertical-center'><img src='img/fixation2_sml.jpg'</img></div></div>","null","DELAY","","","","","","","","","","",""
"html-keyboard-response","27","168630","0.0-5.0-4.4","63b6be60f23fd8e0399f668c","bdp_wmem","Wed Mar 15 2023 16:01:55 GMT-0400 (Eastern Daylight Time)","622719","Match,No Match","","2664","","","","","","<div class='trialBorder'><div class='targDiv'><div class='tc'><img class='introPic' src='trustrating_stim/white_mw085.bmp'><br><font color='red'><strong>Keep</strong></font></div></div><div class='respDiv'><div class='respDivL'>Match<br>(e)</div><div class='respDivR'>No Match<br>(i)</div></div></div>","e","TARGET","2","trustrating_stim/white_mw085.bmp,trustrating_stim/white_mw003.bmp","0,1","Match","e","3000","trustrating_stim/white_mw085.bmp","red","Keep","PRACTICE","1"
"html-keyboard-response","28","169138","0.0-5.0-5.4","63b6be60f23fd8e0399f668c","bdp_wmem","Wed Mar 15 2023 16:01:55 GMT-0400 (Eastern Daylight Time)","622719","Match,No Match","","null","","","","","","<div class='trialBorder'><div class='vertical-center'><img src='img/correct.jpg'></div><div class='respDiv'><div class='respDivL'><font style='color:orange'>Match<br>(e)</font></div><div class='respDivR'>No Match<br>(i)</div></div></div>","null","FEEDBACK","","","","","","","","","","",""
"html-keyboard-response","29","169645","0.0-5.0-1.5","63b6be60f23fd8e0399f668c","bdp_wmem","Wed Mar 15 2023 16:01:55 GMT-0400 (Eastern Daylight Time)","622719","Match,No Match","","null","","","","","","<div class='trialBorder'><div class='vertical-center'><img src='img/fixation2_sml.jpg'</img></div></div>","null","FIX","","","","","","","","","","",""
"html-keyboard-response","30","174153","0.0-5.0-2.5","63b6be60f23fd8e0399f668c","bdp_wmem","Wed Mar 15 2023 16:01:55 GMT-0400 (Eastern Daylight Time)","622719","Match,No Match","","null","","","","","","<div class='trialBorder'><div class='vertical-center'><img style='vertical-align:center; align:center' src='img/fixation2_sml.jpg'></div><div class='arrayDiv3'><div class='tl'><img class='introPic' src='trustrating_stim/white_mw012.bmp'><br><font color='red'><strong>Keep</strong></font></div><div class='tc'><img class='introPic' src='trustrating_stim/white_mw040.bmp'><br><font color='green'><strong>Share</strong></font></div><div class='tr'><img class='introPic' src='trustrating_stim/white_mw078.bmp'><br><font color='red'><strong>Keep</strong></font></div></div></div>","null","ARRAY","3","trustrating_stim/white_mw012.bmp,trustrating_stim/white_mw040.bmp,trustrating_stim/white_mw078.bmp","0,1,0","Match","e","4500","","","","",""
"html-keyboard-response","31","178162","0.0-5.0-3.5","63b6be60f23fd8e0399f668c","bdp_wmem","Wed Mar 15 2023 16:01:55 GMT-0400 (Eastern Daylight Time)","622719","Match,No Match","","null","","","","","","<div class='trialBorder'><div class='vertical-center'><img src='img/fixation2_sml.jpg'</img></div></div>","null","DELAY","","","","","","","","","","",""
"html-keyboard-response","32","179204","0.0-5.0-4.5","63b6be60f23fd8e0399f668c","bdp_wmem","Wed Mar 15 2023 16:01:55 GMT-0400 (Eastern Daylight Time)","622719","Match,No Match","","1040","","","","","","<div class='trialBorder'><div class='targDiv'><div class='tc'><img class='introPic' src='trustrating_stim/white_mw012.bmp'><br><font color='red'><strong>Keep</strong></font></div></div><div class='respDiv'><div class='respDivL'>Match<br>(e)</div><div class='respDivR'>No Match<br>(i)</div></div></div>","e","TARGET","3","trustrating_stim/white_mw012.bmp,trustrating_stim/white_mw040.bmp,trustrating_stim/white_mw078.bmp","0,1,0","Match","e","4500","trustrating_stim/white_mw012.bmp","red","Keep","PRACTICE","1"
"html-keyboard-response","33","179714","0.0-5.0-5.5","63b6be60f23fd8e0399f668c","bdp_wmem","Wed Mar 15 2023 16:01:55 GMT-0400 (Eastern Daylight Time)","622719","Match,No Match","","null","","","","","","<div class='trialBorder'><div class='vertical-center'><img src='img/correct.jpg'></div><div class='respDiv'><div class='respDivL'><font style='color:orange'>Match<br>(e)</font></div><div class='respDivR'>No Match<br>(i)</div></div></div>","null","FEEDBACK","","","","","","","","","","",""
"instructions","34","181947","0.0-6.0","63b6be60f23fd8e0399f668c","bdp_wmem","Wed Mar 15 2023 16:01:55 GMT-0400 (Eastern Daylight Time)","622719","Match,No Match","[{""page_index"":0,""viewing_time"":2231}]","2232","","","","","","","","","","","","","","","","","","",""
"html-keyboard-response","35","182450","0.0-7.0-1.0","63b6be60f23fd8e0399f668c","bdp_wmem","Wed Mar 15 2023 16:01:55 GMT-0400 (Eastern Daylight Time)","622719","Match,No Match","","null","","","","","","<div class='trialBorder'><div class='vertical-center'><img src='img/fixation2_sml.jpg'</img></div></div>","null","FIX","","","","","","","","","","",""
"html-keyboard-response","36","186963","0.0-7.0-2.0","63b6be60f23fd8e0399f668c","bdp_wmem","Wed Mar 15 2023 16:01:55 GMT-0400 (Eastern Daylight Time)","622719","Match,No Match","","null","","","","","","<div class='trialBorder'><div class='vertical-center'><img style='vertical-align:center; align:center' src='img/fixation2_sml.jpg'></div><div class='arrayDiv3'><div class='tl'><img class='introPic' src='trustrating_stim/white_mw042.bmp'><br><font color='green'><strong>Share</strong></font></div><div class='tc'><img class='introPic' src='trustrating_stim/white_mw091.bmp'><br><font color='green'><strong>Share</strong></font></div><div class='tr'><img class='introPic' src='trustrating_stim/white_mw085.bmp'><br><font color='red'><strong>Keep</strong></font></div></div></div>","null","ARRAY","3","trustrating_stim/white_mw042.bmp,trustrating_stim/white_mw091.bmp,trustrating_stim/white_mw085.bmp","1,1,0","Match","e","4500","","","","",""
"html-keyboard-response","37","190969","0.0-7.0-3.0","63b6be60f23fd8e0399f668c","bdp_wmem","Wed Mar 15 2023 16:01:55 GMT-0400 (Eastern Daylight Time)","622719","Match,No Match","","null","","","","","","<div class='trialBorder'><div class='vertical-center'><img src='img/fixation2_sml.jpg'</img></div></div>","null","DELAY","","","","","","","","","","",""
"html-keyboard-response","38","192079","0.0-7.0-4.0","63b6be60f23fd8e0399f668c","bdp_wmem","Wed Mar 15 2023 16:01:55 GMT-0400 (Eastern Daylight Time)","622719","Match,No Match","","1106","","","","","","<div class='trialBorder'><div class='targDiv'><div class='tc'><img class='introPic' src='trustrating_stim/white_mw091.bmp'><br><font color='green'><strong>Share</strong></font></div></div><div class='respDiv'><div class='respDivL'>Match<br>(e)</div><div class='respDivR'>No Match<br>(i)</div></div></div>","e","TARGET","3","trustrating_stim/white_mw042.bmp,trustrating_stim/white_mw091.bmp,trustrating_stim/white_mw085.bmp","1,1,0","Match","e","4500","trustrating_stim/white_mw091.bmp","green","Share","REAL","1"
"html-keyboard-response","39","192586","0.0-7.0-5.0","63b6be60f23fd8e0399f668c","bdp_wmem","Wed Mar 15 2023 16:01:55 GMT-0400 (Eastern Daylight Time)","622719","Match,No Match","","null","","","","","","<div class='trialBorder'><div class='vertical-center'><img src='img/correct.jpg'></div><div class='respDiv'><div class='respDivL'><font style='color:orange'>Match<br>(e)</font></div><div class='respDivR'>No Match<br>(i)</div></div></div>","null","FEEDBACK","","","","","","","","","","",""
"html-keyboard-response","40","193090","0.0-7.0-1.1","63b6be60f23fd8e0399f668c","bdp_wmem","Wed Mar 15 2023 16:01:55 GMT-0400 (Eastern Daylight Time)","622719","Match,No Match","","null","","","","","","<div class='trialBorder'><div class='vertical-center'><img src='img/fixation2_sml.jpg'</img></div></div>","null","FIX","","","","","","","","","","",""
"html-keyboard-response","41","197594","0.0-7.0-2.1","63b6be60f23fd8e0399f668c","bdp_wmem","Wed Mar 15 2023 16:01:55 GMT-0400 (Eastern Daylight Time)","622719","Match,No Match","","null","","","","","","<div class='trialBorder'><div class='vertical-center'><img style='vertical-align:center; align:center' src='img/fixation2_sml.jpg'></div><div class='arrayDiv3'><div class='tl'><img class='introPic' src='trustrating_stim/white_mw013.bmp'><br><font color='red'><strong>Keep</strong></font></div><div class='tc'><img class='introPic' src='trustrating_stim/white_mw091.bmp'><br><font color='red'><strong>Keep</strong></font></div><div class='tr'><img class='introPic' src='trustrating_stim/white_mw092.bmp'><br><font color='green'><strong>Share</strong></font></div></div></div>","null","ARRAY","3","trustrating_stim/white_mw013.bmp,trustrating_stim/white_mw091.bmp,trustrating_stim/white_mw092.bmp","0,0,1","Match","e","4500","","","","",""
"html-keyboard-response","42","201603","0.0-7.0-3.1","63b6be60f23fd8e0399f668c","bdp_wmem","Wed Mar 15 2023 16:01:55 GMT-0400 (Eastern Daylight Time)","622719","Match,No Match","","null","","","","","","<div class='trialBorder'><div class='vertical-center'><img src='img/fixation2_sml.jpg'</img></div></div>","null","DELAY","","","","","","","","","","",""
"html-keyboard-response","43","203824","0.0-7.0-4.1","63b6be60f23fd8e0399f668c","bdp_wmem","Wed Mar 15 2023 16:01:55 GMT-0400 (Eastern Daylight Time)","622719","Match,No Match","","2218","","","","","","<div class='trialBorder'><div class='targDiv'><div class='tc'><img class='introPic' src='trustrating_stim/white_mw013.bmp'><br><font color='red'><strong>Keep</strong></font></div></div><div class='respDiv'><div class='respDivL'>Match<br>(e)</div><div class='respDivR'>No Match<br>(i)</div></div></div>","e","TARGET","3","trustrating_stim/white_mw013.bmp,trustrating_stim/white_mw091.bmp,trustrating_stim/white_mw092.bmp","0,0,1","Match","e","4500","trustrating_stim/white_mw013.bmp","red","Keep","REAL","1"
"html-keyboard-response","44","204330","0.0-7.0-5.1","63b6be60f23fd8e0399f668c","bdp_wmem","Wed Mar 15 2023 16:01:55 GMT-0400 (Eastern Daylight Time)","622719","Match,No Match","","null","","","","","","<div class='trialBorder'><div class='vertical-center'><img src='img/correct.jpg'></div><div class='respDiv'><div class='respDivL'><font style='color:orange'>Match<br>(e)</font></div><div class='respDivR'>No Match<br>(i)</div></div></div>","null","FEEDBACK","","","","","","","","","","",""
"html-keyboard-response","45","204835","0.0-7.0-1.2","63b6be60f23fd8e0399f668c","bdp_wmem","Wed Mar 15 2023 16:01:55 GMT-0400 (Eastern Daylight Time)","622719","Match,No Match","","null","","","","","","<div class='trialBorder'><div class='vertical-center'><img src='img/fixation2_sml.jpg'</img></div></div>","null","FIX","","","","","","","","","","",""
"html-keyboard-response","46","209347","0.0-7.0-2.2","63b6be60f23fd8e0399f668c","bdp_wmem","Wed Mar 15 2023 16:01:55 GMT-0400 (Eastern Daylight Time)","622719","Match,No Match","","null","","","","","","<div class='trialBorder'><div class='vertical-center'><img style='vertical-align:center; align:center' src='img/fixation2_sml.jpg'></div><div class='arrayDiv3'><div class='tl'><img class='introPic' src='trustrating_stim/white_mw042.bmp'><br><font color='green'><strong>Share</strong></font></div><div class='tc'><img class='introPic' src='trustrating_stim/white_mw078.bmp'><br><font color='green'><strong>Share</strong></font></div><div class='tr'><img class='introPic' src='trustrating_stim/white_mw040.bmp'><br><font color='red'><strong>Keep</strong></font></div></div></div>","null","ARRAY","3","trustrating_stim/white_mw042.bmp,trustrating_stim/white_mw078.bmp,trustrating_stim/white_mw040.bmp","1,1,0","Match","e","4500","","","","",""
"html-keyboard-response","47","213357","0.0-7.0-3.2","63b6be60f23fd8e0399f668c","bdp_wmem","Wed Mar 15 2023 16:01:55 GMT-0400 (Eastern Daylight Time)","622719","Match,No Match","","null","","","","","","<div class='trialBorder'><div class='vertical-center'><img src='img/fixation2_sml.jpg'</img></div></div>","null","DELAY","","","","","","","","","","",""
"html-keyboard-response","48","214960","0.0-7.0-4.2","63b6be60f23fd8e0399f668c","bdp_wmem","Wed Mar 15 2023 16:01:55 GMT-0400 (Eastern Daylight Time)","622719","Match,No Match","","1599","","","","","","<div class='trialBorder'><div class='targDiv'><div class='tc'><img class='introPic' src='trustrating_stim/white_mw040.bmp'><br><font color='red'><strong>Keep</strong></font></div></div><div class='respDiv'><div class='respDivL'>Match<br>(e)</div><div class='respDivR'>No Match<br>(i)</div></div></div>","e","TARGET","3","trustrating_stim/white_mw042.bmp,trustrating_stim/white_mw078.bmp,trustrating_stim/white_mw040.bmp","1,1,0","Match","e","4500","trustrating_stim/white_mw040.bmp","red","Keep","REAL","1"
"html-keyboard-response","49","215466","0.0-7.0-5.2","63b6be60f23fd8e0399f668c","bdp_wmem","Wed Mar 15 2023 16:01:55 GMT-0400 (Eastern Daylight Time)","622719","Match,No Match","","null","","","","","","<div class='trialBorder'><div class='vertical-center'><img src='img/correct.jpg'></div><div class='respDiv'><div class='respDivL'><font style='color:orange'>Match<br>(e)</font></div><div class='respDivR'>No Match<br>(i)</div></div></div>","null","FEEDBACK","","","","","","","","","","",""
"html-keyboard-response","50","215971","0.0-7.0-1.3","63b6be60f23fd8e0399f668c","bdp_wmem","Wed Mar 15 2023 16:01:55 GMT-0400 (Eastern Daylight Time)","622719","Match,No Match","","null","","","","","","<div class='trialBorder'><div class='vertical-center'><img src='img/fixation2_sml.jpg'</img></div></div>","null","FIX","","","","","","","","","","",""
"html-keyboard-response","51","218979","0.0-7.0-2.3","63b6be60f23fd8e0399f668c","bdp_wmem","Wed Mar 15 2023 16:01:55 GMT-0400 (Eastern Daylight Time)","622719","Match,No Match","","null","","","","","","<div class='trialBorder'><div class='vertical-center'><img style='vertical-align:center; align:center' src='img/fixation2_sml.jpg'></div><div class='arrayDiv2'><div class='tl'><img class='introPic' src='trustrating_stim/white_mw040.bmp'><br><font color='red'><strong>Keep</strong></font></div><div class='tr'><img class='introPic' src='trustrating_stim/white_mw092.bmp'><br><font color='green'><strong>Share</strong></font></div></div></div>","null","ARRAY","2","trustrating_stim/white_mw040.bmp,trustrating_stim/white_mw092.bmp","0,1","noMatchFace","i","3000","","","","",""
"html-keyboard-response","52","222986","0.0-7.0-3.3","63b6be60f23fd8e0399f668c","bdp_wmem","Wed Mar 15 2023 16:01:55 GMT-0400 (Eastern Daylight Time)","622719","Match,No Match","","null","","","","","","<div class='trialBorder'><div class='vertical-center'><img src='img/fixation2_sml.jpg'</img></div></div>","null","DELAY","","","","","","","","","","",""
"html-keyboard-response","53","224424","0.0-7.0-4.3","63b6be60f23fd8e0399f668c","bdp_wmem","Wed Mar 15 2023 16:01:55 GMT-0400 (Eastern Daylight Time)","622719","Match,No Match","","1436","","","","","","<div class='trialBorder'><div class='targDiv'><div class='tc'><img class='introPic' src='trustrating_stim/white_mw003.bmp'><br><font color='green'><strong>Share</strong></font></div></div><div class='respDiv'><div class='respDivL'>Match<br>(e)</div><div class='respDivR'>No Match<br>(i)</div></div></div>","i","TARGET","2","trustrating_stim/white_mw040.bmp,trustrating_stim/white_mw092.bmp","0,1","noMatchFace","i","3000","trustrating_stim/white_mw003.bmp","green","Share","REAL","1"
"html-keyboard-response","54","224931","0.0-7.0-5.3","63b6be60f23fd8e0399f668c","bdp_wmem","Wed Mar 15 2023 16:01:55 GMT-0400 (Eastern Daylight Time)","622719","Match,No Match","","null","","","","","","<div class='trialBorder'><div class='vertical-center'><img src='img/correct.jpg'></div><div class='respDiv'><div class='respDivL'>Match<br>(e)</div><div class='respDivR'><font style='color:orange'>No Match<br>(i)</font></div></div></div>","null","FEEDBACK","","","","","","","","","","",""
"html-keyboard-response","55","225434","0.0-7.0-1.4","63b6be60f23fd8e0399f668c","bdp_wmem","Wed Mar 15 2023 16:01:55 GMT-0400 (Eastern Daylight Time)","622719","Match,No Match","","null","","","","","","<div class='trialBorder'><div class='vertical-center'><img src='img/fixation2_sml.jpg'</img></div></div>","null","FIX","","","","","","","","","","",""
"html-keyboard-response","56","229940","0.0-7.0-2.4","63b6be60f23fd8e0399f668c","bdp_wmem","Wed Mar 15 2023 16:01:55 GMT-0400 (Eastern Daylight Time)","622719","Match,No Match","","null","","","","","","<div class='trialBorder'><div class='vertical-center'><img style='vertical-align:center; align:center' src='img/fixation2_sml.jpg'></div><div class='arrayDiv3'><div class='tl'><img class='introPic' src='trustrating_stim/white_mw013.bmp'><br><font color='green'><strong>Share</strong></font></div><div class='tc'><img class='introPic' src='trustrating_stim/white_mw070.bmp'><br><font color='red'><strong>Keep</strong></font></div><div class='tr'><img class='introPic' src='trustrating_stim/white_mw003.bmp'><br><font color='red'><strong>Keep</strong></font></div></div></div>","null","ARRAY","3","trustrating_stim/white_mw013.bmp,trustrating_stim/white_mw070.bmp,trustrating_stim/white_mw003.bmp","1,0,0","Match","e","4500","","","","",""
"html-keyboard-response","57","233946","0.0-7.0-3.4","63b6be60f23fd8e0399f668c","bdp_wmem","Wed Mar 15 2023 16:01:55 GMT-0400 (Eastern Daylight Time)","622719","Match,No Match","","null","","","","","","<div class='trialBorder'><div class='vertical-center'><img src='img/fixation2_sml.jpg'</img></div></div>","null","DELAY","","","","","","","","","","",""
"html-keyboard-response","58","234844","0.0-7.0-4.4","63b6be60f23fd8e0399f668c","bdp_wmem","Wed Mar 15 2023 16:01:55 GMT-0400 (Eastern Daylight Time)","622719","Match,No Match","","895","","","","","","<div class='trialBorder'><div class='targDiv'><div class='tc'><img class='introPic' src='trustrating_stim/white_mw003.bmp'><br><font color='red'><strong>Keep</strong></font></div></div><div class='respDiv'><div class='respDivL'>Match<br>(e)</div><div class='respDivR'>No Match<br>(i)</div></div></div>","i","TARGET","3","trustrating_stim/white_mw013.bmp,trustrating_stim/white_mw070.bmp,trustrating_stim/white_mw003.bmp","1,0,0","Match","e","4500","trustrating_stim/white_mw003.bmp","red","Keep","REAL","0"
"html-keyboard-response","59","235348","0.0-7.0-5.4","63b6be60f23fd8e0399f668c","bdp_wmem","Wed Mar 15 2023 16:01:55 GMT-0400 (Eastern Daylight Time)","622719","Match,No Match","","null","","","","","","<div class='trialBorder'><div class='vertical-center'><img src='img/error.jpg'></div><div class='respDiv'><div class='respDivL'>Match<br>(e)</div><div class='respDivR'><font style='color:orange'>No Match<br>(i)</font></div></div></div>","null","FEEDBACK","","","","","","","","","","",""
"html-keyboard-response","60","235852","0.0-7.0-1.5","63b6be60f23fd8e0399f668c","bdp_wmem","Wed Mar 15 2023 16:01:55 GMT-0400 (Eastern Daylight Time)","622719","Match,No Match","","null","","","","","","<div class='trialBorder'><div class='vertical-center'><img src='img/fixation2_sml.jpg'</img></div></div>","null","FIX","","","","","","","","","","",""
"html-keyboard-response","61","238859","0.0-7.0-2.5","63b6be60f23fd8e0399f668c","bdp_wmem","Wed Mar 15 2023 16:01:55 GMT-0400 (Eastern Daylight Time)","622719","Match,No Match","","null","","","","","","<div class='trialBorder'><div class='vertical-center'><img style='vertical-align:center; align:center' src='img/fixation2_sml.jpg'></div><div class='arrayDiv2'><div class='tl'><img class='introPic' src='trustrating_stim/white_mw013.bmp'><br><font color='red'><strong>Keep</strong></font></div><div class='tr'><img class='introPic' src='trustrating_stim/white_mw038.bmp'><br><font color='green'><strong>Share</strong></font></div></div></div>","null","ARRAY","2","trustrating_stim/white_mw013.bmp,trustrating_stim/white_mw038.bmp","0,1","Match","e","3000","","","","",""
"html-keyboard-response","62","242868","0.0-7.0-3.5","63b6be60f23fd8e0399f668c","bdp_wmem","Wed Mar 15 2023 16:01:55 GMT-0400 (Eastern Daylight Time)","622719","Match,No Match","","null","","","","","","<div class='trialBorder'><div class='vertical-center'><img src='img/fixation2_sml.jpg'</img></div></div>","null","DELAY","","","","","","","","","","",""
"html-keyboard-response","63","244457","0.0-7.0-4.5","63b6be60f23fd8e0399f668c","bdp_wmem","Wed Mar 15 2023 16:01:55 GMT-0400 (Eastern Daylight Time)","622719","Match,No Match","","1586","","","","","","<div class='trialBorder'><div class='targDiv'><div class='tc'><img class='introPic' src='trustrating_stim/white_mw038.bmp'><br><font color='green'><strong>Share</strong></font></div></div><div class='respDiv'><div class='respDivL'>Match<br>(e)</div><div class='respDivR'>No Match<br>(i)</div></div></div>","e","TARGET","2","trustrating_stim/white_mw013.bmp,trustrating_stim/white_mw038.bmp","0,1","Match","e","3000","trustrating_stim/white_mw038.bmp","green","Share","REAL","1"
"html-keyboard-response","64","244964","0.0-7.0-5.5","63b6be60f23fd8e0399f668c","bdp_wmem","Wed Mar 15 2023 16:01:55 GMT-0400 (Eastern Daylight Time)","622719","Match,No Match","","null","","","","","","<div class='trialBorder'><div class='vertical-center'><img src='img/correct.jpg'></div><div class='respDiv'><div class='respDivL'><font style='color:orange'>Match<br>(e)</font></div><div class='respDivR'>No Match<br>(i)</div></div></div>","null","FEEDBACK","","","","","","","","","","",""
"html-keyboard-response","65","245467","0.0-7.0-1.6","63b6be60f23fd8e0399f668c","bdp_wmem","Wed Mar 15 2023 16:01:55 GMT-0400 (Eastern Daylight Time)","622719","Match,No Match","","null","","","","","","<div class='trialBorder'><div class='vertical-center'><img src='img/fixation2_sml.jpg'</img></div></div>","null","FIX","","","","","","","","","","",""
"html-keyboard-response","66","246973","0.0-7.0-2.6","63b6be60f23fd8e0399f668c","bdp_wmem","Wed Mar 15 2023 16:01:55 GMT-0400 (Eastern Daylight Time)","622719","Match,No Match","","null","","","","","","<div class='trialBorder'><div class='vertical-center'><img style='vertical-align:center; align:center' src='img/fixation2_sml.jpg'></div><div class='arrayDiv1'><div class='tc'><img class='introPic' src='trustrating_stim/white_mw013.bmp'><br><font color='red'><strong>Keep</strong></font></div></div></div>","null","ARRAY","1","trustrating_stim/white_mw013.bmp","0","Match","e","1500","","","","",""
"html-keyboard-response","67","250980","0.0-7.0-3.6","63b6be60f23fd8e0399f668c","bdp_wmem","Wed Mar 15 2023 16:01:55 GMT-0400 (Eastern Daylight Time)","622719","Match,No Match","","null","","","","","","<div class='trialBorder'><div class='vertical-center'><img src='img/fixation2_sml.jpg'</img></div></div>","null","DELAY","","","","","","","","","","",""
"html-keyboard-response","68","251835","0.0-7.0-4.6","63b6be60f23fd8e0399f668c","bdp_wmem","Wed Mar 15 2023 16:01:55 GMT-0400 (Eastern Daylight Time)","622719","Match,No Match","","853","","","","","","<div class='trialBorder'><div class='targDiv'><div class='tc'><img class='introPic' src='trustrating_stim/white_mw013.bmp'><br><font color='red'><strong>Keep</strong></font></div></div><div class='respDiv'><div class='respDivL'>Match<br>(e)</div><div class='respDivR'>No Match<br>(i)</div></div></div>","e","TARGET","1","trustrating_stim/white_mw013.bmp","0","Match","e","1500","trustrating_stim/white_mw013.bmp","red","Keep","REAL","1"
"html-keyboard-response","69","252340","0.0-7.0-5.6","63b6be60f23fd8e0399f668c","bdp_wmem","Wed Mar 15 2023 16:01:55 GMT-0400 (Eastern Daylight Time)","622719","Match,No Match","","null","","","","","","<div class='trialBorder'><div class='vertical-center'><img src='img/correct.jpg'></div><div class='respDiv'><div class='respDivL'><font style='color:orange'>Match<br>(e)</font></div><div class='respDivR'>No Match<br>(i)</div></div></div>","null","FEEDBACK","","","","","","","","","","",""
"html-keyboard-response","70","252843","0.0-7.0-1.7","63b6be60f23fd8e0399f668c","bdp_wmem","Wed Mar 15 2023 16:01:55 GMT-0400 (Eastern Daylight Time)","622719","Match,No Match","","null","","","","","","<div class='trialBorder'><div class='vertical-center'><img src='img/fixation2_sml.jpg'</img></div></div>","null","FIX","","","","","","","","","","",""
"html-keyboard-response","71","255851","0.0-7.0-2.7","63b6be60f23fd8e0399f668c","bdp_wmem","Wed Mar 15 2023 16:01:55 GMT-0400 (Eastern Daylight Time)","622719","Match,No Match","","null","","","","","","<div class='trialBorder'><div class='vertical-center'><img style='vertical-align:center; align:center' src='img/fixation2_sml.jpg'></div><div class='arrayDiv2'><div class='tl'><img class='introPic' src='trustrating_stim/white_mw042.bmp'><br><font color='green'><strong>Share</strong></font></div><div class='tr'><img class='introPic' src='trustrating_stim/white_mw003.bmp'><br><font color='red'><strong>Keep</strong></font></div></div></div>","null","ARRAY","2","trustrating_stim/white_mw042.bmp,trustrating_stim/white_mw003.bmp","1,0","noMatchOutcome","i","3000","","","","",""
"html-keyboard-response","72","259860","0.0-7.0-3.7","63b6be60f23fd8e0399f668c","bdp_wmem","Wed Mar 15 2023 16:01:55 GMT-0400 (Eastern Daylight Time)","622719","Match,No Match","","null","","","","","","<div class='trialBorder'><div class='vertical-center'><img src='img/fixation2_sml.jpg'</img></div></div>","null","DELAY","","","","","","","","","","",""
"html-keyboard-response","73","261602","0.0-7.0-4.7","63b6be60f23fd8e0399f668c","bdp_wmem","Wed Mar 15 2023 16:01:55 GMT-0400 (Eastern Daylight Time)","622719","Match,No Match","","1740","","","","","","<div class='trialBorder'><div class='targDiv'><div class='tc'><img class='introPic' src='trustrating_stim/white_mw003.bmp'><br><font color='green'><strong>Share</strong></font></div></div><div class='respDiv'><div class='respDivL'>Match<br>(e)</div><div class='respDivR'>No Match<br>(i)</div></div></div>","i","TARGET","2","trustrating_stim/white_mw042.bmp,trustrating_stim/white_mw003.bmp","1,0","noMatchOutcome","i","3000","trustrating_stim/white_mw003.bmp","green","Share","REAL","1"
"html-keyboard-response","74","262107","0.0-7.0-5.7","63b6be60f23fd8e0399f668c","bdp_wmem","Wed Mar 15 2023 16:01:55 GMT-0400 (Eastern Daylight Time)","622719","Match,No Match","","null","","","","","","<div class='trialBorder'><div class='vertical-center'><img src='img/correct.jpg'></div><div class='respDiv'><div class='respDivL'>Match<br>(e)</div><div class='respDivR'><font style='color:orange'>No Match<br>(i)</font></div></div></div>","null","FEEDBACK","","","","","","","","","","",""
"html-keyboard-response","75","262616","0.0-7.0-1.8","63b6be60f23fd8e0399f668c","bdp_wmem","Wed Mar 15 2023 16:01:55 GMT-0400 (Eastern Daylight Time)","622719","Match,No Match","","null","","","","","","<div class='trialBorder'><div class='vertical-center'><img src='img/fixation2_sml.jpg'</img></div></div>","null","FIX","","","","","","","","","","",""
"html-keyboard-response","76","264127","0.0-7.0-2.8","63b6be60f23fd8e0399f668c","bdp_wmem","Wed Mar 15 2023 16:01:55 GMT-0400 (Eastern Daylight Time)","622719","Match,No Match","","null","","","","","","<div class='trialBorder'><div class='vertical-center'><img style='vertical-align:center; align:center' src='img/fixation2_sml.jpg'></div><div class='arrayDiv1'><div class='tc'><img class='introPic' src='trustrating_stim/white_mw013.bmp'><br><font color='green'><strong>Share</strong></font></div></div></div>","null","ARRAY","1","trustrating_stim/white_mw013.bmp","1","noMatchOutcome","i","1500","","","","",""
"html-keyboard-response","77","268132","0.0-7.0-3.8","63b6be60f23fd8e0399f668c","bdp_wmem","Wed Mar 15 2023 16:01:55 GMT-0400 (Eastern Daylight Time)","622719","Match,No Match","","null","","","","","","<div class='trialBorder'><div class='vertical-center'><img src='img/fixation2_sml.jpg'</img></div></div>","null","DELAY","","","","","","","","","","",""
"html-keyboard-response","78","268874","0.0-7.0-4.8","63b6be60f23fd8e0399f668c","bdp_wmem","Wed Mar 15 2023 16:01:55 GMT-0400 (Eastern Daylight Time)","622719","Match,No Match","","739","","","","","","<div class='trialBorder'><div class='targDiv'><div class='tc'><img class='introPic' src='trustrating_stim/white_mw013.bmp'><br><font color='red'><strong>Keep</strong></font></div></div><div class='respDiv'><div class='respDivL'>Match<br>(e)</div><div class='respDivR'>No Match<br>(i)</div></div></div>","i","TARGET","1","trustrating_stim/white_mw013.bmp","1","noMatchOutcome","i","1500","trustrating_stim/white_mw013.bmp","red","Keep","REAL","1"
"html-keyboard-response","79","269380","0.0-7.0-5.8","63b6be60f23fd8e0399f668c","bdp_wmem","Wed Mar 15 2023 16:01:55 GMT-0400 (Eastern Daylight Time)","622719","Match,No Match","","null","","","","","","<div class='trialBorder'><div class='vertical-center'><img src='img/correct.jpg'></div><div class='respDiv'><div class='respDivL'>Match<br>(e)</div><div class='respDivR'><font style='color:orange'>No Match<br>(i)</font></div></div></div>","null","FEEDBACK","","","","","","","","","","",""
"html-keyboard-response","80","269883","0.0-7.0-1.9","63b6be60f23fd8e0399f668c","bdp_wmem","Wed Mar 15 2023 16:01:55 GMT-0400 (Eastern Daylight Time)","622719","Match,No Match","","null","","","","","","<div class='trialBorder'><div class='vertical-center'><img src='img/fixation2_sml.jpg'</img></div></div>","null","FIX","","","","","","","","","","",""
"html-keyboard-response","81","271387","0.0-7.0-2.9","63b6be60f23fd8e0399f668c","bdp_wmem","Wed Mar 15 2023 16:01:55 GMT-0400 (Eastern Daylight Time)","622719","Match,No Match","","null","","","","","","<div class='trialBorder'><div class='vertical-center'><img style='vertical-align:center; align:center' src='img/fixation2_sml.jpg'></div><div class='arrayDiv1'><div class='tc'><img class='introPic' src='trustrating_stim/white_mw038.bmp'><br><font color='red'><strong>Keep</strong></font></div></div></div>","null","ARRAY","1","trustrating_stim/white_mw038.bmp","0","noMatchOutcome","i","1500","","","","",""
"html-keyboard-response","82","275400","0.0-7.0-3.9","63b6be60f23fd8e0399f668c","bdp_wmem","Wed Mar 15 2023 16:01:55 GMT-0400 (Eastern Daylight Time)","622719","Match,No Match","","null","","","","","","<div class='trialBorder'><div class='vertical-center'><img src='img/fixation2_sml.jpg'</img></div></div>","null","DELAY","","","","","","","","","","",""
"html-keyboard-response","83","276018","0.0-7.0-4.9","63b6be60f23fd8e0399f668c","bdp_wmem","Wed Mar 15 2023 16:01:55 GMT-0400 (Eastern Daylight Time)","622719","Match,No Match","","616","","","","","","<div class='trialBorder'><div class='targDiv'><div class='tc'><img class='introPic' src='trustrating_stim/white_mw038.bmp'><br><font color='green'><strong>Share</strong></font></div></div><div class='respDiv'><div class='respDivL'>Match<br>(e)</div><div class='respDivR'>No Match<br>(i)</div></div></div>","i","TARGET","1","trustrating_stim/white_mw038.bmp","0","noMatchOutcome","i","1500","trustrating_stim/white_mw038.bmp","green","Share","REAL","1"
"html-keyboard-response","84","276525","0.0-7.0-5.9","63b6be60f23fd8e0399f668c","bdp_wmem","Wed Mar 15 2023 16:01:55 GMT-0400 (Eastern Daylight Time)","622719","Match,No Match","","null","","","","","","<div class='trialBorder'><div class='vertical-center'><img src='img/correct.jpg'></div><div class='respDiv'><div class='respDivL'>Match<br>(e)</div><div class='respDivR'><font style='color:orange'>No Match<br>(i)</font></div></div></div>","null","FEEDBACK","","","","","","","","","","",""
"html-keyboard-response","85","277028","0.0-7.0-1.10","63b6be60f23fd8e0399f668c","bdp_wmem","Wed Mar 15 2023 16:01:55 GMT-0400 (Eastern Daylight Time)","622719","Match,No Match","","null","","","","","","<div class='trialBorder'><div class='vertical-center'><img src='img/fixation2_sml.jpg'</img></div></div>","null","FIX","","","","","","","","","","",""
"html-keyboard-response","86","278533","0.0-7.0-2.10","63b6be60f23fd8e0399f668c","bdp_wmem","Wed Mar 15 2023 16:01:55 GMT-0400 (Eastern Daylight Time)","622719","Match,No Match","","null","","","","","","<div class='trialBorder'><div class='vertical-center'><img style='vertical-align:center; align:center' src='img/fixation2_sml.jpg'></div><div class='arrayDiv1'><div class='tc'><img class='introPic' src='trustrating_stim/white_mw042.bmp'><br><font color='green'><strong>Share</strong></font></div></div></div>","null","ARRAY","1","trustrating_stim/white_mw042.bmp","1","Match","e","1500","","","","",""
"html-keyboard-response","87","282540","0.0-7.0-3.10","63b6be60f23fd8e0399f668c","bdp_wmem","Wed Mar 15 2023 16:01:55 GMT-0400 (Eastern Daylight Time)","622719","Match,No Match","","null","","","","","","<div class='trialBorder'><div class='vertical-center'><img src='img/fixation2_sml.jpg'</img></div></div>","null","DELAY","","","","","","","","","","",""
"html-keyboard-response","88","283314","0.0-7.0-4.10","63b6be60f23fd8e0399f668c","bdp_wmem","Wed Mar 15 2023 16:01:55 GMT-0400 (Eastern Daylight Time)","622719","Match,No Match","","772","","","","","","<div class='trialBorder'><div class='targDiv'><div class='tc'><img class='introPic' src='trustrating_stim/white_mw042.bmp'><br><font color='green'><strong>Share</strong></font></div></div><div class='respDiv'><div class='respDivL'>Match<br>(e)</div><div class='respDivR'>No Match<br>(i)</div></div></div>","e","TARGET","1","trustrating_stim/white_mw042.bmp","1","Match","e","1500","trustrating_stim/white_mw042.bmp","green","Share","REAL","1"
"html-keyboard-response","89","283822","0.0-7.0-5.10","63b6be60f23fd8e0399f668c","bdp_wmem","Wed Mar 15 2023 16:01:55 GMT-0400 (Eastern Daylight Time)","622719","Match,No Match","","null","","","","","","<div class='trialBorder'><div class='vertical-center'><img src='img/correct.jpg'></div><div class='respDiv'><div class='respDivL'><font style='color:orange'>Match<br>(e)</font></div><div class='respDivR'>No Match<br>(i)</div></div></div>","null","FEEDBACK","","","","","","","","","","",""
"html-keyboard-response","90","284331","0.0-7.0-1.11","63b6be60f23fd8e0399f668c","bdp_wmem","Wed Mar 15 2023 16:01:55 GMT-0400 (Eastern Daylight Time)","622719","Match,No Match","","null","","","","","","<div class='trialBorder'><div class='vertical-center'><img src='img/fixation2_sml.jpg'</img></div></div>","null","FIX","","","","","","","","","","",""
"html-keyboard-response","91","288837","0.0-7.0-2.11","63b6be60f23fd8e0399f668c","bdp_wmem","Wed Mar 15 2023 16:01:55 GMT-0400 (Eastern Daylight Time)","622719","Match,No Match","","null","","","","","","<div class='trialBorder'><div class='vertical-center'><img style='vertical-align:center; align:center' src='img/fixation2_sml.jpg'></div><div class='arrayDiv3'><div class='tl'><img class='introPic' src='trustrating_stim/white_mw038.bmp'><br><font color='green'><strong>Share</strong></font></div><div class='tc'><img class='introPic' src='trustrating_stim/white_mw092.bmp'><br><font color='red'><strong>Keep</strong></font></div><div class='tr'><img class='introPic' src='trustrating_stim/white_mw091.bmp'><br><font color='green'><strong>Share</strong></font></div></div></div>","null","ARRAY","3","trustrating_stim/white_mw038.bmp,trustrating_stim/white_mw092.bmp,trustrating_stim/white_mw091.bmp","1,0,1","Match","e","4500","","","","",""
"html-keyboard-response","92","292844","0.0-7.0-3.11","63b6be60f23fd8e0399f668c","bdp_wmem","Wed Mar 15 2023 16:01:55 GMT-0400 (Eastern Daylight Time)","622719","Match,No Match","","null","","","","","","<div class='trialBorder'><div class='vertical-center'><img src='img/fixation2_sml.jpg'</img></div></div>","null","DELAY","","","","","","","","","","",""
"html-keyboard-response","93","293963","0.0-7.0-4.11","63b6be60f23fd8e0399f668c","bdp_wmem","Wed Mar 15 2023 16:01:55 GMT-0400 (Eastern Daylight Time)","622719","Match,No Match","","1116","","","","","","<div class='trialBorder'><div class='targDiv'><div class='tc'><img class='introPic' src='trustrating_stim/white_mw092.bmp'><br><font color='red'><strong>Keep</strong></font></div></div><div class='respDiv'><div class='respDivL'>Match<br>(e)</div><div class='respDivR'>No Match<br>(i)</div></div></div>","e","TARGET","3","trustrating_stim/white_mw038.bmp,trustrating_stim/white_mw092.bmp,trustrating_stim/white_mw091.bmp","1,0,1","Match","e","4500","trustrating_stim/white_mw092.bmp","red","Keep","REAL","1"
"html-keyboard-response","94","294469","0.0-7.0-5.11","63b6be60f23fd8e0399f668c","bdp_wmem","Wed Mar 15 2023 16:01:55 GMT-0400 (Eastern Daylight Time)","622719","Match,No Match","","null","","","","","","<div class='trialBorder'><div class='vertical-center'><img src='img/correct.jpg'></div><div class='respDiv'><div class='respDivL'><font style='color:orange'>Match<br>(e)</font></div><div class='respDivR'>No Match<br>(i)</div></div></div>","null","FEEDBACK","","","","","","","","","","",""
"html-keyboard-response","95","294972","0.0-7.0-1.12","63b6be60f23fd8e0399f668c","bdp_wmem","Wed Mar 15 2023 16:01:55 GMT-0400 (Eastern Daylight Time)","622719","Match,No Match","","null","","","","","","<div class='trialBorder'><div class='vertical-center'><img src='img/fixation2_sml.jpg'</img></div></div>","null","FIX","","","","","","","","","","",""
"html-keyboard-response","96","297980","0.0-7.0-2.12","63b6be60f23fd8e0399f668c","bdp_wmem","Wed Mar 15 2023 16:01:55 GMT-0400 (Eastern Daylight Time)","622719","Match,No Match","","null","","","","","","<div class='trialBorder'><div class='vertical-center'><img style='vertical-align:center; align:center' src='img/fixation2_sml.jpg'></div><div class='arrayDiv2'><div class='tl'><img class='introPic' src='trustrating_stim/white_mw042.bmp'><br><font color='green'><strong>Share</strong></font></div><div class='tr'><img class='introPic' src='trustrating_stim/white_mw078.bmp'><br><font color='red'><strong>Keep</strong></font></div></div></div>","null","ARRAY","2","trustrating_stim/white_mw042.bmp,trustrating_stim/white_mw078.bmp","1,0","noMatchFace","i","3000","","","","",""
"html-keyboard-response","97","301989","0.0-7.0-3.12","63b6be60f23fd8e0399f668c","bdp_wmem","Wed Mar 15 2023 16:01:55 GMT-0400 (Eastern Daylight Time)","622719","Match,No Match","","null","","","","","","<div class='trialBorder'><div class='vertical-center'><img src='img/fixation2_sml.jpg'</img></div></div>","null","DELAY","","","","","","","","","","",""
"html-keyboard-response","98","303079","0.0-7.0-4.12","63b6be60f23fd8e0399f668c","bdp_wmem","Wed Mar 15 2023 16:01:55 GMT-0400 (Eastern Daylight Time)","622719","Match,No Match","","1087","","","","","","<div class='trialBorder'><div class='targDiv'><div class='tc'><img class='introPic' src='trustrating_stim/white_mw003.bmp'><br><font color='red'><strong>Keep</strong></font></div></div><div class='respDiv'><div class='respDivL'>Match<br>(e)</div><div class='respDivR'>No Match<br>(i)</div></div></div>","i","TARGET","2","trustrating_stim/white_mw042.bmp,trustrating_stim/white_mw078.bmp","1,0","noMatchFace","i","3000","trustrating_stim/white_mw003.bmp","red","Keep","REAL","1"
"html-keyboard-response","99","303580","0.0-7.0-5.12","63b6be60f23fd8e0399f668c","bdp_wmem","Wed Mar 15 2023 16:01:55 GMT-0400 (Eastern Daylight Time)","622719","Match,No Match","","null","","","","","","<div class='trialBorder'><div class='vertical-center'><img src='img/correct.jpg'></div><div class='respDiv'><div class='respDivL'>Match<br>(e)</div><div class='respDivR'><font style='color:orange'>No Match<br>(i)</font></div></div></div>","null","FEEDBACK","","","","","","","","","","",""
"html-keyboard-response","100","304089","0.0-7.0-1.13","63b6be60f23fd8e0399f668c","bdp_wmem","Wed Mar 15 2023 16:01:55 GMT-0400 (Eastern Daylight Time)","622719","Match,No Match","","null","","","","","","<div class='trialBorder'><div class='vertical-center'><img src='img/fixation2_sml.jpg'</img></div></div>","null","FIX","","","","","","","","","","",""
"html-keyboard-response","101","308597","0.0-7.0-2.13","63b6be60f23fd8e0399f668c","bdp_wmem","Wed Mar 15 2023 16:01:55 GMT-0400 (Eastern Daylight Time)","622719","Match,No Match","","null","","","","","","<div class='trialBorder'><div class='vertical-center'><img style='vertical-align:center; align:center' src='img/fixation2_sml.jpg'></div><div class='arrayDiv3'><div class='tl'><img class='introPic' src='trustrating_stim/white_mw070.bmp'><br><font color='green'><strong>Share</strong></font></div><div class='tc'><img class='introPic' src='trustrating_stim/white_mw013.bmp'><br><font color='green'><strong>Share</strong></font></div><div class='tr'><img class='introPic' src='trustrating_stim/white_mw010.bmp'><br><font color='red'><strong>Keep</strong></font></div></div></div>","null","ARRAY","3","trustrating_stim/white_mw070.bmp,trustrating_stim/white_mw013.bmp,trustrating_stim/white_mw010.bmp","1,1,0","noMatchOutcome","i","4500","","","","",""
"html-keyboard-response","102","312604","0.0-7.0-3.13","63b6be60f23fd8e0399f668c","bdp_wmem","Wed Mar 15 2023 16:01:55 GMT-0400 (Eastern Daylight Time)","622719","Match,No Match","","null","","","","","","<div class='trialBorder'><div class='vertical-center'><img src='img/fixation2_sml.jpg'</img></div></div>","null","DELAY","","","","","","","","","","",""
"html-keyboard-response","103","313814","0.0-7.0-4.13","63b6be60f23fd8e0399f668c","bdp_wmem","Wed Mar 15 2023 16:01:55 GMT-0400 (Eastern Daylight Time)","622719","Match,No Match","","1206","","","","","","<div class='trialBorder'><div class='targDiv'><div class='tc'><img class='introPic' src='trustrating_stim/white_mw010.bmp'><br><font color='green'><strong>Share</strong></font></div></div><div class='respDiv'><div class='respDivL'>Match<br>(e)</div><div class='respDivR'>No Match<br>(i)</div></div></div>","i","TARGET","3","trustrating_stim/white_mw070.bmp,trustrating_stim/white_mw013.bmp,trustrating_stim/white_mw010.bmp","1,1,0","noMatchOutcome","i","4500","trustrating_stim/white_mw010.bmp","green","Share","REAL","1"
"html-keyboard-response","104","314316","0.0-7.0-5.13","63b6be60f23fd8e0399f668c","bdp_wmem","Wed Mar 15 2023 16:01:55 GMT-0400 (Eastern Daylight Time)","622719","Match,No Match","","null","","","","","","<div class='trialBorder'><div class='vertical-center'><img src='img/correct.jpg'></div><div class='respDiv'><div class='respDivL'>Match<br>(e)</div><div class='respDivR'><font style='color:orange'>No Match<br>(i)</font></div></div></div>","null","FEEDBACK","","","","","","","","","","",""
"html-keyboard-response","105","314821","0.0-7.0-1.14","63b6be60f23fd8e0399f668c","bdp_wmem","Wed Mar 15 2023 16:01:55 GMT-0400 (Eastern Daylight Time)","622719","Match,No Match","","null","","","","","","<div class='trialBorder'><div class='vertical-center'><img src='img/fixation2_sml.jpg'</img></div></div>","null","FIX","","","","","","","","","","",""
"html-keyboard-response","106","316325","0.0-7.0-2.14","63b6be60f23fd8e0399f668c","bdp_wmem","Wed Mar 15 2023 16:01:55 GMT-0400 (Eastern Daylight Time)","622719","Match,No Match","","null","","","","","","<div class='trialBorder'><div class='vertical-center'><img style='vertical-align:center; align:center' src='img/fixation2_sml.jpg'></div><div class='arrayDiv1'><div class='tc'><img class='introPic' src='trustrating_stim/white_mw040.bmp'><br><font color='green'><strong>Share</strong></font></div></div></div>","null","ARRAY","1","trustrating_stim/white_mw040.bmp","1","Match","e","1500","","","","",""
"html-keyboard-response","107","320332","0.0-7.0-3.14","63b6be60f23fd8e0399f668c","bdp_wmem","Wed Mar 15 2023 16:01:55 GMT-0400 (Eastern Daylight Time)","622719","Match,No Match","","null","","","","","","<div class='trialBorder'><div class='vertical-center'><img src='img/fixation2_sml.jpg'</img></div></div>","null","DELAY","","","","","","","","","","",""
"html-keyboard-response","108","320917","0.0-7.0-4.14","63b6be60f23fd8e0399f668c","bdp_wmem","Wed Mar 15 2023 16:01:55 GMT-0400 (Eastern Daylight Time)","622719","Match,No Match","","582","","","","","","<div class='trialBorder'><div class='targDiv'><div class='tc'><img class='introPic' src='trustrating_stim/white_mw040.bmp'><br><font color='green'><strong>Share</strong></font></div></div><div class='respDiv'><div class='respDivL'>Match<br>(e)</div><div class='respDivR'>No Match<br>(i)</div></div></div>","e","TARGET","1","trustrating_stim/white_mw040.bmp","1","Match","e","1500","trustrating_stim/white_mw040.bmp","green","Share","REAL","1"
"html-keyboard-response","109","321421","0.0-7.0-5.14","63b6be60f23fd8e0399f668c","bdp_wmem","Wed Mar 15 2023 16:01:55 GMT-0400 (Eastern Daylight Time)","622719","Match,No Match","","null","","","","","","<div class='trialBorder'><div class='vertical-center'><img src='img/correct.jpg'></div><div class='respDiv'><div class='respDivL'><font style='color:orange'>Match<br>(e)</font></div><div class='respDivR'>No Match<br>(i)</div></div></div>","null","FEEDBACK","","","","","","","","","","",""
"html-keyboard-response","110","321925","0.0-7.0-1.15","63b6be60f23fd8e0399f668c","bdp_wmem","Wed Mar 15 2023 16:01:55 GMT-0400 (Eastern Daylight Time)","622719","Match,No Match","","null","","","","","","<div class='trialBorder'><div class='vertical-center'><img src='img/fixation2_sml.jpg'</img></div></div>","null","FIX","","","","","","","","","","",""
"html-keyboard-response","111","324934","0.0-7.0-2.15","63b6be60f23fd8e0399f668c","bdp_wmem","Wed Mar 15 2023 16:01:55 GMT-0400 (Eastern Daylight Time)","622719","Match,No Match","","null","","","","","","<div class='trialBorder'><div class='vertical-center'><img style='vertical-align:center; align:center' src='img/fixation2_sml.jpg'></div><div class='arrayDiv2'><div class='tl'><img class='introPic' src='trustrating_stim/white_mw003.bmp'><br><font color='red'><strong>Keep</strong></font></div><div class='tr'><img class='introPic' src='trustrating_stim/white_mw091.bmp'><br><font color='green'><strong>Share</strong></font></div></div></div>","null","ARRAY","2","trustrating_stim/white_mw003.bmp,trustrating_stim/white_mw091.bmp","0,1","Match","e","3000","","","","",""
"html-keyboard-response","112","328941","0.0-7.0-3.15","63b6be60f23fd8e0399f668c","bdp_wmem","Wed Mar 15 2023 16:01:55 GMT-0400 (Eastern Daylight Time)","622719","Match,No Match","","null","","","","","","<div class='trialBorder'><div class='vertical-center'><img src='img/fixation2_sml.jpg'</img></div></div>","null","DELAY","","","","","","","","","","",""
"html-keyboard-response","113","329501","0.0-7.0-4.15","63b6be60f23fd8e0399f668c","bdp_wmem","Wed Mar 15 2023 16:01:55 GMT-0400 (Eastern Daylight Time)","622719","Match,No Match","","558","","","","","","<div class='trialBorder'><div class='targDiv'><div class='tc'><img class='introPic' src='trustrating_stim/white_mw003.bmp'><br><font color='red'><strong>Keep</strong></font></div></div><div class='respDiv'><div class='respDivL'>Match<br>(e)</div><div class='respDivR'>No Match<br>(i)</div></div></div>","e","TARGET","2","trustrating_stim/white_mw003.bmp,trustrating_stim/white_mw091.bmp","0,1","Match","e","3000","trustrating_stim/white_mw003.bmp","red","Keep","REAL","1"
"html-keyboard-response","114","330006","0.0-7.0-5.15","63b6be60f23fd8e0399f668c","bdp_wmem","Wed Mar 15 2023 16:01:55 GMT-0400 (Eastern Daylight Time)","622719","Match,No Match","","null","","","","","","<div class='trialBorder'><div class='vertical-center'><img src='img/correct.jpg'></div><div class='respDiv'><div class='respDivL'><font style='color:orange'>Match<br>(e)</font></div><div class='respDivR'>No Match<br>(i)</div></div></div>","null","FEEDBACK","","","","","","","","","","",""
"html-keyboard-response","115","330509","0.0-7.0-1.16","63b6be60f23fd8e0399f668c","bdp_wmem","Wed Mar 15 2023 16:01:55 GMT-0400 (Eastern Daylight Time)","622719","Match,No Match","","null","","","","","","<div class='trialBorder'><div class='vertical-center'><img src='img/fixation2_sml.jpg'</img></div></div>","null","FIX","","","","","","","","","","",""
"html-keyboard-response","116","332013","0.0-7.0-2.16","63b6be60f23fd8e0399f668c","bdp_wmem","Wed Mar 15 2023 16:01:55 GMT-0400 (Eastern Daylight Time)","622719","Match,No Match","","null","","","","","","<div class='trialBorder'><div class='vertical-center'><img style='vertical-align:center; align:center' src='img/fixation2_sml.jpg'></div><div class='arrayDiv1'><div class='tc'><img class='introPic' src='trustrating_stim/white_mw042.bmp'><br><font color='red'><strong>Keep</strong></font></div></div></div>","null","ARRAY","1","trustrating_stim/white_mw042.bmp","0","Match","e","1500","","","","",""
"html-keyboard-response","117","336022","0.0-7.0-3.16","63b6be60f23fd8e0399f668c","bdp_wmem","Wed Mar 15 2023 16:01:55 GMT-0400 (Eastern Daylight Time)","622719","Match,No Match","","null","","","","","","<div class='trialBorder'><div class='vertical-center'><img src='img/fixation2_sml.jpg'</img></div></div>","null","DELAY","","","","","","","","","","",""
"html-keyboard-response","118","336689","0.0-7.0-4.16","63b6be60f23fd8e0399f668c","bdp_wmem","Wed Mar 15 2023 16:01:55 GMT-0400 (Eastern Daylight Time)","622719","Match,No Match","","665","","","","","","<div class='trialBorder'><div class='targDiv'><div class='tc'><img class='introPic' src='trustrating_stim/white_mw042.bmp'><br><font color='red'><strong>Keep</strong></font></div></div><div class='respDiv'><div class='respDivL'>Match<br>(e)</div><div class='respDivR'>No Match<br>(i)</div></div></div>","e","TARGET","1","trustrating_stim/white_mw042.bmp","0","Match","e","1500","trustrating_stim/white_mw042.bmp","red","Keep","REAL","1"
"html-keyboard-response","119","337199","0.0-7.0-5.16","63b6be60f23fd8e0399f668c","bdp_wmem","Wed Mar 15 2023 16:01:55 GMT-0400 (Eastern Daylight Time)","622719","Match,No Match","","null","","","","","","<div class='trialBorder'><div class='vertical-center'><img src='img/correct.jpg'></div><div class='respDiv'><div class='respDivL'><font style='color:orange'>Match<br>(e)</font></div><div class='respDivR'>No Match<br>(i)</div></div></div>","null","FEEDBACK","","","","","","","","","","",""
"html-keyboard-response","120","337709","0.0-7.0-1.17","63b6be60f23fd8e0399f668c","bdp_wmem","Wed Mar 15 2023 16:01:55 GMT-0400 (Eastern Daylight Time)","622719","Match,No Match","","null","","","","","","<div class='trialBorder'><div class='vertical-center'><img src='img/fixation2_sml.jpg'</img></div></div>","null","FIX","","","","","","","","","","",""
"html-keyboard-response","121","342214","0.0-7.0-2.17","63b6be60f23fd8e0399f668c","bdp_wmem","Wed Mar 15 2023 16:01:55 GMT-0400 (Eastern Daylight Time)","622719","Match,No Match","","null","","","","","","<div class='trialBorder'><div class='vertical-center'><img style='vertical-align:center; align:center' src='img/fixation2_sml.jpg'></div><div class='arrayDiv3'><div class='tl'><img class='introPic' src='trustrating_stim/white_mw091.bmp'><br><font color='red'><strong>Keep</strong></font></div><div class='tc'><img class='introPic' src='trustrating_stim/white_mw078.bmp'><br><font color='green'><strong>Share</strong></font></div><div class='tr'><img class='introPic' src='trustrating_stim/white_mw042.bmp'><br><font color='green'><strong>Share</strong></font></div></div></div>","null","ARRAY","3","trustrating_stim/white_mw091.bmp,trustrating_stim/white_mw078.bmp,trustrating_stim/white_mw042.bmp","0,1,1","noMatchFace","i","4500","","","","",""
"html-keyboard-response","122","346221","0.0-7.0-3.17","63b6be60f23fd8e0399f668c","bdp_wmem","Wed Mar 15 2023 16:01:55 GMT-0400 (Eastern Daylight Time)","622719","Match,No Match","","null","","","","","","<div class='trialBorder'><div class='vertical-center'><img src='img/fixation2_sml.jpg'</img></div></div>","null","DELAY","","","","","","","","","","",""
"html-keyboard-response","123","349132","0.0-7.0-4.17","63b6be60f23fd8e0399f668c","bdp_wmem","Wed Mar 15 2023 16:01:55 GMT-0400 (Eastern Daylight Time)","622719","Match,No Match","","2908","","","","","","<div class='trialBorder'><div class='targDiv'><div class='tc'><img class='introPic' src='trustrating_stim/white_mw013.bmp'><br><font color='red'><strong>Keep</strong></font></div></div><div class='respDiv'><div class='respDivL'>Match<br>(e)</div><div class='respDivR'>No Match<br>(i)</div></div></div>","i","TARGET","3","trustrating_stim/white_mw091.bmp,trustrating_stim/white_mw078.bmp,trustrating_stim/white_mw042.bmp","0,1,1","noMatchFace","i","4500","trustrating_stim/white_mw013.bmp","red","Keep","REAL","1"
"html-keyboard-response","124","349638","0.0-7.0-5.17","63b6be60f23fd8e0399f668c","bdp_wmem","Wed Mar 15 2023 16:01:55 GMT-0400 (Eastern Daylight Time)","622719","Match,No Match","","null","","","","","","<div class='trialBorder'><div class='vertical-center'><img src='img/correct.jpg'></div><div class='respDiv'><div class='respDivL'>Match<br>(e)</div><div class='respDivR'><font style='color:orange'>No Match<br>(i)</font></div></div></div>","null","FEEDBACK","","","","","","","","","","",""
"html-keyboard-response","125","350141","0.0-7.0-1.18","63b6be60f23fd8e0399f668c","bdp_wmem","Wed Mar 15 2023 16:01:55 GMT-0400 (Eastern Daylight Time)","622719","Match,No Match","","null","","","","","","<div class='trialBorder'><div class='vertical-center'><img src='img/fixation2_sml.jpg'</img></div></div>","null","FIX","","","","","","","","","","",""
"html-keyboard-response","126","353149","0.0-7.0-2.18","63b6be60f23fd8e0399f668c","bdp_wmem","Wed Mar 15 2023 16:01:55 GMT-0400 (Eastern Daylight Time)","622719","Match,No Match","","null","","","","","","<div class='trialBorder'><div class='vertical-center'><img style='vertical-align:center; align:center' src='img/fixation2_sml.jpg'></div><div class='arrayDiv2'><div class='tl'><img class='introPic' src='trustrating_stim/white_mw092.bmp'><br><font color='green'><strong>Share</strong></font></div><div class='tr'><img class='introPic' src='trustrating_stim/white_mw038.bmp'><br><font color='red'><strong>Keep</strong></font></div></div></div>","null","ARRAY","2","trustrating_stim/white_mw092.bmp,trustrating_stim/white_mw038.bmp","1,0","Match","e","3000","","","","",""
"html-keyboard-response","127","357158","0.0-7.0-3.18","63b6be60f23fd8e0399f668c","bdp_wmem","Wed Mar 15 2023 16:01:55 GMT-0400 (Eastern Daylight Time)","622719","Match,No Match","","null","","","","","","<div class='trialBorder'><div class='vertical-center'><img src='img/fixation2_sml.jpg'</img></div></div>","null","DELAY","","","","","","","","","","",""
"html-keyboard-response","128","358574","0.0-7.0-4.18","63b6be60f23fd8e0399f668c","bdp_wmem","Wed Mar 15 2023 16:01:55 GMT-0400 (Eastern Daylight Time)","622719","Match,No Match","","1412","","","","","","<div class='trialBorder'><div class='targDiv'><div class='tc'><img class='introPic' src='trustrating_stim/white_mw038.bmp'><br><font color='red'><strong>Keep</strong></font></div></div><div class='respDiv'><div class='respDivL'>Match<br>(e)</div><div class='respDivR'>No Match<br>(i)</div></div></div>","e","TARGET","2","trustrating_stim/white_mw092.bmp,trustrating_stim/white_mw038.bmp","1,0","Match","e","3000","trustrating_stim/white_mw038.bmp","red","Keep","REAL","1"
"html-keyboard-response","129","359082","0.0-7.0-5.18","63b6be60f23fd8e0399f668c","bdp_wmem","Wed Mar 15 2023 16:01:55 GMT-0400 (Eastern Daylight Time)","622719","Match,No Match","","null","","","","","","<div class='trialBorder'><div class='vertical-center'><img src='img/correct.jpg'></div><div class='respDiv'><div class='respDivL'><font style='color:orange'>Match<br>(e)</font></div><div class='respDivR'>No Match<br>(i)</div></div></div>","null","FEEDBACK","","","","","","","","","","",""
"html-keyboard-response","130","359590","0.0-7.0-1.19","63b6be60f23fd8e0399f668c","bdp_wmem","Wed Mar 15 2023 16:01:55 GMT-0400 (Eastern Daylight Time)","622719","Match,No Match","","null","","","","","","<div class='trialBorder'><div class='vertical-center'><img src='img/fixation2_sml.jpg'</img></div></div>","null","FIX","","","","","","","","","","",""
"html-keyboard-response","131","361094","0.0-7.0-2.19","63b6be60f23fd8e0399f668c","bdp_wmem","Wed Mar 15 2023 16:01:55 GMT-0400 (Eastern Daylight Time)","622719","Match,No Match","","null","","","","","","<div class='trialBorder'><div class='vertical-center'><img style='vertical-align:center; align:center' src='img/fixation2_sml.jpg'></div><div class='arrayDiv1'><div class='tc'><img class='introPic' src='trustrating_stim/white_mw092.bmp'><br><font color='red'><strong>Keep</strong></font></div></div></div>","null","ARRAY","1","trustrating_stim/white_mw092.bmp","0","Match","e","1500","","","","",""
"html-keyboard-response","132","365102","0.0-7.0-3.19","63b6be60f23fd8e0399f668c","bdp_wmem","Wed Mar 15 2023 16:01:55 GMT-0400 (Eastern Daylight Time)","622719","Match,No Match","","null","","","","","","<div class='trialBorder'><div class='vertical-center'><img src='img/fixation2_sml.jpg'</img></div></div>","null","DELAY","","","","","","","","","","",""
"html-keyboard-response","133","365915","0.0-7.0-4.19","63b6be60f23fd8e0399f668c","bdp_wmem","Wed Mar 15 2023 16:01:55 GMT-0400 (Eastern Daylight Time)","622719","Match,No Match","","810","","","","","","<div class='trialBorder'><div class='targDiv'><div class='tc'><img class='introPic' src='trustrating_stim/white_mw092.bmp'><br><font color='red'><strong>Keep</strong></font></div></div><div class='respDiv'><div class='respDivL'>Match<br>(e)</div><div class='respDivR'>No Match<br>(i)</div></div></div>","e","TARGET","1","trustrating_stim/white_mw092.bmp","0","Match","e","1500","trustrating_stim/white_mw092.bmp","red","Keep","REAL","1"
"html-keyboard-response","134","366423","0.0-7.0-5.19","63b6be60f23fd8e0399f668c","bdp_wmem","Wed Mar 15 2023 16:01:55 GMT-0400 (Eastern Daylight Time)","622719","Match,No Match","","null","","","","","","<div class='trialBorder'><div class='vertical-center'><img src='img/correct.jpg'></div><div class='respDiv'><div class='respDivL'><font style='color:orange'>Match<br>(e)</font></div><div class='respDivR'>No Match<br>(i)</div></div></div>","null","FEEDBACK","","","","","","","","","","",""
"html-keyboard-response","135","366928","0.0-7.0-1.20","63b6be60f23fd8e0399f668c","bdp_wmem","Wed Mar 15 2023 16:01:55 GMT-0400 (Eastern Daylight Time)","622719","Match,No Match","","null","","","","","","<div class='trialBorder'><div class='vertical-center'><img src='img/fixation2_sml.jpg'</img></div></div>","null","FIX","","","","","","","","","","",""
"html-keyboard-response","136","368439","0.0-7.0-2.20","63b6be60f23fd8e0399f668c","bdp_wmem","Wed Mar 15 2023 16:01:55 GMT-0400 (Eastern Daylight Time)","622719","Match,No Match","","null","","","","","","<div class='trialBorder'><div class='vertical-center'><img style='vertical-align:center; align:center' src='img/fixation2_sml.jpg'></div><div class='arrayDiv1'><div class='tc'><img class='introPic' src='trustrating_stim/white_mw092.bmp'><br><font color='green'><strong>Share</strong></font></div></div></div>","null","ARRAY","1","trustrating_stim/white_mw092.bmp","1","noMatchFace","i","1500","","","","",""
"html-keyboard-response","137","372446","0.0-7.0-3.20","63b6be60f23fd8e0399f668c","bdp_wmem","Wed Mar 15 2023 16:01:55 GMT-0400 (Eastern Daylight Time)","622719","Match,No Match","","null","","","","","","<div class='trialBorder'><div class='vertical-center'><img src='img/fixation2_sml.jpg'</img></div></div>","null","DELAY","","","","","","","","","","",""
"html-keyboard-response","138","373335","0.0-7.0-4.20","63b6be60f23fd8e0399f668c","bdp_wmem","Wed Mar 15 2023 16:01:55 GMT-0400 (Eastern Daylight Time)","622719","Match,No Match","","887","","","","","","<div class='trialBorder'><div class='targDiv'><div class='tc'><img class='introPic' src='trustrating_stim/white_mw003.bmp'><br><font color='green'><strong>Share</strong></font></div></div><div class='respDiv'><div class='respDivL'>Match<br>(e)</div><div class='respDivR'>No Match<br>(i)</div></div></div>","i","TARGET","1","trustrating_stim/white_mw092.bmp","1","noMatchFace","i","1500","trustrating_stim/white_mw003.bmp","green","Share","REAL","1"
"html-keyboard-response","139","373838","0.0-7.0-5.20","63b6be60f23fd8e0399f668c","bdp_wmem","Wed Mar 15 2023 16:01:55 GMT-0400 (Eastern Daylight Time)","622719","Match,No Match","","null","","","","","","<div class='trialBorder'><div class='vertical-center'><img src='img/correct.jpg'></div><div class='respDiv'><div class='respDivL'>Match<br>(e)</div><div class='respDivR'><font style='color:orange'>No Match<br>(i)</font></div></div></div>","null","FEEDBACK","","","","","","","","","","",""
"html-keyboard-response","140","374343","0.0-7.0-1.21","63b6be60f23fd8e0399f668c","bdp_wmem","Wed Mar 15 2023 16:01:55 GMT-0400 (Eastern Daylight Time)","622719","Match,No Match","","null","","","","","","<div class='trialBorder'><div class='vertical-center'><img src='img/fixation2_sml.jpg'</img></div></div>","null","FIX","","","","","","","","","","",""
"html-keyboard-response","141","378846","0.0-7.0-2.21","63b6be60f23fd8e0399f668c","bdp_wmem","Wed Mar 15 2023 16:01:55 GMT-0400 (Eastern Daylight Time)","622719","Match,No Match","","null","","","","","","<div class='trialBorder'><div class='vertical-center'><img style='vertical-align:center; align:center' src='img/fixation2_sml.jpg'></div><div class='arrayDiv3'><div class='tl'><img class='introPic' src='trustrating_stim/white_mw078.bmp'><br><font color='red'><strong>Keep</strong></font></div><div class='tc'><img class='introPic' src='trustrating_stim/white_mw013.bmp'><br><font color='green'><strong>Share</strong></font></div><div class='tr'><img class='introPic' src='trustrating_stim/white_mw010.bmp'><br><font color='red'><strong>Keep</strong></font></div></div></div>","null","ARRAY","3","trustrating_stim/white_mw078.bmp,trustrating_stim/white_mw013.bmp,trustrating_stim/white_mw010.bmp","0,1,0","noMatchOutcome","i","4500","","","","",""
"html-keyboard-response","142","382855","0.0-7.0-3.21","63b6be60f23fd8e0399f668c","bdp_wmem","Wed Mar 15 2023 16:01:55 GMT-0400 (Eastern Daylight Time)","622719","Match,No Match","","null","","","","","","<div class='trialBorder'><div class='vertical-center'><img src='img/fixation2_sml.jpg'</img></div></div>","null","DELAY","","","","","","","","","","",""
"html-keyboard-response","143","384236","0.0-7.0-4.21","63b6be60f23fd8e0399f668c","bdp_wmem","Wed Mar 15 2023 16:01:55 GMT-0400 (Eastern Daylight Time)","622719","Match,No Match","","1378","","","","","","<div class='trialBorder'><div class='targDiv'><div class='tc'><img class='introPic' src='trustrating_stim/white_mw013.bmp'><br><font color='red'><strong>Keep</strong></font></div></div><div class='respDiv'><div class='respDivL'>Match<br>(e)</div><div class='respDivR'>No Match<br>(i)</div></div></div>","i","TARGET","3","trustrating_stim/white_mw078.bmp,trustrating_stim/white_mw013.bmp,trustrating_stim/white_mw010.bmp","0,1,0","noMatchOutcome","i","4500","trustrating_stim/white_mw013.bmp","red","Keep","REAL","1"
"html-keyboard-response","144","384743","0.0-7.0-5.21","63b6be60f23fd8e0399f668c","bdp_wmem","Wed Mar 15 2023 16:01:55 GMT-0400 (Eastern Daylight Time)","622719","Match,No Match","","null","","","","","","<div class='trialBorder'><div class='vertical-center'><img src='img/correct.jpg'></div><div class='respDiv'><div class='respDivL'>Match<br>(e)</div><div class='respDivR'><font style='color:orange'>No Match<br>(i)</font></div></div></div>","null","FEEDBACK","","","","","","","","","","",""
"html-keyboard-response","145","385246","0.0-7.0-1.22","63b6be60f23fd8e0399f668c","bdp_wmem","Wed Mar 15 2023 16:01:55 GMT-0400 (Eastern Daylight Time)","622719","Match,No Match","","null","","","","","","<div class='trialBorder'><div class='vertical-center'><img src='img/fixation2_sml.jpg'</img></div></div>","null","FIX","","","","","","","","","","",""
"html-keyboard-response","146","389751","0.0-7.0-2.22","63b6be60f23fd8e0399f668c","bdp_wmem","Wed Mar 15 2023 16:01:55 GMT-0400 (Eastern Daylight Time)","622719","Match,No Match","","null","","","","","","<div class='trialBorder'><div class='vertical-center'><img style='vertical-align:center; align:center' src='img/fixation2_sml.jpg'></div><div class='arrayDiv3'><div class='tl'><img class='introPic' src='trustrating_stim/white_mw070.bmp'><br><font color='red'><strong>Keep</strong></font></div><div class='tc'><img class='introPic' src='trustrating_stim/white_mw010.bmp'><br><font color='green'><strong>Share</strong></font></div><div class='tr'><img class='introPic' src='trustrating_stim/white_mw013.bmp'><br><font color='green'><strong>Share</strong></font></div></div></div>","null","ARRAY","3","trustrating_stim/white_mw070.bmp,trustrating_stim/white_mw010.bmp,trustrating_stim/white_mw013.bmp","0,1,1","noMatchFace","i","4500","","","","",""
"html-keyboard-response","147","393660","0.0-7.0-3.22","63b6be60f23fd8e0399f668c","bdp_wmem","Wed Mar 15 2023 16:01:55 GMT-0400 (Eastern Daylight Time)","622719","Match,No Match","","null","","","","","","<div class='trialBorder'><div class='vertical-center'><img src='img/fixation2_sml.jpg'</img></div></div>","null","DELAY","","","","","","","","","","",""
"html-keyboard-response","148","394727","0.0-7.0-4.22","63b6be60f23fd8e0399f668c","bdp_wmem","Wed Mar 15 2023 16:01:55 GMT-0400 (Eastern Daylight Time)","622719","Match,No Match","","1066","","","","","","<div class='trialBorder'><div class='targDiv'><div class='tc'><img class='introPic' src='trustrating_stim/white_mw042.bmp'><br><font color='red'><strong>Keep</strong></font></div></div><div class='respDiv'><div class='respDivL'>Match<br>(e)</div><div class='respDivR'>No Match<br>(i)</div></div></div>","i","TARGET","3","trustrating_stim/white_mw070.bmp,trustrating_stim/white_mw010.bmp,trustrating_stim/white_mw013.bmp","0,1,1","noMatchFace","i","4500","trustrating_stim/white_mw042.bmp","red","Keep","REAL","1"
"html-keyboard-response","149","395238","0.0-7.0-5.22","63b6be60f23fd8e0399f668c","bdp_wmem","Wed Mar 15 2023 16:01:55 GMT-0400 (Eastern Daylight Time)","622719","Match,No Match","","null","","","","","","<div class='trialBorder'><div class='vertical-center'><img src='img/correct.jpg'></div><div class='respDiv'><div class='respDivL'>Match<br>(e)</div><div class='respDivR'><font style='color:orange'>No Match<br>(i)</font></div></div></div>","null","FEEDBACK","","","","","","","","","","",""
"html-keyboard-response","150","395741","0.0-7.0-1.23","63b6be60f23fd8e0399f668c","bdp_wmem","Wed Mar 15 2023 16:01:55 GMT-0400 (Eastern Daylight Time)","622719","Match,No Match","","null","","","","","","<div class='trialBorder'><div class='vertical-center'><img src='img/fixation2_sml.jpg'</img></div></div>","null","FIX","","","","","","","","","","",""
"html-keyboard-response","151","397245","0.0-7.0-2.23","63b6be60f23fd8e0399f668c","bdp_wmem","Wed Mar 15 2023 16:01:55 GMT-0400 (Eastern Daylight Time)","622719","Match,No Match","","null","","","","","","<div class='trialBorder'><div class='vertical-center'><img style='vertical-align:center; align:center' src='img/fixation2_sml.jpg'></div><div class='arrayDiv1'><div class='tc'><img class='introPic' src='trustrating_stim/white_mw078.bmp'><br><font color='red'><strong>Keep</strong></font></div></div></div>","null","ARRAY","1","trustrating_stim/white_mw078.bmp","0","Match","e","1500","","","","",""
"html-keyboard-response","152","401254","0.0-7.0-3.23","63b6be60f23fd8e0399f668c","bdp_wmem","Wed Mar 15 2023 16:01:55 GMT-0400 (Eastern Daylight Time)","622719","Match,No Match","","null","","","","","","<div class='trialBorder'><div class='vertical-center'><img src='img/fixation2_sml.jpg'</img></div></div>","null","DELAY","","","","","","","","","","",""
"html-keyboard-response","153","402191","0.0-7.0-4.23","63b6be60f23fd8e0399f668c","bdp_wmem","Wed Mar 15 2023 16:01:55 GMT-0400 (Eastern Daylight Time)","622719","Match,No Match","","935","","","","","","<div class='trialBorder'><div class='targDiv'><div class='tc'><img class='introPic' src='trustrating_stim/white_mw078.bmp'><br><font color='red'><strong>Keep</strong></font></div></div><div class='respDiv'><div class='respDivL'>Match<br>(e)</div><div class='respDivR'>No Match<br>(i)</div></div></div>","e","TARGET","1","trustrating_stim/white_mw078.bmp","0","Match","e","1500","trustrating_stim/white_mw078.bmp","red","Keep","REAL","1"
"html-keyboard-response","154","402694","0.0-7.0-5.23","63b6be60f23fd8e0399f668c","bdp_wmem","Wed Mar 15 2023 16:01:55 GMT-0400 (Eastern Daylight Time)","622719","Match,No Match","","null","","","","","","<div class='trialBorder'><div class='vertical-center'><img src='img/correct.jpg'></div><div class='respDiv'><div class='respDivL'><font style='color:orange'>Match<br>(e)</font></div><div class='respDivR'>No Match<br>(i)</div></div></div>","null","FEEDBACK","","","","","","","","","","",""
"html-keyboard-response","155","403197","0.0-7.0-1.24","63b6be60f23fd8e0399f668c","bdp_wmem","Wed Mar 15 2023 16:01:55 GMT-0400 (Eastern Daylight Time)","622719","Match,No Match","","null","","","","","","<div class='trialBorder'><div class='vertical-center'><img src='img/fixation2_sml.jpg'</img></div></div>","null","FIX","","","","","","","","","","",""
"html-keyboard-response","156","404701","0.0-7.0-2.24","63b6be60f23fd8e0399f668c","bdp_wmem","Wed Mar 15 2023 16:01:55 GMT-0400 (Eastern Daylight Time)","622719","Match,No Match","","null","","","","","","<div class='trialBorder'><div class='vertical-center'><img style='vertical-align:center; align:center' src='img/fixation2_sml.jpg'></div><div class='arrayDiv1'><div class='tc'><img class='introPic' src='trustrating_stim/white_mw013.bmp'><br><font color='green'><strong>Share</strong></font></div></div></div>","null","ARRAY","1","trustrating_stim/white_mw013.bmp","1","noMatchFace","i","1500","","","","",""
"html-keyboard-response","157","408710","0.0-7.0-3.24","63b6be60f23fd8e0399f668c","bdp_wmem","Wed Mar 15 2023 16:01:55 GMT-0400 (Eastern Daylight Time)","622719","Match,No Match","","null","","","","","","<div class='trialBorder'><div class='vertical-center'><img src='img/fixation2_sml.jpg'</img></div></div>","null","DELAY","","","","","","","","","","",""
"html-keyboard-response","158","409391","0.0-7.0-4.24","63b6be60f23fd8e0399f668c","bdp_wmem","Wed Mar 15 2023 16:01:55 GMT-0400 (Eastern Daylight Time)","622719","Match,No Match","","678","","","","","","<div class='trialBorder'><div class='targDiv'><div class='tc'><img class='introPic' src='trustrating_stim/white_mw091.bmp'><br><font color='green'><strong>Share</strong></font></div></div><div class='respDiv'><div class='respDivL'>Match<br>(e)</div><div class='respDivR'>No Match<br>(i)</div></div></div>","i","TARGET","1","trustrating_stim/white_mw013.bmp","1","noMatchFace","i","1500","trustrating_stim/white_mw091.bmp","green","Share","REAL","1"
"html-keyboard-response","159","409894","0.0-7.0-5.24","63b6be60f23fd8e0399f668c","bdp_wmem","Wed Mar 15 2023 16:01:55 GMT-0400 (Eastern Daylight Time)","622719","Match,No Match","","null","","","","","","<div class='trialBorder'><div class='vertical-center'><img src='img/correct.jpg'></div><div class='respDiv'><div class='respDivL'>Match<br>(e)</div><div class='respDivR'><font style='color:orange'>No Match<br>(i)</font></div></div></div>","null","FEEDBACK","","","","","","","","","","",""
"html-keyboard-response","160","410397","0.0-7.0-1.25","63b6be60f23fd8e0399f668c","bdp_wmem","Wed Mar 15 2023 16:01:55 GMT-0400 (Eastern Daylight Time)","622719","Match,No Match","","null","","","","","","<div class='trialBorder'><div class='vertical-center'><img src='img/fixation2_sml.jpg'</img></div></div>","null","FIX","","","","","","","","","","",""
"html-keyboard-response","161","413405","0.0-7.0-2.25","63b6be60f23fd8e0399f668c","bdp_wmem","Wed Mar 15 2023 16:01:55 GMT-0400 (Eastern Daylight Time)","622719","Match,No Match","","null","","","","","","<div class='trialBorder'><div class='vertical-center'><img style='vertical-align:center; align:center' src='img/fixation2_sml.jpg'></div><div class='arrayDiv2'><div class='tl'><img class='introPic' src='trustrating_stim/white_mw013.bmp'><br><font color='green'><strong>Share</strong></font></div><div class='tr'><img class='introPic' src='trustrating_stim/white_mw085.bmp'><br><font color='red'><strong>Keep</strong></font></div></div></div>","null","ARRAY","2","trustrating_stim/white_mw013.bmp,trustrating_stim/white_mw085.bmp","1,0","noMatchOutcome","i","3000","","","","",""
"html-keyboard-response","162","417414","0.0-7.0-3.25","63b6be60f23fd8e0399f668c","bdp_wmem","Wed Mar 15 2023 16:01:55 GMT-0400 (Eastern Daylight Time)","622719","Match,No Match","","null","","","","","","<div class='trialBorder'><div class='vertical-center'><img src='img/fixation2_sml.jpg'</img></div></div>","null","DELAY","","","","","","","","","","",""
"html-keyboard-response","163","418411","0.0-7.0-4.25","63b6be60f23fd8e0399f668c","bdp_wmem","Wed Mar 15 2023 16:01:55 GMT-0400 (Eastern Daylight Time)","622719","Match,No Match","","995","","","","","","<div class='trialBorder'><div class='targDiv'><div class='tc'><img class='introPic' src='trustrating_stim/white_mw085.bmp'><br><font color='green'><strong>Share</strong></font></div></div><div class='respDiv'><div class='respDivL'>Match<br>(e)</div><div class='respDivR'>No Match<br>(i)</div></div></div>","i","TARGET","2","trustrating_stim/white_mw013.bmp,trustrating_stim/white_mw085.bmp","1,0","noMatchOutcome","i","3000","trustrating_stim/white_mw085.bmp","green","Share","REAL","1"
"html-keyboard-response","164","418918","0.0-7.0-5.25","63b6be60f23fd8e0399f668c","bdp_wmem","Wed Mar 15 2023 16:01:55 GMT-0400 (Eastern Daylight Time)","622719","Match,No Match","","null","","","","","","<div class='trialBorder'><div class='vertical-center'><img src='img/correct.jpg'></div><div class='respDiv'><div class='respDivL'>Match<br>(e)</div><div class='respDivR'><font style='color:orange'>No Match<br>(i)</font></div></div></div>","null","FEEDBACK","","","","","","","","","","",""
"html-keyboard-response","165","419421","0.0-7.0-1.26","63b6be60f23fd8e0399f668c","bdp_wmem","Wed Mar 15 2023 16:01:55 GMT-0400 (Eastern Daylight Time)","622719","Match,No Match","","null","","","","","","<div class='trialBorder'><div class='vertical-center'><img src='img/fixation2_sml.jpg'</img></div></div>","null","FIX","","","","","","","","","","",""
"html-keyboard-response","166","420925","0.0-7.0-2.26","63b6be60f23fd8e0399f668c","bdp_wmem","Wed Mar 15 2023 16:01:55 GMT-0400 (Eastern Daylight Time)","622719","Match,No Match","","null","","","","","","<div class='trialBorder'><div class='vertical-center'><img style='vertical-align:center; align:center' src='img/fixation2_sml.jpg'></div><div class='arrayDiv1'><div class='tc'><img class='introPic' src='trustrating_stim/white_mw038.bmp'><br><font color='red'><strong>Keep</strong></font></div></div></div>","null","ARRAY","1","trustrating_stim/white_mw038.bmp","0","noMatchFace","i","1500","","","","",""
"html-keyboard-response","167","424934","0.0-7.0-3.26","63b6be60f23fd8e0399f668c","bdp_wmem","Wed Mar 15 2023 16:01:55 GMT-0400 (Eastern Daylight Time)","622719","Match,No Match","","null","","","","","","<div class='trialBorder'><div class='vertical-center'><img src='img/fixation2_sml.jpg'</img></div></div>","null","DELAY","","","","","","","","","","",""
"html-keyboard-response","168","426174","0.0-7.0-4.26","63b6be60f23fd8e0399f668c","bdp_wmem","Wed Mar 15 2023 16:01:55 GMT-0400 (Eastern Daylight Time)","622719","Match,No Match","","1238","","","","","","<div class='trialBorder'><div class='targDiv'><div class='tc'><img class='introPic' src='trustrating_stim/white_mw040.bmp'><br><font color='red'><strong>Keep</strong></font></div></div><div class='respDiv'><div class='respDivL'>Match<br>(e)</div><div class='respDivR'>No Match<br>(i)</div></div></div>","i","TARGET","1","trustrating_stim/white_mw038.bmp","0","noMatchFace","i","1500","trustrating_stim/white_mw040.bmp","red","Keep","REAL","1"
"html-keyboard-response","169","426678","0.0-7.0-5.26","63b6be60f23fd8e0399f668c","bdp_wmem","Wed Mar 15 2023 16:01:55 GMT-0400 (Eastern Daylight Time)","622719","Match,No Match","","null","","","","","","<div class='trialBorder'><div class='vertical-center'><img src='img/correct.jpg'></div><div class='respDiv'><div class='respDivL'>Match<br>(e)</div><div class='respDivR'><font style='color:orange'>No Match<br>(i)</font></div></div></div>","null","FEEDBACK","","","","","","","","","","",""
"html-keyboard-response","170","427181","0.0-7.0-1.27","63b6be60f23fd8e0399f668c","bdp_wmem","Wed Mar 15 2023 16:01:55 GMT-0400 (Eastern Daylight Time)","622719","Match,No Match","","null","","","","","","<div class='trialBorder'><div class='vertical-center'><img src='img/fixation2_sml.jpg'</img></div></div>","null","FIX","","","","","","","","","","",""
"html-keyboard-response","171","431686","0.0-7.0-2.27","63b6be60f23fd8e0399f668c","bdp_wmem","Wed Mar 15 2023 16:01:55 GMT-0400 (Eastern Daylight Time)","622719","Match,No Match","","null","","","","","","<div class='trialBorder'><div class='vertical-center'><img style='vertical-align:center; align:center' src='img/fixation2_sml.jpg'></div><div class='arrayDiv3'><div class='tl'><img class='introPic' src='trustrating_stim/white_mw012.bmp'><br><font color='green'><strong>Share</strong></font></div><div class='tc'><img class='introPic' src='trustrating_stim/white_mw013.bmp'><br><font color='red'><strong>Keep</strong></font></div><div class='tr'><img class='introPic' src='trustrating_stim/white_mw042.bmp'><br><font color='red'><strong>Keep</strong></font></div></div></div>","null","ARRAY","3","trustrating_stim/white_mw012.bmp,trustrating_stim/white_mw013.bmp,trustrating_stim/white_mw042.bmp","1,0,0","noMatchFace","i","4500","","","","",""
"html-keyboard-response","172","435693","0.0-7.0-3.27","63b6be60f23fd8e0399f668c","bdp_wmem","Wed Mar 15 2023 16:01:55 GMT-0400 (Eastern Daylight Time)","622719","Match,No Match","","null","","","","","","<div class='trialBorder'><div class='vertical-center'><img src='img/fixation2_sml.jpg'</img></div></div>","null","DELAY","","","","","","","","","","",""
"html-keyboard-response","173","436968","0.0-7.0-4.27","63b6be60f23fd8e0399f668c","bdp_wmem","Wed Mar 15 2023 16:01:55 GMT-0400 (Eastern Daylight Time)","622719","Match,No Match","","1273","","","","","","<div class='trialBorder'><div class='targDiv'><div class='tc'><img class='introPic' src='trustrating_stim/white_mw040.bmp'><br><font color='red'><strong>Keep</strong></font></div></div><div class='respDiv'><div class='respDivL'>Match<br>(e)</div><div class='respDivR'>No Match<br>(i)</div></div></div>","i","TARGET","3","trustrating_stim/white_mw012.bmp,trustrating_stim/white_mw013.bmp,trustrating_stim/white_mw042.bmp","1,0,0","noMatchFace","i","4500","trustrating_stim/white_mw040.bmp","red","Keep","REAL","1"
"html-keyboard-response","174","437478","0.0-7.0-5.27","63b6be60f23fd8e0399f668c","bdp_wmem","Wed Mar 15 2023 16:01:55 GMT-0400 (Eastern Daylight Time)","622719","Match,No Match","","null","","","","","","<div class='trialBorder'><div class='vertical-center'><img src='img/correct.jpg'></div><div class='respDiv'><div class='respDivL'>Match<br>(e)</div><div class='respDivR'><font style='color:orange'>No Match<br>(i)</font></div></div></div>","null","FEEDBACK","","","","","","","","","","",""
"html-keyboard-response","175","437981","0.0-7.0-1.28","63b6be60f23fd8e0399f668c","bdp_wmem","Wed Mar 15 2023 16:01:55 GMT-0400 (Eastern Daylight Time)","622719","Match,No Match","","null","","","","","","<div class='trialBorder'><div class='vertical-center'><img src='img/fixation2_sml.jpg'</img></div></div>","null","FIX","","","","","","","","","","",""
"html-keyboard-response","176","440989","0.0-7.0-2.28","63b6be60f23fd8e0399f668c","bdp_wmem","Wed Mar 15 2023 16:01:55 GMT-0400 (Eastern Daylight Time)","622719","Match,No Match","","null","","","","","","<div class='trialBorder'><div class='vertical-center'><img style='vertical-align:center; align:center' src='img/fixation2_sml.jpg'></div><div class='arrayDiv2'><div class='tl'><img class='introPic' src='trustrating_stim/white_mw010.bmp'><br><font color='red'><strong>Keep</strong></font></div><div class='tr'><img class='introPic' src='trustrating_stim/white_mw013.bmp'><br><font color='green'><strong>Share</strong></font></div></div></div>","null","ARRAY","2","trustrating_stim/white_mw010.bmp,trustrating_stim/white_mw013.bmp","0,1","Match","e","3000","","","","",""
"html-keyboard-response","177","444998","0.0-7.0-3.28","63b6be60f23fd8e0399f668c","bdp_wmem","Wed Mar 15 2023 16:01:55 GMT-0400 (Eastern Daylight Time)","622719","Match,No Match","","null","","","","","","<div class='trialBorder'><div class='vertical-center'><img src='img/fixation2_sml.jpg'</img></div></div>","null","DELAY","","","","","","","","","","",""
"html-keyboard-response","178","445743","0.0-7.0-4.28","63b6be60f23fd8e0399f668c","bdp_wmem","Wed Mar 15 2023 16:01:55 GMT-0400 (Eastern Daylight Time)","622719","Match,No Match","","741","","","","","","<div class='trialBorder'><div class='targDiv'><div class='tc'><img class='introPic' src='trustrating_stim/white_mw010.bmp'><br><font color='red'><strong>Keep</strong></font></div></div><div class='respDiv'><div class='respDivL'>Match<br>(e)</div><div class='respDivR'>No Match<br>(i)</div></div></div>","e","TARGET","2","trustrating_stim/white_mw010.bmp,trustrating_stim/white_mw013.bmp","0,1","Match","e","3000","trustrating_stim/white_mw010.bmp","red","Keep","REAL","1"
"html-keyboard-response","179","446246","0.0-7.0-5.28","63b6be60f23fd8e0399f668c","bdp_wmem","Wed Mar 15 2023 16:01:55 GMT-0400 (Eastern Daylight Time)","622719","Match,No Match","","null","","","","","","<div class='trialBorder'><div class='vertical-center'><img src='img/correct.jpg'></div><div class='respDiv'><div class='respDivL'><font style='color:orange'>Match<br>(e)</font></div><div class='respDivR'>No Match<br>(i)</div></div></div>","null","FEEDBACK","","","","","","","","","","",""
"html-keyboard-response","180","446751","0.0-7.0-1.29","63b6be60f23fd8e0399f668c","bdp_wmem","Wed Mar 15 2023 16:01:55 GMT-0400 (Eastern Daylight Time)","622719","Match,No Match","","null","","","","","","<div class='trialBorder'><div class='vertical-center'><img src='img/fixation2_sml.jpg'</img></div></div>","null","FIX","","","","","","","","","","",""
"html-keyboard-response","181","451265","0.0-7.0-2.29","63b6be60f23fd8e0399f668c","bdp_wmem","Wed Mar 15 2023 16:01:55 GMT-0400 (Eastern Daylight Time)","622719","Match,No Match","","null","","","","","","<div class='trialBorder'><div class='vertical-center'><img style='vertical-align:center; align:center' src='img/fixation2_sml.jpg'></div><div class='arrayDiv3'><div class='tl'><img class='introPic' src='trustrating_stim/white_mw091.bmp'><br><font color='red'><strong>Keep</strong></font></div><div class='tc'><img class='introPic' src='trustrating_stim/white_mw012.bmp'><br><font color='red'><strong>Keep</strong></font></div><div class='tr'><img class='introPic' src='trustrating_stim/white_mw092.bmp'><br><font color='green'><strong>Share</strong></font></div></div></div>","null","ARRAY","3","trustrating_stim/white_mw091.bmp,trustrating_stim/white_mw012.bmp,trustrating_stim/white_mw092.bmp","0,0,1","noMatchOutcome","i","4500","","","","",""
"html-keyboard-response","182","455270","0.0-7.0-3.29","63b6be60f23fd8e0399f668c","bdp_wmem","Wed Mar 15 2023 16:01:55 GMT-0400 (Eastern Daylight Time)","622719","Match,No Match","","null","","","","","","<div class='trialBorder'><div class='vertical-center'><img src='img/fixation2_sml.jpg'</img></div></div>","null","DELAY","","","","","","","","","","",""
"html-keyboard-response","183","456591","0.0-7.0-4.29","63b6be60f23fd8e0399f668c","bdp_wmem","Wed Mar 15 2023 16:01:55 GMT-0400 (Eastern Daylight Time)","622719","Match,No Match","","1318","","","","","","<div class='trialBorder'><div class='targDiv'><div class='tc'><img class='introPic' src='trustrating_stim/white_mw092.bmp'><br><font color='red'><strong>Keep</strong></font></div></div><div class='respDiv'><div class='respDivL'>Match<br>(e)</div><div class='respDivR'>No Match<br>(i)</div></div></div>","i","TARGET","3","trustrating_stim/white_mw091.bmp,trustrating_stim/white_mw012.bmp,trustrating_stim/white_mw092.bmp","0,0,1","noMatchOutcome","i","4500","trustrating_stim/white_mw092.bmp","red","Keep","REAL","1"
"html-keyboard-response","184","457094","0.0-7.0-5.29","63b6be60f23fd8e0399f668c","bdp_wmem","Wed Mar 15 2023 16:01:55 GMT-0400 (Eastern Daylight Time)","622719","Match,No Match","","null","","","","","","<div class='trialBorder'><div class='vertical-center'><img src='img/correct.jpg'></div><div class='respDiv'><div class='respDivL'>Match<br>(e)</div><div class='respDivR'><font style='color:orange'>No Match<br>(i)</font></div></div></div>","null","FEEDBACK","","","","","","","","","","",""
"html-keyboard-response","185","457597","0.0-7.0-1.30","63b6be60f23fd8e0399f668c","bdp_wmem","Wed Mar 15 2023 16:01:55 GMT-0400 (Eastern Daylight Time)","622719","Match,No Match","","null","","","","","","<div class='trialBorder'><div class='vertical-center'><img src='img/fixation2_sml.jpg'</img></div></div>","null","FIX","","","","","","","","","","",""
"html-keyboard-response","186","462106","0.0-7.0-2.30","63b6be60f23fd8e0399f668c","bdp_wmem","Wed Mar 15 2023 16:01:55 GMT-0400 (Eastern Daylight Time)","622719","Match,No Match","","null","","","","","","<div class='trialBorder'><div class='vertical-center'><img style='vertical-align:center; align:center' src='img/fixation2_sml.jpg'></div><div class='arrayDiv3'><div class='tl'><img class='introPic' src='trustrating_stim/white_mw010.bmp'><br><font color='green'><strong>Share</strong></font></div><div class='tc'><img class='introPic' src='trustrating_stim/white_mw070.bmp'><br><font color='red'><strong>Keep</strong></font></div><div class='tr'><img class='introPic' src='trustrating_stim/white_mw012.bmp'><br><font color='green'><strong>Share</strong></font></div></div></div>","null","ARRAY","3","trustrating_stim/white_mw010.bmp,trustrating_stim/white_mw070.bmp,trustrating_stim/white_mw012.bmp","1,0,1","Match","e","4500","","","","",""
"html-keyboard-response","187","466109","0.0-7.0-3.30","63b6be60f23fd8e0399f668c","bdp_wmem","Wed Mar 15 2023 16:01:55 GMT-0400 (Eastern Daylight Time)","622719","Match,No Match","","null","","","","","","<div class='trialBorder'><div class='vertical-center'><img src='img/fixation2_sml.jpg'</img></div></div>","null","DELAY","","","","","","","","","","",""
