"trial_type","trial_index","time_elapsed","internal_node_id","subject_id","task","startTime","totalTime","labels","view_history","rt","event","trial","time","trialtype","success","stimulus","key_press","stimType","arraySize","arrayFaces","arrayOutcomes","matchType","corrResp","arrayDur","targFace","targCol","targOutcome","trialType","corr"
"pavlovia","0","4","0.0-0.0","63d13b44f511eff0aef876f2","bdp_wmem","Sun Mar 12 2023 21:05:39 GMT-0700 (Pacific Daylight Time)","566945","Match,No Match","","","","","","","","","","","","","","","","","","","","",""
"instructions","1","2582","0.0-1.0","63d13b44f511eff0aef876f2","bdp_wmem","Sun Mar 12 2023 21:05:39 GMT-0700 (Pacific Daylight Time)","566945","Match,No Match","[{""page_index"":0,""viewing_time"":2578}]","2578","","","","","","","","","","","","","","","","","","",""
"","","","","63d13b44f511eff0aef876f2","bdp_wmem","Sun Mar 12 2023 21:05:39 GMT-0700 (Pacific Daylight Time)","566945","Match,No Match","","","fullscreenenter","2","3684","fullscreenenter","","","","","","","","","","","","","","",""
"fullscreen","2","4676","0.0-2.0","63d13b44f511eff0aef876f2","bdp_wmem","Sun Mar 12 2023 21:05:39 GMT-0700 (Pacific Daylight Time)","566945","Match,No Match","","","","","","","true","","","","","","","","","","","","","",""
"instructions","3","70358","0.0-4.0","63d13b44f511eff0aef876f2","bdp_wmem","Sun Mar 12 2023 21:05:39 GMT-0700 (Pacific Daylight Time)","566945","Match,No Match","[{""page_index"":0,""viewing_time"":12521},{""page_index"":1,""viewing_time"":22832},{""page_index"":2,""viewing_time"":18296},{""page_index"":3,""viewing_time"":8729},{""page_index"":4,""viewing_time"":3303}]","65681","","","","","","","","","","","","","","","","","","",""
"html-keyboard-response","4","70862","0.0-5.0-1.0","63d13b44f511eff0aef876f2","bdp_wmem","Sun Mar 12 2023 21:05:39 GMT-0700 (Pacific Daylight Time)","566945","Match,No Match","","null","","","","","","<div class='trialBorder'><div class='vertical-center'><img src='img/fixation2_sml.jpg'</img></div></div>","null","FIX","","","","","","","","","","",""
"html-keyboard-response","5","72366","0.0-5.0-2.0","63d13b44f511eff0aef876f2","bdp_wmem","Sun Mar 12 2023 21:05:39 GMT-0700 (Pacific Daylight Time)","566945","Match,No Match","","null","","","","","","<div class='trialBorder'><div class='vertical-center'><img style='vertical-align:center; align:center' src='img/fixation2_sml.jpg'></div><div class='arrayDiv1'><div class='tc'><img class='introPic' src='trustrating_stim/white_mw038.bmp'><br><font color='green'><strong>Share</strong></font></div></div></div>","null","ARRAY","1","trustrating_stim/white_mw038.bmp","1","noMatchFace","i","1500","","","","",""
"html-keyboard-response","6","76366","0.0-5.0-3.0","63d13b44f511eff0aef876f2","bdp_wmem","Sun Mar 12 2023 21:05:39 GMT-0700 (Pacific Daylight Time)","566945","Match,No Match","","null","","","","","","<div class='trialBorder'><div class='vertical-center'><img src='img/fixation2_sml.jpg'</img></div></div>","null","DELAY","","","","","","","","","","",""
"html-keyboard-response","7","77680","0.0-5.0-4.0","63d13b44f511eff0aef876f2","bdp_wmem","Sun Mar 12 2023 21:05:39 GMT-0700 (Pacific Daylight Time)","566945","Match,No Match","","1310","","","","","","<div class='trialBorder'><div class='targDiv'><div class='tc'><img class='introPic' src='trustrating_stim/white_mw042.bmp'><br><font color='green'><strong>Share</strong></font></div></div><div class='respDiv'><div class='respDivL'>Match<br>(e)</div><div class='respDivR'>No Match<br>(i)</div></div></div>","i","TARGET","1","trustrating_stim/white_mw038.bmp","1","noMatchFace","i","1500","trustrating_stim/white_mw042.bmp","green","Share","PRACTICE","1"
"html-keyboard-response","8","78182","0.0-5.0-5.0","63d13b44f511eff0aef876f2","bdp_wmem","Sun Mar 12 2023 21:05:39 GMT-0700 (Pacific Daylight Time)","566945","Match,No Match","","null","","","","","","<div class='trialBorder'><div class='vertical-center'><img src='img/correct.jpg'></div><div class='respDiv'><div class='respDivL'>Match<br>(e)</div><div class='respDivR'><font style='color:orange'>No Match<br>(i)</font></div></div></div>","null","FEEDBACK","","","","","","","","","","",""
"html-keyboard-response","9","78684","0.0-5.0-1.1","63d13b44f511eff0aef876f2","bdp_wmem","Sun Mar 12 2023 21:05:39 GMT-0700 (Pacific Daylight Time)","566945","Match,No Match","","null","","","","","","<div class='trialBorder'><div class='vertical-center'><img src='img/fixation2_sml.jpg'</img></div></div>","null","FIX","","","","","","","","","","",""
"html-keyboard-response","10","81686","0.0-5.0-2.1","63d13b44f511eff0aef876f2","bdp_wmem","Sun Mar 12 2023 21:05:39 GMT-0700 (Pacific Daylight Time)","566945","Match,No Match","","null","","","","","","<div class='trialBorder'><div class='vertical-center'><img style='vertical-align:center; align:center' src='img/fixation2_sml.jpg'></div><div class='arrayDiv2'><div class='tl'><img class='introPic' src='trustrating_stim/white_mw013.bmp'><br><font color='green'><strong>Share</strong></font></div><div class='tr'><img class='introPic' src='trustrating_stim/white_mw078.bmp'><br><font color='red'><strong>Keep</strong></font></div></div></div>","null","ARRAY","2","trustrating_stim/white_mw013.bmp,trustrating_stim/white_mw078.bmp","1,0","noMatchFace","i","3000","","","","",""
"html-keyboard-response","11","85688","0.0-5.0-3.1","63d13b44f511eff0aef876f2","bdp_wmem","Sun Mar 12 2023 21:05:39 GMT-0700 (Pacific Daylight Time)","566945","Match,No Match","","null","","","","","","<div class='trialBorder'><div class='vertical-center'><img src='img/fixation2_sml.jpg'</img></div></div>","null","DELAY","","","","","","","","","","",""
"html-keyboard-response","12","86837","0.0-5.0-4.1","63d13b44f511eff0aef876f2","bdp_wmem","Sun Mar 12 2023 21:05:39 GMT-0700 (Pacific Daylight Time)","566945","Match,No Match","","1148","","","","","","<div class='trialBorder'><div class='targDiv'><div class='tc'><img class='introPic' src='trustrating_stim/white_mw092.bmp'><br><font color='green'><strong>Share</strong></font></div></div><div class='respDiv'><div class='respDivL'>Match<br>(e)</div><div class='respDivR'>No Match<br>(i)</div></div></div>","e","TARGET","2","trustrating_stim/white_mw013.bmp,trustrating_stim/white_mw078.bmp","1,0","noMatchFace","i","3000","trustrating_stim/white_mw092.bmp","green","Share","PRACTICE","0"
"html-keyboard-response","13","87338","0.0-5.0-5.1","63d13b44f511eff0aef876f2","bdp_wmem","Sun Mar 12 2023 21:05:39 GMT-0700 (Pacific Daylight Time)","566945","Match,No Match","","null","","","","","","<div class='trialBorder'><div class='vertical-center'><img src='img/error.jpg'></div><div class='respDiv'><div class='respDivL'><font style='color:orange'>Match<br>(e)</font></div><div class='respDivR'>No Match<br>(i)</div></div></div>","null","FEEDBACK","","","","","","","","","","",""
"html-keyboard-response","14","87841","0.0-5.0-1.2","63d13b44f511eff0aef876f2","bdp_wmem","Sun Mar 12 2023 21:05:39 GMT-0700 (Pacific Daylight Time)","566945","Match,No Match","","null","","","","","","<div class='trialBorder'><div class='vertical-center'><img src='img/fixation2_sml.jpg'</img></div></div>","null","FIX","","","","","","","","","","",""
"html-keyboard-response","15","89343","0.0-5.0-2.2","63d13b44f511eff0aef876f2","bdp_wmem","Sun Mar 12 2023 21:05:39 GMT-0700 (Pacific Daylight Time)","566945","Match,No Match","","null","","","","","","<div class='trialBorder'><div class='vertical-center'><img style='vertical-align:center; align:center' src='img/fixation2_sml.jpg'></div><div class='arrayDiv1'><div class='tc'><img class='introPic' src='trustrating_stim/white_mw042.bmp'><br><font color='red'><strong>Keep</strong></font></div></div></div>","null","ARRAY","1","trustrating_stim/white_mw042.bmp","0","Match","e","1500","","","","",""
"html-keyboard-response","16","93345","0.0-5.0-3.2","63d13b44f511eff0aef876f2","bdp_wmem","Sun Mar 12 2023 21:05:39 GMT-0700 (Pacific Daylight Time)","566945","Match,No Match","","null","","","","","","<div class='trialBorder'><div class='vertical-center'><img src='img/fixation2_sml.jpg'</img></div></div>","null","DELAY","","","","","","","","","","",""
"html-keyboard-response","17","94414","0.0-5.0-4.2","63d13b44f511eff0aef876f2","bdp_wmem","Sun Mar 12 2023 21:05:39 GMT-0700 (Pacific Daylight Time)","566945","Match,No Match","","1067","","","","","","<div class='trialBorder'><div class='targDiv'><div class='tc'><img class='introPic' src='trustrating_stim/white_mw042.bmp'><br><font color='red'><strong>Keep</strong></font></div></div><div class='respDiv'><div class='respDivL'>Match<br>(e)</div><div class='respDivR'>No Match<br>(i)</div></div></div>","i","TARGET","1","trustrating_stim/white_mw042.bmp","0","Match","e","1500","trustrating_stim/white_mw042.bmp","red","Keep","PRACTICE","0"
"html-keyboard-response","18","94915","0.0-5.0-5.2","63d13b44f511eff0aef876f2","bdp_wmem","Sun Mar 12 2023 21:05:39 GMT-0700 (Pacific Daylight Time)","566945","Match,No Match","","null","","","","","","<div class='trialBorder'><div class='vertical-center'><img src='img/error.jpg'></div><div class='respDiv'><div class='respDivL'>Match<br>(e)</div><div class='respDivR'><font style='color:orange'>No Match<br>(i)</font></div></div></div>","null","FEEDBACK","","","","","","","","","","",""
"html-keyboard-response","19","95416","0.0-5.0-1.3","63d13b44f511eff0aef876f2","bdp_wmem","Sun Mar 12 2023 21:05:39 GMT-0700 (Pacific Daylight Time)","566945","Match,No Match","","null","","","","","","<div class='trialBorder'><div class='vertical-center'><img src='img/fixation2_sml.jpg'</img></div></div>","null","FIX","","","","","","","","","","",""
"html-keyboard-response","20","99918","0.0-5.0-2.3","63d13b44f511eff0aef876f2","bdp_wmem","Sun Mar 12 2023 21:05:39 GMT-0700 (Pacific Daylight Time)","566945","Match,No Match","","null","","","","","","<div class='trialBorder'><div class='vertical-center'><img style='vertical-align:center; align:center' src='img/fixation2_sml.jpg'></div><div class='arrayDiv3'><div class='tl'><img class='introPic' src='trustrating_stim/white_mw085.bmp'><br><font color='green'><strong>Share</strong></font></div><div class='tc'><img class='introPic' src='trustrating_stim/white_mw091.bmp'><br><font color='red'><strong>Keep</strong></font></div><div class='tr'><img class='introPic' src='trustrating_stim/white_mw012.bmp'><br><font color='red'><strong>Keep</strong></font></div></div></div>","null","ARRAY","3","trustrating_stim/white_mw085.bmp,trustrating_stim/white_mw091.bmp,trustrating_stim/white_mw012.bmp","1,0,0","Match","e","4500","","","","",""
"html-keyboard-response","21","103920","0.0-5.0-3.3","63d13b44f511eff0aef876f2","bdp_wmem","Sun Mar 12 2023 21:05:39 GMT-0700 (Pacific Daylight Time)","566945","Match,No Match","","null","","","","","","<div class='trialBorder'><div class='vertical-center'><img src='img/fixation2_sml.jpg'</img></div></div>","null","DELAY","","","","","","","","","","",""
"html-keyboard-response","22","105064","0.0-5.0-4.3","63d13b44f511eff0aef876f2","bdp_wmem","Sun Mar 12 2023 21:05:39 GMT-0700 (Pacific Daylight Time)","566945","Match,No Match","","1144","","","","","","<div class='trialBorder'><div class='targDiv'><div class='tc'><img class='introPic' src='trustrating_stim/white_mw012.bmp'><br><font color='red'><strong>Keep</strong></font></div></div><div class='respDiv'><div class='respDivL'>Match<br>(e)</div><div class='respDivR'>No Match<br>(i)</div></div></div>","e","TARGET","3","trustrating_stim/white_mw085.bmp,trustrating_stim/white_mw091.bmp,trustrating_stim/white_mw012.bmp","1,0,0","Match","e","4500","trustrating_stim/white_mw012.bmp","red","Keep","PRACTICE","1"
"html-keyboard-response","23","105567","0.0-5.0-5.3","63d13b44f511eff0aef876f2","bdp_wmem","Sun Mar 12 2023 21:05:39 GMT-0700 (Pacific Daylight Time)","566945","Match,No Match","","null","","","","","","<div class='trialBorder'><div class='vertical-center'><img src='img/correct.jpg'></div><div class='respDiv'><div class='respDivL'><font style='color:orange'>Match<br>(e)</font></div><div class='respDivR'>No Match<br>(i)</div></div></div>","null","FEEDBACK","","","","","","","","","","",""
"html-keyboard-response","24","106070","0.0-5.0-1.4","63d13b44f511eff0aef876f2","bdp_wmem","Sun Mar 12 2023 21:05:39 GMT-0700 (Pacific Daylight Time)","566945","Match,No Match","","null","","","","","","<div class='trialBorder'><div class='vertical-center'><img src='img/fixation2_sml.jpg'</img></div></div>","null","FIX","","","","","","","","","","",""
"html-keyboard-response","25","110573","0.0-5.0-2.4","63d13b44f511eff0aef876f2","bdp_wmem","Sun Mar 12 2023 21:05:39 GMT-0700 (Pacific Daylight Time)","566945","Match,No Match","","null","","","","","","<div class='trialBorder'><div class='vertical-center'><img style='vertical-align:center; align:center' src='img/fixation2_sml.jpg'></div><div class='arrayDiv3'><div class='tl'><img class='introPic' src='trustrating_stim/white_mw003.bmp'><br><font color='red'><strong>Keep</strong></font></div><div class='tc'><img class='introPic' src='trustrating_stim/white_mw038.bmp'><br><font color='green'><strong>Share</strong></font></div><div class='tr'><img class='introPic' src='trustrating_stim/white_mw010.bmp'><br><font color='green'><strong>Share</strong></font></div></div></div>","null","ARRAY","3","trustrating_stim/white_mw003.bmp,trustrating_stim/white_mw038.bmp,trustrating_stim/white_mw010.bmp","0,1,1","noMatchOutcome","i","4500","","","","",""
"html-keyboard-response","26","114576","0.0-5.0-3.4","63d13b44f511eff0aef876f2","bdp_wmem","Sun Mar 12 2023 21:05:39 GMT-0700 (Pacific Daylight Time)","566945","Match,No Match","","null","","","","","","<div class='trialBorder'><div class='vertical-center'><img src='img/fixation2_sml.jpg'</img></div></div>","null","DELAY","","","","","","","","","","",""
"html-keyboard-response","27","115960","0.0-5.0-4.4","63d13b44f511eff0aef876f2","bdp_wmem","Sun Mar 12 2023 21:05:39 GMT-0700 (Pacific Daylight Time)","566945","Match,No Match","","1381","","","","","","<div class='trialBorder'><div class='targDiv'><div class='tc'><img class='introPic' src='trustrating_stim/white_mw003.bmp'><br><font color='green'><strong>Share</strong></font></div></div><div class='respDiv'><div class='respDivL'>Match<br>(e)</div><div class='respDivR'>No Match<br>(i)</div></div></div>","i","TARGET","3","trustrating_stim/white_mw003.bmp,trustrating_stim/white_mw038.bmp,trustrating_stim/white_mw010.bmp","0,1,1","noMatchOutcome","i","4500","trustrating_stim/white_mw003.bmp","green","Share","PRACTICE","1"
"html-keyboard-response","28","116463","0.0-5.0-5.4","63d13b44f511eff0aef876f2","bdp_wmem","Sun Mar 12 2023 21:05:39 GMT-0700 (Pacific Daylight Time)","566945","Match,No Match","","null","","","","","","<div class='trialBorder'><div class='vertical-center'><img src='img/correct.jpg'></div><div class='respDiv'><div class='respDivL'>Match<br>(e)</div><div class='respDivR'><font style='color:orange'>No Match<br>(i)</font></div></div></div>","null","FEEDBACK","","","","","","","","","","",""
"html-keyboard-response","29","116965","0.0-5.0-1.5","63d13b44f511eff0aef876f2","bdp_wmem","Sun Mar 12 2023 21:05:39 GMT-0700 (Pacific Daylight Time)","566945","Match,No Match","","null","","","","","","<div class='trialBorder'><div class='vertical-center'><img src='img/fixation2_sml.jpg'</img></div></div>","null","FIX","","","","","","","","","","",""
"html-keyboard-response","30","119967","0.0-5.0-2.5","63d13b44f511eff0aef876f2","bdp_wmem","Sun Mar 12 2023 21:05:39 GMT-0700 (Pacific Daylight Time)","566945","Match,No Match","","null","","","","","","<div class='trialBorder'><div class='vertical-center'><img style='vertical-align:center; align:center' src='img/fixation2_sml.jpg'></div><div class='arrayDiv2'><div class='tl'><img class='introPic' src='trustrating_stim/white_mw013.bmp'><br><font color='green'><strong>Share</strong></font></div><div class='tr'><img class='introPic' src='trustrating_stim/white_mw010.bmp'><br><font color='red'><strong>Keep</strong></font></div></div></div>","null","ARRAY","2","trustrating_stim/white_mw013.bmp,trustrating_stim/white_mw010.bmp","1,0","Match","e","3000","","","","",""
"html-keyboard-response","31","123972","0.0-5.0-3.5","63d13b44f511eff0aef876f2","bdp_wmem","Sun Mar 12 2023 21:05:39 GMT-0700 (Pacific Daylight Time)","566945","Match,No Match","","null","","","","","","<div class='trialBorder'><div class='vertical-center'><img src='img/fixation2_sml.jpg'</img></div></div>","null","DELAY","","","","","","","","","","",""
"html-keyboard-response","32","125223","0.0-5.0-4.5","63d13b44f511eff0aef876f2","bdp_wmem","Sun Mar 12 2023 21:05:39 GMT-0700 (Pacific Daylight Time)","566945","Match,No Match","","1249","","","","","","<div class='trialBorder'><div class='targDiv'><div class='tc'><img class='introPic' src='trustrating_stim/white_mw010.bmp'><br><font color='red'><strong>Keep</strong></font></div></div><div class='respDiv'><div class='respDivL'>Match<br>(e)</div><div class='respDivR'>No Match<br>(i)</div></div></div>","e","TARGET","2","trustrating_stim/white_mw013.bmp,trustrating_stim/white_mw010.bmp","1,0","Match","e","3000","trustrating_stim/white_mw010.bmp","red","Keep","PRACTICE","1"
"html-keyboard-response","33","125725","0.0-5.0-5.5","63d13b44f511eff0aef876f2","bdp_wmem","Sun Mar 12 2023 21:05:39 GMT-0700 (Pacific Daylight Time)","566945","Match,No Match","","null","","","","","","<div class='trialBorder'><div class='vertical-center'><img src='img/correct.jpg'></div><div class='respDiv'><div class='respDivL'><font style='color:orange'>Match<br>(e)</font></div><div class='respDivR'>No Match<br>(i)</div></div></div>","null","FEEDBACK","","","","","","","","","","",""
"instructions","34","128962","0.0-6.0","63d13b44f511eff0aef876f2","bdp_wmem","Sun Mar 12 2023 21:05:39 GMT-0700 (Pacific Daylight Time)","566945","Match,No Match","[{""page_index"":0,""viewing_time"":3236}]","3236","","","","","","","","","","","","","","","","","","",""
"html-keyboard-response","35","129465","0.0-7.0-1.0","63d13b44f511eff0aef876f2","bdp_wmem","Sun Mar 12 2023 21:05:39 GMT-0700 (Pacific Daylight Time)","566945","Match,No Match","","null","","","","","","<div class='trialBorder'><div class='vertical-center'><img src='img/fixation2_sml.jpg'</img></div></div>","null","FIX","","","","","","","","","","",""
"html-keyboard-response","36","132467","0.0-7.0-2.0","63d13b44f511eff0aef876f2","bdp_wmem","Sun Mar 12 2023 21:05:39 GMT-0700 (Pacific Daylight Time)","566945","Match,No Match","","null","","","","","","<div class='trialBorder'><div class='vertical-center'><img style='vertical-align:center; align:center' src='img/fixation2_sml.jpg'></div><div class='arrayDiv2'><div class='tl'><img class='introPic' src='trustrating_stim/white_mw085.bmp'><br><font color='red'><strong>Keep</strong></font></div><div class='tr'><img class='introPic' src='trustrating_stim/white_mw042.bmp'><br><font color='green'><strong>Share</strong></font></div></div></div>","null","ARRAY","2","trustrating_stim/white_mw085.bmp,trustrating_stim/white_mw042.bmp","0,1","Match","e","3000","","","","",""
"html-keyboard-response","37","136469","0.0-7.0-3.0","63d13b44f511eff0aef876f2","bdp_wmem","Sun Mar 12 2023 21:05:39 GMT-0700 (Pacific Daylight Time)","566945","Match,No Match","","null","","","","","","<div class='trialBorder'><div class='vertical-center'><img src='img/fixation2_sml.jpg'</img></div></div>","null","DELAY","","","","","","","","","","",""
"html-keyboard-response","38","137775","0.0-7.0-4.0","63d13b44f511eff0aef876f2","bdp_wmem","Sun Mar 12 2023 21:05:39 GMT-0700 (Pacific Daylight Time)","566945","Match,No Match","","1304","","","","","","<div class='trialBorder'><div class='targDiv'><div class='tc'><img class='introPic' src='trustrating_stim/white_mw085.bmp'><br><font color='red'><strong>Keep</strong></font></div></div><div class='respDiv'><div class='respDivL'>Match<br>(e)</div><div class='respDivR'>No Match<br>(i)</div></div></div>","e","TARGET","2","trustrating_stim/white_mw085.bmp,trustrating_stim/white_mw042.bmp","0,1","Match","e","3000","trustrating_stim/white_mw085.bmp","red","Keep","REAL","1"
"html-keyboard-response","39","138278","0.0-7.0-5.0","63d13b44f511eff0aef876f2","bdp_wmem","Sun Mar 12 2023 21:05:39 GMT-0700 (Pacific Daylight Time)","566945","Match,No Match","","null","","","","","","<div class='trialBorder'><div class='vertical-center'><img src='img/correct.jpg'></div><div class='respDiv'><div class='respDivL'><font style='color:orange'>Match<br>(e)</font></div><div class='respDivR'>No Match<br>(i)</div></div></div>","null","FEEDBACK","","","","","","","","","","",""
"html-keyboard-response","40","138780","0.0-7.0-1.1","63d13b44f511eff0aef876f2","bdp_wmem","Sun Mar 12 2023 21:05:39 GMT-0700 (Pacific Daylight Time)","566945","Match,No Match","","null","","","","","","<div class='trialBorder'><div class='vertical-center'><img src='img/fixation2_sml.jpg'</img></div></div>","null","FIX","","","","","","","","","","",""
"html-keyboard-response","41","141783","0.0-7.0-2.1","63d13b44f511eff0aef876f2","bdp_wmem","Sun Mar 12 2023 21:05:39 GMT-0700 (Pacific Daylight Time)","566945","Match,No Match","","null","","","","","","<div class='trialBorder'><div class='vertical-center'><img style='vertical-align:center; align:center' src='img/fixation2_sml.jpg'></div><div class='arrayDiv2'><div class='tl'><img class='introPic' src='trustrating_stim/white_mw010.bmp'><br><font color='green'><strong>Share</strong></font></div><div class='tr'><img class='introPic' src='trustrating_stim/white_mw092.bmp'><br><font color='red'><strong>Keep</strong></font></div></div></div>","null","ARRAY","2","trustrating_stim/white_mw010.bmp,trustrating_stim/white_mw092.bmp","1,0","noMatchOutcome","i","3000","","","","",""
"html-keyboard-response","42","145786","0.0-7.0-3.1","63d13b44f511eff0aef876f2","bdp_wmem","Sun Mar 12 2023 21:05:39 GMT-0700 (Pacific Daylight Time)","566945","Match,No Match","","null","","","","","","<div class='trialBorder'><div class='vertical-center'><img src='img/fixation2_sml.jpg'</img></div></div>","null","DELAY","","","","","","","","","","",""
"html-keyboard-response","43","146977","0.0-7.0-4.1","63d13b44f511eff0aef876f2","bdp_wmem","Sun Mar 12 2023 21:05:39 GMT-0700 (Pacific Daylight Time)","566945","Match,No Match","","1190","","","","","","<div class='trialBorder'><div class='targDiv'><div class='tc'><img class='introPic' src='trustrating_stim/white_mw010.bmp'><br><font color='red'><strong>Keep</strong></font></div></div><div class='respDiv'><div class='respDivL'>Match<br>(e)</div><div class='respDivR'>No Match<br>(i)</div></div></div>","e","TARGET","2","trustrating_stim/white_mw010.bmp,trustrating_stim/white_mw092.bmp","1,0","noMatchOutcome","i","3000","trustrating_stim/white_mw010.bmp","red","Keep","REAL","0"
"html-keyboard-response","44","147479","0.0-7.0-5.1","63d13b44f511eff0aef876f2","bdp_wmem","Sun Mar 12 2023 21:05:39 GMT-0700 (Pacific Daylight Time)","566945","Match,No Match","","null","","","","","","<div class='trialBorder'><div class='vertical-center'><img src='img/error.jpg'></div><div class='respDiv'><div class='respDivL'><font style='color:orange'>Match<br>(e)</font></div><div class='respDivR'>No Match<br>(i)</div></div></div>","null","FEEDBACK","","","","","","","","","","",""
"html-keyboard-response","45","147980","0.0-7.0-1.2","63d13b44f511eff0aef876f2","bdp_wmem","Sun Mar 12 2023 21:05:39 GMT-0700 (Pacific Daylight Time)","566945","Match,No Match","","null","","","","","","<div class='trialBorder'><div class='vertical-center'><img src='img/fixation2_sml.jpg'</img></div></div>","null","FIX","","","","","","","","","","",""
"html-keyboard-response","46","152481","0.0-7.0-2.2","63d13b44f511eff0aef876f2","bdp_wmem","Sun Mar 12 2023 21:05:39 GMT-0700 (Pacific Daylight Time)","566945","Match,No Match","","null","","","","","","<div class='trialBorder'><div class='vertical-center'><img style='vertical-align:center; align:center' src='img/fixation2_sml.jpg'></div><div class='arrayDiv3'><div class='tl'><img class='introPic' src='trustrating_stim/white_mw040.bmp'><br><font color='red'><strong>Keep</strong></font></div><div class='tc'><img class='introPic' src='trustrating_stim/white_mw042.bmp'><br><font color='green'><strong>Share</strong></font></div><div class='tr'><img class='introPic' src='trustrating_stim/white_mw010.bmp'><br><font color='green'><strong>Share</strong></font></div></div></div>","null","ARRAY","3","trustrating_stim/white_mw040.bmp,trustrating_stim/white_mw042.bmp,trustrating_stim/white_mw010.bmp","0,1,1","Match","e","4500","","","","",""
"html-keyboard-response","47","156482","0.0-7.0-3.2","63d13b44f511eff0aef876f2","bdp_wmem","Sun Mar 12 2023 21:05:39 GMT-0700 (Pacific Daylight Time)","566945","Match,No Match","","null","","","","","","<div class='trialBorder'><div class='vertical-center'><img src='img/fixation2_sml.jpg'</img></div></div>","null","DELAY","","","","","","","","","","",""
"html-keyboard-response","48","157704","0.0-7.0-4.2","63d13b44f511eff0aef876f2","bdp_wmem","Sun Mar 12 2023 21:05:39 GMT-0700 (Pacific Daylight Time)","566945","Match,No Match","","1220","","","","","","<div class='trialBorder'><div class='targDiv'><div class='tc'><img class='introPic' src='trustrating_stim/white_mw010.bmp'><br><font color='green'><strong>Share</strong></font></div></div><div class='respDiv'><div class='respDivL'>Match<br>(e)</div><div class='respDivR'>No Match<br>(i)</div></div></div>","e","TARGET","3","trustrating_stim/white_mw040.bmp,trustrating_stim/white_mw042.bmp,trustrating_stim/white_mw010.bmp","0,1,1","Match","e","4500","trustrating_stim/white_mw010.bmp","green","Share","REAL","1"
"html-keyboard-response","49","158207","0.0-7.0-5.2","63d13b44f511eff0aef876f2","bdp_wmem","Sun Mar 12 2023 21:05:39 GMT-0700 (Pacific Daylight Time)","566945","Match,No Match","","null","","","","","","<div class='trialBorder'><div class='vertical-center'><img src='img/correct.jpg'></div><div class='respDiv'><div class='respDivL'><font style='color:orange'>Match<br>(e)</font></div><div class='respDivR'>No Match<br>(i)</div></div></div>","null","FEEDBACK","","","","","","","","","","",""
"html-keyboard-response","50","158708","0.0-7.0-1.3","63d13b44f511eff0aef876f2","bdp_wmem","Sun Mar 12 2023 21:05:39 GMT-0700 (Pacific Daylight Time)","566945","Match,No Match","","null","","","","","","<div class='trialBorder'><div class='vertical-center'><img src='img/fixation2_sml.jpg'</img></div></div>","null","FIX","","","","","","","","","","",""
"html-keyboard-response","51","163211","0.0-7.0-2.3","63d13b44f511eff0aef876f2","bdp_wmem","Sun Mar 12 2023 21:05:39 GMT-0700 (Pacific Daylight Time)","566945","Match,No Match","","null","","","","","","<div class='trialBorder'><div class='vertical-center'><img style='vertical-align:center; align:center' src='img/fixation2_sml.jpg'></div><div class='arrayDiv3'><div class='tl'><img class='introPic' src='trustrating_stim/white_mw078.bmp'><br><font color='green'><strong>Share</strong></font></div><div class='tc'><img class='introPic' src='trustrating_stim/white_mw003.bmp'><br><font color='red'><strong>Keep</strong></font></div><div class='tr'><img class='introPic' src='trustrating_stim/white_mw012.bmp'><br><font color='red'><strong>Keep</strong></font></div></div></div>","null","ARRAY","3","trustrating_stim/white_mw078.bmp,trustrating_stim/white_mw003.bmp,trustrating_stim/white_mw012.bmp","1,0,0","Match","e","4500","","","","",""
"html-keyboard-response","52","167214","0.0-7.0-3.3","63d13b44f511eff0aef876f2","bdp_wmem","Sun Mar 12 2023 21:05:39 GMT-0700 (Pacific Daylight Time)","566945","Match,No Match","","null","","","","","","<div class='trialBorder'><div class='vertical-center'><img src='img/fixation2_sml.jpg'</img></div></div>","null","DELAY","","","","","","","","","","",""
"html-keyboard-response","53","168672","0.0-7.0-4.3","63d13b44f511eff0aef876f2","bdp_wmem","Sun Mar 12 2023 21:05:39 GMT-0700 (Pacific Daylight Time)","566945","Match,No Match","","1455","","","","","","<div class='trialBorder'><div class='targDiv'><div class='tc'><img class='introPic' src='trustrating_stim/white_mw012.bmp'><br><font color='red'><strong>Keep</strong></font></div></div><div class='respDiv'><div class='respDivL'>Match<br>(e)</div><div class='respDivR'>No Match<br>(i)</div></div></div>","e","TARGET","3","trustrating_stim/white_mw078.bmp,trustrating_stim/white_mw003.bmp,trustrating_stim/white_mw012.bmp","1,0,0","Match","e","4500","trustrating_stim/white_mw012.bmp","red","Keep","REAL","1"
"html-keyboard-response","54","169174","0.0-7.0-5.3","63d13b44f511eff0aef876f2","bdp_wmem","Sun Mar 12 2023 21:05:39 GMT-0700 (Pacific Daylight Time)","566945","Match,No Match","","null","","","","","","<div class='trialBorder'><div class='vertical-center'><img src='img/correct.jpg'></div><div class='respDiv'><div class='respDivL'><font style='color:orange'>Match<br>(e)</font></div><div class='respDivR'>No Match<br>(i)</div></div></div>","null","FEEDBACK","","","","","","","","","","",""
"html-keyboard-response","55","169676","0.0-7.0-1.4","63d13b44f511eff0aef876f2","bdp_wmem","Sun Mar 12 2023 21:05:39 GMT-0700 (Pacific Daylight Time)","566945","Match,No Match","","null","","","","","","<div class='trialBorder'><div class='vertical-center'><img src='img/fixation2_sml.jpg'</img></div></div>","null","FIX","","","","","","","","","","",""
"html-keyboard-response","56","171178","0.0-7.0-2.4","63d13b44f511eff0aef876f2","bdp_wmem","Sun Mar 12 2023 21:05:39 GMT-0700 (Pacific Daylight Time)","566945","Match,No Match","","null","","","","","","<div class='trialBorder'><div class='vertical-center'><img style='vertical-align:center; align:center' src='img/fixation2_sml.jpg'></div><div class='arrayDiv1'><div class='tc'><img class='introPic' src='trustrating_stim/white_mw038.bmp'><br><font color='green'><strong>Share</strong></font></div></div></div>","null","ARRAY","1","trustrating_stim/white_mw038.bmp","1","Match","e","1500","","","","",""
"html-keyboard-response","57","175180","0.0-7.0-3.4","63d13b44f511eff0aef876f2","bdp_wmem","Sun Mar 12 2023 21:05:39 GMT-0700 (Pacific Daylight Time)","566945","Match,No Match","","null","","","","","","<div class='trialBorder'><div class='vertical-center'><img src='img/fixation2_sml.jpg'</img></div></div>","null","DELAY","","","","","","","","","","",""
"html-keyboard-response","58","176286","0.0-7.0-4.4","63d13b44f511eff0aef876f2","bdp_wmem","Sun Mar 12 2023 21:05:39 GMT-0700 (Pacific Daylight Time)","566945","Match,No Match","","1104","","","","","","<div class='trialBorder'><div class='targDiv'><div class='tc'><img class='introPic' src='trustrating_stim/white_mw038.bmp'><br><font color='green'><strong>Share</strong></font></div></div><div class='respDiv'><div class='respDivL'>Match<br>(e)</div><div class='respDivR'>No Match<br>(i)</div></div></div>","e","TARGET","1","trustrating_stim/white_mw038.bmp","1","Match","e","1500","trustrating_stim/white_mw038.bmp","green","Share","REAL","1"
"html-keyboard-response","59","176787","0.0-7.0-5.4","63d13b44f511eff0aef876f2","bdp_wmem","Sun Mar 12 2023 21:05:39 GMT-0700 (Pacific Daylight Time)","566945","Match,No Match","","null","","","","","","<div class='trialBorder'><div class='vertical-center'><img src='img/correct.jpg'></div><div class='respDiv'><div class='respDivL'><font style='color:orange'>Match<br>(e)</font></div><div class='respDivR'>No Match<br>(i)</div></div></div>","null","FEEDBACK","","","","","","","","","","",""
"html-keyboard-response","60","177290","0.0-7.0-1.5","63d13b44f511eff0aef876f2","bdp_wmem","Sun Mar 12 2023 21:05:39 GMT-0700 (Pacific Daylight Time)","566945","Match,No Match","","null","","","","","","<div class='trialBorder'><div class='vertical-center'><img src='img/fixation2_sml.jpg'</img></div></div>","null","FIX","","","","","","","","","","",""
"html-keyboard-response","61","181793","0.0-7.0-2.5","63d13b44f511eff0aef876f2","bdp_wmem","Sun Mar 12 2023 21:05:39 GMT-0700 (Pacific Daylight Time)","566945","Match,No Match","","null","","","","","","<div class='trialBorder'><div class='vertical-center'><img style='vertical-align:center; align:center' src='img/fixation2_sml.jpg'></div><div class='arrayDiv3'><div class='tl'><img class='introPic' src='trustrating_stim/white_mw013.bmp'><br><font color='red'><strong>Keep</strong></font></div><div class='tc'><img class='introPic' src='trustrating_stim/white_mw070.bmp'><br><font color='green'><strong>Share</strong></font></div><div class='tr'><img class='introPic' src='trustrating_stim/white_mw012.bmp'><br><font color='green'><strong>Share</strong></font></div></div></div>","null","ARRAY","3","trustrating_stim/white_mw013.bmp,trustrating_stim/white_mw070.bmp,trustrating_stim/white_mw012.bmp","0,1,1","Match","e","4500","","","","",""
"html-keyboard-response","62","185795","0.0-7.0-3.5","63d13b44f511eff0aef876f2","bdp_wmem","Sun Mar 12 2023 21:05:39 GMT-0700 (Pacific Daylight Time)","566945","Match,No Match","","null","","","","","","<div class='trialBorder'><div class='vertical-center'><img src='img/fixation2_sml.jpg'</img></div></div>","null","DELAY","","","","","","","","","","",""
"html-keyboard-response","63","187016","0.0-7.0-4.5","63d13b44f511eff0aef876f2","bdp_wmem","Sun Mar 12 2023 21:05:39 GMT-0700 (Pacific Daylight Time)","566945","Match,No Match","","1219","","","","","","<div class='trialBorder'><div class='targDiv'><div class='tc'><img class='introPic' src='trustrating_stim/white_mw070.bmp'><br><font color='green'><strong>Share</strong></font></div></div><div class='respDiv'><div class='respDivL'>Match<br>(e)</div><div class='respDivR'>No Match<br>(i)</div></div></div>","e","TARGET","3","trustrating_stim/white_mw013.bmp,trustrating_stim/white_mw070.bmp,trustrating_stim/white_mw012.bmp","0,1,1","Match","e","4500","trustrating_stim/white_mw070.bmp","green","Share","REAL","1"
"html-keyboard-response","64","187518","0.0-7.0-5.5","63d13b44f511eff0aef876f2","bdp_wmem","Sun Mar 12 2023 21:05:39 GMT-0700 (Pacific Daylight Time)","566945","Match,No Match","","null","","","","","","<div class='trialBorder'><div class='vertical-center'><img src='img/correct.jpg'></div><div class='respDiv'><div class='respDivL'><font style='color:orange'>Match<br>(e)</font></div><div class='respDivR'>No Match<br>(i)</div></div></div>","null","FEEDBACK","","","","","","","","","","",""
"html-keyboard-response","65","188019","0.0-7.0-1.6","63d13b44f511eff0aef876f2","bdp_wmem","Sun Mar 12 2023 21:05:39 GMT-0700 (Pacific Daylight Time)","566945","Match,No Match","","null","","","","","","<div class='trialBorder'><div class='vertical-center'><img src='img/fixation2_sml.jpg'</img></div></div>","null","FIX","","","","","","","","","","",""
"html-keyboard-response","66","192521","0.0-7.0-2.6","63d13b44f511eff0aef876f2","bdp_wmem","Sun Mar 12 2023 21:05:39 GMT-0700 (Pacific Daylight Time)","566945","Match,No Match","","null","","","","","","<div class='trialBorder'><div class='vertical-center'><img style='vertical-align:center; align:center' src='img/fixation2_sml.jpg'></div><div class='arrayDiv3'><div class='tl'><img class='introPic' src='trustrating_stim/white_mw078.bmp'><br><font color='green'><strong>Share</strong></font></div><div class='tc'><img class='introPic' src='trustrating_stim/white_mw013.bmp'><br><font color='green'><strong>Share</strong></font></div><div class='tr'><img class='introPic' src='trustrating_stim/white_mw070.bmp'><br><font color='red'><strong>Keep</strong></font></div></div></div>","null","ARRAY","3","trustrating_stim/white_mw078.bmp,trustrating_stim/white_mw013.bmp,trustrating_stim/white_mw070.bmp","1,1,0","noMatchOutcome","i","4500","","","","",""
"html-keyboard-response","67","196522","0.0-7.0-3.6","63d13b44f511eff0aef876f2","bdp_wmem","Sun Mar 12 2023 21:05:39 GMT-0700 (Pacific Daylight Time)","566945","Match,No Match","","null","","","","","","<div class='trialBorder'><div class='vertical-center'><img src='img/fixation2_sml.jpg'</img></div></div>","null","DELAY","","","","","","","","","","",""
"html-keyboard-response","68","197815","0.0-7.0-4.6","63d13b44f511eff0aef876f2","bdp_wmem","Sun Mar 12 2023 21:05:39 GMT-0700 (Pacific Daylight Time)","566945","Match,No Match","","1289","","","","","","<div class='trialBorder'><div class='targDiv'><div class='tc'><img class='introPic' src='trustrating_stim/white_mw013.bmp'><br><font color='red'><strong>Keep</strong></font></div></div><div class='respDiv'><div class='respDivL'>Match<br>(e)</div><div class='respDivR'>No Match<br>(i)</div></div></div>","i","TARGET","3","trustrating_stim/white_mw078.bmp,trustrating_stim/white_mw013.bmp,trustrating_stim/white_mw070.bmp","1,1,0","noMatchOutcome","i","4500","trustrating_stim/white_mw013.bmp","red","Keep","REAL","1"
"html-keyboard-response","69","198316","0.0-7.0-5.6","63d13b44f511eff0aef876f2","bdp_wmem","Sun Mar 12 2023 21:05:39 GMT-0700 (Pacific Daylight Time)","566945","Match,No Match","","null","","","","","","<div class='trialBorder'><div class='vertical-center'><img src='img/correct.jpg'></div><div class='respDiv'><div class='respDivL'>Match<br>(e)</div><div class='respDivR'><font style='color:orange'>No Match<br>(i)</font></div></div></div>","null","FEEDBACK","","","","","","","","","","",""
"html-keyboard-response","70","198818","0.0-7.0-1.7","63d13b44f511eff0aef876f2","bdp_wmem","Sun Mar 12 2023 21:05:39 GMT-0700 (Pacific Daylight Time)","566945","Match,No Match","","null","","","","","","<div class='trialBorder'><div class='vertical-center'><img src='img/fixation2_sml.jpg'</img></div></div>","null","FIX","","","","","","","","","","",""
"html-keyboard-response","71","200320","0.0-7.0-2.7","63d13b44f511eff0aef876f2","bdp_wmem","Sun Mar 12 2023 21:05:39 GMT-0700 (Pacific Daylight Time)","566945","Match,No Match","","null","","","","","","<div class='trialBorder'><div class='vertical-center'><img style='vertical-align:center; align:center' src='img/fixation2_sml.jpg'></div><div class='arrayDiv1'><div class='tc'><img class='introPic' src='trustrating_stim/white_mw042.bmp'><br><font color='green'><strong>Share</strong></font></div></div></div>","null","ARRAY","1","trustrating_stim/white_mw042.bmp","1","Match","e","1500","","","","",""
"html-keyboard-response","72","204323","0.0-7.0-3.7","63d13b44f511eff0aef876f2","bdp_wmem","Sun Mar 12 2023 21:05:39 GMT-0700 (Pacific Daylight Time)","566945","Match,No Match","","null","","","","","","<div class='trialBorder'><div class='vertical-center'><img src='img/fixation2_sml.jpg'</img></div></div>","null","DELAY","","","","","","","","","","",""
"html-keyboard-response","73","205358","0.0-7.0-4.7","63d13b44f511eff0aef876f2","bdp_wmem","Sun Mar 12 2023 21:05:39 GMT-0700 (Pacific Daylight Time)","566945","Match,No Match","","1033","","","","","","<div class='trialBorder'><div class='targDiv'><div class='tc'><img class='introPic' src='trustrating_stim/white_mw042.bmp'><br><font color='green'><strong>Share</strong></font></div></div><div class='respDiv'><div class='respDivL'>Match<br>(e)</div><div class='respDivR'>No Match<br>(i)</div></div></div>","e","TARGET","1","trustrating_stim/white_mw042.bmp","1","Match","e","1500","trustrating_stim/white_mw042.bmp","green","Share","REAL","1"
"html-keyboard-response","74","205859","0.0-7.0-5.7","63d13b44f511eff0aef876f2","bdp_wmem","Sun Mar 12 2023 21:05:39 GMT-0700 (Pacific Daylight Time)","566945","Match,No Match","","null","","","","","","<div class='trialBorder'><div class='vertical-center'><img src='img/correct.jpg'></div><div class='respDiv'><div class='respDivL'><font style='color:orange'>Match<br>(e)</font></div><div class='respDivR'>No Match<br>(i)</div></div></div>","null","FEEDBACK","","","","","","","","","","",""
"html-keyboard-response","75","206361","0.0-7.0-1.8","63d13b44f511eff0aef876f2","bdp_wmem","Sun Mar 12 2023 21:05:39 GMT-0700 (Pacific Daylight Time)","566945","Match,No Match","","null","","","","","","<div class='trialBorder'><div class='vertical-center'><img src='img/fixation2_sml.jpg'</img></div></div>","null","FIX","","","","","","","","","","",""
"html-keyboard-response","76","207863","0.0-7.0-2.8","63d13b44f511eff0aef876f2","bdp_wmem","Sun Mar 12 2023 21:05:39 GMT-0700 (Pacific Daylight Time)","566945","Match,No Match","","null","","","","","","<div class='trialBorder'><div class='vertical-center'><img style='vertical-align:center; align:center' src='img/fixation2_sml.jpg'></div><div class='arrayDiv1'><div class='tc'><img class='introPic' src='trustrating_stim/white_mw038.bmp'><br><font color='red'><strong>Keep</strong></font></div></div></div>","null","ARRAY","1","trustrating_stim/white_mw038.bmp","0","Match","e","1500","","","","",""
"html-keyboard-response","77","211864","0.0-7.0-3.8","63d13b44f511eff0aef876f2","bdp_wmem","Sun Mar 12 2023 21:05:39 GMT-0700 (Pacific Daylight Time)","566945","Match,No Match","","null","","","","","","<div class='trialBorder'><div class='vertical-center'><img src='img/fixation2_sml.jpg'</img></div></div>","null","DELAY","","","","","","","","","","",""
"html-keyboard-response","78","212990","0.0-7.0-4.8","63d13b44f511eff0aef876f2","bdp_wmem","Sun Mar 12 2023 21:05:39 GMT-0700 (Pacific Daylight Time)","566945","Match,No Match","","1125","","","","","","<div class='trialBorder'><div class='targDiv'><div class='tc'><img class='introPic' src='trustrating_stim/white_mw038.bmp'><br><font color='red'><strong>Keep</strong></font></div></div><div class='respDiv'><div class='respDivL'>Match<br>(e)</div><div class='respDivR'>No Match<br>(i)</div></div></div>","e","TARGET","1","trustrating_stim/white_mw038.bmp","0","Match","e","1500","trustrating_stim/white_mw038.bmp","red","Keep","REAL","1"
"html-keyboard-response","79","213491","0.0-7.0-5.8","63d13b44f511eff0aef876f2","bdp_wmem","Sun Mar 12 2023 21:05:39 GMT-0700 (Pacific Daylight Time)","566945","Match,No Match","","null","","","","","","<div class='trialBorder'><div class='vertical-center'><img src='img/correct.jpg'></div><div class='respDiv'><div class='respDivL'><font style='color:orange'>Match<br>(e)</font></div><div class='respDivR'>No Match<br>(i)</div></div></div>","null","FEEDBACK","","","","","","","","","","",""
"html-keyboard-response","80","213993","0.0-7.0-1.9","63d13b44f511eff0aef876f2","bdp_wmem","Sun Mar 12 2023 21:05:39 GMT-0700 (Pacific Daylight Time)","566945","Match,No Match","","null","","","","","","<div class='trialBorder'><div class='vertical-center'><img src='img/fixation2_sml.jpg'</img></div></div>","null","FIX","","","","","","","","","","",""
"html-keyboard-response","81","218495","0.0-7.0-2.9","63d13b44f511eff0aef876f2","bdp_wmem","Sun Mar 12 2023 21:05:39 GMT-0700 (Pacific Daylight Time)","566945","Match,No Match","","null","","","","","","<div class='trialBorder'><div class='vertical-center'><img style='vertical-align:center; align:center' src='img/fixation2_sml.jpg'></div><div class='arrayDiv3'><div class='tl'><img class='introPic' src='trustrating_stim/white_mw091.bmp'><br><font color='red'><strong>Keep</strong></font></div><div class='tc'><img class='introPic' src='trustrating_stim/white_mw085.bmp'><br><font color='green'><strong>Share</strong></font></div><div class='tr'><img class='introPic' src='trustrating_stim/white_mw070.bmp'><br><font color='red'><strong>Keep</strong></font></div></div></div>","null","ARRAY","3","trustrating_stim/white_mw091.bmp,trustrating_stim/white_mw085.bmp,trustrating_stim/white_mw070.bmp","0,1,0","noMatchOutcome","i","4500","","","","",""
"html-keyboard-response","82","222497","0.0-7.0-3.9","63d13b44f511eff0aef876f2","bdp_wmem","Sun Mar 12 2023 21:05:39 GMT-0700 (Pacific Daylight Time)","566945","Match,No Match","","null","","","","","","<div class='trialBorder'><div class='vertical-center'><img src='img/fixation2_sml.jpg'</img></div></div>","null","DELAY","","","","","","","","","","",""
"html-keyboard-response","83","224383","0.0-7.0-4.9","63d13b44f511eff0aef876f2","bdp_wmem","Sun Mar 12 2023 21:05:39 GMT-0700 (Pacific Daylight Time)","566945","Match,No Match","","1884","","","","","","<div class='trialBorder'><div class='targDiv'><div class='tc'><img class='introPic' src='trustrating_stim/white_mw085.bmp'><br><font color='red'><strong>Keep</strong></font></div></div><div class='respDiv'><div class='respDivL'>Match<br>(e)</div><div class='respDivR'>No Match<br>(i)</div></div></div>","i","TARGET","3","trustrating_stim/white_mw091.bmp,trustrating_stim/white_mw085.bmp,trustrating_stim/white_mw070.bmp","0,1,0","noMatchOutcome","i","4500","trustrating_stim/white_mw085.bmp","red","Keep","REAL","1"
"html-keyboard-response","84","224884","0.0-7.0-5.9","63d13b44f511eff0aef876f2","bdp_wmem","Sun Mar 12 2023 21:05:39 GMT-0700 (Pacific Daylight Time)","566945","Match,No Match","","null","","","","","","<div class='trialBorder'><div class='vertical-center'><img src='img/correct.jpg'></div><div class='respDiv'><div class='respDivL'>Match<br>(e)</div><div class='respDivR'><font style='color:orange'>No Match<br>(i)</font></div></div></div>","null","FEEDBACK","","","","","","","","","","",""
"html-keyboard-response","85","225386","0.0-7.0-1.10","63d13b44f511eff0aef876f2","bdp_wmem","Sun Mar 12 2023 21:05:39 GMT-0700 (Pacific Daylight Time)","566945","Match,No Match","","null","","","","","","<div class='trialBorder'><div class='vertical-center'><img src='img/fixation2_sml.jpg'</img></div></div>","null","FIX","","","","","","","","","","",""
"html-keyboard-response","86","226888","0.0-7.0-2.10","63d13b44f511eff0aef876f2","bdp_wmem","Sun Mar 12 2023 21:05:39 GMT-0700 (Pacific Daylight Time)","566945","Match,No Match","","null","","","","","","<div class='trialBorder'><div class='vertical-center'><img style='vertical-align:center; align:center' src='img/fixation2_sml.jpg'></div><div class='arrayDiv1'><div class='tc'><img class='introPic' src='trustrating_stim/white_mw078.bmp'><br><font color='red'><strong>Keep</strong></font></div></div></div>","null","ARRAY","1","trustrating_stim/white_mw078.bmp","0","Match","e","1500","","","","",""
"html-keyboard-response","87","230889","0.0-7.0-3.10","63d13b44f511eff0aef876f2","bdp_wmem","Sun Mar 12 2023 21:05:39 GMT-0700 (Pacific Daylight Time)","566945","Match,No Match","","null","","","","","","<div class='trialBorder'><div class='vertical-center'><img src='img/fixation2_sml.jpg'</img></div></div>","null","DELAY","","","","","","","","","","",""
"html-keyboard-response","88","231830","0.0-7.0-4.10","63d13b44f511eff0aef876f2","bdp_wmem","Sun Mar 12 2023 21:05:39 GMT-0700 (Pacific Daylight Time)","566945","Match,No Match","","939","","","","","","<div class='trialBorder'><div class='targDiv'><div class='tc'><img class='introPic' src='trustrating_stim/white_mw078.bmp'><br><font color='red'><strong>Keep</strong></font></div></div><div class='respDiv'><div class='respDivL'>Match<br>(e)</div><div class='respDivR'>No Match<br>(i)</div></div></div>","e","TARGET","1","trustrating_stim/white_mw078.bmp","0","Match","e","1500","trustrating_stim/white_mw078.bmp","red","Keep","REAL","1"
"html-keyboard-response","89","232331","0.0-7.0-5.10","63d13b44f511eff0aef876f2","bdp_wmem","Sun Mar 12 2023 21:05:39 GMT-0700 (Pacific Daylight Time)","566945","Match,No Match","","null","","","","","","<div class='trialBorder'><div class='vertical-center'><img src='img/correct.jpg'></div><div class='respDiv'><div class='respDivL'><font style='color:orange'>Match<br>(e)</font></div><div class='respDivR'>No Match<br>(i)</div></div></div>","null","FEEDBACK","","","","","","","","","","",""
"html-keyboard-response","90","232833","0.0-7.0-1.11","63d13b44f511eff0aef876f2","bdp_wmem","Sun Mar 12 2023 21:05:39 GMT-0700 (Pacific Daylight Time)","566945","Match,No Match","","null","","","","","","<div class='trialBorder'><div class='vertical-center'><img src='img/fixation2_sml.jpg'</img></div></div>","null","FIX","","","","","","","","","","",""
"html-keyboard-response","91","237335","0.0-7.0-2.11","63d13b44f511eff0aef876f2","bdp_wmem","Sun Mar 12 2023 21:05:39 GMT-0700 (Pacific Daylight Time)","566945","Match,No Match","","null","","","","","","<div class='trialBorder'><div class='vertical-center'><img style='vertical-align:center; align:center' src='img/fixation2_sml.jpg'></div><div class='arrayDiv3'><div class='tl'><img class='introPic' src='trustrating_stim/white_mw010.bmp'><br><font color='green'><strong>Share</strong></font></div><div class='tc'><img class='introPic' src='trustrating_stim/white_mw003.bmp'><br><font color='red'><strong>Keep</strong></font></div><div class='tr'><img class='introPic' src='trustrating_stim/white_mw078.bmp'><br><font color='red'><strong>Keep</strong></font></div></div></div>","null","ARRAY","3","trustrating_stim/white_mw010.bmp,trustrating_stim/white_mw003.bmp,trustrating_stim/white_mw078.bmp","1,0,0","Match","e","4500","","","","",""
"html-keyboard-response","92","241337","0.0-7.0-3.11","63d13b44f511eff0aef876f2","bdp_wmem","Sun Mar 12 2023 21:05:39 GMT-0700 (Pacific Daylight Time)","566945","Match,No Match","","null","","","","","","<div class='trialBorder'><div class='vertical-center'><img src='img/fixation2_sml.jpg'</img></div></div>","null","DELAY","","","","","","","","","","",""
"html-keyboard-response","93","242433","0.0-7.0-4.11","63d13b44f511eff0aef876f2","bdp_wmem","Sun Mar 12 2023 21:05:39 GMT-0700 (Pacific Daylight Time)","566945","Match,No Match","","1095","","","","","","<div class='trialBorder'><div class='targDiv'><div class='tc'><img class='introPic' src='trustrating_stim/white_mw010.bmp'><br><font color='green'><strong>Share</strong></font></div></div><div class='respDiv'><div class='respDivL'>Match<br>(e)</div><div class='respDivR'>No Match<br>(i)</div></div></div>","e","TARGET","3","trustrating_stim/white_mw010.bmp,trustrating_stim/white_mw003.bmp,trustrating_stim/white_mw078.bmp","1,0,0","Match","e","4500","trustrating_stim/white_mw010.bmp","green","Share","REAL","1"
"html-keyboard-response","94","242935","0.0-7.0-5.11","63d13b44f511eff0aef876f2","bdp_wmem","Sun Mar 12 2023 21:05:39 GMT-0700 (Pacific Daylight Time)","566945","Match,No Match","","null","","","","","","<div class='trialBorder'><div class='vertical-center'><img src='img/correct.jpg'></div><div class='respDiv'><div class='respDivL'><font style='color:orange'>Match<br>(e)</font></div><div class='respDivR'>No Match<br>(i)</div></div></div>","null","FEEDBACK","","","","","","","","","","",""
"html-keyboard-response","95","243436","0.0-7.0-1.12","63d13b44f511eff0aef876f2","bdp_wmem","Sun Mar 12 2023 21:05:39 GMT-0700 (Pacific Daylight Time)","566945","Match,No Match","","null","","","","","","<div class='trialBorder'><div class='vertical-center'><img src='img/fixation2_sml.jpg'</img></div></div>","null","FIX","","","","","","","","","","",""
"html-keyboard-response","96","246438","0.0-7.0-2.12","63d13b44f511eff0aef876f2","bdp_wmem","Sun Mar 12 2023 21:05:39 GMT-0700 (Pacific Daylight Time)","566945","Match,No Match","","null","","","","","","<div class='trialBorder'><div class='vertical-center'><img style='vertical-align:center; align:center' src='img/fixation2_sml.jpg'></div><div class='arrayDiv2'><div class='tl'><img class='introPic' src='trustrating_stim/white_mw042.bmp'><br><font color='red'><strong>Keep</strong></font></div><div class='tr'><img class='introPic' src='trustrating_stim/white_mw003.bmp'><br><font color='green'><strong>Share</strong></font></div></div></div>","null","ARRAY","2","trustrating_stim/white_mw042.bmp,trustrating_stim/white_mw003.bmp","0,1","Match","e","3000","","","","",""
"html-keyboard-response","97","250440","0.0-7.0-3.12","63d13b44f511eff0aef876f2","bdp_wmem","Sun Mar 12 2023 21:05:39 GMT-0700 (Pacific Daylight Time)","566945","Match,No Match","","null","","","","","","<div class='trialBorder'><div class='vertical-center'><img src='img/fixation2_sml.jpg'</img></div></div>","null","DELAY","","","","","","","","","","",""
"html-keyboard-response","98","251358","0.0-7.0-4.12","63d13b44f511eff0aef876f2","bdp_wmem","Sun Mar 12 2023 21:05:39 GMT-0700 (Pacific Daylight Time)","566945","Match,No Match","","916","","","","","","<div class='trialBorder'><div class='targDiv'><div class='tc'><img class='introPic' src='trustrating_stim/white_mw042.bmp'><br><font color='red'><strong>Keep</strong></font></div></div><div class='respDiv'><div class='respDivL'>Match<br>(e)</div><div class='respDivR'>No Match<br>(i)</div></div></div>","e","TARGET","2","trustrating_stim/white_mw042.bmp,trustrating_stim/white_mw003.bmp","0,1","Match","e","3000","trustrating_stim/white_mw042.bmp","red","Keep","REAL","1"
"html-keyboard-response","99","251859","0.0-7.0-5.12","63d13b44f511eff0aef876f2","bdp_wmem","Sun Mar 12 2023 21:05:39 GMT-0700 (Pacific Daylight Time)","566945","Match,No Match","","null","","","","","","<div class='trialBorder'><div class='vertical-center'><img src='img/correct.jpg'></div><div class='respDiv'><div class='respDivL'><font style='color:orange'>Match<br>(e)</font></div><div class='respDivR'>No Match<br>(i)</div></div></div>","null","FEEDBACK","","","","","","","","","","",""
"html-keyboard-response","100","252359","0.0-7.0-1.13","63d13b44f511eff0aef876f2","bdp_wmem","Sun Mar 12 2023 21:05:39 GMT-0700 (Pacific Daylight Time)","566945","Match,No Match","","null","","","","","","<div class='trialBorder'><div class='vertical-center'><img src='img/fixation2_sml.jpg'</img></div></div>","null","FIX","","","","","","","","","","",""
"html-keyboard-response","101","256861","0.0-7.0-2.13","63d13b44f511eff0aef876f2","bdp_wmem","Sun Mar 12 2023 21:05:39 GMT-0700 (Pacific Daylight Time)","566945","Match,No Match","","null","","","","","","<div class='trialBorder'><div class='vertical-center'><img style='vertical-align:center; align:center' src='img/fixation2_sml.jpg'></div><div class='arrayDiv3'><div class='tl'><img class='introPic' src='trustrating_stim/white_mw078.bmp'><br><font color='green'><strong>Share</strong></font></div><div class='tc'><img class='introPic' src='trustrating_stim/white_mw013.bmp'><br><font color='red'><strong>Keep</strong></font></div><div class='tr'><img class='introPic' src='trustrating_stim/white_mw012.bmp'><br><font color='red'><strong>Keep</strong></font></div></div></div>","null","ARRAY","3","trustrating_stim/white_mw078.bmp,trustrating_stim/white_mw013.bmp,trustrating_stim/white_mw012.bmp","1,0,0","Match","e","4500","","","","",""
"html-keyboard-response","102","260862","0.0-7.0-3.13","63d13b44f511eff0aef876f2","bdp_wmem","Sun Mar 12 2023 21:05:39 GMT-0700 (Pacific Daylight Time)","566945","Match,No Match","","null","","","","","","<div class='trialBorder'><div class='vertical-center'><img src='img/fixation2_sml.jpg'</img></div></div>","null","DELAY","","","","","","","","","","",""
"html-keyboard-response","103","262374","0.0-7.0-4.13","63d13b44f511eff0aef876f2","bdp_wmem","Sun Mar 12 2023 21:05:39 GMT-0700 (Pacific Daylight Time)","566945","Match,No Match","","1509","","","","","","<div class='trialBorder'><div class='targDiv'><div class='tc'><img class='introPic' src='trustrating_stim/white_mw013.bmp'><br><font color='red'><strong>Keep</strong></font></div></div><div class='respDiv'><div class='respDivL'>Match<br>(e)</div><div class='respDivR'>No Match<br>(i)</div></div></div>","e","TARGET","3","trustrating_stim/white_mw078.bmp,trustrating_stim/white_mw013.bmp,trustrating_stim/white_mw012.bmp","1,0,0","Match","e","4500","trustrating_stim/white_mw013.bmp","red","Keep","REAL","1"
"html-keyboard-response","104","262880","0.0-7.0-5.13","63d13b44f511eff0aef876f2","bdp_wmem","Sun Mar 12 2023 21:05:39 GMT-0700 (Pacific Daylight Time)","566945","Match,No Match","","null","","","","","","<div class='trialBorder'><div class='vertical-center'><img src='img/correct.jpg'></div><div class='respDiv'><div class='respDivL'><font style='color:orange'>Match<br>(e)</font></div><div class='respDivR'>No Match<br>(i)</div></div></div>","null","FEEDBACK","","","","","","","","","","",""
"html-keyboard-response","105","263383","0.0-7.0-1.14","63d13b44f511eff0aef876f2","bdp_wmem","Sun Mar 12 2023 21:05:39 GMT-0700 (Pacific Daylight Time)","566945","Match,No Match","","null","","","","","","<div class='trialBorder'><div class='vertical-center'><img src='img/fixation2_sml.jpg'</img></div></div>","null","FIX","","","","","","","","","","",""
"html-keyboard-response","106","264885","0.0-7.0-2.14","63d13b44f511eff0aef876f2","bdp_wmem","Sun Mar 12 2023 21:05:39 GMT-0700 (Pacific Daylight Time)","566945","Match,No Match","","null","","","","","","<div class='trialBorder'><div class='vertical-center'><img style='vertical-align:center; align:center' src='img/fixation2_sml.jpg'></div><div class='arrayDiv1'><div class='tc'><img class='introPic' src='trustrating_stim/white_mw010.bmp'><br><font color='green'><strong>Share</strong></font></div></div></div>","null","ARRAY","1","trustrating_stim/white_mw010.bmp","1","Match","e","1500","","","","",""
"html-keyboard-response","107","268887","0.0-7.0-3.14","63d13b44f511eff0aef876f2","bdp_wmem","Sun Mar 12 2023 21:05:39 GMT-0700 (Pacific Daylight Time)","566945","Match,No Match","","null","","","","","","<div class='trialBorder'><div class='vertical-center'><img src='img/fixation2_sml.jpg'</img></div></div>","null","DELAY","","","","","","","","","","",""
"html-keyboard-response","108","269622","0.0-7.0-4.14","63d13b44f511eff0aef876f2","bdp_wmem","Sun Mar 12 2023 21:05:39 GMT-0700 (Pacific Daylight Time)","566945","Match,No Match","","735","","","","","","<div class='trialBorder'><div class='targDiv'><div class='tc'><img class='introPic' src='trustrating_stim/white_mw010.bmp'><br><font color='green'><strong>Share</strong></font></div></div><div class='respDiv'><div class='respDivL'>Match<br>(e)</div><div class='respDivR'>No Match<br>(i)</div></div></div>","e","TARGET","1","trustrating_stim/white_mw010.bmp","1","Match","e","1500","trustrating_stim/white_mw010.bmp","green","Share","REAL","1"
"html-keyboard-response","109","270126","0.0-7.0-5.14","63d13b44f511eff0aef876f2","bdp_wmem","Sun Mar 12 2023 21:05:39 GMT-0700 (Pacific Daylight Time)","566945","Match,No Match","","null","","","","","","<div class='trialBorder'><div class='vertical-center'><img src='img/correct.jpg'></div><div class='respDiv'><div class='respDivL'><font style='color:orange'>Match<br>(e)</font></div><div class='respDivR'>No Match<br>(i)</div></div></div>","null","FEEDBACK","","","","","","","","","","",""
"html-keyboard-response","110","270629","0.0-7.0-1.15","63d13b44f511eff0aef876f2","bdp_wmem","Sun Mar 12 2023 21:05:39 GMT-0700 (Pacific Daylight Time)","566945","Match,No Match","","null","","","","","","<div class='trialBorder'><div class='vertical-center'><img src='img/fixation2_sml.jpg'</img></div></div>","null","FIX","","","","","","","","","","",""
"html-keyboard-response","111","272130","0.0-7.0-2.15","63d13b44f511eff0aef876f2","bdp_wmem","Sun Mar 12 2023 21:05:39 GMT-0700 (Pacific Daylight Time)","566945","Match,No Match","","null","","","","","","<div class='trialBorder'><div class='vertical-center'><img style='vertical-align:center; align:center' src='img/fixation2_sml.jpg'></div><div class='arrayDiv1'><div class='tc'><img class='introPic' src='trustrating_stim/white_mw078.bmp'><br><font color='green'><strong>Share</strong></font></div></div></div>","null","ARRAY","1","trustrating_stim/white_mw078.bmp","1","noMatchFace","i","1500","","","","",""
"html-keyboard-response","112","276131","0.0-7.0-3.15","63d13b44f511eff0aef876f2","bdp_wmem","Sun Mar 12 2023 21:05:39 GMT-0700 (Pacific Daylight Time)","566945","Match,No Match","","null","","","","","","<div class='trialBorder'><div class='vertical-center'><img src='img/fixation2_sml.jpg'</img></div></div>","null","DELAY","","","","","","","","","","",""
"html-keyboard-response","113","277296","0.0-7.0-4.15","63d13b44f511eff0aef876f2","bdp_wmem","Sun Mar 12 2023 21:05:39 GMT-0700 (Pacific Daylight Time)","566945","Match,No Match","","1164","","","","","","<div class='trialBorder'><div class='targDiv'><div class='tc'><img class='introPic' src='trustrating_stim/white_mw070.bmp'><br><font color='green'><strong>Share</strong></font></div></div><div class='respDiv'><div class='respDivL'>Match<br>(e)</div><div class='respDivR'>No Match<br>(i)</div></div></div>","i","TARGET","1","trustrating_stim/white_mw078.bmp","1","noMatchFace","i","1500","trustrating_stim/white_mw070.bmp","green","Share","REAL","1"
"html-keyboard-response","114","277797","0.0-7.0-5.15","63d13b44f511eff0aef876f2","bdp_wmem","Sun Mar 12 2023 21:05:39 GMT-0700 (Pacific Daylight Time)","566945","Match,No Match","","null","","","","","","<div class='trialBorder'><div class='vertical-center'><img src='img/correct.jpg'></div><div class='respDiv'><div class='respDivL'>Match<br>(e)</div><div class='respDivR'><font style='color:orange'>No Match<br>(i)</font></div></div></div>","null","FEEDBACK","","","","","","","","","","",""
"html-keyboard-response","115","278307","0.0-7.0-1.16","63d13b44f511eff0aef876f2","bdp_wmem","Sun Mar 12 2023 21:05:39 GMT-0700 (Pacific Daylight Time)","566945","Match,No Match","","null","","","","","","<div class='trialBorder'><div class='vertical-center'><img src='img/fixation2_sml.jpg'</img></div></div>","null","FIX","","","","","","","","","","",""
"html-keyboard-response","116","281309","0.0-7.0-2.16","63d13b44f511eff0aef876f2","bdp_wmem","Sun Mar 12 2023 21:05:39 GMT-0700 (Pacific Daylight Time)","566945","Match,No Match","","null","","","","","","<div class='trialBorder'><div class='vertical-center'><img style='vertical-align:center; align:center' src='img/fixation2_sml.jpg'></div><div class='arrayDiv2'><div class='tl'><img class='introPic' src='trustrating_stim/white_mw092.bmp'><br><font color='green'><strong>Share</strong></font></div><div class='tr'><img class='introPic' src='trustrating_stim/white_mw010.bmp'><br><font color='red'><strong>Keep</strong></font></div></div></div>","null","ARRAY","2","trustrating_stim/white_mw092.bmp,trustrating_stim/white_mw010.bmp","1,0","Match","e","3000","","","","",""
"html-keyboard-response","117","285310","0.0-7.0-3.16","63d13b44f511eff0aef876f2","bdp_wmem","Sun Mar 12 2023 21:05:39 GMT-0700 (Pacific Daylight Time)","566945","Match,No Match","","null","","","","","","<div class='trialBorder'><div class='vertical-center'><img src='img/fixation2_sml.jpg'</img></div></div>","null","DELAY","","","","","","","","","","",""
"html-keyboard-response","118","286552","0.0-7.0-4.16","63d13b44f511eff0aef876f2","bdp_wmem","Sun Mar 12 2023 21:05:39 GMT-0700 (Pacific Daylight Time)","566945","Match,No Match","","1241","","","","","","<div class='trialBorder'><div class='targDiv'><div class='tc'><img class='introPic' src='trustrating_stim/white_mw010.bmp'><br><font color='red'><strong>Keep</strong></font></div></div><div class='respDiv'><div class='respDivL'>Match<br>(e)</div><div class='respDivR'>No Match<br>(i)</div></div></div>","i","TARGET","2","trustrating_stim/white_mw092.bmp,trustrating_stim/white_mw010.bmp","1,0","Match","e","3000","trustrating_stim/white_mw010.bmp","red","Keep","REAL","0"
"html-keyboard-response","119","287054","0.0-7.0-5.16","63d13b44f511eff0aef876f2","bdp_wmem","Sun Mar 12 2023 21:05:39 GMT-0700 (Pacific Daylight Time)","566945","Match,No Match","","null","","","","","","<div class='trialBorder'><div class='vertical-center'><img src='img/error.jpg'></div><div class='respDiv'><div class='respDivL'>Match<br>(e)</div><div class='respDivR'><font style='color:orange'>No Match<br>(i)</font></div></div></div>","null","FEEDBACK","","","","","","","","","","",""
"html-keyboard-response","120","287555","0.0-7.0-1.17","63d13b44f511eff0aef876f2","bdp_wmem","Sun Mar 12 2023 21:05:39 GMT-0700 (Pacific Daylight Time)","566945","Match,No Match","","null","","","","","","<div class='trialBorder'><div class='vertical-center'><img src='img/fixation2_sml.jpg'</img></div></div>","null","FIX","","","","","","","","","","",""
"html-keyboard-response","121","289057","0.0-7.0-2.17","63d13b44f511eff0aef876f2","bdp_wmem","Sun Mar 12 2023 21:05:39 GMT-0700 (Pacific Daylight Time)","566945","Match,No Match","","null","","","","","","<div class='trialBorder'><div class='vertical-center'><img style='vertical-align:center; align:center' src='img/fixation2_sml.jpg'></div><div class='arrayDiv1'><div class='tc'><img class='introPic' src='trustrating_stim/white_mw003.bmp'><br><font color='green'><strong>Share</strong></font></div></div></div>","null","ARRAY","1","trustrating_stim/white_mw003.bmp","1","noMatchFace","i","1500","","","","",""
"html-keyboard-response","122","293058","0.0-7.0-3.17","63d13b44f511eff0aef876f2","bdp_wmem","Sun Mar 12 2023 21:05:39 GMT-0700 (Pacific Daylight Time)","566945","Match,No Match","","null","","","","","","<div class='trialBorder'><div class='vertical-center'><img src='img/fixation2_sml.jpg'</img></div></div>","null","DELAY","","","","","","","","","","",""
"html-keyboard-response","123","294224","0.0-7.0-4.17","63d13b44f511eff0aef876f2","bdp_wmem","Sun Mar 12 2023 21:05:39 GMT-0700 (Pacific Daylight Time)","566945","Match,No Match","","1165","","","","","","<div class='trialBorder'><div class='targDiv'><div class='tc'><img class='introPic' src='trustrating_stim/white_mw078.bmp'><br><font color='green'><strong>Share</strong></font></div></div><div class='respDiv'><div class='respDivL'>Match<br>(e)</div><div class='respDivR'>No Match<br>(i)</div></div></div>","i","TARGET","1","trustrating_stim/white_mw003.bmp","1","noMatchFace","i","1500","trustrating_stim/white_mw078.bmp","green","Share","REAL","1"
"html-keyboard-response","124","294725","0.0-7.0-5.17","63d13b44f511eff0aef876f2","bdp_wmem","Sun Mar 12 2023 21:05:39 GMT-0700 (Pacific Daylight Time)","566945","Match,No Match","","null","","","","","","<div class='trialBorder'><div class='vertical-center'><img src='img/correct.jpg'></div><div class='respDiv'><div class='respDivL'>Match<br>(e)</div><div class='respDivR'><font style='color:orange'>No Match<br>(i)</font></div></div></div>","null","FEEDBACK","","","","","","","","","","",""
"html-keyboard-response","125","295226","0.0-7.0-1.18","63d13b44f511eff0aef876f2","bdp_wmem","Sun Mar 12 2023 21:05:39 GMT-0700 (Pacific Daylight Time)","566945","Match,No Match","","null","","","","","","<div class='trialBorder'><div class='vertical-center'><img src='img/fixation2_sml.jpg'</img></div></div>","null","FIX","","","","","","","","","","",""
"html-keyboard-response","126","296729","0.0-7.0-2.18","63d13b44f511eff0aef876f2","bdp_wmem","Sun Mar 12 2023 21:05:39 GMT-0700 (Pacific Daylight Time)","566945","Match,No Match","","null","","","","","","<div class='trialBorder'><div class='vertical-center'><img style='vertical-align:center; align:center' src='img/fixation2_sml.jpg'></div><div class='arrayDiv1'><div class='tc'><img class='introPic' src='trustrating_stim/white_mw091.bmp'><br><font color='red'><strong>Keep</strong></font></div></div></div>","null","ARRAY","1","trustrating_stim/white_mw091.bmp","0","noMatchOutcome","i","1500","","","","",""
"html-keyboard-response","127","300731","0.0-7.0-3.18","63d13b44f511eff0aef876f2","bdp_wmem","Sun Mar 12 2023 21:05:39 GMT-0700 (Pacific Daylight Time)","566945","Match,No Match","","null","","","","","","<div class='trialBorder'><div class='vertical-center'><img src='img/fixation2_sml.jpg'</img></div></div>","null","DELAY","","","","","","","","","","",""
"html-keyboard-response","128","302552","0.0-7.0-4.18","63d13b44f511eff0aef876f2","bdp_wmem","Sun Mar 12 2023 21:05:39 GMT-0700 (Pacific Daylight Time)","566945","Match,No Match","","1819","","","","","","<div class='trialBorder'><div class='targDiv'><div class='tc'><img class='introPic' src='trustrating_stim/white_mw091.bmp'><br><font color='green'><strong>Share</strong></font></div></div><div class='respDiv'><div class='respDivL'>Match<br>(e)</div><div class='respDivR'>No Match<br>(i)</div></div></div>","i","TARGET","1","trustrating_stim/white_mw091.bmp","0","noMatchOutcome","i","1500","trustrating_stim/white_mw091.bmp","green","Share","REAL","1"
"html-keyboard-response","129","303055","0.0-7.0-5.18","63d13b44f511eff0aef876f2","bdp_wmem","Sun Mar 12 2023 21:05:39 GMT-0700 (Pacific Daylight Time)","566945","Match,No Match","","null","","","","","","<div class='trialBorder'><div class='vertical-center'><img src='img/correct.jpg'></div><div class='respDiv'><div class='respDivL'>Match<br>(e)</div><div class='respDivR'><font style='color:orange'>No Match<br>(i)</font></div></div></div>","null","FEEDBACK","","","","","","","","","","",""
"html-keyboard-response","130","303556","0.0-7.0-1.19","63d13b44f511eff0aef876f2","bdp_wmem","Sun Mar 12 2023 21:05:39 GMT-0700 (Pacific Daylight Time)","566945","Match,No Match","","null","","","","","","<div class='trialBorder'><div class='vertical-center'><img src='img/fixation2_sml.jpg'</img></div></div>","null","FIX","","","","","","","","","","",""
"html-keyboard-response","131","306558","0.0-7.0-2.19","63d13b44f511eff0aef876f2","bdp_wmem","Sun Mar 12 2023 21:05:39 GMT-0700 (Pacific Daylight Time)","566945","Match,No Match","","null","","","","","","<div class='trialBorder'><div class='vertical-center'><img style='vertical-align:center; align:center' src='img/fixation2_sml.jpg'></div><div class='arrayDiv2'><div class='tl'><img class='introPic' src='trustrating_stim/white_mw040.bmp'><br><font color='red'><strong>Keep</strong></font></div><div class='tr'><img class='introPic' src='trustrating_stim/white_mw038.bmp'><br><font color='green'><strong>Share</strong></font></div></div></div>","null","ARRAY","2","trustrating_stim/white_mw040.bmp,trustrating_stim/white_mw038.bmp","0,1","Match","e","3000","","","","",""
"html-keyboard-response","132","310560","0.0-7.0-3.19","63d13b44f511eff0aef876f2","bdp_wmem","Sun Mar 12 2023 21:05:39 GMT-0700 (Pacific Daylight Time)","566945","Match,No Match","","null","","","","","","<div class='trialBorder'><div class='vertical-center'><img src='img/fixation2_sml.jpg'</img></div></div>","null","DELAY","","","","","","","","","","",""
"html-keyboard-response","133","311282","0.0-7.0-4.19","63d13b44f511eff0aef876f2","bdp_wmem","Sun Mar 12 2023 21:05:39 GMT-0700 (Pacific Daylight Time)","566945","Match,No Match","","719","","","","","","<div class='trialBorder'><div class='targDiv'><div class='tc'><img class='introPic' src='trustrating_stim/white_mw040.bmp'><br><font color='red'><strong>Keep</strong></font></div></div><div class='respDiv'><div class='respDivL'>Match<br>(e)</div><div class='respDivR'>No Match<br>(i)</div></div></div>","e","TARGET","2","trustrating_stim/white_mw040.bmp,trustrating_stim/white_mw038.bmp","0,1","Match","e","3000","trustrating_stim/white_mw040.bmp","red","Keep","REAL","1"
"html-keyboard-response","134","311785","0.0-7.0-5.19","63d13b44f511eff0aef876f2","bdp_wmem","Sun Mar 12 2023 21:05:39 GMT-0700 (Pacific Daylight Time)","566945","Match,No Match","","null","","","","","","<div class='trialBorder'><div class='vertical-center'><img src='img/correct.jpg'></div><div class='respDiv'><div class='respDivL'><font style='color:orange'>Match<br>(e)</font></div><div class='respDivR'>No Match<br>(i)</div></div></div>","null","FEEDBACK","","","","","","","","","","",""
"html-keyboard-response","135","312288","0.0-7.0-1.20","63d13b44f511eff0aef876f2","bdp_wmem","Sun Mar 12 2023 21:05:39 GMT-0700 (Pacific Daylight Time)","566945","Match,No Match","","null","","","","","","<div class='trialBorder'><div class='vertical-center'><img src='img/fixation2_sml.jpg'</img></div></div>","null","FIX","","","","","","","","","","",""
"html-keyboard-response","136","316790","0.0-7.0-2.20","63d13b44f511eff0aef876f2","bdp_wmem","Sun Mar 12 2023 21:05:39 GMT-0700 (Pacific Daylight Time)","566945","Match,No Match","","null","","","","","","<div class='trialBorder'><div class='vertical-center'><img style='vertical-align:center; align:center' src='img/fixation2_sml.jpg'></div><div class='arrayDiv3'><div class='tl'><img class='introPic' src='trustrating_stim/white_mw070.bmp'><br><font color='green'><strong>Share</strong></font></div><div class='tc'><img class='introPic' src='trustrating_stim/white_mw078.bmp'><br><font color='red'><strong>Keep</strong></font></div><div class='tr'><img class='introPic' src='trustrating_stim/white_mw091.bmp'><br><font color='green'><strong>Share</strong></font></div></div></div>","null","ARRAY","3","trustrating_stim/white_mw070.bmp,trustrating_stim/white_mw078.bmp,trustrating_stim/white_mw091.bmp","1,0,1","noMatchFace","i","4500","","","","",""
"html-keyboard-response","137","320793","0.0-7.0-3.20","63d13b44f511eff0aef876f2","bdp_wmem","Sun Mar 12 2023 21:05:39 GMT-0700 (Pacific Daylight Time)","566945","Match,No Match","","null","","","","","","<div class='trialBorder'><div class='vertical-center'><img src='img/fixation2_sml.jpg'</img></div></div>","null","DELAY","","","","","","","","","","",""
"html-keyboard-response","138","321729","0.0-7.0-4.20","63d13b44f511eff0aef876f2","bdp_wmem","Sun Mar 12 2023 21:05:39 GMT-0700 (Pacific Daylight Time)","566945","Match,No Match","","936","","","","","","<div class='trialBorder'><div class='targDiv'><div class='tc'><img class='introPic' src='trustrating_stim/white_mw042.bmp'><br><font color='green'><strong>Share</strong></font></div></div><div class='respDiv'><div class='respDivL'>Match<br>(e)</div><div class='respDivR'>No Match<br>(i)</div></div></div>","e","TARGET","3","trustrating_stim/white_mw070.bmp,trustrating_stim/white_mw078.bmp,trustrating_stim/white_mw091.bmp","1,0,1","noMatchFace","i","4500","trustrating_stim/white_mw042.bmp","green","Share","REAL","0"
"html-keyboard-response","139","322231","0.0-7.0-5.20","63d13b44f511eff0aef876f2","bdp_wmem","Sun Mar 12 2023 21:05:39 GMT-0700 (Pacific Daylight Time)","566945","Match,No Match","","null","","","","","","<div class='trialBorder'><div class='vertical-center'><img src='img/error.jpg'></div><div class='respDiv'><div class='respDivL'><font style='color:orange'>Match<br>(e)</font></div><div class='respDivR'>No Match<br>(i)</div></div></div>","null","FEEDBACK","","","","","","","","","","",""
"html-keyboard-response","140","322733","0.0-7.0-1.21","63d13b44f511eff0aef876f2","bdp_wmem","Sun Mar 12 2023 21:05:39 GMT-0700 (Pacific Daylight Time)","566945","Match,No Match","","null","","","","","","<div class='trialBorder'><div class='vertical-center'><img src='img/fixation2_sml.jpg'</img></div></div>","null","FIX","","","","","","","","","","",""
"html-keyboard-response","141","325734","0.0-7.0-2.21","63d13b44f511eff0aef876f2","bdp_wmem","Sun Mar 12 2023 21:05:39 GMT-0700 (Pacific Daylight Time)","566945","Match,No Match","","null","","","","","","<div class='trialBorder'><div class='vertical-center'><img style='vertical-align:center; align:center' src='img/fixation2_sml.jpg'></div><div class='arrayDiv2'><div class='tl'><img class='introPic' src='trustrating_stim/white_mw078.bmp'><br><font color='green'><strong>Share</strong></font></div><div class='tr'><img class='introPic' src='trustrating_stim/white_mw003.bmp'><br><font color='red'><strong>Keep</strong></font></div></div></div>","null","ARRAY","2","trustrating_stim/white_mw078.bmp,trustrating_stim/white_mw003.bmp","1,0","noMatchFace","i","3000","","","","",""
"html-keyboard-response","142","329735","0.0-7.0-3.21","63d13b44f511eff0aef876f2","bdp_wmem","Sun Mar 12 2023 21:05:39 GMT-0700 (Pacific Daylight Time)","566945","Match,No Match","","null","","","","","","<div class='trialBorder'><div class='vertical-center'><img src='img/fixation2_sml.jpg'</img></div></div>","null","DELAY","","","","","","","","","","",""
"html-keyboard-response","143","330880","0.0-7.0-4.21","63d13b44f511eff0aef876f2","bdp_wmem","Sun Mar 12 2023 21:05:39 GMT-0700 (Pacific Daylight Time)","566945","Match,No Match","","1142","","","","","","<div class='trialBorder'><div class='targDiv'><div class='tc'><img class='introPic' src='trustrating_stim/white_mw013.bmp'><br><font color='green'><strong>Share</strong></font></div></div><div class='respDiv'><div class='respDivL'>Match<br>(e)</div><div class='respDivR'>No Match<br>(i)</div></div></div>","i","TARGET","2","trustrating_stim/white_mw078.bmp,trustrating_stim/white_mw003.bmp","1,0","noMatchFace","i","3000","trustrating_stim/white_mw013.bmp","green","Share","REAL","1"
"html-keyboard-response","144","331383","0.0-7.0-5.21","63d13b44f511eff0aef876f2","bdp_wmem","Sun Mar 12 2023 21:05:39 GMT-0700 (Pacific Daylight Time)","566945","Match,No Match","","null","","","","","","<div class='trialBorder'><div class='vertical-center'><img src='img/correct.jpg'></div><div class='respDiv'><div class='respDivL'>Match<br>(e)</div><div class='respDivR'><font style='color:orange'>No Match<br>(i)</font></div></div></div>","null","FEEDBACK","","","","","","","","","","",""
"html-keyboard-response","145","331885","0.0-7.0-1.22","63d13b44f511eff0aef876f2","bdp_wmem","Sun Mar 12 2023 21:05:39 GMT-0700 (Pacific Daylight Time)","566945","Match,No Match","","null","","","","","","<div class='trialBorder'><div class='vertical-center'><img src='img/fixation2_sml.jpg'</img></div></div>","null","FIX","","","","","","","","","","",""
"html-keyboard-response","146","333386","0.0-7.0-2.22","63d13b44f511eff0aef876f2","bdp_wmem","Sun Mar 12 2023 21:05:39 GMT-0700 (Pacific Daylight Time)","566945","Match,No Match","","null","","","","","","<div class='trialBorder'><div class='vertical-center'><img style='vertical-align:center; align:center' src='img/fixation2_sml.jpg'></div><div class='arrayDiv1'><div class='tc'><img class='introPic' src='trustrating_stim/white_mw003.bmp'><br><font color='red'><strong>Keep</strong></font></div></div></div>","null","ARRAY","1","trustrating_stim/white_mw003.bmp","0","Match","e","1500","","","","",""
"html-keyboard-response","147","337388","0.0-7.0-3.22","63d13b44f511eff0aef876f2","bdp_wmem","Sun Mar 12 2023 21:05:39 GMT-0700 (Pacific Daylight Time)","566945","Match,No Match","","null","","","","","","<div class='trialBorder'><div class='vertical-center'><img src='img/fixation2_sml.jpg'</img></div></div>","null","DELAY","","","","","","","","","","",""
"html-keyboard-response","148","338622","0.0-7.0-4.22","63d13b44f511eff0aef876f2","bdp_wmem","Sun Mar 12 2023 21:05:39 GMT-0700 (Pacific Daylight Time)","566945","Match,No Match","","1232","","","","","","<div class='trialBorder'><div class='targDiv'><div class='tc'><img class='introPic' src='trustrating_stim/white_mw003.bmp'><br><font color='red'><strong>Keep</strong></font></div></div><div class='respDiv'><div class='respDivL'>Match<br>(e)</div><div class='respDivR'>No Match<br>(i)</div></div></div>","e","TARGET","1","trustrating_stim/white_mw003.bmp","0","Match","e","1500","trustrating_stim/white_mw003.bmp","red","Keep","REAL","1"
"html-keyboard-response","149","339124","0.0-7.0-5.22","63d13b44f511eff0aef876f2","bdp_wmem","Sun Mar 12 2023 21:05:39 GMT-0700 (Pacific Daylight Time)","566945","Match,No Match","","null","","","","","","<div class='trialBorder'><div class='vertical-center'><img src='img/correct.jpg'></div><div class='respDiv'><div class='respDivL'><font style='color:orange'>Match<br>(e)</font></div><div class='respDivR'>No Match<br>(i)</div></div></div>","null","FEEDBACK","","","","","","","","","","",""
"html-keyboard-response","150","339627","0.0-7.0-1.23","63d13b44f511eff0aef876f2","bdp_wmem","Sun Mar 12 2023 21:05:39 GMT-0700 (Pacific Daylight Time)","566945","Match,No Match","","null","","","","","","<div class='trialBorder'><div class='vertical-center'><img src='img/fixation2_sml.jpg'</img></div></div>","null","FIX","","","","","","","","","","",""
"html-keyboard-response","151","342628","0.0-7.0-2.23","63d13b44f511eff0aef876f2","bdp_wmem","Sun Mar 12 2023 21:05:39 GMT-0700 (Pacific Daylight Time)","566945","Match,No Match","","null","","","","","","<div class='trialBorder'><div class='vertical-center'><img style='vertical-align:center; align:center' src='img/fixation2_sml.jpg'></div><div class='arrayDiv2'><div class='tl'><img class='introPic' src='trustrating_stim/white_mw042.bmp'><br><font color='green'><strong>Share</strong></font></div><div class='tr'><img class='introPic' src='trustrating_stim/white_mw010.bmp'><br><font color='red'><strong>Keep</strong></font></div></div></div>","null","ARRAY","2","trustrating_stim/white_mw042.bmp,trustrating_stim/white_mw010.bmp","1,0","Match","e","3000","","","","",""
"html-keyboard-response","152","346631","0.0-7.0-3.23","63d13b44f511eff0aef876f2","bdp_wmem","Sun Mar 12 2023 21:05:39 GMT-0700 (Pacific Daylight Time)","566945","Match,No Match","","null","","","","","","<div class='trialBorder'><div class='vertical-center'><img src='img/fixation2_sml.jpg'</img></div></div>","null","DELAY","","","","","","","","","","",""
"html-keyboard-response","153","347679","0.0-7.0-4.23","63d13b44f511eff0aef876f2","bdp_wmem","Sun Mar 12 2023 21:05:39 GMT-0700 (Pacific Daylight Time)","566945","Match,No Match","","1048","","","","","","<div class='trialBorder'><div class='targDiv'><div class='tc'><img class='introPic' src='trustrating_stim/white_mw010.bmp'><br><font color='red'><strong>Keep</strong></font></div></div><div class='respDiv'><div class='respDivL'>Match<br>(e)</div><div class='respDivR'>No Match<br>(i)</div></div></div>","e","TARGET","2","trustrating_stim/white_mw042.bmp,trustrating_stim/white_mw010.bmp","1,0","Match","e","3000","trustrating_stim/white_mw010.bmp","red","Keep","REAL","1"
"html-keyboard-response","154","348182","0.0-7.0-5.23","63d13b44f511eff0aef876f2","bdp_wmem","Sun Mar 12 2023 21:05:39 GMT-0700 (Pacific Daylight Time)","566945","Match,No Match","","null","","","","","","<div class='trialBorder'><div class='vertical-center'><img src='img/correct.jpg'></div><div class='respDiv'><div class='respDivL'><font style='color:orange'>Match<br>(e)</font></div><div class='respDivR'>No Match<br>(i)</div></div></div>","null","FEEDBACK","","","","","","","","","","",""
"html-keyboard-response","155","348683","0.0-7.0-1.24","63d13b44f511eff0aef876f2","bdp_wmem","Sun Mar 12 2023 21:05:39 GMT-0700 (Pacific Daylight Time)","566945","Match,No Match","","null","","","","","","<div class='trialBorder'><div class='vertical-center'><img src='img/fixation2_sml.jpg'</img></div></div>","null","FIX","","","","","","","","","","",""
"html-keyboard-response","156","353186","0.0-7.0-2.24","63d13b44f511eff0aef876f2","bdp_wmem","Sun Mar 12 2023 21:05:39 GMT-0700 (Pacific Daylight Time)","566945","Match,No Match","","null","","","","","","<div class='trialBorder'><div class='vertical-center'><img style='vertical-align:center; align:center' src='img/fixation2_sml.jpg'></div><div class='arrayDiv3'><div class='tl'><img class='introPic' src='trustrating_stim/white_mw012.bmp'><br><font color='red'><strong>Keep</strong></font></div><div class='tc'><img class='introPic' src='trustrating_stim/white_mw038.bmp'><br><font color='green'><strong>Share</strong></font></div><div class='tr'><img class='introPic' src='trustrating_stim/white_mw013.bmp'><br><font color='green'><strong>Share</strong></font></div></div></div>","null","ARRAY","3","trustrating_stim/white_mw012.bmp,trustrating_stim/white_mw038.bmp,trustrating_stim/white_mw013.bmp","0,1,1","Match","e","4500","","","","",""
"html-keyboard-response","157","357188","0.0-7.0-3.24","63d13b44f511eff0aef876f2","bdp_wmem","Sun Mar 12 2023 21:05:39 GMT-0700 (Pacific Daylight Time)","566945","Match,No Match","","null","","","","","","<div class='trialBorder'><div class='vertical-center'><img src='img/fixation2_sml.jpg'</img></div></div>","null","DELAY","","","","","","","","","","",""
"html-keyboard-response","158","358279","0.0-7.0-4.24","63d13b44f511eff0aef876f2","bdp_wmem","Sun Mar 12 2023 21:05:39 GMT-0700 (Pacific Daylight Time)","566945","Match,No Match","","1090","","","","","","<div class='trialBorder'><div class='targDiv'><div class='tc'><img class='introPic' src='trustrating_stim/white_mw013.bmp'><br><font color='green'><strong>Share</strong></font></div></div><div class='respDiv'><div class='respDivL'>Match<br>(e)</div><div class='respDivR'>No Match<br>(i)</div></div></div>","e","TARGET","3","trustrating_stim/white_mw012.bmp,trustrating_stim/white_mw038.bmp,trustrating_stim/white_mw013.bmp","0,1,1","Match","e","4500","trustrating_stim/white_mw013.bmp","green","Share","REAL","1"
"html-keyboard-response","159","358781","0.0-7.0-5.24","63d13b44f511eff0aef876f2","bdp_wmem","Sun Mar 12 2023 21:05:39 GMT-0700 (Pacific Daylight Time)","566945","Match,No Match","","null","","","","","","<div class='trialBorder'><div class='vertical-center'><img src='img/correct.jpg'></div><div class='respDiv'><div class='respDivL'><font style='color:orange'>Match<br>(e)</font></div><div class='respDivR'>No Match<br>(i)</div></div></div>","null","FEEDBACK","","","","","","","","","","",""
"html-keyboard-response","160","359283","0.0-7.0-1.25","63d13b44f511eff0aef876f2","bdp_wmem","Sun Mar 12 2023 21:05:39 GMT-0700 (Pacific Daylight Time)","566945","Match,No Match","","null","","","","","","<div class='trialBorder'><div class='vertical-center'><img src='img/fixation2_sml.jpg'</img></div></div>","null","FIX","","","","","","","","","","",""
"html-keyboard-response","161","362286","0.0-7.0-2.25","63d13b44f511eff0aef876f2","bdp_wmem","Sun Mar 12 2023 21:05:39 GMT-0700 (Pacific Daylight Time)","566945","Match,No Match","","null","","","","","","<div class='trialBorder'><div class='vertical-center'><img style='vertical-align:center; align:center' src='img/fixation2_sml.jpg'></div><div class='arrayDiv2'><div class='tl'><img class='introPic' src='trustrating_stim/white_mw038.bmp'><br><font color='green'><strong>Share</strong></font></div><div class='tr'><img class='introPic' src='trustrating_stim/white_mw042.bmp'><br><font color='red'><strong>Keep</strong></font></div></div></div>","null","ARRAY","2","trustrating_stim/white_mw038.bmp,trustrating_stim/white_mw042.bmp","1,0","Match","e","3000","","","","",""
"html-keyboard-response","162","366287","0.0-7.0-3.25","63d13b44f511eff0aef876f2","bdp_wmem","Sun Mar 12 2023 21:05:39 GMT-0700 (Pacific Daylight Time)","566945","Match,No Match","","null","","","","","","<div class='trialBorder'><div class='vertical-center'><img src='img/fixation2_sml.jpg'</img></div></div>","null","DELAY","","","","","","","","","","",""
"html-keyboard-response","163","367335","0.0-7.0-4.25","63d13b44f511eff0aef876f2","bdp_wmem","Sun Mar 12 2023 21:05:39 GMT-0700 (Pacific Daylight Time)","566945","Match,No Match","","1046","","","","","","<div class='trialBorder'><div class='targDiv'><div class='tc'><img class='introPic' src='trustrating_stim/white_mw038.bmp'><br><font color='green'><strong>Share</strong></font></div></div><div class='respDiv'><div class='respDivL'>Match<br>(e)</div><div class='respDivR'>No Match<br>(i)</div></div></div>","e","TARGET","2","trustrating_stim/white_mw038.bmp,trustrating_stim/white_mw042.bmp","1,0","Match","e","3000","trustrating_stim/white_mw038.bmp","green","Share","REAL","1"
"html-keyboard-response","164","367836","0.0-7.0-5.25","63d13b44f511eff0aef876f2","bdp_wmem","Sun Mar 12 2023 21:05:39 GMT-0700 (Pacific Daylight Time)","566945","Match,No Match","","null","","","","","","<div class='trialBorder'><div class='vertical-center'><img src='img/correct.jpg'></div><div class='respDiv'><div class='respDivL'><font style='color:orange'>Match<br>(e)</font></div><div class='respDivR'>No Match<br>(i)</div></div></div>","null","FEEDBACK","","","","","","","","","","",""
"html-keyboard-response","165","368338","0.0-7.0-1.26","63d13b44f511eff0aef876f2","bdp_wmem","Sun Mar 12 2023 21:05:39 GMT-0700 (Pacific Daylight Time)","566945","Match,No Match","","null","","","","","","<div class='trialBorder'><div class='vertical-center'><img src='img/fixation2_sml.jpg'</img></div></div>","null","FIX","","","","","","","","","","",""
"html-keyboard-response","166","369840","0.0-7.0-2.26","63d13b44f511eff0aef876f2","bdp_wmem","Sun Mar 12 2023 21:05:39 GMT-0700 (Pacific Daylight Time)","566945","Match,No Match","","null","","","","","","<div class='trialBorder'><div class='vertical-center'><img style='vertical-align:center; align:center' src='img/fixation2_sml.jpg'></div><div class='arrayDiv1'><div class='tc'><img class='introPic' src='trustrating_stim/white_mw003.bmp'><br><font color='red'><strong>Keep</strong></font></div></div></div>","null","ARRAY","1","trustrating_stim/white_mw003.bmp","0","Match","e","1500","","","","",""
"html-keyboard-response","167","373841","0.0-7.0-3.26","63d13b44f511eff0aef876f2","bdp_wmem","Sun Mar 12 2023 21:05:39 GMT-0700 (Pacific Daylight Time)","566945","Match,No Match","","null","","","","","","<div class='trialBorder'><div class='vertical-center'><img src='img/fixation2_sml.jpg'</img></div></div>","null","DELAY","","","","","","","","","","",""
"html-keyboard-response","168","374816","0.0-7.0-4.26","63d13b44f511eff0aef876f2","bdp_wmem","Sun Mar 12 2023 21:05:39 GMT-0700 (Pacific Daylight Time)","566945","Match,No Match","","972","","","","","","<div class='trialBorder'><div class='targDiv'><div class='tc'><img class='introPic' src='trustrating_stim/white_mw003.bmp'><br><font color='red'><strong>Keep</strong></font></div></div><div class='respDiv'><div class='respDivL'>Match<br>(e)</div><div class='respDivR'>No Match<br>(i)</div></div></div>","e","TARGET","1","trustrating_stim/white_mw003.bmp","0","Match","e","1500","trustrating_stim/white_mw003.bmp","red","Keep","REAL","1"
"html-keyboard-response","169","375317","0.0-7.0-5.26","63d13b44f511eff0aef876f2","bdp_wmem","Sun Mar 12 2023 21:05:39 GMT-0700 (Pacific Daylight Time)","566945","Match,No Match","","null","","","","","","<div class='trialBorder'><div class='vertical-center'><img src='img/correct.jpg'></div><div class='respDiv'><div class='respDivL'><font style='color:orange'>Match<br>(e)</font></div><div class='respDivR'>No Match<br>(i)</div></div></div>","null","FEEDBACK","","","","","","","","","","",""
"html-keyboard-response","170","375820","0.0-7.0-1.27","63d13b44f511eff0aef876f2","bdp_wmem","Sun Mar 12 2023 21:05:39 GMT-0700 (Pacific Daylight Time)","566945","Match,No Match","","null","","","","","","<div class='trialBorder'><div class='vertical-center'><img src='img/fixation2_sml.jpg'</img></div></div>","null","FIX","","","","","","","","","","",""
"html-keyboard-response","171","377322","0.0-7.0-2.27","63d13b44f511eff0aef876f2","bdp_wmem","Sun Mar 12 2023 21:05:39 GMT-0700 (Pacific Daylight Time)","566945","Match,No Match","","null","","","","","","<div class='trialBorder'><div class='vertical-center'><img style='vertical-align:center; align:center' src='img/fixation2_sml.jpg'></div><div class='arrayDiv1'><div class='tc'><img class='introPic' src='trustrating_stim/white_mw070.bmp'><br><font color='red'><strong>Keep</strong></font></div></div></div>","null","ARRAY","1","trustrating_stim/white_mw070.bmp","0","noMatchOutcome","i","1500","","","","",""
"html-keyboard-response","172","381324","0.0-7.0-3.27","63d13b44f511eff0aef876f2","bdp_wmem","Sun Mar 12 2023 21:05:39 GMT-0700 (Pacific Daylight Time)","566945","Match,No Match","","null","","","","","","<div class='trialBorder'><div class='vertical-center'><img src='img/fixation2_sml.jpg'</img></div></div>","null","DELAY","","","","","","","","","","",""
"html-keyboard-response","173","382422","0.0-7.0-4.27","63d13b44f511eff0aef876f2","bdp_wmem","Sun Mar 12 2023 21:05:39 GMT-0700 (Pacific Daylight Time)","566945","Match,No Match","","1097","","","","","","<div class='trialBorder'><div class='targDiv'><div class='tc'><img class='introPic' src='trustrating_stim/white_mw070.bmp'><br><font color='green'><strong>Share</strong></font></div></div><div class='respDiv'><div class='respDivL'>Match<br>(e)</div><div class='respDivR'>No Match<br>(i)</div></div></div>","i","TARGET","1","trustrating_stim/white_mw070.bmp","0","noMatchOutcome","i","1500","trustrating_stim/white_mw070.bmp","green","Share","REAL","1"
"html-keyboard-response","174","382924","0.0-7.0-5.27","63d13b44f511eff0aef876f2","bdp_wmem","Sun Mar 12 2023 21:05:39 GMT-0700 (Pacific Daylight Time)","566945","Match,No Match","","null","","","","","","<div class='trialBorder'><div class='vertical-center'><img src='img/correct.jpg'></div><div class='respDiv'><div class='respDivL'>Match<br>(e)</div><div class='respDivR'><font style='color:orange'>No Match<br>(i)</font></div></div></div>","null","FEEDBACK","","","","","","","","","","",""
"html-keyboard-response","175","383425","0.0-7.0-1.28","63d13b44f511eff0aef876f2","bdp_wmem","Sun Mar 12 2023 21:05:39 GMT-0700 (Pacific Daylight Time)","566945","Match,No Match","","null","","","","","","<div class='trialBorder'><div class='vertical-center'><img src='img/fixation2_sml.jpg'</img></div></div>","null","FIX","","","","","","","","","","",""
"html-keyboard-response","176","386429","0.0-7.0-2.28","63d13b44f511eff0aef876f2","bdp_wmem","Sun Mar 12 2023 21:05:39 GMT-0700 (Pacific Daylight Time)","566945","Match,No Match","","null","","","","","","<div class='trialBorder'><div class='vertical-center'><img style='vertical-align:center; align:center' src='img/fixation2_sml.jpg'></div><div class='arrayDiv2'><div class='tl'><img class='introPic' src='trustrating_stim/white_mw040.bmp'><br><font color='red'><strong>Keep</strong></font></div><div class='tr'><img class='introPic' src='trustrating_stim/white_mw078.bmp'><br><font color='green'><strong>Share</strong></font></div></div></div>","null","ARRAY","2","trustrating_stim/white_mw040.bmp,trustrating_stim/white_mw078.bmp","0,1","noMatchFace","i","3000","","","","",""
"html-keyboard-response","177","390430","0.0-7.0-3.28","63d13b44f511eff0aef876f2","bdp_wmem","Sun Mar 12 2023 21:05:39 GMT-0700 (Pacific Daylight Time)","566945","Match,No Match","","null","","","","","","<div class='trialBorder'><div class='vertical-center'><img src='img/fixation2_sml.jpg'</img></div></div>","null","DELAY","","","","","","","","","","",""
"html-keyboard-response","178","391830","0.0-7.0-4.28","63d13b44f511eff0aef876f2","bdp_wmem","Sun Mar 12 2023 21:05:39 GMT-0700 (Pacific Daylight Time)","566945","Match,No Match","","1398","","","","","","<div class='trialBorder'><div class='targDiv'><div class='tc'><img class='introPic' src='trustrating_stim/white_mw010.bmp'><br><font color='green'><strong>Share</strong></font></div></div><div class='respDiv'><div class='respDivL'>Match<br>(e)</div><div class='respDivR'>No Match<br>(i)</div></div></div>","i","TARGET","2","trustrating_stim/white_mw040.bmp,trustrating_stim/white_mw078.bmp","0,1","noMatchFace","i","3000","trustrating_stim/white_mw010.bmp","green","Share","REAL","1"
"html-keyboard-response","179","392341","0.0-7.0-5.28","63d13b44f511eff0aef876f2","bdp_wmem","Sun Mar 12 2023 21:05:39 GMT-0700 (Pacific Daylight Time)","566945","Match,No Match","","null","","","","","","<div class='trialBorder'><div class='vertical-center'><img src='img/correct.jpg'></div><div class='respDiv'><div class='respDivL'>Match<br>(e)</div><div class='respDivR'><font style='color:orange'>No Match<br>(i)</font></div></div></div>","null","FEEDBACK","","","","","","","","","","",""
"html-keyboard-response","180","392842","0.0-7.0-1.29","63d13b44f511eff0aef876f2","bdp_wmem","Sun Mar 12 2023 21:05:39 GMT-0700 (Pacific Daylight Time)","566945","Match,No Match","","null","","","","","","<div class='trialBorder'><div class='vertical-center'><img src='img/fixation2_sml.jpg'</img></div></div>","null","FIX","","","","","","","","","","",""
"html-keyboard-response","181","397344","0.0-7.0-2.29","63d13b44f511eff0aef876f2","bdp_wmem","Sun Mar 12 2023 21:05:39 GMT-0700 (Pacific Daylight Time)","566945","Match,No Match","","null","","","","","","<div class='trialBorder'><div class='vertical-center'><img style='vertical-align:center; align:center' src='img/fixation2_sml.jpg'></div><div class='arrayDiv3'><div class='tl'><img class='introPic' src='trustrating_stim/white_mw003.bmp'><br><font color='red'><strong>Keep</strong></font></div><div class='tc'><img class='introPic' src='trustrating_stim/white_mw038.bmp'><br><font color='red'><strong>Keep</strong></font></div><div class='tr'><img class='introPic' src='trustrating_stim/white_mw078.bmp'><br><font color='green'><strong>Share</strong></font></div></div></div>","null","ARRAY","3","trustrating_stim/white_mw003.bmp,trustrating_stim/white_mw038.bmp,trustrating_stim/white_mw078.bmp","0,0,1","noMatchOutcome","i","4500","","","","",""
"html-keyboard-response","182","401346","0.0-7.0-3.29","63d13b44f511eff0aef876f2","bdp_wmem","Sun Mar 12 2023 21:05:39 GMT-0700 (Pacific Daylight Time)","566945","Match,No Match","","null","","","","","","<div class='trialBorder'><div class='vertical-center'><img src='img/fixation2_sml.jpg'</img></div></div>","null","DELAY","","","","","","","","","","",""
"html-keyboard-response","183","402441","0.0-7.0-4.29","63d13b44f511eff0aef876f2","bdp_wmem","Sun Mar 12 2023 21:05:39 GMT-0700 (Pacific Daylight Time)","566945","Match,No Match","","1092","","","","","","<div class='trialBorder'><div class='targDiv'><div class='tc'><img class='introPic' src='trustrating_stim/white_mw003.bmp'><br><font color='green'><strong>Share</strong></font></div></div><div class='respDiv'><div class='respDivL'>Match<br>(e)</div><div class='respDivR'>No Match<br>(i)</div></div></div>","i","TARGET","3","trustrating_stim/white_mw003.bmp,trustrating_stim/white_mw038.bmp,trustrating_stim/white_mw078.bmp","0,0,1","noMatchOutcome","i","4500","trustrating_stim/white_mw003.bmp","green","Share","REAL","1"
"html-keyboard-response","184","402943","0.0-7.0-5.29","63d13b44f511eff0aef876f2","bdp_wmem","Sun Mar 12 2023 21:05:39 GMT-0700 (Pacific Daylight Time)","566945","Match,No Match","","null","","","","","","<div class='trialBorder'><div class='vertical-center'><img src='img/correct.jpg'></div><div class='respDiv'><div class='respDivL'>Match<br>(e)</div><div class='respDivR'><font style='color:orange'>No Match<br>(i)</font></div></div></div>","null","FEEDBACK","","","","","","","","","","",""
"html-keyboard-response","185","403445","0.0-7.0-1.30","63d13b44f511eff0aef876f2","bdp_wmem","Sun Mar 12 2023 21:05:39 GMT-0700 (Pacific Daylight Time)","566945","Match,No Match","","null","","","","","","<div class='trialBorder'><div class='vertical-center'><img src='img/fixation2_sml.jpg'</img></div></div>","null","FIX","","","","","","","","","","",""
"html-keyboard-response","186","404947","0.0-7.0-2.30","63d13b44f511eff0aef876f2","bdp_wmem","Sun Mar 12 2023 21:05:39 GMT-0700 (Pacific Daylight Time)","566945","Match,No Match","","null","","","","","","<div class='trialBorder'><div class='vertical-center'><img style='vertical-align:center; align:center' src='img/fixation2_sml.jpg'></div><div class='arrayDiv1'><div class='tc'><img class='introPic' src='trustrating_stim/white_mw038.bmp'><br><font color='red'><strong>Keep</strong></font></div></div></div>","null","ARRAY","1","trustrating_stim/white_mw038.bmp","0","noMatchOutcome","i","1500","","","","",""
"html-keyboard-response","187","408948","0.0-7.0-3.30","63d13b44f511eff0aef876f2","bdp_wmem","Sun Mar 12 2023 21:05:39 GMT-0700 (Pacific Daylight Time)","566945","Match,No Match","","null","","","","","","<div class='trialBorder'><div class='vertical-center'><img src='img/fixation2_sml.jpg'</img></div></div>","null","DELAY","","","","","","","","","","",""
"html-keyboard-response","188","409887","0.0-7.0-4.30","63d13b44f511eff0aef876f2","bdp_wmem","Sun Mar 12 2023 21:05:39 GMT-0700 (Pacific Daylight Time)","566945","Match,No Match","","936","","","","","","<div class='trialBorder'><div class='targDiv'><div class='tc'><img class='introPic' src='trustrating_stim/white_mw038.bmp'><br><font color='green'><strong>Share</strong></font></div></div><div class='respDiv'><div class='respDivL'>Match<br>(e)</div><div class='respDivR'>No Match<br>(i)</div></div></div>","i","TARGET","1","trustrating_stim/white_mw038.bmp","0","noMatchOutcome","i","1500","trustrating_stim/white_mw038.bmp","green","Share","REAL","1"
