"trial_type","trial_index","time_elapsed","internal_node_id","subject_id","task","startTime","totalTime","labels","view_history","rt","event","trial","time","trialtype","success","stimulus","key_press","stimType","arraySize","arrayFaces","arrayOutcomes","matchType","corrResp","arrayDur","targFace","targCol","targOutcome","trialType","corr"
"pavlovia","0","2","0.0-0.0","5b65f7935c431c000127ae5f","bdp_wmem","Tue Mar 14 2023 21:39:11 GMT-0400 (Eastern Daylight Time)","618205","Match,No Match","","","","","","","","","","","","","","","","","","","","",""
"instructions","1","3082","0.0-1.0","5b65f7935c431c000127ae5f","bdp_wmem","Tue Mar 14 2023 21:39:11 GMT-0400 (Eastern Daylight Time)","618205","Match,No Match","[{""page_index"":0,""viewing_time"":3078}]","3078","","","","","","","","","","","","","","","","","","",""
"","","","","5b65f7935c431c000127ae5f","bdp_wmem","Tue Mar 14 2023 21:39:11 GMT-0400 (Eastern Daylight Time)","618205","Match,No Match","","","fullscreenenter","2","6861","fullscreenenter","","","","","","","","","","","","","","",""
"fullscreen","2","7850","0.0-2.0","5b65f7935c431c000127ae5f","bdp_wmem","Tue Mar 14 2023 21:39:11 GMT-0400 (Eastern Daylight Time)","618205","Match,No Match","","","","","","","true","","","","","","","","","","","","","",""
"instructions","3","76061","0.0-4.0","5b65f7935c431c000127ae5f","bdp_wmem","Tue Mar 14 2023 21:39:11 GMT-0400 (Eastern Daylight Time)","618205","Match,No Match","[{""page_index"":0,""viewing_time"":23463},{""page_index"":1,""viewing_time"":23521},{""page_index"":2,""viewing_time"":6169},{""page_index"":3,""viewing_time"":6097},{""page_index"":4,""viewing_time"":8960}]","68210","","","","","","","","","","","","","","","","","","",""
"html-keyboard-response","4","76566","0.0-5.0-1.0","5b65f7935c431c000127ae5f","bdp_wmem","Tue Mar 14 2023 21:39:11 GMT-0400 (Eastern Daylight Time)","618205","Match,No Match","","null","","","","","","<div class='trialBorder'><div class='vertical-center'><img src='img/fixation2_sml.jpg'</img></div></div>","null","FIX","","","","","","","","","","",""
"html-keyboard-response","5","79572","0.0-5.0-2.0","5b65f7935c431c000127ae5f","bdp_wmem","Tue Mar 14 2023 21:39:11 GMT-0400 (Eastern Daylight Time)","618205","Match,No Match","","null","","","","","","<div class='trialBorder'><div class='vertical-center'><img style='vertical-align:center; align:center' src='img/fixation2_sml.jpg'></div><div class='arrayDiv2'><div class='tl'><img class='introPic' src='trustrating_stim/white_mw012.bmp'><br><font color='green'><strong>Share</strong></font></div><div class='tr'><img class='introPic' src='trustrating_stim/white_mw010.bmp'><br><font color='red'><strong>Keep</strong></font></div></div></div>","null","ARRAY","2","trustrating_stim/white_mw012.bmp,trustrating_stim/white_mw010.bmp","1,0","noMatchOutcome","i","3000","","","","",""
"html-keyboard-response","6","83583","0.0-5.0-3.0","5b65f7935c431c000127ae5f","bdp_wmem","Tue Mar 14 2023 21:39:11 GMT-0400 (Eastern Daylight Time)","618205","Match,No Match","","null","","","","","","<div class='trialBorder'><div class='vertical-center'><img src='img/fixation2_sml.jpg'</img></div></div>","null","DELAY","","","","","","","","","","",""
"html-keyboard-response","7","86341","0.0-5.0-4.0","5b65f7935c431c000127ae5f","bdp_wmem","Tue Mar 14 2023 21:39:11 GMT-0400 (Eastern Daylight Time)","618205","Match,No Match","","2755","","","","","","<div class='trialBorder'><div class='targDiv'><div class='tc'><img class='introPic' src='trustrating_stim/white_mw012.bmp'><br><font color='red'><strong>Keep</strong></font></div></div><div class='respDiv'><div class='respDivL'>Match<br>(e)</div><div class='respDivR'>No Match<br>(i)</div></div></div>","e","TARGET","2","trustrating_stim/white_mw012.bmp,trustrating_stim/white_mw010.bmp","1,0","noMatchOutcome","i","3000","trustrating_stim/white_mw012.bmp","red","Keep","PRACTICE","0"
"html-keyboard-response","8","86846","0.0-5.0-5.0","5b65f7935c431c000127ae5f","bdp_wmem","Tue Mar 14 2023 21:39:11 GMT-0400 (Eastern Daylight Time)","618205","Match,No Match","","null","","","","","","<div class='trialBorder'><div class='vertical-center'><img src='img/error.jpg'></div><div class='respDiv'><div class='respDivL'><font style='color:orange'>Match<br>(e)</font></div><div class='respDivR'>No Match<br>(i)</div></div></div>","null","FEEDBACK","","","","","","","","","","",""
"html-keyboard-response","9","87347","0.0-5.0-1.1","5b65f7935c431c000127ae5f","bdp_wmem","Tue Mar 14 2023 21:39:11 GMT-0400 (Eastern Daylight Time)","618205","Match,No Match","","null","","","","","","<div class='trialBorder'><div class='vertical-center'><img src='img/fixation2_sml.jpg'</img></div></div>","null","FIX","","","","","","","","","","",""
"html-keyboard-response","10","91852","0.0-5.0-2.1","5b65f7935c431c000127ae5f","bdp_wmem","Tue Mar 14 2023 21:39:11 GMT-0400 (Eastern Daylight Time)","618205","Match,No Match","","null","","","","","","<div class='trialBorder'><div class='vertical-center'><img style='vertical-align:center; align:center' src='img/fixation2_sml.jpg'></div><div class='arrayDiv3'><div class='tl'><img class='introPic' src='trustrating_stim/white_mw012.bmp'><br><font color='green'><strong>Share</strong></font></div><div class='tc'><img class='introPic' src='trustrating_stim/white_mw038.bmp'><br><font color='red'><strong>Keep</strong></font></div><div class='tr'><img class='introPic' src='trustrating_stim/white_mw010.bmp'><br><font color='green'><strong>Share</strong></font></div></div></div>","null","ARRAY","3","trustrating_stim/white_mw012.bmp,trustrating_stim/white_mw038.bmp,trustrating_stim/white_mw010.bmp","1,0,1","noMatchOutcome","i","4500","","","","",""
"html-keyboard-response","11","95861","0.0-5.0-3.1","5b65f7935c431c000127ae5f","bdp_wmem","Tue Mar 14 2023 21:39:11 GMT-0400 (Eastern Daylight Time)","618205","Match,No Match","","null","","","","","","<div class='trialBorder'><div class='vertical-center'><img src='img/fixation2_sml.jpg'</img></div></div>","null","DELAY","","","","","","","","","","",""
"html-keyboard-response","12","97972","0.0-5.0-4.1","5b65f7935c431c000127ae5f","bdp_wmem","Tue Mar 14 2023 21:39:11 GMT-0400 (Eastern Daylight Time)","618205","Match,No Match","","2110","","","","","","<div class='trialBorder'><div class='targDiv'><div class='tc'><img class='introPic' src='trustrating_stim/white_mw012.bmp'><br><font color='red'><strong>Keep</strong></font></div></div><div class='respDiv'><div class='respDivL'>Match<br>(e)</div><div class='respDivR'>No Match<br>(i)</div></div></div>","e","TARGET","3","trustrating_stim/white_mw012.bmp,trustrating_stim/white_mw038.bmp,trustrating_stim/white_mw010.bmp","1,0,1","noMatchOutcome","i","4500","trustrating_stim/white_mw012.bmp","red","Keep","PRACTICE","0"
"html-keyboard-response","13","98476","0.0-5.0-5.1","5b65f7935c431c000127ae5f","bdp_wmem","Tue Mar 14 2023 21:39:11 GMT-0400 (Eastern Daylight Time)","618205","Match,No Match","","null","","","","","","<div class='trialBorder'><div class='vertical-center'><img src='img/error.jpg'></div><div class='respDiv'><div class='respDivL'><font style='color:orange'>Match<br>(e)</font></div><div class='respDivR'>No Match<br>(i)</div></div></div>","null","FEEDBACK","","","","","","","","","","",""
"html-keyboard-response","14","98979","0.0-5.0-1.2","5b65f7935c431c000127ae5f","bdp_wmem","Tue Mar 14 2023 21:39:11 GMT-0400 (Eastern Daylight Time)","618205","Match,No Match","","null","","","","","","<div class='trialBorder'><div class='vertical-center'><img src='img/fixation2_sml.jpg'</img></div></div>","null","FIX","","","","","","","","","","",""
"html-keyboard-response","15","100484","0.0-5.0-2.2","5b65f7935c431c000127ae5f","bdp_wmem","Tue Mar 14 2023 21:39:11 GMT-0400 (Eastern Daylight Time)","618205","Match,No Match","","null","","","","","","<div class='trialBorder'><div class='vertical-center'><img style='vertical-align:center; align:center' src='img/fixation2_sml.jpg'></div><div class='arrayDiv1'><div class='tc'><img class='introPic' src='trustrating_stim/white_mw040.bmp'><br><font color='green'><strong>Share</strong></font></div></div></div>","null","ARRAY","1","trustrating_stim/white_mw040.bmp","1","noMatchFace","i","1500","","","","",""
"html-keyboard-response","16","104493","0.0-5.0-3.2","5b65f7935c431c000127ae5f","bdp_wmem","Tue Mar 14 2023 21:39:11 GMT-0400 (Eastern Daylight Time)","618205","Match,No Match","","null","","","","","","<div class='trialBorder'><div class='vertical-center'><img src='img/fixation2_sml.jpg'</img></div></div>","null","DELAY","","","","","","","","","","",""
"html-keyboard-response","17","109662","0.0-5.0-4.2","5b65f7935c431c000127ae5f","bdp_wmem","Tue Mar 14 2023 21:39:11 GMT-0400 (Eastern Daylight Time)","618205","Match,No Match","","5167","","","","","","<div class='trialBorder'><div class='targDiv'><div class='tc'><img class='introPic' src='trustrating_stim/white_mw078.bmp'><br><font color='green'><strong>Share</strong></font></div></div><div class='respDiv'><div class='respDivL'>Match<br>(e)</div><div class='respDivR'>No Match<br>(i)</div></div></div>","e","TARGET","1","trustrating_stim/white_mw040.bmp","1","noMatchFace","i","1500","trustrating_stim/white_mw078.bmp","green","Share","PRACTICE","0"
"html-keyboard-response","18","110165","0.0-5.0-5.2","5b65f7935c431c000127ae5f","bdp_wmem","Tue Mar 14 2023 21:39:11 GMT-0400 (Eastern Daylight Time)","618205","Match,No Match","","null","","","","","","<div class='trialBorder'><div class='vertical-center'><img src='img/error.jpg'></div><div class='respDiv'><div class='respDivL'><font style='color:orange'>Match<br>(e)</font></div><div class='respDivR'>No Match<br>(i)</div></div></div>","null","FEEDBACK","","","","","","","","","","",""
"html-keyboard-response","19","110670","0.0-5.0-1.3","5b65f7935c431c000127ae5f","bdp_wmem","Tue Mar 14 2023 21:39:11 GMT-0400 (Eastern Daylight Time)","618205","Match,No Match","","null","","","","","","<div class='trialBorder'><div class='vertical-center'><img src='img/fixation2_sml.jpg'</img></div></div>","null","FIX","","","","","","","","","","",""
"html-keyboard-response","20","115181","0.0-5.0-2.3","5b65f7935c431c000127ae5f","bdp_wmem","Tue Mar 14 2023 21:39:11 GMT-0400 (Eastern Daylight Time)","618205","Match,No Match","","null","","","","","","<div class='trialBorder'><div class='vertical-center'><img style='vertical-align:center; align:center' src='img/fixation2_sml.jpg'></div><div class='arrayDiv3'><div class='tl'><img class='introPic' src='trustrating_stim/white_mw010.bmp'><br><font color='red'><strong>Keep</strong></font></div><div class='tc'><img class='introPic' src='trustrating_stim/white_mw092.bmp'><br><font color='red'><strong>Keep</strong></font></div><div class='tr'><img class='introPic' src='trustrating_stim/white_mw040.bmp'><br><font color='green'><strong>Share</strong></font></div></div></div>","null","ARRAY","3","trustrating_stim/white_mw010.bmp,trustrating_stim/white_mw092.bmp,trustrating_stim/white_mw040.bmp","0,0,1","Match","e","4500","","","","",""
"html-keyboard-response","21","119189","0.0-5.0-3.3","5b65f7935c431c000127ae5f","bdp_wmem","Tue Mar 14 2023 21:39:11 GMT-0400 (Eastern Daylight Time)","618205","Match,No Match","","null","","","","","","<div class='trialBorder'><div class='vertical-center'><img src='img/fixation2_sml.jpg'</img></div></div>","null","DELAY","","","","","","","","","","",""
"html-keyboard-response","22","125319","0.0-5.0-4.3","5b65f7935c431c000127ae5f","bdp_wmem","Tue Mar 14 2023 21:39:11 GMT-0400 (Eastern Daylight Time)","618205","Match,No Match","","6129","","","","","","<div class='trialBorder'><div class='targDiv'><div class='tc'><img class='introPic' src='trustrating_stim/white_mw092.bmp'><br><font color='red'><strong>Keep</strong></font></div></div><div class='respDiv'><div class='respDivL'>Match<br>(e)</div><div class='respDivR'>No Match<br>(i)</div></div></div>","e","TARGET","3","trustrating_stim/white_mw010.bmp,trustrating_stim/white_mw092.bmp,trustrating_stim/white_mw040.bmp","0,0,1","Match","e","4500","trustrating_stim/white_mw092.bmp","red","Keep","PRACTICE","1"
"html-keyboard-response","23","125822","0.0-5.0-5.3","5b65f7935c431c000127ae5f","bdp_wmem","Tue Mar 14 2023 21:39:11 GMT-0400 (Eastern Daylight Time)","618205","Match,No Match","","null","","","","","","<div class='trialBorder'><div class='vertical-center'><img src='img/correct.jpg'></div><div class='respDiv'><div class='respDivL'><font style='color:orange'>Match<br>(e)</font></div><div class='respDivR'>No Match<br>(i)</div></div></div>","null","FEEDBACK","","","","","","","","","","",""
"html-keyboard-response","24","126327","0.0-5.0-1.4","5b65f7935c431c000127ae5f","bdp_wmem","Tue Mar 14 2023 21:39:11 GMT-0400 (Eastern Daylight Time)","618205","Match,No Match","","null","","","","","","<div class='trialBorder'><div class='vertical-center'><img src='img/fixation2_sml.jpg'</img></div></div>","null","FIX","","","","","","","","","","",""
"html-keyboard-response","25","129334","0.0-5.0-2.4","5b65f7935c431c000127ae5f","bdp_wmem","Tue Mar 14 2023 21:39:11 GMT-0400 (Eastern Daylight Time)","618205","Match,No Match","","null","","","","","","<div class='trialBorder'><div class='vertical-center'><img style='vertical-align:center; align:center' src='img/fixation2_sml.jpg'></div><div class='arrayDiv2'><div class='tl'><img class='introPic' src='trustrating_stim/white_mw003.bmp'><br><font color='green'><strong>Share</strong></font></div><div class='tr'><img class='introPic' src='trustrating_stim/white_mw013.bmp'><br><font color='red'><strong>Keep</strong></font></div></div></div>","null","ARRAY","2","trustrating_stim/white_mw003.bmp,trustrating_stim/white_mw013.bmp","1,0","Match","e","3000","","","","",""
"html-keyboard-response","26","133342","0.0-5.0-3.4","5b65f7935c431c000127ae5f","bdp_wmem","Tue Mar 14 2023 21:39:11 GMT-0400 (Eastern Daylight Time)","618205","Match,No Match","","null","","","","","","<div class='trialBorder'><div class='vertical-center'><img src='img/fixation2_sml.jpg'</img></div></div>","null","DELAY","","","","","","","","","","",""
"html-keyboard-response","27","135119","0.0-5.0-4.4","5b65f7935c431c000127ae5f","bdp_wmem","Tue Mar 14 2023 21:39:11 GMT-0400 (Eastern Daylight Time)","618205","Match,No Match","","1776","","","","","","<div class='trialBorder'><div class='targDiv'><div class='tc'><img class='introPic' src='trustrating_stim/white_mw003.bmp'><br><font color='green'><strong>Share</strong></font></div></div><div class='respDiv'><div class='respDivL'>Match<br>(e)</div><div class='respDivR'>No Match<br>(i)</div></div></div>","e","TARGET","2","trustrating_stim/white_mw003.bmp,trustrating_stim/white_mw013.bmp","1,0","Match","e","3000","trustrating_stim/white_mw003.bmp","green","Share","PRACTICE","1"
"html-keyboard-response","28","135621","0.0-5.0-5.4","5b65f7935c431c000127ae5f","bdp_wmem","Tue Mar 14 2023 21:39:11 GMT-0400 (Eastern Daylight Time)","618205","Match,No Match","","null","","","","","","<div class='trialBorder'><div class='vertical-center'><img src='img/correct.jpg'></div><div class='respDiv'><div class='respDivL'><font style='color:orange'>Match<br>(e)</font></div><div class='respDivR'>No Match<br>(i)</div></div></div>","null","FEEDBACK","","","","","","","","","","",""
"html-keyboard-response","29","136126","0.0-5.0-1.5","5b65f7935c431c000127ae5f","bdp_wmem","Tue Mar 14 2023 21:39:11 GMT-0400 (Eastern Daylight Time)","618205","Match,No Match","","null","","","","","","<div class='trialBorder'><div class='vertical-center'><img src='img/fixation2_sml.jpg'</img></div></div>","null","FIX","","","","","","","","","","",""
"html-keyboard-response","30","137629","0.0-5.0-2.5","5b65f7935c431c000127ae5f","bdp_wmem","Tue Mar 14 2023 21:39:11 GMT-0400 (Eastern Daylight Time)","618205","Match,No Match","","null","","","","","","<div class='trialBorder'><div class='vertical-center'><img style='vertical-align:center; align:center' src='img/fixation2_sml.jpg'></div><div class='arrayDiv1'><div class='tc'><img class='introPic' src='trustrating_stim/white_mw070.bmp'><br><font color='red'><strong>Keep</strong></font></div></div></div>","null","ARRAY","1","trustrating_stim/white_mw070.bmp","0","Match","e","1500","","","","",""
"html-keyboard-response","31","141637","0.0-5.0-3.5","5b65f7935c431c000127ae5f","bdp_wmem","Tue Mar 14 2023 21:39:11 GMT-0400 (Eastern Daylight Time)","618205","Match,No Match","","null","","","","","","<div class='trialBorder'><div class='vertical-center'><img src='img/fixation2_sml.jpg'</img></div></div>","null","DELAY","","","","","","","","","","",""
"html-keyboard-response","32","143703","0.0-5.0-4.5","5b65f7935c431c000127ae5f","bdp_wmem","Tue Mar 14 2023 21:39:11 GMT-0400 (Eastern Daylight Time)","618205","Match,No Match","","2065","","","","","","<div class='trialBorder'><div class='targDiv'><div class='tc'><img class='introPic' src='trustrating_stim/white_mw070.bmp'><br><font color='red'><strong>Keep</strong></font></div></div><div class='respDiv'><div class='respDivL'>Match<br>(e)</div><div class='respDivR'>No Match<br>(i)</div></div></div>","e","TARGET","1","trustrating_stim/white_mw070.bmp","0","Match","e","1500","trustrating_stim/white_mw070.bmp","red","Keep","PRACTICE","1"
"html-keyboard-response","33","144207","0.0-5.0-5.5","5b65f7935c431c000127ae5f","bdp_wmem","Tue Mar 14 2023 21:39:11 GMT-0400 (Eastern Daylight Time)","618205","Match,No Match","","null","","","","","","<div class='trialBorder'><div class='vertical-center'><img src='img/correct.jpg'></div><div class='respDiv'><div class='respDivL'><font style='color:orange'>Match<br>(e)</font></div><div class='respDivR'>No Match<br>(i)</div></div></div>","null","FEEDBACK","","","","","","","","","","",""
"instructions","34","147015","0.0-6.0","5b65f7935c431c000127ae5f","bdp_wmem","Tue Mar 14 2023 21:39:11 GMT-0400 (Eastern Daylight Time)","618205","Match,No Match","[{""page_index"":0,""viewing_time"":2808}]","2808","","","","","","","","","","","","","","","","","","",""
"html-keyboard-response","35","147518","0.0-7.0-1.0","5b65f7935c431c000127ae5f","bdp_wmem","Tue Mar 14 2023 21:39:11 GMT-0400 (Eastern Daylight Time)","618205","Match,No Match","","null","","","","","","<div class='trialBorder'><div class='vertical-center'><img src='img/fixation2_sml.jpg'</img></div></div>","null","FIX","","","","","","","","","","",""
"html-keyboard-response","36","149021","0.0-7.0-2.0","5b65f7935c431c000127ae5f","bdp_wmem","Tue Mar 14 2023 21:39:11 GMT-0400 (Eastern Daylight Time)","618205","Match,No Match","","null","","","","","","<div class='trialBorder'><div class='vertical-center'><img style='vertical-align:center; align:center' src='img/fixation2_sml.jpg'></div><div class='arrayDiv1'><div class='tc'><img class='introPic' src='trustrating_stim/white_mw085.bmp'><br><font color='green'><strong>Share</strong></font></div></div></div>","null","ARRAY","1","trustrating_stim/white_mw085.bmp","1","Match","e","1500","","","","",""
"html-keyboard-response","37","153030","0.0-7.0-3.0","5b65f7935c431c000127ae5f","bdp_wmem","Tue Mar 14 2023 21:39:11 GMT-0400 (Eastern Daylight Time)","618205","Match,No Match","","null","","","","","","<div class='trialBorder'><div class='vertical-center'><img src='img/fixation2_sml.jpg'</img></div></div>","null","DELAY","","","","","","","","","","",""
"html-keyboard-response","38","154304","0.0-7.0-4.0","5b65f7935c431c000127ae5f","bdp_wmem","Tue Mar 14 2023 21:39:11 GMT-0400 (Eastern Daylight Time)","618205","Match,No Match","","1272","","","","","","<div class='trialBorder'><div class='targDiv'><div class='tc'><img class='introPic' src='trustrating_stim/white_mw085.bmp'><br><font color='green'><strong>Share</strong></font></div></div><div class='respDiv'><div class='respDivL'>Match<br>(e)</div><div class='respDivR'>No Match<br>(i)</div></div></div>","e","TARGET","1","trustrating_stim/white_mw085.bmp","1","Match","e","1500","trustrating_stim/white_mw085.bmp","green","Share","REAL","1"
"html-keyboard-response","39","154807","0.0-7.0-5.0","5b65f7935c431c000127ae5f","bdp_wmem","Tue Mar 14 2023 21:39:11 GMT-0400 (Eastern Daylight Time)","618205","Match,No Match","","null","","","","","","<div class='trialBorder'><div class='vertical-center'><img src='img/correct.jpg'></div><div class='respDiv'><div class='respDivL'><font style='color:orange'>Match<br>(e)</font></div><div class='respDivR'>No Match<br>(i)</div></div></div>","null","FEEDBACK","","","","","","","","","","",""
"html-keyboard-response","40","155312","0.0-7.0-1.1","5b65f7935c431c000127ae5f","bdp_wmem","Tue Mar 14 2023 21:39:11 GMT-0400 (Eastern Daylight Time)","618205","Match,No Match","","null","","","","","","<div class='trialBorder'><div class='vertical-center'><img src='img/fixation2_sml.jpg'</img></div></div>","null","FIX","","","","","","","","","","",""
"html-keyboard-response","41","158320","0.0-7.0-2.1","5b65f7935c431c000127ae5f","bdp_wmem","Tue Mar 14 2023 21:39:11 GMT-0400 (Eastern Daylight Time)","618205","Match,No Match","","null","","","","","","<div class='trialBorder'><div class='vertical-center'><img style='vertical-align:center; align:center' src='img/fixation2_sml.jpg'></div><div class='arrayDiv2'><div class='tl'><img class='introPic' src='trustrating_stim/white_mw012.bmp'><br><font color='red'><strong>Keep</strong></font></div><div class='tr'><img class='introPic' src='trustrating_stim/white_mw042.bmp'><br><font color='green'><strong>Share</strong></font></div></div></div>","null","ARRAY","2","trustrating_stim/white_mw012.bmp,trustrating_stim/white_mw042.bmp","0,1","Match","e","3000","","","","",""
"html-keyboard-response","42","162325","0.0-7.0-3.1","5b65f7935c431c000127ae5f","bdp_wmem","Tue Mar 14 2023 21:39:11 GMT-0400 (Eastern Daylight Time)","618205","Match,No Match","","null","","","","","","<div class='trialBorder'><div class='vertical-center'><img src='img/fixation2_sml.jpg'</img></div></div>","null","DELAY","","","","","","","","","","",""
"html-keyboard-response","43","163967","0.0-7.0-4.1","5b65f7935c431c000127ae5f","bdp_wmem","Tue Mar 14 2023 21:39:11 GMT-0400 (Eastern Daylight Time)","618205","Match,No Match","","1641","","","","","","<div class='trialBorder'><div class='targDiv'><div class='tc'><img class='introPic' src='trustrating_stim/white_mw012.bmp'><br><font color='red'><strong>Keep</strong></font></div></div><div class='respDiv'><div class='respDivL'>Match<br>(e)</div><div class='respDivR'>No Match<br>(i)</div></div></div>","e","TARGET","2","trustrating_stim/white_mw012.bmp,trustrating_stim/white_mw042.bmp","0,1","Match","e","3000","trustrating_stim/white_mw012.bmp","red","Keep","REAL","1"
"html-keyboard-response","44","164472","0.0-7.0-5.1","5b65f7935c431c000127ae5f","bdp_wmem","Tue Mar 14 2023 21:39:11 GMT-0400 (Eastern Daylight Time)","618205","Match,No Match","","null","","","","","","<div class='trialBorder'><div class='vertical-center'><img src='img/correct.jpg'></div><div class='respDiv'><div class='respDivL'><font style='color:orange'>Match<br>(e)</font></div><div class='respDivR'>No Match<br>(i)</div></div></div>","null","FEEDBACK","","","","","","","","","","",""
"html-keyboard-response","45","164978","0.0-7.0-1.2","5b65f7935c431c000127ae5f","bdp_wmem","Tue Mar 14 2023 21:39:11 GMT-0400 (Eastern Daylight Time)","618205","Match,No Match","","null","","","","","","<div class='trialBorder'><div class='vertical-center'><img src='img/fixation2_sml.jpg'</img></div></div>","null","FIX","","","","","","","","","","",""
"html-keyboard-response","46","169488","0.0-7.0-2.2","5b65f7935c431c000127ae5f","bdp_wmem","Tue Mar 14 2023 21:39:11 GMT-0400 (Eastern Daylight Time)","618205","Match,No Match","","null","","","","","","<div class='trialBorder'><div class='vertical-center'><img style='vertical-align:center; align:center' src='img/fixation2_sml.jpg'></div><div class='arrayDiv3'><div class='tl'><img class='introPic' src='trustrating_stim/white_mw092.bmp'><br><font color='green'><strong>Share</strong></font></div><div class='tc'><img class='introPic' src='trustrating_stim/white_mw085.bmp'><br><font color='red'><strong>Keep</strong></font></div><div class='tr'><img class='introPic' src='trustrating_stim/white_mw091.bmp'><br><font color='green'><strong>Share</strong></font></div></div></div>","null","ARRAY","3","trustrating_stim/white_mw092.bmp,trustrating_stim/white_mw085.bmp,trustrating_stim/white_mw091.bmp","1,0,1","Match","e","4500","","","","",""
"html-keyboard-response","47","173494","0.0-7.0-3.2","5b65f7935c431c000127ae5f","bdp_wmem","Tue Mar 14 2023 21:39:11 GMT-0400 (Eastern Daylight Time)","618205","Match,No Match","","null","","","","","","<div class='trialBorder'><div class='vertical-center'><img src='img/fixation2_sml.jpg'</img></div></div>","null","DELAY","","","","","","","","","","",""
"html-keyboard-response","48","176550","0.0-7.0-4.2","5b65f7935c431c000127ae5f","bdp_wmem","Tue Mar 14 2023 21:39:11 GMT-0400 (Eastern Daylight Time)","618205","Match,No Match","","3055","","","","","","<div class='trialBorder'><div class='targDiv'><div class='tc'><img class='introPic' src='trustrating_stim/white_mw091.bmp'><br><font color='green'><strong>Share</strong></font></div></div><div class='respDiv'><div class='respDivL'>Match<br>(e)</div><div class='respDivR'>No Match<br>(i)</div></div></div>","e","TARGET","3","trustrating_stim/white_mw092.bmp,trustrating_stim/white_mw085.bmp,trustrating_stim/white_mw091.bmp","1,0,1","Match","e","4500","trustrating_stim/white_mw091.bmp","green","Share","REAL","1"
"html-keyboard-response","49","177058","0.0-7.0-5.2","5b65f7935c431c000127ae5f","bdp_wmem","Tue Mar 14 2023 21:39:11 GMT-0400 (Eastern Daylight Time)","618205","Match,No Match","","null","","","","","","<div class='trialBorder'><div class='vertical-center'><img src='img/correct.jpg'></div><div class='respDiv'><div class='respDivL'><font style='color:orange'>Match<br>(e)</font></div><div class='respDivR'>No Match<br>(i)</div></div></div>","null","FEEDBACK","","","","","","","","","","",""
"html-keyboard-response","50","177565","0.0-7.0-1.3","5b65f7935c431c000127ae5f","bdp_wmem","Tue Mar 14 2023 21:39:11 GMT-0400 (Eastern Daylight Time)","618205","Match,No Match","","null","","","","","","<div class='trialBorder'><div class='vertical-center'><img src='img/fixation2_sml.jpg'</img></div></div>","null","FIX","","","","","","","","","","",""
"html-keyboard-response","51","179072","0.0-7.0-2.3","5b65f7935c431c000127ae5f","bdp_wmem","Tue Mar 14 2023 21:39:11 GMT-0400 (Eastern Daylight Time)","618205","Match,No Match","","null","","","","","","<div class='trialBorder'><div class='vertical-center'><img style='vertical-align:center; align:center' src='img/fixation2_sml.jpg'></div><div class='arrayDiv1'><div class='tc'><img class='introPic' src='trustrating_stim/white_mw085.bmp'><br><font color='green'><strong>Share</strong></font></div></div></div>","null","ARRAY","1","trustrating_stim/white_mw085.bmp","1","Match","e","1500","","","","",""
"html-keyboard-response","52","183079","0.0-7.0-3.3","5b65f7935c431c000127ae5f","bdp_wmem","Tue Mar 14 2023 21:39:11 GMT-0400 (Eastern Daylight Time)","618205","Match,No Match","","null","","","","","","<div class='trialBorder'><div class='vertical-center'><img src='img/fixation2_sml.jpg'</img></div></div>","null","DELAY","","","","","","","","","","",""
"html-keyboard-response","53","184024","0.0-7.0-4.3","5b65f7935c431c000127ae5f","bdp_wmem","Tue Mar 14 2023 21:39:11 GMT-0400 (Eastern Daylight Time)","618205","Match,No Match","","944","","","","","","<div class='trialBorder'><div class='targDiv'><div class='tc'><img class='introPic' src='trustrating_stim/white_mw085.bmp'><br><font color='green'><strong>Share</strong></font></div></div><div class='respDiv'><div class='respDivL'>Match<br>(e)</div><div class='respDivR'>No Match<br>(i)</div></div></div>","e","TARGET","1","trustrating_stim/white_mw085.bmp","1","Match","e","1500","trustrating_stim/white_mw085.bmp","green","Share","REAL","1"
"html-keyboard-response","54","184529","0.0-7.0-5.3","5b65f7935c431c000127ae5f","bdp_wmem","Tue Mar 14 2023 21:39:11 GMT-0400 (Eastern Daylight Time)","618205","Match,No Match","","null","","","","","","<div class='trialBorder'><div class='vertical-center'><img src='img/correct.jpg'></div><div class='respDiv'><div class='respDivL'><font style='color:orange'>Match<br>(e)</font></div><div class='respDivR'>No Match<br>(i)</div></div></div>","null","FEEDBACK","","","","","","","","","","",""
"html-keyboard-response","55","185040","0.0-7.0-1.4","5b65f7935c431c000127ae5f","bdp_wmem","Tue Mar 14 2023 21:39:11 GMT-0400 (Eastern Daylight Time)","618205","Match,No Match","","null","","","","","","<div class='trialBorder'><div class='vertical-center'><img src='img/fixation2_sml.jpg'</img></div></div>","null","FIX","","","","","","","","","","",""
"html-keyboard-response","56","189545","0.0-7.0-2.4","5b65f7935c431c000127ae5f","bdp_wmem","Tue Mar 14 2023 21:39:11 GMT-0400 (Eastern Daylight Time)","618205","Match,No Match","","null","","","","","","<div class='trialBorder'><div class='vertical-center'><img style='vertical-align:center; align:center' src='img/fixation2_sml.jpg'></div><div class='arrayDiv3'><div class='tl'><img class='introPic' src='trustrating_stim/white_mw010.bmp'><br><font color='red'><strong>Keep</strong></font></div><div class='tc'><img class='introPic' src='trustrating_stim/white_mw038.bmp'><br><font color='red'><strong>Keep</strong></font></div><div class='tr'><img class='introPic' src='trustrating_stim/white_mw070.bmp'><br><font color='green'><strong>Share</strong></font></div></div></div>","null","ARRAY","3","trustrating_stim/white_mw010.bmp,trustrating_stim/white_mw038.bmp,trustrating_stim/white_mw070.bmp","0,0,1","Match","e","4500","","","","",""
"html-keyboard-response","57","193553","0.0-7.0-3.4","5b65f7935c431c000127ae5f","bdp_wmem","Tue Mar 14 2023 21:39:11 GMT-0400 (Eastern Daylight Time)","618205","Match,No Match","","null","","","","","","<div class='trialBorder'><div class='vertical-center'><img src='img/fixation2_sml.jpg'</img></div></div>","null","DELAY","","","","","","","","","","",""
"html-keyboard-response","58","195873","0.0-7.0-4.4","5b65f7935c431c000127ae5f","bdp_wmem","Tue Mar 14 2023 21:39:11 GMT-0400 (Eastern Daylight Time)","618205","Match,No Match","","2319","","","","","","<div class='trialBorder'><div class='targDiv'><div class='tc'><img class='introPic' src='trustrating_stim/white_mw038.bmp'><br><font color='red'><strong>Keep</strong></font></div></div><div class='respDiv'><div class='respDivL'>Match<br>(e)</div><div class='respDivR'>No Match<br>(i)</div></div></div>","e","TARGET","3","trustrating_stim/white_mw010.bmp,trustrating_stim/white_mw038.bmp,trustrating_stim/white_mw070.bmp","0,0,1","Match","e","4500","trustrating_stim/white_mw038.bmp","red","Keep","REAL","1"
"html-keyboard-response","59","196374","0.0-7.0-5.4","5b65f7935c431c000127ae5f","bdp_wmem","Tue Mar 14 2023 21:39:11 GMT-0400 (Eastern Daylight Time)","618205","Match,No Match","","null","","","","","","<div class='trialBorder'><div class='vertical-center'><img src='img/correct.jpg'></div><div class='respDiv'><div class='respDivL'><font style='color:orange'>Match<br>(e)</font></div><div class='respDivR'>No Match<br>(i)</div></div></div>","null","FEEDBACK","","","","","","","","","","",""
"html-keyboard-response","60","196883","0.0-7.0-1.5","5b65f7935c431c000127ae5f","bdp_wmem","Tue Mar 14 2023 21:39:11 GMT-0400 (Eastern Daylight Time)","618205","Match,No Match","","null","","","","","","<div class='trialBorder'><div class='vertical-center'><img src='img/fixation2_sml.jpg'</img></div></div>","null","FIX","","","","","","","","","","",""
"html-keyboard-response","61","199890","0.0-7.0-2.5","5b65f7935c431c000127ae5f","bdp_wmem","Tue Mar 14 2023 21:39:11 GMT-0400 (Eastern Daylight Time)","618205","Match,No Match","","null","","","","","","<div class='trialBorder'><div class='vertical-center'><img style='vertical-align:center; align:center' src='img/fixation2_sml.jpg'></div><div class='arrayDiv2'><div class='tl'><img class='introPic' src='trustrating_stim/white_mw091.bmp'><br><font color='red'><strong>Keep</strong></font></div><div class='tr'><img class='introPic' src='trustrating_stim/white_mw042.bmp'><br><font color='green'><strong>Share</strong></font></div></div></div>","null","ARRAY","2","trustrating_stim/white_mw091.bmp,trustrating_stim/white_mw042.bmp","0,1","Match","e","3000","","","","",""
"html-keyboard-response","62","203895","0.0-7.0-3.5","5b65f7935c431c000127ae5f","bdp_wmem","Tue Mar 14 2023 21:39:11 GMT-0400 (Eastern Daylight Time)","618205","Match,No Match","","null","","","","","","<div class='trialBorder'><div class='vertical-center'><img src='img/fixation2_sml.jpg'</img></div></div>","null","DELAY","","","","","","","","","","",""
"html-keyboard-response","63","205457","0.0-7.0-4.5","5b65f7935c431c000127ae5f","bdp_wmem","Tue Mar 14 2023 21:39:11 GMT-0400 (Eastern Daylight Time)","618205","Match,No Match","","1560","","","","","","<div class='trialBorder'><div class='targDiv'><div class='tc'><img class='introPic' src='trustrating_stim/white_mw091.bmp'><br><font color='red'><strong>Keep</strong></font></div></div><div class='respDiv'><div class='respDivL'>Match<br>(e)</div><div class='respDivR'>No Match<br>(i)</div></div></div>","e","TARGET","2","trustrating_stim/white_mw091.bmp,trustrating_stim/white_mw042.bmp","0,1","Match","e","3000","trustrating_stim/white_mw091.bmp","red","Keep","REAL","1"
"html-keyboard-response","64","205958","0.0-7.0-5.5","5b65f7935c431c000127ae5f","bdp_wmem","Tue Mar 14 2023 21:39:11 GMT-0400 (Eastern Daylight Time)","618205","Match,No Match","","null","","","","","","<div class='trialBorder'><div class='vertical-center'><img src='img/correct.jpg'></div><div class='respDiv'><div class='respDivL'><font style='color:orange'>Match<br>(e)</font></div><div class='respDivR'>No Match<br>(i)</div></div></div>","null","FEEDBACK","","","","","","","","","","",""
"html-keyboard-response","65","206467","0.0-7.0-1.6","5b65f7935c431c000127ae5f","bdp_wmem","Tue Mar 14 2023 21:39:11 GMT-0400 (Eastern Daylight Time)","618205","Match,No Match","","null","","","","","","<div class='trialBorder'><div class='vertical-center'><img src='img/fixation2_sml.jpg'</img></div></div>","null","FIX","","","","","","","","","","",""
"html-keyboard-response","66","210978","0.0-7.0-2.6","5b65f7935c431c000127ae5f","bdp_wmem","Tue Mar 14 2023 21:39:11 GMT-0400 (Eastern Daylight Time)","618205","Match,No Match","","null","","","","","","<div class='trialBorder'><div class='vertical-center'><img style='vertical-align:center; align:center' src='img/fixation2_sml.jpg'></div><div class='arrayDiv3'><div class='tl'><img class='introPic' src='trustrating_stim/white_mw013.bmp'><br><font color='green'><strong>Share</strong></font></div><div class='tc'><img class='introPic' src='trustrating_stim/white_mw040.bmp'><br><font color='green'><strong>Share</strong></font></div><div class='tr'><img class='introPic' src='trustrating_stim/white_mw038.bmp'><br><font color='red'><strong>Keep</strong></font></div></div></div>","null","ARRAY","3","trustrating_stim/white_mw013.bmp,trustrating_stim/white_mw040.bmp,trustrating_stim/white_mw038.bmp","1,1,0","Match","e","4500","","","","",""
"html-keyboard-response","67","214983","0.0-7.0-3.6","5b65f7935c431c000127ae5f","bdp_wmem","Tue Mar 14 2023 21:39:11 GMT-0400 (Eastern Daylight Time)","618205","Match,No Match","","null","","","","","","<div class='trialBorder'><div class='vertical-center'><img src='img/fixation2_sml.jpg'</img></div></div>","null","DELAY","","","","","","","","","","",""
"html-keyboard-response","68","216474","0.0-7.0-4.6","5b65f7935c431c000127ae5f","bdp_wmem","Tue Mar 14 2023 21:39:11 GMT-0400 (Eastern Daylight Time)","618205","Match,No Match","","1489","","","","","","<div class='trialBorder'><div class='targDiv'><div class='tc'><img class='introPic' src='trustrating_stim/white_mw013.bmp'><br><font color='green'><strong>Share</strong></font></div></div><div class='respDiv'><div class='respDivL'>Match<br>(e)</div><div class='respDivR'>No Match<br>(i)</div></div></div>","e","TARGET","3","trustrating_stim/white_mw013.bmp,trustrating_stim/white_mw040.bmp,trustrating_stim/white_mw038.bmp","1,1,0","Match","e","4500","trustrating_stim/white_mw013.bmp","green","Share","REAL","1"
"html-keyboard-response","69","216979","0.0-7.0-5.6","5b65f7935c431c000127ae5f","bdp_wmem","Tue Mar 14 2023 21:39:11 GMT-0400 (Eastern Daylight Time)","618205","Match,No Match","","null","","","","","","<div class='trialBorder'><div class='vertical-center'><img src='img/correct.jpg'></div><div class='respDiv'><div class='respDivL'><font style='color:orange'>Match<br>(e)</font></div><div class='respDivR'>No Match<br>(i)</div></div></div>","null","FEEDBACK","","","","","","","","","","",""
"html-keyboard-response","70","217487","0.0-7.0-1.7","5b65f7935c431c000127ae5f","bdp_wmem","Tue Mar 14 2023 21:39:11 GMT-0400 (Eastern Daylight Time)","618205","Match,No Match","","null","","","","","","<div class='trialBorder'><div class='vertical-center'><img src='img/fixation2_sml.jpg'</img></div></div>","null","FIX","","","","","","","","","","",""
"html-keyboard-response","71","218991","0.0-7.0-2.7","5b65f7935c431c000127ae5f","bdp_wmem","Tue Mar 14 2023 21:39:11 GMT-0400 (Eastern Daylight Time)","618205","Match,No Match","","null","","","","","","<div class='trialBorder'><div class='vertical-center'><img style='vertical-align:center; align:center' src='img/fixation2_sml.jpg'></div><div class='arrayDiv1'><div class='tc'><img class='introPic' src='trustrating_stim/white_mw091.bmp'><br><font color='green'><strong>Share</strong></font></div></div></div>","null","ARRAY","1","trustrating_stim/white_mw091.bmp","1","noMatchFace","i","1500","","","","",""
"html-keyboard-response","72","223002","0.0-7.0-3.7","5b65f7935c431c000127ae5f","bdp_wmem","Tue Mar 14 2023 21:39:11 GMT-0400 (Eastern Daylight Time)","618205","Match,No Match","","null","","","","","","<div class='trialBorder'><div class='vertical-center'><img src='img/fixation2_sml.jpg'</img></div></div>","null","DELAY","","","","","","","","","","",""
"html-keyboard-response","73","225145","0.0-7.0-4.7","5b65f7935c431c000127ae5f","bdp_wmem","Tue Mar 14 2023 21:39:11 GMT-0400 (Eastern Daylight Time)","618205","Match,No Match","","2141","","","","","","<div class='trialBorder'><div class='targDiv'><div class='tc'><img class='introPic' src='trustrating_stim/white_mw010.bmp'><br><font color='green'><strong>Share</strong></font></div></div><div class='respDiv'><div class='respDivL'>Match<br>(e)</div><div class='respDivR'>No Match<br>(i)</div></div></div>","i","TARGET","1","trustrating_stim/white_mw091.bmp","1","noMatchFace","i","1500","trustrating_stim/white_mw010.bmp","green","Share","REAL","1"
"html-keyboard-response","74","225647","0.0-7.0-5.7","5b65f7935c431c000127ae5f","bdp_wmem","Tue Mar 14 2023 21:39:11 GMT-0400 (Eastern Daylight Time)","618205","Match,No Match","","null","","","","","","<div class='trialBorder'><div class='vertical-center'><img src='img/correct.jpg'></div><div class='respDiv'><div class='respDivL'>Match<br>(e)</div><div class='respDivR'><font style='color:orange'>No Match<br>(i)</font></div></div></div>","null","FEEDBACK","","","","","","","","","","",""
"html-keyboard-response","75","226153","0.0-7.0-1.8","5b65f7935c431c000127ae5f","bdp_wmem","Tue Mar 14 2023 21:39:11 GMT-0400 (Eastern Daylight Time)","618205","Match,No Match","","null","","","","","","<div class='trialBorder'><div class='vertical-center'><img src='img/fixation2_sml.jpg'</img></div></div>","null","FIX","","","","","","","","","","",""
"html-keyboard-response","76","229161","0.0-7.0-2.8","5b65f7935c431c000127ae5f","bdp_wmem","Tue Mar 14 2023 21:39:11 GMT-0400 (Eastern Daylight Time)","618205","Match,No Match","","null","","","","","","<div class='trialBorder'><div class='vertical-center'><img style='vertical-align:center; align:center' src='img/fixation2_sml.jpg'></div><div class='arrayDiv2'><div class='tl'><img class='introPic' src='trustrating_stim/white_mw003.bmp'><br><font color='red'><strong>Keep</strong></font></div><div class='tr'><img class='introPic' src='trustrating_stim/white_mw042.bmp'><br><font color='green'><strong>Share</strong></font></div></div></div>","null","ARRAY","2","trustrating_stim/white_mw003.bmp,trustrating_stim/white_mw042.bmp","0,1","Match","e","3000","","","","",""
"html-keyboard-response","77","233167","0.0-7.0-3.8","5b65f7935c431c000127ae5f","bdp_wmem","Tue Mar 14 2023 21:39:11 GMT-0400 (Eastern Daylight Time)","618205","Match,No Match","","null","","","","","","<div class='trialBorder'><div class='vertical-center'><img src='img/fixation2_sml.jpg'</img></div></div>","null","DELAY","","","","","","","","","","",""
"html-keyboard-response","78","234834","0.0-7.0-4.8","5b65f7935c431c000127ae5f","bdp_wmem","Tue Mar 14 2023 21:39:11 GMT-0400 (Eastern Daylight Time)","618205","Match,No Match","","1665","","","","","","<div class='trialBorder'><div class='targDiv'><div class='tc'><img class='introPic' src='trustrating_stim/white_mw042.bmp'><br><font color='green'><strong>Share</strong></font></div></div><div class='respDiv'><div class='respDivL'>Match<br>(e)</div><div class='respDivR'>No Match<br>(i)</div></div></div>","i","TARGET","2","trustrating_stim/white_mw003.bmp,trustrating_stim/white_mw042.bmp","0,1","Match","e","3000","trustrating_stim/white_mw042.bmp","green","Share","REAL","0"
"html-keyboard-response","79","235344","0.0-7.0-5.8","5b65f7935c431c000127ae5f","bdp_wmem","Tue Mar 14 2023 21:39:11 GMT-0400 (Eastern Daylight Time)","618205","Match,No Match","","null","","","","","","<div class='trialBorder'><div class='vertical-center'><img src='img/error.jpg'></div><div class='respDiv'><div class='respDivL'>Match<br>(e)</div><div class='respDivR'><font style='color:orange'>No Match<br>(i)</font></div></div></div>","null","FEEDBACK","","","","","","","","","","",""
"html-keyboard-response","80","235849","0.0-7.0-1.9","5b65f7935c431c000127ae5f","bdp_wmem","Tue Mar 14 2023 21:39:11 GMT-0400 (Eastern Daylight Time)","618205","Match,No Match","","null","","","","","","<div class='trialBorder'><div class='vertical-center'><img src='img/fixation2_sml.jpg'</img></div></div>","null","FIX","","","","","","","","","","",""
"html-keyboard-response","81","237356","0.0-7.0-2.9","5b65f7935c431c000127ae5f","bdp_wmem","Tue Mar 14 2023 21:39:11 GMT-0400 (Eastern Daylight Time)","618205","Match,No Match","","null","","","","","","<div class='trialBorder'><div class='vertical-center'><img style='vertical-align:center; align:center' src='img/fixation2_sml.jpg'></div><div class='arrayDiv1'><div class='tc'><img class='introPic' src='trustrating_stim/white_mw092.bmp'><br><font color='red'><strong>Keep</strong></font></div></div></div>","null","ARRAY","1","trustrating_stim/white_mw092.bmp","0","noMatchOutcome","i","1500","","","","",""
"html-keyboard-response","82","241361","0.0-7.0-3.9","5b65f7935c431c000127ae5f","bdp_wmem","Tue Mar 14 2023 21:39:11 GMT-0400 (Eastern Daylight Time)","618205","Match,No Match","","null","","","","","","<div class='trialBorder'><div class='vertical-center'><img src='img/fixation2_sml.jpg'</img></div></div>","null","DELAY","","","","","","","","","","",""
"html-keyboard-response","83","242986","0.0-7.0-4.9","5b65f7935c431c000127ae5f","bdp_wmem","Tue Mar 14 2023 21:39:11 GMT-0400 (Eastern Daylight Time)","618205","Match,No Match","","1623","","","","","","<div class='trialBorder'><div class='targDiv'><div class='tc'><img class='introPic' src='trustrating_stim/white_mw092.bmp'><br><font color='green'><strong>Share</strong></font></div></div><div class='respDiv'><div class='respDivL'>Match<br>(e)</div><div class='respDivR'>No Match<br>(i)</div></div></div>","i","TARGET","1","trustrating_stim/white_mw092.bmp","0","noMatchOutcome","i","1500","trustrating_stim/white_mw092.bmp","green","Share","REAL","1"
"html-keyboard-response","84","243489","0.0-7.0-5.9","5b65f7935c431c000127ae5f","bdp_wmem","Tue Mar 14 2023 21:39:11 GMT-0400 (Eastern Daylight Time)","618205","Match,No Match","","null","","","","","","<div class='trialBorder'><div class='vertical-center'><img src='img/correct.jpg'></div><div class='respDiv'><div class='respDivL'>Match<br>(e)</div><div class='respDivR'><font style='color:orange'>No Match<br>(i)</font></div></div></div>","null","FEEDBACK","","","","","","","","","","",""
"html-keyboard-response","85","243991","0.0-7.0-1.10","5b65f7935c431c000127ae5f","bdp_wmem","Tue Mar 14 2023 21:39:11 GMT-0400 (Eastern Daylight Time)","618205","Match,No Match","","null","","","","","","<div class='trialBorder'><div class='vertical-center'><img src='img/fixation2_sml.jpg'</img></div></div>","null","FIX","","","","","","","","","","",""
"html-keyboard-response","86","248496","0.0-7.0-2.10","5b65f7935c431c000127ae5f","bdp_wmem","Tue Mar 14 2023 21:39:11 GMT-0400 (Eastern Daylight Time)","618205","Match,No Match","","null","","","","","","<div class='trialBorder'><div class='vertical-center'><img style='vertical-align:center; align:center' src='img/fixation2_sml.jpg'></div><div class='arrayDiv3'><div class='tl'><img class='introPic' src='trustrating_stim/white_mw085.bmp'><br><font color='red'><strong>Keep</strong></font></div><div class='tc'><img class='introPic' src='trustrating_stim/white_mw013.bmp'><br><font color='red'><strong>Keep</strong></font></div><div class='tr'><img class='introPic' src='trustrating_stim/white_mw040.bmp'><br><font color='green'><strong>Share</strong></font></div></div></div>","null","ARRAY","3","trustrating_stim/white_mw085.bmp,trustrating_stim/white_mw013.bmp,trustrating_stim/white_mw040.bmp","0,0,1","noMatchOutcome","i","4500","","","","",""
"html-keyboard-response","87","252508","0.0-7.0-3.10","5b65f7935c431c000127ae5f","bdp_wmem","Tue Mar 14 2023 21:39:11 GMT-0400 (Eastern Daylight Time)","618205","Match,No Match","","null","","","","","","<div class='trialBorder'><div class='vertical-center'><img src='img/fixation2_sml.jpg'</img></div></div>","null","DELAY","","","","","","","","","","",""
"html-keyboard-response","88","254731","0.0-7.0-4.10","5b65f7935c431c000127ae5f","bdp_wmem","Tue Mar 14 2023 21:39:11 GMT-0400 (Eastern Daylight Time)","618205","Match,No Match","","2222","","","","","","<div class='trialBorder'><div class='targDiv'><div class='tc'><img class='introPic' src='trustrating_stim/white_mw013.bmp'><br><font color='green'><strong>Share</strong></font></div></div><div class='respDiv'><div class='respDivL'>Match<br>(e)</div><div class='respDivR'>No Match<br>(i)</div></div></div>","i","TARGET","3","trustrating_stim/white_mw085.bmp,trustrating_stim/white_mw013.bmp,trustrating_stim/white_mw040.bmp","0,0,1","noMatchOutcome","i","4500","trustrating_stim/white_mw013.bmp","green","Share","REAL","1"
"html-keyboard-response","89","255236","0.0-7.0-5.10","5b65f7935c431c000127ae5f","bdp_wmem","Tue Mar 14 2023 21:39:11 GMT-0400 (Eastern Daylight Time)","618205","Match,No Match","","null","","","","","","<div class='trialBorder'><div class='vertical-center'><img src='img/correct.jpg'></div><div class='respDiv'><div class='respDivL'>Match<br>(e)</div><div class='respDivR'><font style='color:orange'>No Match<br>(i)</font></div></div></div>","null","FEEDBACK","","","","","","","","","","",""
"html-keyboard-response","90","255739","0.0-7.0-1.11","5b65f7935c431c000127ae5f","bdp_wmem","Tue Mar 14 2023 21:39:11 GMT-0400 (Eastern Daylight Time)","618205","Match,No Match","","null","","","","","","<div class='trialBorder'><div class='vertical-center'><img src='img/fixation2_sml.jpg'</img></div></div>","null","FIX","","","","","","","","","","",""
"html-keyboard-response","91","260251","0.0-7.0-2.11","5b65f7935c431c000127ae5f","bdp_wmem","Tue Mar 14 2023 21:39:11 GMT-0400 (Eastern Daylight Time)","618205","Match,No Match","","null","","","","","","<div class='trialBorder'><div class='vertical-center'><img style='vertical-align:center; align:center' src='img/fixation2_sml.jpg'></div><div class='arrayDiv3'><div class='tl'><img class='introPic' src='trustrating_stim/white_mw040.bmp'><br><font color='green'><strong>Share</strong></font></div><div class='tc'><img class='introPic' src='trustrating_stim/white_mw042.bmp'><br><font color='green'><strong>Share</strong></font></div><div class='tr'><img class='introPic' src='trustrating_stim/white_mw070.bmp'><br><font color='red'><strong>Keep</strong></font></div></div></div>","null","ARRAY","3","trustrating_stim/white_mw040.bmp,trustrating_stim/white_mw042.bmp,trustrating_stim/white_mw070.bmp","1,1,0","Match","e","4500","","","","",""
"html-keyboard-response","92","264257","0.0-7.0-3.11","5b65f7935c431c000127ae5f","bdp_wmem","Tue Mar 14 2023 21:39:11 GMT-0400 (Eastern Daylight Time)","618205","Match,No Match","","null","","","","","","<div class='trialBorder'><div class='vertical-center'><img src='img/fixation2_sml.jpg'</img></div></div>","null","DELAY","","","","","","","","","","",""
"html-keyboard-response","93","266547","0.0-7.0-4.11","5b65f7935c431c000127ae5f","bdp_wmem","Tue Mar 14 2023 21:39:11 GMT-0400 (Eastern Daylight Time)","618205","Match,No Match","","2288","","","","","","<div class='trialBorder'><div class='targDiv'><div class='tc'><img class='introPic' src='trustrating_stim/white_mw042.bmp'><br><font color='green'><strong>Share</strong></font></div></div><div class='respDiv'><div class='respDivL'>Match<br>(e)</div><div class='respDivR'>No Match<br>(i)</div></div></div>","e","TARGET","3","trustrating_stim/white_mw040.bmp,trustrating_stim/white_mw042.bmp,trustrating_stim/white_mw070.bmp","1,1,0","Match","e","4500","trustrating_stim/white_mw042.bmp","green","Share","REAL","1"
"html-keyboard-response","94","267052","0.0-7.0-5.11","5b65f7935c431c000127ae5f","bdp_wmem","Tue Mar 14 2023 21:39:11 GMT-0400 (Eastern Daylight Time)","618205","Match,No Match","","null","","","","","","<div class='trialBorder'><div class='vertical-center'><img src='img/correct.jpg'></div><div class='respDiv'><div class='respDivL'><font style='color:orange'>Match<br>(e)</font></div><div class='respDivR'>No Match<br>(i)</div></div></div>","null","FEEDBACK","","","","","","","","","","",""
"html-keyboard-response","95","267555","0.0-7.0-1.12","5b65f7935c431c000127ae5f","bdp_wmem","Tue Mar 14 2023 21:39:11 GMT-0400 (Eastern Daylight Time)","618205","Match,No Match","","null","","","","","","<div class='trialBorder'><div class='vertical-center'><img src='img/fixation2_sml.jpg'</img></div></div>","null","FIX","","","","","","","","","","",""
"html-keyboard-response","96","269068","0.0-7.0-2.12","5b65f7935c431c000127ae5f","bdp_wmem","Tue Mar 14 2023 21:39:11 GMT-0400 (Eastern Daylight Time)","618205","Match,No Match","","null","","","","","","<div class='trialBorder'><div class='vertical-center'><img style='vertical-align:center; align:center' src='img/fixation2_sml.jpg'></div><div class='arrayDiv1'><div class='tc'><img class='introPic' src='trustrating_stim/white_mw003.bmp'><br><font color='green'><strong>Share</strong></font></div></div></div>","null","ARRAY","1","trustrating_stim/white_mw003.bmp","1","Match","e","1500","","","","",""
"html-keyboard-response","97","273075","0.0-7.0-3.12","5b65f7935c431c000127ae5f","bdp_wmem","Tue Mar 14 2023 21:39:11 GMT-0400 (Eastern Daylight Time)","618205","Match,No Match","","null","","","","","","<div class='trialBorder'><div class='vertical-center'><img src='img/fixation2_sml.jpg'</img></div></div>","null","DELAY","","","","","","","","","","",""
"html-keyboard-response","98","274435","0.0-7.0-4.12","5b65f7935c431c000127ae5f","bdp_wmem","Tue Mar 14 2023 21:39:11 GMT-0400 (Eastern Daylight Time)","618205","Match,No Match","","1358","","","","","","<div class='trialBorder'><div class='targDiv'><div class='tc'><img class='introPic' src='trustrating_stim/white_mw003.bmp'><br><font color='green'><strong>Share</strong></font></div></div><div class='respDiv'><div class='respDivL'>Match<br>(e)</div><div class='respDivR'>No Match<br>(i)</div></div></div>","e","TARGET","1","trustrating_stim/white_mw003.bmp","1","Match","e","1500","trustrating_stim/white_mw003.bmp","green","Share","REAL","1"
"html-keyboard-response","99","274939","0.0-7.0-5.12","5b65f7935c431c000127ae5f","bdp_wmem","Tue Mar 14 2023 21:39:11 GMT-0400 (Eastern Daylight Time)","618205","Match,No Match","","null","","","","","","<div class='trialBorder'><div class='vertical-center'><img src='img/correct.jpg'></div><div class='respDiv'><div class='respDivL'><font style='color:orange'>Match<br>(e)</font></div><div class='respDivR'>No Match<br>(i)</div></div></div>","null","FEEDBACK","","","","","","","","","","",""
"html-keyboard-response","100","275444","0.0-7.0-1.13","5b65f7935c431c000127ae5f","bdp_wmem","Tue Mar 14 2023 21:39:11 GMT-0400 (Eastern Daylight Time)","618205","Match,No Match","","null","","","","","","<div class='trialBorder'><div class='vertical-center'><img src='img/fixation2_sml.jpg'</img></div></div>","null","FIX","","","","","","","","","","",""
"html-keyboard-response","101","279954","0.0-7.0-2.13","5b65f7935c431c000127ae5f","bdp_wmem","Tue Mar 14 2023 21:39:11 GMT-0400 (Eastern Daylight Time)","618205","Match,No Match","","null","","","","","","<div class='trialBorder'><div class='vertical-center'><img style='vertical-align:center; align:center' src='img/fixation2_sml.jpg'></div><div class='arrayDiv3'><div class='tl'><img class='introPic' src='trustrating_stim/white_mw070.bmp'><br><font color='green'><strong>Share</strong></font></div><div class='tc'><img class='introPic' src='trustrating_stim/white_mw092.bmp'><br><font color='red'><strong>Keep</strong></font></div><div class='tr'><img class='introPic' src='trustrating_stim/white_mw040.bmp'><br><font color='red'><strong>Keep</strong></font></div></div></div>","null","ARRAY","3","trustrating_stim/white_mw070.bmp,trustrating_stim/white_mw092.bmp,trustrating_stim/white_mw040.bmp","1,0,0","noMatchFace","i","4500","","","","",""
"html-keyboard-response","102","283963","0.0-7.0-3.13","5b65f7935c431c000127ae5f","bdp_wmem","Tue Mar 14 2023 21:39:11 GMT-0400 (Eastern Daylight Time)","618205","Match,No Match","","null","","","","","","<div class='trialBorder'><div class='vertical-center'><img src='img/fixation2_sml.jpg'</img></div></div>","null","DELAY","","","","","","","","","","",""
"html-keyboard-response","103","286467","0.0-7.0-4.13","5b65f7935c431c000127ae5f","bdp_wmem","Tue Mar 14 2023 21:39:11 GMT-0400 (Eastern Daylight Time)","618205","Match,No Match","","2503","","","","","","<div class='trialBorder'><div class='targDiv'><div class='tc'><img class='introPic' src='trustrating_stim/white_mw042.bmp'><br><font color='green'><strong>Share</strong></font></div></div><div class='respDiv'><div class='respDivL'>Match<br>(e)</div><div class='respDivR'>No Match<br>(i)</div></div></div>","i","TARGET","3","trustrating_stim/white_mw070.bmp,trustrating_stim/white_mw092.bmp,trustrating_stim/white_mw040.bmp","1,0,0","noMatchFace","i","4500","trustrating_stim/white_mw042.bmp","green","Share","REAL","1"
"html-keyboard-response","104","286973","0.0-7.0-5.13","5b65f7935c431c000127ae5f","bdp_wmem","Tue Mar 14 2023 21:39:11 GMT-0400 (Eastern Daylight Time)","618205","Match,No Match","","null","","","","","","<div class='trialBorder'><div class='vertical-center'><img src='img/correct.jpg'></div><div class='respDiv'><div class='respDivL'>Match<br>(e)</div><div class='respDivR'><font style='color:orange'>No Match<br>(i)</font></div></div></div>","null","FEEDBACK","","","","","","","","","","",""
"html-keyboard-response","105","287483","0.0-7.0-1.14","5b65f7935c431c000127ae5f","bdp_wmem","Tue Mar 14 2023 21:39:11 GMT-0400 (Eastern Daylight Time)","618205","Match,No Match","","null","","","","","","<div class='trialBorder'><div class='vertical-center'><img src='img/fixation2_sml.jpg'</img></div></div>","null","FIX","","","","","","","","","","",""
"html-keyboard-response","106","290491","0.0-7.0-2.14","5b65f7935c431c000127ae5f","bdp_wmem","Tue Mar 14 2023 21:39:11 GMT-0400 (Eastern Daylight Time)","618205","Match,No Match","","null","","","","","","<div class='trialBorder'><div class='vertical-center'><img style='vertical-align:center; align:center' src='img/fixation2_sml.jpg'></div><div class='arrayDiv2'><div class='tl'><img class='introPic' src='trustrating_stim/white_mw092.bmp'><br><font color='red'><strong>Keep</strong></font></div><div class='tr'><img class='introPic' src='trustrating_stim/white_mw038.bmp'><br><font color='green'><strong>Share</strong></font></div></div></div>","null","ARRAY","2","trustrating_stim/white_mw092.bmp,trustrating_stim/white_mw038.bmp","0,1","Match","e","3000","","","","",""
"html-keyboard-response","107","294497","0.0-7.0-3.14","5b65f7935c431c000127ae5f","bdp_wmem","Tue Mar 14 2023 21:39:11 GMT-0400 (Eastern Daylight Time)","618205","Match,No Match","","null","","","","","","<div class='trialBorder'><div class='vertical-center'><img src='img/fixation2_sml.jpg'</img></div></div>","null","DELAY","","","","","","","","","","",""
"html-keyboard-response","108","295931","0.0-7.0-4.14","5b65f7935c431c000127ae5f","bdp_wmem","Tue Mar 14 2023 21:39:11 GMT-0400 (Eastern Daylight Time)","618205","Match,No Match","","1433","","","","","","<div class='trialBorder'><div class='targDiv'><div class='tc'><img class='introPic' src='trustrating_stim/white_mw038.bmp'><br><font color='green'><strong>Share</strong></font></div></div><div class='respDiv'><div class='respDivL'>Match<br>(e)</div><div class='respDivR'>No Match<br>(i)</div></div></div>","e","TARGET","2","trustrating_stim/white_mw092.bmp,trustrating_stim/white_mw038.bmp","0,1","Match","e","3000","trustrating_stim/white_mw038.bmp","green","Share","REAL","1"
"html-keyboard-response","109","296435","0.0-7.0-5.14","5b65f7935c431c000127ae5f","bdp_wmem","Tue Mar 14 2023 21:39:11 GMT-0400 (Eastern Daylight Time)","618205","Match,No Match","","null","","","","","","<div class='trialBorder'><div class='vertical-center'><img src='img/correct.jpg'></div><div class='respDiv'><div class='respDivL'><font style='color:orange'>Match<br>(e)</font></div><div class='respDivR'>No Match<br>(i)</div></div></div>","null","FEEDBACK","","","","","","","","","","",""
"html-keyboard-response","110","296940","0.0-7.0-1.15","5b65f7935c431c000127ae5f","bdp_wmem","Tue Mar 14 2023 21:39:11 GMT-0400 (Eastern Daylight Time)","618205","Match,No Match","","null","","","","","","<div class='trialBorder'><div class='vertical-center'><img src='img/fixation2_sml.jpg'</img></div></div>","null","FIX","","","","","","","","","","",""
"html-keyboard-response","111","298450","0.0-7.0-2.15","5b65f7935c431c000127ae5f","bdp_wmem","Tue Mar 14 2023 21:39:11 GMT-0400 (Eastern Daylight Time)","618205","Match,No Match","","null","","","","","","<div class='trialBorder'><div class='vertical-center'><img style='vertical-align:center; align:center' src='img/fixation2_sml.jpg'></div><div class='arrayDiv1'><div class='tc'><img class='introPic' src='trustrating_stim/white_mw085.bmp'><br><font color='red'><strong>Keep</strong></font></div></div></div>","null","ARRAY","1","trustrating_stim/white_mw085.bmp","0","Match","e","1500","","","","",""
"html-keyboard-response","112","302461","0.0-7.0-3.15","5b65f7935c431c000127ae5f","bdp_wmem","Tue Mar 14 2023 21:39:11 GMT-0400 (Eastern Daylight Time)","618205","Match,No Match","","null","","","","","","<div class='trialBorder'><div class='vertical-center'><img src='img/fixation2_sml.jpg'</img></div></div>","null","DELAY","","","","","","","","","","",""
"html-keyboard-response","113","305442","0.0-7.0-4.15","5b65f7935c431c000127ae5f","bdp_wmem","Tue Mar 14 2023 21:39:11 GMT-0400 (Eastern Daylight Time)","618205","Match,No Match","","2980","","","","","","<div class='trialBorder'><div class='targDiv'><div class='tc'><img class='introPic' src='trustrating_stim/white_mw085.bmp'><br><font color='red'><strong>Keep</strong></font></div></div><div class='respDiv'><div class='respDivL'>Match<br>(e)</div><div class='respDivR'>No Match<br>(i)</div></div></div>","e","TARGET","1","trustrating_stim/white_mw085.bmp","0","Match","e","1500","trustrating_stim/white_mw085.bmp","red","Keep","REAL","1"
"html-keyboard-response","114","305950","0.0-7.0-5.15","5b65f7935c431c000127ae5f","bdp_wmem","Tue Mar 14 2023 21:39:11 GMT-0400 (Eastern Daylight Time)","618205","Match,No Match","","null","","","","","","<div class='trialBorder'><div class='vertical-center'><img src='img/correct.jpg'></div><div class='respDiv'><div class='respDivL'><font style='color:orange'>Match<br>(e)</font></div><div class='respDivR'>No Match<br>(i)</div></div></div>","null","FEEDBACK","","","","","","","","","","",""
"html-keyboard-response","115","306457","0.0-7.0-1.16","5b65f7935c431c000127ae5f","bdp_wmem","Tue Mar 14 2023 21:39:11 GMT-0400 (Eastern Daylight Time)","618205","Match,No Match","","null","","","","","","<div class='trialBorder'><div class='vertical-center'><img src='img/fixation2_sml.jpg'</img></div></div>","null","FIX","","","","","","","","","","",""
"html-keyboard-response","116","309468","0.0-7.0-2.16","5b65f7935c431c000127ae5f","bdp_wmem","Tue Mar 14 2023 21:39:11 GMT-0400 (Eastern Daylight Time)","618205","Match,No Match","","null","","","","","","<div class='trialBorder'><div class='vertical-center'><img style='vertical-align:center; align:center' src='img/fixation2_sml.jpg'></div><div class='arrayDiv2'><div class='tl'><img class='introPic' src='trustrating_stim/white_mw091.bmp'><br><font color='red'><strong>Keep</strong></font></div><div class='tr'><img class='introPic' src='trustrating_stim/white_mw003.bmp'><br><font color='green'><strong>Share</strong></font></div></div></div>","null","ARRAY","2","trustrating_stim/white_mw091.bmp,trustrating_stim/white_mw003.bmp","0,1","noMatchOutcome","i","3000","","","","",""
"html-keyboard-response","117","313474","0.0-7.0-3.16","5b65f7935c431c000127ae5f","bdp_wmem","Tue Mar 14 2023 21:39:11 GMT-0400 (Eastern Daylight Time)","618205","Match,No Match","","null","","","","","","<div class='trialBorder'><div class='vertical-center'><img src='img/fixation2_sml.jpg'</img></div></div>","null","DELAY","","","","","","","","","","",""
"html-keyboard-response","118","315756","0.0-7.0-4.16","5b65f7935c431c000127ae5f","bdp_wmem","Tue Mar 14 2023 21:39:11 GMT-0400 (Eastern Daylight Time)","618205","Match,No Match","","2281","","","","","","<div class='trialBorder'><div class='targDiv'><div class='tc'><img class='introPic' src='trustrating_stim/white_mw003.bmp'><br><font color='red'><strong>Keep</strong></font></div></div><div class='respDiv'><div class='respDivL'>Match<br>(e)</div><div class='respDivR'>No Match<br>(i)</div></div></div>","i","TARGET","2","trustrating_stim/white_mw091.bmp,trustrating_stim/white_mw003.bmp","0,1","noMatchOutcome","i","3000","trustrating_stim/white_mw003.bmp","red","Keep","REAL","1"
"html-keyboard-response","119","316260","0.0-7.0-5.16","5b65f7935c431c000127ae5f","bdp_wmem","Tue Mar 14 2023 21:39:11 GMT-0400 (Eastern Daylight Time)","618205","Match,No Match","","null","","","","","","<div class='trialBorder'><div class='vertical-center'><img src='img/correct.jpg'></div><div class='respDiv'><div class='respDivL'>Match<br>(e)</div><div class='respDivR'><font style='color:orange'>No Match<br>(i)</font></div></div></div>","null","FEEDBACK","","","","","","","","","","",""
"html-keyboard-response","120","316765","0.0-7.0-1.17","5b65f7935c431c000127ae5f","bdp_wmem","Tue Mar 14 2023 21:39:11 GMT-0400 (Eastern Daylight Time)","618205","Match,No Match","","null","","","","","","<div class='trialBorder'><div class='vertical-center'><img src='img/fixation2_sml.jpg'</img></div></div>","null","FIX","","","","","","","","","","",""
"html-keyboard-response","121","321276","0.0-7.0-2.17","5b65f7935c431c000127ae5f","bdp_wmem","Tue Mar 14 2023 21:39:11 GMT-0400 (Eastern Daylight Time)","618205","Match,No Match","","null","","","","","","<div class='trialBorder'><div class='vertical-center'><img style='vertical-align:center; align:center' src='img/fixation2_sml.jpg'></div><div class='arrayDiv3'><div class='tl'><img class='introPic' src='trustrating_stim/white_mw013.bmp'><br><font color='green'><strong>Share</strong></font></div><div class='tc'><img class='introPic' src='trustrating_stim/white_mw003.bmp'><br><font color='green'><strong>Share</strong></font></div><div class='tr'><img class='introPic' src='trustrating_stim/white_mw092.bmp'><br><font color='red'><strong>Keep</strong></font></div></div></div>","null","ARRAY","3","trustrating_stim/white_mw013.bmp,trustrating_stim/white_mw003.bmp,trustrating_stim/white_mw092.bmp","1,1,0","noMatchFace","i","4500","","","","",""
"html-keyboard-response","122","325283","0.0-7.0-3.17","5b65f7935c431c000127ae5f","bdp_wmem","Tue Mar 14 2023 21:39:11 GMT-0400 (Eastern Daylight Time)","618205","Match,No Match","","null","","","","","","<div class='trialBorder'><div class='vertical-center'><img src='img/fixation2_sml.jpg'</img></div></div>","null","DELAY","","","","","","","","","","",""
"html-keyboard-response","123","327189","0.0-7.0-4.17","5b65f7935c431c000127ae5f","bdp_wmem","Tue Mar 14 2023 21:39:11 GMT-0400 (Eastern Daylight Time)","618205","Match,No Match","","1904","","","","","","<div class='trialBorder'><div class='targDiv'><div class='tc'><img class='introPic' src='trustrating_stim/white_mw042.bmp'><br><font color='red'><strong>Keep</strong></font></div></div><div class='respDiv'><div class='respDivL'>Match<br>(e)</div><div class='respDivR'>No Match<br>(i)</div></div></div>","i","TARGET","3","trustrating_stim/white_mw013.bmp,trustrating_stim/white_mw003.bmp,trustrating_stim/white_mw092.bmp","1,1,0","noMatchFace","i","4500","trustrating_stim/white_mw042.bmp","red","Keep","REAL","1"
"html-keyboard-response","124","327693","0.0-7.0-5.17","5b65f7935c431c000127ae5f","bdp_wmem","Tue Mar 14 2023 21:39:11 GMT-0400 (Eastern Daylight Time)","618205","Match,No Match","","null","","","","","","<div class='trialBorder'><div class='vertical-center'><img src='img/correct.jpg'></div><div class='respDiv'><div class='respDivL'>Match<br>(e)</div><div class='respDivR'><font style='color:orange'>No Match<br>(i)</font></div></div></div>","null","FEEDBACK","","","","","","","","","","",""
"html-keyboard-response","125","328195","0.0-7.0-1.18","5b65f7935c431c000127ae5f","bdp_wmem","Tue Mar 14 2023 21:39:11 GMT-0400 (Eastern Daylight Time)","618205","Match,No Match","","null","","","","","","<div class='trialBorder'><div class='vertical-center'><img src='img/fixation2_sml.jpg'</img></div></div>","null","FIX","","","","","","","","","","",""
"html-keyboard-response","126","332700","0.0-7.0-2.18","5b65f7935c431c000127ae5f","bdp_wmem","Tue Mar 14 2023 21:39:11 GMT-0400 (Eastern Daylight Time)","618205","Match,No Match","","null","","","","","","<div class='trialBorder'><div class='vertical-center'><img style='vertical-align:center; align:center' src='img/fixation2_sml.jpg'></div><div class='arrayDiv3'><div class='tl'><img class='introPic' src='trustrating_stim/white_mw085.bmp'><br><font color='green'><strong>Share</strong></font></div><div class='tc'><img class='introPic' src='trustrating_stim/white_mw078.bmp'><br><font color='red'><strong>Keep</strong></font></div><div class='tr'><img class='introPic' src='trustrating_stim/white_mw010.bmp'><br><font color='green'><strong>Share</strong></font></div></div></div>","null","ARRAY","3","trustrating_stim/white_mw085.bmp,trustrating_stim/white_mw078.bmp,trustrating_stim/white_mw010.bmp","1,0,1","Match","e","4500","","","","",""
"html-keyboard-response","127","336711","0.0-7.0-3.18","5b65f7935c431c000127ae5f","bdp_wmem","Tue Mar 14 2023 21:39:11 GMT-0400 (Eastern Daylight Time)","618205","Match,No Match","","null","","","","","","<div class='trialBorder'><div class='vertical-center'><img src='img/fixation2_sml.jpg'</img></div></div>","null","DELAY","","","","","","","","","","",""
"html-keyboard-response","128","338045","0.0-7.0-4.18","5b65f7935c431c000127ae5f","bdp_wmem","Tue Mar 14 2023 21:39:11 GMT-0400 (Eastern Daylight Time)","618205","Match,No Match","","1333","","","","","","<div class='trialBorder'><div class='targDiv'><div class='tc'><img class='introPic' src='trustrating_stim/white_mw010.bmp'><br><font color='green'><strong>Share</strong></font></div></div><div class='respDiv'><div class='respDivL'>Match<br>(e)</div><div class='respDivR'>No Match<br>(i)</div></div></div>","e","TARGET","3","trustrating_stim/white_mw085.bmp,trustrating_stim/white_mw078.bmp,trustrating_stim/white_mw010.bmp","1,0,1","Match","e","4500","trustrating_stim/white_mw010.bmp","green","Share","REAL","1"
"html-keyboard-response","129","338547","0.0-7.0-5.18","5b65f7935c431c000127ae5f","bdp_wmem","Tue Mar 14 2023 21:39:11 GMT-0400 (Eastern Daylight Time)","618205","Match,No Match","","null","","","","","","<div class='trialBorder'><div class='vertical-center'><img src='img/correct.jpg'></div><div class='respDiv'><div class='respDivL'><font style='color:orange'>Match<br>(e)</font></div><div class='respDivR'>No Match<br>(i)</div></div></div>","null","FEEDBACK","","","","","","","","","","",""
"html-keyboard-response","130","339051","0.0-7.0-1.19","5b65f7935c431c000127ae5f","bdp_wmem","Tue Mar 14 2023 21:39:11 GMT-0400 (Eastern Daylight Time)","618205","Match,No Match","","null","","","","","","<div class='trialBorder'><div class='vertical-center'><img src='img/fixation2_sml.jpg'</img></div></div>","null","FIX","","","","","","","","","","",""
"html-keyboard-response","131","340555","0.0-7.0-2.19","5b65f7935c431c000127ae5f","bdp_wmem","Tue Mar 14 2023 21:39:11 GMT-0400 (Eastern Daylight Time)","618205","Match,No Match","","null","","","","","","<div class='trialBorder'><div class='vertical-center'><img style='vertical-align:center; align:center' src='img/fixation2_sml.jpg'></div><div class='arrayDiv1'><div class='tc'><img class='introPic' src='trustrating_stim/white_mw070.bmp'><br><font color='red'><strong>Keep</strong></font></div></div></div>","null","ARRAY","1","trustrating_stim/white_mw070.bmp","0","Match","e","1500","","","","",""
"html-keyboard-response","132","344567","0.0-7.0-3.19","5b65f7935c431c000127ae5f","bdp_wmem","Tue Mar 14 2023 21:39:11 GMT-0400 (Eastern Daylight Time)","618205","Match,No Match","","null","","","","","","<div class='trialBorder'><div class='vertical-center'><img src='img/fixation2_sml.jpg'</img></div></div>","null","DELAY","","","","","","","","","","",""
"html-keyboard-response","133","346101","0.0-7.0-4.19","5b65f7935c431c000127ae5f","bdp_wmem","Tue Mar 14 2023 21:39:11 GMT-0400 (Eastern Daylight Time)","618205","Match,No Match","","1533","","","","","","<div class='trialBorder'><div class='targDiv'><div class='tc'><img class='introPic' src='trustrating_stim/white_mw070.bmp'><br><font color='red'><strong>Keep</strong></font></div></div><div class='respDiv'><div class='respDivL'>Match<br>(e)</div><div class='respDivR'>No Match<br>(i)</div></div></div>","e","TARGET","1","trustrating_stim/white_mw070.bmp","0","Match","e","1500","trustrating_stim/white_mw070.bmp","red","Keep","REAL","1"
"html-keyboard-response","134","346604","0.0-7.0-5.19","5b65f7935c431c000127ae5f","bdp_wmem","Tue Mar 14 2023 21:39:11 GMT-0400 (Eastern Daylight Time)","618205","Match,No Match","","null","","","","","","<div class='trialBorder'><div class='vertical-center'><img src='img/correct.jpg'></div><div class='respDiv'><div class='respDivL'><font style='color:orange'>Match<br>(e)</font></div><div class='respDivR'>No Match<br>(i)</div></div></div>","null","FEEDBACK","","","","","","","","","","",""
"html-keyboard-response","135","347108","0.0-7.0-1.20","5b65f7935c431c000127ae5f","bdp_wmem","Tue Mar 14 2023 21:39:11 GMT-0400 (Eastern Daylight Time)","618205","Match,No Match","","null","","","","","","<div class='trialBorder'><div class='vertical-center'><img src='img/fixation2_sml.jpg'</img></div></div>","null","FIX","","","","","","","","","","",""
"html-keyboard-response","136","348614","0.0-7.0-2.20","5b65f7935c431c000127ae5f","bdp_wmem","Tue Mar 14 2023 21:39:11 GMT-0400 (Eastern Daylight Time)","618205","Match,No Match","","null","","","","","","<div class='trialBorder'><div class='vertical-center'><img style='vertical-align:center; align:center' src='img/fixation2_sml.jpg'></div><div class='arrayDiv1'><div class='tc'><img class='introPic' src='trustrating_stim/white_mw040.bmp'><br><font color='red'><strong>Keep</strong></font></div></div></div>","null","ARRAY","1","trustrating_stim/white_mw040.bmp","0","noMatchFace","i","1500","","","","",""
"html-keyboard-response","137","352620","0.0-7.0-3.20","5b65f7935c431c000127ae5f","bdp_wmem","Tue Mar 14 2023 21:39:11 GMT-0400 (Eastern Daylight Time)","618205","Match,No Match","","null","","","","","","<div class='trialBorder'><div class='vertical-center'><img src='img/fixation2_sml.jpg'</img></div></div>","null","DELAY","","","","","","","","","","",""
"html-keyboard-response","138","354078","0.0-7.0-4.20","5b65f7935c431c000127ae5f","bdp_wmem","Tue Mar 14 2023 21:39:11 GMT-0400 (Eastern Daylight Time)","618205","Match,No Match","","1457","","","","","","<div class='trialBorder'><div class='targDiv'><div class='tc'><img class='introPic' src='trustrating_stim/white_mw070.bmp'><br><font color='red'><strong>Keep</strong></font></div></div><div class='respDiv'><div class='respDivL'>Match<br>(e)</div><div class='respDivR'>No Match<br>(i)</div></div></div>","i","TARGET","1","trustrating_stim/white_mw040.bmp","0","noMatchFace","i","1500","trustrating_stim/white_mw070.bmp","red","Keep","REAL","1"
"html-keyboard-response","139","354580","0.0-7.0-5.20","5b65f7935c431c000127ae5f","bdp_wmem","Tue Mar 14 2023 21:39:11 GMT-0400 (Eastern Daylight Time)","618205","Match,No Match","","null","","","","","","<div class='trialBorder'><div class='vertical-center'><img src='img/correct.jpg'></div><div class='respDiv'><div class='respDivL'>Match<br>(e)</div><div class='respDivR'><font style='color:orange'>No Match<br>(i)</font></div></div></div>","null","FEEDBACK","","","","","","","","","","",""
"html-keyboard-response","140","355085","0.0-7.0-1.21","5b65f7935c431c000127ae5f","bdp_wmem","Tue Mar 14 2023 21:39:11 GMT-0400 (Eastern Daylight Time)","618205","Match,No Match","","null","","","","","","<div class='trialBorder'><div class='vertical-center'><img src='img/fixation2_sml.jpg'</img></div></div>","null","FIX","","","","","","","","","","",""
"html-keyboard-response","141","358092","0.0-7.0-2.21","5b65f7935c431c000127ae5f","bdp_wmem","Tue Mar 14 2023 21:39:11 GMT-0400 (Eastern Daylight Time)","618205","Match,No Match","","null","","","","","","<div class='trialBorder'><div class='vertical-center'><img style='vertical-align:center; align:center' src='img/fixation2_sml.jpg'></div><div class='arrayDiv2'><div class='tl'><img class='introPic' src='trustrating_stim/white_mw003.bmp'><br><font color='green'><strong>Share</strong></font></div><div class='tr'><img class='introPic' src='trustrating_stim/white_mw010.bmp'><br><font color='red'><strong>Keep</strong></font></div></div></div>","null","ARRAY","2","trustrating_stim/white_mw003.bmp,trustrating_stim/white_mw010.bmp","1,0","Match","e","3000","","","","",""
"html-keyboard-response","142","362103","0.0-7.0-3.21","5b65f7935c431c000127ae5f","bdp_wmem","Tue Mar 14 2023 21:39:11 GMT-0400 (Eastern Daylight Time)","618205","Match,No Match","","null","","","","","","<div class='trialBorder'><div class='vertical-center'><img src='img/fixation2_sml.jpg'</img></div></div>","null","DELAY","","","","","","","","","","",""
"html-keyboard-response","143","364606","0.0-7.0-4.21","5b65f7935c431c000127ae5f","bdp_wmem","Tue Mar 14 2023 21:39:11 GMT-0400 (Eastern Daylight Time)","618205","Match,No Match","","2501","","","","","","<div class='trialBorder'><div class='targDiv'><div class='tc'><img class='introPic' src='trustrating_stim/white_mw003.bmp'><br><font color='green'><strong>Share</strong></font></div></div><div class='respDiv'><div class='respDivL'>Match<br>(e)</div><div class='respDivR'>No Match<br>(i)</div></div></div>","e","TARGET","2","trustrating_stim/white_mw003.bmp,trustrating_stim/white_mw010.bmp","1,0","Match","e","3000","trustrating_stim/white_mw003.bmp","green","Share","REAL","1"
"html-keyboard-response","144","365111","0.0-7.0-5.21","5b65f7935c431c000127ae5f","bdp_wmem","Tue Mar 14 2023 21:39:11 GMT-0400 (Eastern Daylight Time)","618205","Match,No Match","","null","","","","","","<div class='trialBorder'><div class='vertical-center'><img src='img/correct.jpg'></div><div class='respDiv'><div class='respDivL'><font style='color:orange'>Match<br>(e)</font></div><div class='respDivR'>No Match<br>(i)</div></div></div>","null","FEEDBACK","","","","","","","","","","",""
"html-keyboard-response","145","365621","0.0-7.0-1.22","5b65f7935c431c000127ae5f","bdp_wmem","Tue Mar 14 2023 21:39:11 GMT-0400 (Eastern Daylight Time)","618205","Match,No Match","","null","","","","","","<div class='trialBorder'><div class='vertical-center'><img src='img/fixation2_sml.jpg'</img></div></div>","null","FIX","","","","","","","","","","",""
"html-keyboard-response","146","370126","0.0-7.0-2.22","5b65f7935c431c000127ae5f","bdp_wmem","Tue Mar 14 2023 21:39:11 GMT-0400 (Eastern Daylight Time)","618205","Match,No Match","","null","","","","","","<div class='trialBorder'><div class='vertical-center'><img style='vertical-align:center; align:center' src='img/fixation2_sml.jpg'></div><div class='arrayDiv3'><div class='tl'><img class='introPic' src='trustrating_stim/white_mw042.bmp'><br><font color='red'><strong>Keep</strong></font></div><div class='tc'><img class='introPic' src='trustrating_stim/white_mw013.bmp'><br><font color='green'><strong>Share</strong></font></div><div class='tr'><img class='introPic' src='trustrating_stim/white_mw040.bmp'><br><font color='green'><strong>Share</strong></font></div></div></div>","null","ARRAY","3","trustrating_stim/white_mw042.bmp,trustrating_stim/white_mw013.bmp,trustrating_stim/white_mw040.bmp","0,1,1","Match","e","4500","","","","",""
"html-keyboard-response","147","374135","0.0-7.0-3.22","5b65f7935c431c000127ae5f","bdp_wmem","Tue Mar 14 2023 21:39:11 GMT-0400 (Eastern Daylight Time)","618205","Match,No Match","","null","","","","","","<div class='trialBorder'><div class='vertical-center'><img src='img/fixation2_sml.jpg'</img></div></div>","null","DELAY","","","","","","","","","","",""
"html-keyboard-response","148","376534","0.0-7.0-4.22","5b65f7935c431c000127ae5f","bdp_wmem","Tue Mar 14 2023 21:39:11 GMT-0400 (Eastern Daylight Time)","618205","Match,No Match","","2397","","","","","","<div class='trialBorder'><div class='targDiv'><div class='tc'><img class='introPic' src='trustrating_stim/white_mw013.bmp'><br><font color='green'><strong>Share</strong></font></div></div><div class='respDiv'><div class='respDivL'>Match<br>(e)</div><div class='respDivR'>No Match<br>(i)</div></div></div>","e","TARGET","3","trustrating_stim/white_mw042.bmp,trustrating_stim/white_mw013.bmp,trustrating_stim/white_mw040.bmp","0,1,1","Match","e","4500","trustrating_stim/white_mw013.bmp","green","Share","REAL","1"
"html-keyboard-response","149","377036","0.0-7.0-5.22","5b65f7935c431c000127ae5f","bdp_wmem","Tue Mar 14 2023 21:39:11 GMT-0400 (Eastern Daylight Time)","618205","Match,No Match","","null","","","","","","<div class='trialBorder'><div class='vertical-center'><img src='img/correct.jpg'></div><div class='respDiv'><div class='respDivL'><font style='color:orange'>Match<br>(e)</font></div><div class='respDivR'>No Match<br>(i)</div></div></div>","null","FEEDBACK","","","","","","","","","","",""
"html-keyboard-response","150","377540","0.0-7.0-1.23","5b65f7935c431c000127ae5f","bdp_wmem","Tue Mar 14 2023 21:39:11 GMT-0400 (Eastern Daylight Time)","618205","Match,No Match","","null","","","","","","<div class='trialBorder'><div class='vertical-center'><img src='img/fixation2_sml.jpg'</img></div></div>","null","FIX","","","","","","","","","","",""
"html-keyboard-response","151","379048","0.0-7.0-2.23","5b65f7935c431c000127ae5f","bdp_wmem","Tue Mar 14 2023 21:39:11 GMT-0400 (Eastern Daylight Time)","618205","Match,No Match","","null","","","","","","<div class='trialBorder'><div class='vertical-center'><img style='vertical-align:center; align:center' src='img/fixation2_sml.jpg'></div><div class='arrayDiv1'><div class='tc'><img class='introPic' src='trustrating_stim/white_mw042.bmp'><br><font color='green'><strong>Share</strong></font></div></div></div>","null","ARRAY","1","trustrating_stim/white_mw042.bmp","1","noMatchOutcome","i","1500","","","","",""
"html-keyboard-response","152","383054","0.0-7.0-3.23","5b65f7935c431c000127ae5f","bdp_wmem","Tue Mar 14 2023 21:39:11 GMT-0400 (Eastern Daylight Time)","618205","Match,No Match","","null","","","","","","<div class='trialBorder'><div class='vertical-center'><img src='img/fixation2_sml.jpg'</img></div></div>","null","DELAY","","","","","","","","","","",""
"html-keyboard-response","153","385000","0.0-7.0-4.23","5b65f7935c431c000127ae5f","bdp_wmem","Tue Mar 14 2023 21:39:11 GMT-0400 (Eastern Daylight Time)","618205","Match,No Match","","1945","","","","","","<div class='trialBorder'><div class='targDiv'><div class='tc'><img class='introPic' src='trustrating_stim/white_mw042.bmp'><br><font color='red'><strong>Keep</strong></font></div></div><div class='respDiv'><div class='respDivL'>Match<br>(e)</div><div class='respDivR'>No Match<br>(i)</div></div></div>","i","TARGET","1","trustrating_stim/white_mw042.bmp","1","noMatchOutcome","i","1500","trustrating_stim/white_mw042.bmp","red","Keep","REAL","1"
"html-keyboard-response","154","385510","0.0-7.0-5.23","5b65f7935c431c000127ae5f","bdp_wmem","Tue Mar 14 2023 21:39:11 GMT-0400 (Eastern Daylight Time)","618205","Match,No Match","","null","","","","","","<div class='trialBorder'><div class='vertical-center'><img src='img/correct.jpg'></div><div class='respDiv'><div class='respDivL'>Match<br>(e)</div><div class='respDivR'><font style='color:orange'>No Match<br>(i)</font></div></div></div>","null","FEEDBACK","","","","","","","","","","",""
"html-keyboard-response","155","386015","0.0-7.0-1.24","5b65f7935c431c000127ae5f","bdp_wmem","Tue Mar 14 2023 21:39:11 GMT-0400 (Eastern Daylight Time)","618205","Match,No Match","","null","","","","","","<div class='trialBorder'><div class='vertical-center'><img src='img/fixation2_sml.jpg'</img></div></div>","null","FIX","","","","","","","","","","",""
"html-keyboard-response","156","390525","0.0-7.0-2.24","5b65f7935c431c000127ae5f","bdp_wmem","Tue Mar 14 2023 21:39:11 GMT-0400 (Eastern Daylight Time)","618205","Match,No Match","","null","","","","","","<div class='trialBorder'><div class='vertical-center'><img style='vertical-align:center; align:center' src='img/fixation2_sml.jpg'></div><div class='arrayDiv3'><div class='tl'><img class='introPic' src='trustrating_stim/white_mw092.bmp'><br><font color='green'><strong>Share</strong></font></div><div class='tc'><img class='introPic' src='trustrating_stim/white_mw070.bmp'><br><font color='red'><strong>Keep</strong></font></div><div class='tr'><img class='introPic' src='trustrating_stim/white_mw003.bmp'><br><font color='red'><strong>Keep</strong></font></div></div></div>","null","ARRAY","3","trustrating_stim/white_mw092.bmp,trustrating_stim/white_mw070.bmp,trustrating_stim/white_mw003.bmp","1,0,0","noMatchOutcome","i","4500","","","","",""
"html-keyboard-response","157","394533","0.0-7.0-3.24","5b65f7935c431c000127ae5f","bdp_wmem","Tue Mar 14 2023 21:39:11 GMT-0400 (Eastern Daylight Time)","618205","Match,No Match","","null","","","","","","<div class='trialBorder'><div class='vertical-center'><img src='img/fixation2_sml.jpg'</img></div></div>","null","DELAY","","","","","","","","","","",""
"html-keyboard-response","158","396796","0.0-7.0-4.24","5b65f7935c431c000127ae5f","bdp_wmem","Tue Mar 14 2023 21:39:11 GMT-0400 (Eastern Daylight Time)","618205","Match,No Match","","2262","","","","","","<div class='trialBorder'><div class='targDiv'><div class='tc'><img class='introPic' src='trustrating_stim/white_mw092.bmp'><br><font color='red'><strong>Keep</strong></font></div></div><div class='respDiv'><div class='respDivL'>Match<br>(e)</div><div class='respDivR'>No Match<br>(i)</div></div></div>","e","TARGET","3","trustrating_stim/white_mw092.bmp,trustrating_stim/white_mw070.bmp,trustrating_stim/white_mw003.bmp","1,0,0","noMatchOutcome","i","4500","trustrating_stim/white_mw092.bmp","red","Keep","REAL","0"
"html-keyboard-response","159","397301","0.0-7.0-5.24","5b65f7935c431c000127ae5f","bdp_wmem","Tue Mar 14 2023 21:39:11 GMT-0400 (Eastern Daylight Time)","618205","Match,No Match","","null","","","","","","<div class='trialBorder'><div class='vertical-center'><img src='img/error.jpg'></div><div class='respDiv'><div class='respDivL'><font style='color:orange'>Match<br>(e)</font></div><div class='respDivR'>No Match<br>(i)</div></div></div>","null","FEEDBACK","","","","","","","","","","",""
"html-keyboard-response","160","397805","0.0-7.0-1.25","5b65f7935c431c000127ae5f","bdp_wmem","Tue Mar 14 2023 21:39:11 GMT-0400 (Eastern Daylight Time)","618205","Match,No Match","","null","","","","","","<div class='trialBorder'><div class='vertical-center'><img src='img/fixation2_sml.jpg'</img></div></div>","null","FIX","","","","","","","","","","",""
"html-keyboard-response","161","402309","0.0-7.0-2.25","5b65f7935c431c000127ae5f","bdp_wmem","Tue Mar 14 2023 21:39:11 GMT-0400 (Eastern Daylight Time)","618205","Match,No Match","","null","","","","","","<div class='trialBorder'><div class='vertical-center'><img style='vertical-align:center; align:center' src='img/fixation2_sml.jpg'></div><div class='arrayDiv3'><div class='tl'><img class='introPic' src='trustrating_stim/white_mw042.bmp'><br><font color='green'><strong>Share</strong></font></div><div class='tc'><img class='introPic' src='trustrating_stim/white_mw040.bmp'><br><font color='green'><strong>Share</strong></font></div><div class='tr'><img class='introPic' src='trustrating_stim/white_mw038.bmp'><br><font color='red'><strong>Keep</strong></font></div></div></div>","null","ARRAY","3","trustrating_stim/white_mw042.bmp,trustrating_stim/white_mw040.bmp,trustrating_stim/white_mw038.bmp","1,1,0","noMatchOutcome","i","4500","","","","",""
"html-keyboard-response","162","406318","0.0-7.0-3.25","5b65f7935c431c000127ae5f","bdp_wmem","Tue Mar 14 2023 21:39:11 GMT-0400 (Eastern Daylight Time)","618205","Match,No Match","","null","","","","","","<div class='trialBorder'><div class='vertical-center'><img src='img/fixation2_sml.jpg'</img></div></div>","null","DELAY","","","","","","","","","","",""
"html-keyboard-response","163","407541","0.0-7.0-4.25","5b65f7935c431c000127ae5f","bdp_wmem","Tue Mar 14 2023 21:39:11 GMT-0400 (Eastern Daylight Time)","618205","Match,No Match","","1223","","","","","","<div class='trialBorder'><div class='targDiv'><div class='tc'><img class='introPic' src='trustrating_stim/white_mw040.bmp'><br><font color='red'><strong>Keep</strong></font></div></div><div class='respDiv'><div class='respDivL'>Match<br>(e)</div><div class='respDivR'>No Match<br>(i)</div></div></div>","e","TARGET","3","trustrating_stim/white_mw042.bmp,trustrating_stim/white_mw040.bmp,trustrating_stim/white_mw038.bmp","1,1,0","noMatchOutcome","i","4500","trustrating_stim/white_mw040.bmp","red","Keep","REAL","0"
"html-keyboard-response","164","408045","0.0-7.0-5.25","5b65f7935c431c000127ae5f","bdp_wmem","Tue Mar 14 2023 21:39:11 GMT-0400 (Eastern Daylight Time)","618205","Match,No Match","","null","","","","","","<div class='trialBorder'><div class='vertical-center'><img src='img/error.jpg'></div><div class='respDiv'><div class='respDivL'><font style='color:orange'>Match<br>(e)</font></div><div class='respDivR'>No Match<br>(i)</div></div></div>","null","FEEDBACK","","","","","","","","","","",""
"html-keyboard-response","165","408550","0.0-7.0-1.26","5b65f7935c431c000127ae5f","bdp_wmem","Tue Mar 14 2023 21:39:11 GMT-0400 (Eastern Daylight Time)","618205","Match,No Match","","null","","","","","","<div class='trialBorder'><div class='vertical-center'><img src='img/fixation2_sml.jpg'</img></div></div>","null","FIX","","","","","","","","","","",""
"html-keyboard-response","166","411557","0.0-7.0-2.26","5b65f7935c431c000127ae5f","bdp_wmem","Tue Mar 14 2023 21:39:11 GMT-0400 (Eastern Daylight Time)","618205","Match,No Match","","null","","","","","","<div class='trialBorder'><div class='vertical-center'><img style='vertical-align:center; align:center' src='img/fixation2_sml.jpg'></div><div class='arrayDiv2'><div class='tl'><img class='introPic' src='trustrating_stim/white_mw092.bmp'><br><font color='red'><strong>Keep</strong></font></div><div class='tr'><img class='introPic' src='trustrating_stim/white_mw010.bmp'><br><font color='green'><strong>Share</strong></font></div></div></div>","null","ARRAY","2","trustrating_stim/white_mw092.bmp,trustrating_stim/white_mw010.bmp","0,1","noMatchOutcome","i","3000","","","","",""
"html-keyboard-response","167","415565","0.0-7.0-3.26","5b65f7935c431c000127ae5f","bdp_wmem","Tue Mar 14 2023 21:39:11 GMT-0400 (Eastern Daylight Time)","618205","Match,No Match","","null","","","","","","<div class='trialBorder'><div class='vertical-center'><img src='img/fixation2_sml.jpg'</img></div></div>","null","DELAY","","","","","","","","","","",""
"html-keyboard-response","168","419533","0.0-7.0-4.26","5b65f7935c431c000127ae5f","bdp_wmem","Tue Mar 14 2023 21:39:11 GMT-0400 (Eastern Daylight Time)","618205","Match,No Match","","3967","","","","","","<div class='trialBorder'><div class='targDiv'><div class='tc'><img class='introPic' src='trustrating_stim/white_mw092.bmp'><br><font color='green'><strong>Share</strong></font></div></div><div class='respDiv'><div class='respDivL'>Match<br>(e)</div><div class='respDivR'>No Match<br>(i)</div></div></div>","i","TARGET","2","trustrating_stim/white_mw092.bmp,trustrating_stim/white_mw010.bmp","0,1","noMatchOutcome","i","3000","trustrating_stim/white_mw092.bmp","green","Share","REAL","1"
"html-keyboard-response","169","420038","0.0-7.0-5.26","5b65f7935c431c000127ae5f","bdp_wmem","Tue Mar 14 2023 21:39:11 GMT-0400 (Eastern Daylight Time)","618205","Match,No Match","","null","","","","","","<div class='trialBorder'><div class='vertical-center'><img src='img/correct.jpg'></div><div class='respDiv'><div class='respDivL'>Match<br>(e)</div><div class='respDivR'><font style='color:orange'>No Match<br>(i)</font></div></div></div>","null","FEEDBACK","","","","","","","","","","",""
"html-keyboard-response","170","420544","0.0-7.0-1.27","5b65f7935c431c000127ae5f","bdp_wmem","Tue Mar 14 2023 21:39:11 GMT-0400 (Eastern Daylight Time)","618205","Match,No Match","","null","","","","","","<div class='trialBorder'><div class='vertical-center'><img src='img/fixation2_sml.jpg'</img></div></div>","null","FIX","","","","","","","","","","",""
"html-keyboard-response","171","425045","0.0-7.0-2.27","5b65f7935c431c000127ae5f","bdp_wmem","Tue Mar 14 2023 21:39:11 GMT-0400 (Eastern Daylight Time)","618205","Match,No Match","","null","","","","","","<div class='trialBorder'><div class='vertical-center'><img style='vertical-align:center; align:center' src='img/fixation2_sml.jpg'></div><div class='arrayDiv3'><div class='tl'><img class='introPic' src='trustrating_stim/white_mw085.bmp'><br><font color='green'><strong>Share</strong></font></div><div class='tc'><img class='introPic' src='trustrating_stim/white_mw010.bmp'><br><font color='red'><strong>Keep</strong></font></div><div class='tr'><img class='introPic' src='trustrating_stim/white_mw078.bmp'><br><font color='red'><strong>Keep</strong></font></div></div></div>","null","ARRAY","3","trustrating_stim/white_mw085.bmp,trustrating_stim/white_mw010.bmp,trustrating_stim/white_mw078.bmp","1,0,0","noMatchFace","i","4500","","","","",""
"html-keyboard-response","172","429054","0.0-7.0-3.27","5b65f7935c431c000127ae5f","bdp_wmem","Tue Mar 14 2023 21:39:11 GMT-0400 (Eastern Daylight Time)","618205","Match,No Match","","null","","","","","","<div class='trialBorder'><div class='vertical-center'><img src='img/fixation2_sml.jpg'</img></div></div>","null","DELAY","","","","","","","","","","",""
"html-keyboard-response","173","430342","0.0-7.0-4.27","5b65f7935c431c000127ae5f","bdp_wmem","Tue Mar 14 2023 21:39:11 GMT-0400 (Eastern Daylight Time)","618205","Match,No Match","","1287","","","","","","<div class='trialBorder'><div class='targDiv'><div class='tc'><img class='introPic' src='trustrating_stim/white_mw038.bmp'><br><font color='red'><strong>Keep</strong></font></div></div><div class='respDiv'><div class='respDivL'>Match<br>(e)</div><div class='respDivR'>No Match<br>(i)</div></div></div>","e","TARGET","3","trustrating_stim/white_mw085.bmp,trustrating_stim/white_mw010.bmp,trustrating_stim/white_mw078.bmp","1,0,0","noMatchFace","i","4500","trustrating_stim/white_mw038.bmp","red","Keep","REAL","0"
"html-keyboard-response","174","430848","0.0-7.0-5.27","5b65f7935c431c000127ae5f","bdp_wmem","Tue Mar 14 2023 21:39:11 GMT-0400 (Eastern Daylight Time)","618205","Match,No Match","","null","","","","","","<div class='trialBorder'><div class='vertical-center'><img src='img/error.jpg'></div><div class='respDiv'><div class='respDivL'><font style='color:orange'>Match<br>(e)</font></div><div class='respDivR'>No Match<br>(i)</div></div></div>","null","FEEDBACK","","","","","","","","","","",""
"html-keyboard-response","175","431349","0.0-7.0-1.28","5b65f7935c431c000127ae5f","bdp_wmem","Tue Mar 14 2023 21:39:11 GMT-0400 (Eastern Daylight Time)","618205","Match,No Match","","null","","","","","","<div class='trialBorder'><div class='vertical-center'><img src='img/fixation2_sml.jpg'</img></div></div>","null","FIX","","","","","","","","","","",""
"html-keyboard-response","176","434360","0.0-7.0-2.28","5b65f7935c431c000127ae5f","bdp_wmem","Tue Mar 14 2023 21:39:11 GMT-0400 (Eastern Daylight Time)","618205","Match,No Match","","null","","","","","","<div class='trialBorder'><div class='vertical-center'><img style='vertical-align:center; align:center' src='img/fixation2_sml.jpg'></div><div class='arrayDiv2'><div class='tl'><img class='introPic' src='trustrating_stim/white_mw013.bmp'><br><font color='red'><strong>Keep</strong></font></div><div class='tr'><img class='introPic' src='trustrating_stim/white_mw070.bmp'><br><font color='green'><strong>Share</strong></font></div></div></div>","null","ARRAY","2","trustrating_stim/white_mw013.bmp,trustrating_stim/white_mw070.bmp","0,1","Match","e","3000","","","","",""
"html-keyboard-response","177","438366","0.0-7.0-3.28","5b65f7935c431c000127ae5f","bdp_wmem","Tue Mar 14 2023 21:39:11 GMT-0400 (Eastern Daylight Time)","618205","Match,No Match","","null","","","","","","<div class='trialBorder'><div class='vertical-center'><img src='img/fixation2_sml.jpg'</img></div></div>","null","DELAY","","","","","","","","","","",""
"html-keyboard-response","178","439749","0.0-7.0-4.28","5b65f7935c431c000127ae5f","bdp_wmem","Tue Mar 14 2023 21:39:11 GMT-0400 (Eastern Daylight Time)","618205","Match,No Match","","1383","","","","","","<div class='trialBorder'><div class='targDiv'><div class='tc'><img class='introPic' src='trustrating_stim/white_mw070.bmp'><br><font color='green'><strong>Share</strong></font></div></div><div class='respDiv'><div class='respDivL'>Match<br>(e)</div><div class='respDivR'>No Match<br>(i)</div></div></div>","e","TARGET","2","trustrating_stim/white_mw013.bmp,trustrating_stim/white_mw070.bmp","0,1","Match","e","3000","trustrating_stim/white_mw070.bmp","green","Share","REAL","1"
"html-keyboard-response","179","440254","0.0-7.0-5.28","5b65f7935c431c000127ae5f","bdp_wmem","Tue Mar 14 2023 21:39:11 GMT-0400 (Eastern Daylight Time)","618205","Match,No Match","","null","","","","","","<div class='trialBorder'><div class='vertical-center'><img src='img/correct.jpg'></div><div class='respDiv'><div class='respDivL'><font style='color:orange'>Match<br>(e)</font></div><div class='respDivR'>No Match<br>(i)</div></div></div>","null","FEEDBACK","","","","","","","","","","",""
"html-keyboard-response","180","440757","0.0-7.0-1.29","5b65f7935c431c000127ae5f","bdp_wmem","Tue Mar 14 2023 21:39:11 GMT-0400 (Eastern Daylight Time)","618205","Match,No Match","","null","","","","","","<div class='trialBorder'><div class='vertical-center'><img src='img/fixation2_sml.jpg'</img></div></div>","null","FIX","","","","","","","","","","",""
"html-keyboard-response","181","443770","0.0-7.0-2.29","5b65f7935c431c000127ae5f","bdp_wmem","Tue Mar 14 2023 21:39:11 GMT-0400 (Eastern Daylight Time)","618205","Match,No Match","","null","","","","","","<div class='trialBorder'><div class='vertical-center'><img style='vertical-align:center; align:center' src='img/fixation2_sml.jpg'></div><div class='arrayDiv2'><div class='tl'><img class='introPic' src='trustrating_stim/white_mw012.bmp'><br><font color='red'><strong>Keep</strong></font></div><div class='tr'><img class='introPic' src='trustrating_stim/white_mw038.bmp'><br><font color='green'><strong>Share</strong></font></div></div></div>","null","ARRAY","2","trustrating_stim/white_mw012.bmp,trustrating_stim/white_mw038.bmp","0,1","Match","e","3000","","","","",""
"html-keyboard-response","182","447775","0.0-7.0-3.29","5b65f7935c431c000127ae5f","bdp_wmem","Tue Mar 14 2023 21:39:11 GMT-0400 (Eastern Daylight Time)","618205","Match,No Match","","null","","","","","","<div class='trialBorder'><div class='vertical-center'><img src='img/fixation2_sml.jpg'</img></div></div>","null","DELAY","","","","","","","","","","",""
"html-keyboard-response","183","448934","0.0-7.0-4.29","5b65f7935c431c000127ae5f","bdp_wmem","Tue Mar 14 2023 21:39:11 GMT-0400 (Eastern Daylight Time)","618205","Match,No Match","","1158","","","","","","<div class='trialBorder'><div class='targDiv'><div class='tc'><img class='introPic' src='trustrating_stim/white_mw038.bmp'><br><font color='green'><strong>Share</strong></font></div></div><div class='respDiv'><div class='respDivL'>Match<br>(e)</div><div class='respDivR'>No Match<br>(i)</div></div></div>","e","TARGET","2","trustrating_stim/white_mw012.bmp,trustrating_stim/white_mw038.bmp","0,1","Match","e","3000","trustrating_stim/white_mw038.bmp","green","Share","REAL","1"
"html-keyboard-response","184","449438","0.0-7.0-5.29","5b65f7935c431c000127ae5f","bdp_wmem","Tue Mar 14 2023 21:39:11 GMT-0400 (Eastern Daylight Time)","618205","Match,No Match","","null","","","","","","<div class='trialBorder'><div class='vertical-center'><img src='img/correct.jpg'></div><div class='respDiv'><div class='respDivL'><font style='color:orange'>Match<br>(e)</font></div><div class='respDivR'>No Match<br>(i)</div></div></div>","null","FEEDBACK","","","","","","","","","","",""
"html-keyboard-response","185","449942","0.0-7.0-1.30","5b65f7935c431c000127ae5f","bdp_wmem","Tue Mar 14 2023 21:39:11 GMT-0400 (Eastern Daylight Time)","618205","Match,No Match","","null","","","","","","<div class='trialBorder'><div class='vertical-center'><img src='img/fixation2_sml.jpg'</img></div></div>","null","FIX","","","","","","","","","","",""
"html-keyboard-response","186","452954","0.0-7.0-2.30","5b65f7935c431c000127ae5f","bdp_wmem","Tue Mar 14 2023 21:39:11 GMT-0400 (Eastern Daylight Time)","618205","Match,No Match","","null","","","","","","<div class='trialBorder'><div class='vertical-center'><img style='vertical-align:center; align:center' src='img/fixation2_sml.jpg'></div><div class='arrayDiv2'><div class='tl'><img class='introPic' src='trustrating_stim/white_mw003.bmp'><br><font color='green'><strong>Share</strong></font></div><div class='tr'><img class='introPic' src='trustrating_stim/white_mw040.bmp'><br><font color='red'><strong>Keep</strong></font></div></div></div>","null","ARRAY","2","trustrating_stim/white_mw003.bmp,trustrating_stim/white_mw040.bmp","1,0","noMatchFace","i","3000","","","","",""
