"event","trial","time","trialtype","subject_id","task","startTime","totalTime","labels","trial_type","trial_index","time_elapsed","internal_node_id","view_history","rt","success","stimulus","key_press","stimType","arraySize","arrayFaces","arrayOutcomes","matchType","corrResp","arrayDur","targFace","targCol","targOutcome","trialType","corr"
"focus","0","0","focusevent","5d5af711bb10640001afd133","bdp_wmem","Mon Mar 13 2023 13:45:41 GMT-0500 (Central Daylight Time)","586670","Match,No Match","","","","","","","","","","","","","","","","","","","","",""
"","","","","5d5af711bb10640001afd133","bdp_wmem","Mon Mar 13 2023 13:45:41 GMT-0500 (Central Daylight Time)","586670","Match,No Match","pavlovia","0","1","0.0-0.0","","","","","","","","","","","","","","","","",""
"","","","","5d5af711bb10640001afd133","bdp_wmem","Mon Mar 13 2023 13:45:41 GMT-0500 (Central Daylight Time)","586670","Match,No Match","instructions","1","1653","0.0-1.0","[{""page_index"":0,""viewing_time"":1650}]","1650","","","","","","","","","","","","","","",""
"fullscreenexit","2","3617","fullscreenexit","5d5af711bb10640001afd133","bdp_wmem","Mon Mar 13 2023 13:45:41 GMT-0500 (Central Daylight Time)","586670","Match,No Match","","","","","","","","","","","","","","","","","","","","",""
"","","","","5d5af711bb10640001afd133","bdp_wmem","Mon Mar 13 2023 13:45:41 GMT-0500 (Central Daylight Time)","586670","Match,No Match","fullscreen","2","4596","0.0-2.0","","","true","","","","","","","","","","","","","",""
"","","","fullscreenfail","5d5af711bb10640001afd133","bdp_wmem","Mon Mar 13 2023 13:45:41 GMT-0500 (Central Daylight Time)","586670","Match,No Match","image-keyboard-response","3","5186","0.0-3.0-0.0","","587","","","32","","","","","","","","","","","",""
"","","","","5d5af711bb10640001afd133","bdp_wmem","Mon Mar 13 2023 13:45:41 GMT-0500 (Central Daylight Time)","586670","Match,No Match","instructions","4","62422","0.0-4.0","[{""page_index"":0,""viewing_time"":21269},{""page_index"":1,""viewing_time"":20903},{""page_index"":2,""viewing_time"":9560},{""page_index"":3,""viewing_time"":2056},{""page_index"":4,""viewing_time"":3193}]","56981","","","","","","","","","","","","","","",""
"","","","","5d5af711bb10640001afd133","bdp_wmem","Mon Mar 13 2023 13:45:41 GMT-0500 (Central Daylight Time)","586670","Match,No Match","html-keyboard-response","5","62928","0.0-5.0-1.0","","null","","<div class='trialBorder'><div class='vertical-center'><img src='img/fixation2_sml.jpg'</img></div></div>","null","FIX","","","","","","","","","","",""
"","","","","5d5af711bb10640001afd133","bdp_wmem","Mon Mar 13 2023 13:45:41 GMT-0500 (Central Daylight Time)","586670","Match,No Match","html-keyboard-response","6","65935","0.0-5.0-2.0","","null","","<div class='trialBorder'><div class='vertical-center'><img style='vertical-align:center; align:center' src='img/fixation2_sml.jpg'></div><div class='arrayDiv2'><div class='tl'><img class='introPic' src='trustrating_stim/white_mw003.bmp'><br><font color='red'><strong>Keep</strong></font></div><div class='tr'><img class='introPic' src='trustrating_stim/white_mw042.bmp'><br><font color='green'><strong>Share</strong></font></div></div></div>","null","ARRAY","2","trustrating_stim/white_mw003.bmp,trustrating_stim/white_mw042.bmp","0,1","noMatchFace","i","3000","","","","",""
"","","","","5d5af711bb10640001afd133","bdp_wmem","Mon Mar 13 2023 13:45:41 GMT-0500 (Central Daylight Time)","586670","Match,No Match","html-keyboard-response","7","69939","0.0-5.0-3.0","","null","","<div class='trialBorder'><div class='vertical-center'><img src='img/fixation2_sml.jpg'</img></div></div>","null","DELAY","","","","","","","","","","",""
"","","","","5d5af711bb10640001afd133","bdp_wmem","Mon Mar 13 2023 13:45:41 GMT-0500 (Central Daylight Time)","586670","Match,No Match","html-keyboard-response","8","71727","0.0-5.0-4.0","","1784","","<div class='trialBorder'><div class='targDiv'><div class='tc'><img class='introPic' src='trustrating_stim/white_mw092.bmp'><br><font color='green'><strong>Share</strong></font></div></div><div class='respDiv'><div class='respDivL'>Match<br>(e)</div><div class='respDivR'>No Match<br>(i)</div></div></div>","i","TARGET","2","trustrating_stim/white_mw003.bmp,trustrating_stim/white_mw042.bmp","0,1","noMatchFace","i","3000","trustrating_stim/white_mw092.bmp","green","Share","PRACTICE","1"
"","","","","5d5af711bb10640001afd133","bdp_wmem","Mon Mar 13 2023 13:45:41 GMT-0500 (Central Daylight Time)","586670","Match,No Match","html-keyboard-response","9","72233","0.0-5.0-5.0","","null","","<div class='trialBorder'><div class='vertical-center'><img src='img/correct.jpg'></div><div class='respDiv'><div class='respDivL'>Match<br>(e)</div><div class='respDivR'><font style='color:orange'>No Match<br>(i)</font></div></div></div>","null","FEEDBACK","","","","","","","","","","",""
"","","","","5d5af711bb10640001afd133","bdp_wmem","Mon Mar 13 2023 13:45:41 GMT-0500 (Central Daylight Time)","586670","Match,No Match","html-keyboard-response","10","72740","0.0-5.0-1.1","","null","","<div class='trialBorder'><div class='vertical-center'><img src='img/fixation2_sml.jpg'</img></div></div>","null","FIX","","","","","","","","","","",""
"","","","","5d5af711bb10640001afd133","bdp_wmem","Mon Mar 13 2023 13:45:41 GMT-0500 (Central Daylight Time)","586670","Match,No Match","html-keyboard-response","11","77247","0.0-5.0-2.1","","null","","<div class='trialBorder'><div class='vertical-center'><img style='vertical-align:center; align:center' src='img/fixation2_sml.jpg'></div><div class='arrayDiv3'><div class='tl'><img class='introPic' src='trustrating_stim/white_mw040.bmp'><br><font color='green'><strong>Share</strong></font></div><div class='tc'><img class='introPic' src='trustrating_stim/white_mw042.bmp'><br><font color='green'><strong>Share</strong></font></div><div class='tr'><img class='introPic' src='trustrating_stim/white_mw013.bmp'><br><font color='red'><strong>Keep</strong></font></div></div></div>","null","ARRAY","3","trustrating_stim/white_mw040.bmp,trustrating_stim/white_mw042.bmp,trustrating_stim/white_mw013.bmp","1,1,0","noMatchOutcome","i","4500","","","","",""
"","","","","5d5af711bb10640001afd133","bdp_wmem","Mon Mar 13 2023 13:45:41 GMT-0500 (Central Daylight Time)","586670","Match,No Match","html-keyboard-response","12","81253","0.0-5.0-3.1","","null","","<div class='trialBorder'><div class='vertical-center'><img src='img/fixation2_sml.jpg'</img></div></div>","null","DELAY","","","","","","","","","","",""
"","","","","5d5af711bb10640001afd133","bdp_wmem","Mon Mar 13 2023 13:45:41 GMT-0500 (Central Daylight Time)","586670","Match,No Match","html-keyboard-response","13","83247","0.0-5.0-4.1","","1991","","<div class='trialBorder'><div class='targDiv'><div class='tc'><img class='introPic' src='trustrating_stim/white_mw042.bmp'><br><font color='red'><strong>Keep</strong></font></div></div><div class='respDiv'><div class='respDivL'>Match<br>(e)</div><div class='respDivR'>No Match<br>(i)</div></div></div>","i","TARGET","3","trustrating_stim/white_mw040.bmp,trustrating_stim/white_mw042.bmp,trustrating_stim/white_mw013.bmp","1,1,0","noMatchOutcome","i","4500","trustrating_stim/white_mw042.bmp","red","Keep","PRACTICE","1"
"","","","","5d5af711bb10640001afd133","bdp_wmem","Mon Mar 13 2023 13:45:41 GMT-0500 (Central Daylight Time)","586670","Match,No Match","html-keyboard-response","14","83753","0.0-5.0-5.1","","null","","<div class='trialBorder'><div class='vertical-center'><img src='img/correct.jpg'></div><div class='respDiv'><div class='respDivL'>Match<br>(e)</div><div class='respDivR'><font style='color:orange'>No Match<br>(i)</font></div></div></div>","null","FEEDBACK","","","","","","","","","","",""
"","","","","5d5af711bb10640001afd133","bdp_wmem","Mon Mar 13 2023 13:45:41 GMT-0500 (Central Daylight Time)","586670","Match,No Match","html-keyboard-response","15","84259","0.0-5.0-1.2","","null","","<div class='trialBorder'><div class='vertical-center'><img src='img/fixation2_sml.jpg'</img></div></div>","null","FIX","","","","","","","","","","",""
"","","","","5d5af711bb10640001afd133","bdp_wmem","Mon Mar 13 2023 13:45:41 GMT-0500 (Central Daylight Time)","586670","Match,No Match","html-keyboard-response","16","85767","0.0-5.0-2.2","","null","","<div class='trialBorder'><div class='vertical-center'><img style='vertical-align:center; align:center' src='img/fixation2_sml.jpg'></div><div class='arrayDiv1'><div class='tc'><img class='introPic' src='trustrating_stim/white_mw012.bmp'><br><font color='red'><strong>Keep</strong></font></div></div></div>","null","ARRAY","1","trustrating_stim/white_mw012.bmp","0","noMatchFace","i","1500","","","","",""
"","","","","5d5af711bb10640001afd133","bdp_wmem","Mon Mar 13 2023 13:45:41 GMT-0500 (Central Daylight Time)","586670","Match,No Match","html-keyboard-response","17","89771","0.0-5.0-3.2","","null","","<div class='trialBorder'><div class='vertical-center'><img src='img/fixation2_sml.jpg'</img></div></div>","null","DELAY","","","","","","","","","","",""
"","","","","5d5af711bb10640001afd133","bdp_wmem","Mon Mar 13 2023 13:45:41 GMT-0500 (Central Daylight Time)","586670","Match,No Match","html-keyboard-response","18","90926","0.0-5.0-4.2","","1154","","<div class='trialBorder'><div class='targDiv'><div class='tc'><img class='introPic' src='trustrating_stim/white_mw038.bmp'><br><font color='red'><strong>Keep</strong></font></div></div><div class='respDiv'><div class='respDivL'>Match<br>(e)</div><div class='respDivR'>No Match<br>(i)</div></div></div>","i","TARGET","1","trustrating_stim/white_mw012.bmp","0","noMatchFace","i","1500","trustrating_stim/white_mw038.bmp","red","Keep","PRACTICE","1"
"","","","","5d5af711bb10640001afd133","bdp_wmem","Mon Mar 13 2023 13:45:41 GMT-0500 (Central Daylight Time)","586670","Match,No Match","html-keyboard-response","19","91433","0.0-5.0-5.2","","null","","<div class='trialBorder'><div class='vertical-center'><img src='img/correct.jpg'></div><div class='respDiv'><div class='respDivL'>Match<br>(e)</div><div class='respDivR'><font style='color:orange'>No Match<br>(i)</font></div></div></div>","null","FEEDBACK","","","","","","","","","","",""
"","","","","5d5af711bb10640001afd133","bdp_wmem","Mon Mar 13 2023 13:45:41 GMT-0500 (Central Daylight Time)","586670","Match,No Match","html-keyboard-response","20","91939","0.0-5.0-1.3","","null","","<div class='trialBorder'><div class='vertical-center'><img src='img/fixation2_sml.jpg'</img></div></div>","null","FIX","","","","","","","","","","",""
"","","","","5d5af711bb10640001afd133","bdp_wmem","Mon Mar 13 2023 13:45:41 GMT-0500 (Central Daylight Time)","586670","Match,No Match","html-keyboard-response","21","93442","0.0-5.0-2.3","","null","","<div class='trialBorder'><div class='vertical-center'><img style='vertical-align:center; align:center' src='img/fixation2_sml.jpg'></div><div class='arrayDiv1'><div class='tc'><img class='introPic' src='trustrating_stim/white_mw010.bmp'><br><font color='red'><strong>Keep</strong></font></div></div></div>","null","ARRAY","1","trustrating_stim/white_mw010.bmp","0","Match","e","1500","","","","",""
"","","","","5d5af711bb10640001afd133","bdp_wmem","Mon Mar 13 2023 13:45:41 GMT-0500 (Central Daylight Time)","586670","Match,No Match","html-keyboard-response","22","97449","0.0-5.0-3.3","","null","","<div class='trialBorder'><div class='vertical-center'><img src='img/fixation2_sml.jpg'</img></div></div>","null","DELAY","","","","","","","","","","",""
"","","","","5d5af711bb10640001afd133","bdp_wmem","Mon Mar 13 2023 13:45:41 GMT-0500 (Central Daylight Time)","586670","Match,No Match","html-keyboard-response","23","98308","0.0-5.0-4.3","","859","","<div class='trialBorder'><div class='targDiv'><div class='tc'><img class='introPic' src='trustrating_stim/white_mw010.bmp'><br><font color='red'><strong>Keep</strong></font></div></div><div class='respDiv'><div class='respDivL'>Match<br>(e)</div><div class='respDivR'>No Match<br>(i)</div></div></div>","i","TARGET","1","trustrating_stim/white_mw010.bmp","0","Match","e","1500","trustrating_stim/white_mw010.bmp","red","Keep","PRACTICE","0"
"","","","","5d5af711bb10640001afd133","bdp_wmem","Mon Mar 13 2023 13:45:41 GMT-0500 (Central Daylight Time)","586670","Match,No Match","html-keyboard-response","24","98810","0.0-5.0-5.3","","null","","<div class='trialBorder'><div class='vertical-center'><img src='img/error.jpg'></div><div class='respDiv'><div class='respDivL'>Match<br>(e)</div><div class='respDivR'><font style='color:orange'>No Match<br>(i)</font></div></div></div>","null","FEEDBACK","","","","","","","","","","",""
"","","","","5d5af711bb10640001afd133","bdp_wmem","Mon Mar 13 2023 13:45:41 GMT-0500 (Central Daylight Time)","586670","Match,No Match","html-keyboard-response","25","99316","0.0-5.0-1.4","","null","","<div class='trialBorder'><div class='vertical-center'><img src='img/fixation2_sml.jpg'</img></div></div>","null","FIX","","","","","","","","","","",""
"","","","","5d5af711bb10640001afd133","bdp_wmem","Mon Mar 13 2023 13:45:41 GMT-0500 (Central Daylight Time)","586670","Match,No Match","html-keyboard-response","26","102324","0.0-5.0-2.4","","null","","<div class='trialBorder'><div class='vertical-center'><img style='vertical-align:center; align:center' src='img/fixation2_sml.jpg'></div><div class='arrayDiv2'><div class='tl'><img class='introPic' src='trustrating_stim/white_mw070.bmp'><br><font color='green'><strong>Share</strong></font></div><div class='tr'><img class='introPic' src='trustrating_stim/white_mw042.bmp'><br><font color='red'><strong>Keep</strong></font></div></div></div>","null","ARRAY","2","trustrating_stim/white_mw070.bmp,trustrating_stim/white_mw042.bmp","1,0","Match","e","3000","","","","",""
"","","","","5d5af711bb10640001afd133","bdp_wmem","Mon Mar 13 2023 13:45:41 GMT-0500 (Central Daylight Time)","586670","Match,No Match","html-keyboard-response","27","106330","0.0-5.0-3.4","","null","","<div class='trialBorder'><div class='vertical-center'><img src='img/fixation2_sml.jpg'</img></div></div>","null","DELAY","","","","","","","","","","",""
"","","","","5d5af711bb10640001afd133","bdp_wmem","Mon Mar 13 2023 13:45:41 GMT-0500 (Central Daylight Time)","586670","Match,No Match","html-keyboard-response","28","107575","0.0-5.0-4.4","","1243","","<div class='trialBorder'><div class='targDiv'><div class='tc'><img class='introPic' src='trustrating_stim/white_mw042.bmp'><br><font color='red'><strong>Keep</strong></font></div></div><div class='respDiv'><div class='respDivL'>Match<br>(e)</div><div class='respDivR'>No Match<br>(i)</div></div></div>","e","TARGET","2","trustrating_stim/white_mw070.bmp,trustrating_stim/white_mw042.bmp","1,0","Match","e","3000","trustrating_stim/white_mw042.bmp","red","Keep","PRACTICE","1"
"","","","","5d5af711bb10640001afd133","bdp_wmem","Mon Mar 13 2023 13:45:41 GMT-0500 (Central Daylight Time)","586670","Match,No Match","html-keyboard-response","29","108077","0.0-5.0-5.4","","null","","<div class='trialBorder'><div class='vertical-center'><img src='img/correct.jpg'></div><div class='respDiv'><div class='respDivL'><font style='color:orange'>Match<br>(e)</font></div><div class='respDivR'>No Match<br>(i)</div></div></div>","null","FEEDBACK","","","","","","","","","","",""
"","","","","5d5af711bb10640001afd133","bdp_wmem","Mon Mar 13 2023 13:45:41 GMT-0500 (Central Daylight Time)","586670","Match,No Match","html-keyboard-response","30","108581","0.0-5.0-1.5","","null","","<div class='trialBorder'><div class='vertical-center'><img src='img/fixation2_sml.jpg'</img></div></div>","null","FIX","","","","","","","","","","",""
"","","","","5d5af711bb10640001afd133","bdp_wmem","Mon Mar 13 2023 13:45:41 GMT-0500 (Central Daylight Time)","586670","Match,No Match","html-keyboard-response","31","113083","0.0-5.0-2.5","","null","","<div class='trialBorder'><div class='vertical-center'><img style='vertical-align:center; align:center' src='img/fixation2_sml.jpg'></div><div class='arrayDiv3'><div class='tl'><img class='introPic' src='trustrating_stim/white_mw040.bmp'><br><font color='green'><strong>Share</strong></font></div><div class='tc'><img class='introPic' src='trustrating_stim/white_mw038.bmp'><br><font color='red'><strong>Keep</strong></font></div><div class='tr'><img class='introPic' src='trustrating_stim/white_mw013.bmp'><br><font color='green'><strong>Share</strong></font></div></div></div>","null","ARRAY","3","trustrating_stim/white_mw040.bmp,trustrating_stim/white_mw038.bmp,trustrating_stim/white_mw013.bmp","1,0,1","Match","e","4500","","","","",""
"","","","","5d5af711bb10640001afd133","bdp_wmem","Mon Mar 13 2023 13:45:41 GMT-0500 (Central Daylight Time)","586670","Match,No Match","html-keyboard-response","32","117086","0.0-5.0-3.5","","null","","<div class='trialBorder'><div class='vertical-center'><img src='img/fixation2_sml.jpg'</img></div></div>","null","DELAY","","","","","","","","","","",""
"","","","","5d5af711bb10640001afd133","bdp_wmem","Mon Mar 13 2023 13:45:41 GMT-0500 (Central Daylight Time)","586670","Match,No Match","html-keyboard-response","33","118302","0.0-5.0-4.5","","1215","","<div class='trialBorder'><div class='targDiv'><div class='tc'><img class='introPic' src='trustrating_stim/white_mw013.bmp'><br><font color='green'><strong>Share</strong></font></div></div><div class='respDiv'><div class='respDivL'>Match<br>(e)</div><div class='respDivR'>No Match<br>(i)</div></div></div>","e","TARGET","3","trustrating_stim/white_mw040.bmp,trustrating_stim/white_mw038.bmp,trustrating_stim/white_mw013.bmp","1,0,1","Match","e","4500","trustrating_stim/white_mw013.bmp","green","Share","PRACTICE","1"
"","","","","5d5af711bb10640001afd133","bdp_wmem","Mon Mar 13 2023 13:45:41 GMT-0500 (Central Daylight Time)","586670","Match,No Match","html-keyboard-response","34","118804","0.0-5.0-5.5","","null","","<div class='trialBorder'><div class='vertical-center'><img src='img/correct.jpg'></div><div class='respDiv'><div class='respDivL'><font style='color:orange'>Match<br>(e)</font></div><div class='respDivR'>No Match<br>(i)</div></div></div>","null","FEEDBACK","","","","","","","","","","",""
"","","","","5d5af711bb10640001afd133","bdp_wmem","Mon Mar 13 2023 13:45:41 GMT-0500 (Central Daylight Time)","586670","Match,No Match","instructions","35","120688","0.0-6.0","[{""page_index"":0,""viewing_time"":1883}]","1884","","","","","","","","","","","","","","",""
"","","","","5d5af711bb10640001afd133","bdp_wmem","Mon Mar 13 2023 13:45:41 GMT-0500 (Central Daylight Time)","586670","Match,No Match","html-keyboard-response","36","121188","0.0-7.0-1.0","","null","","<div class='trialBorder'><div class='vertical-center'><img src='img/fixation2_sml.jpg'</img></div></div>","null","FIX","","","","","","","","","","",""
"","","","","5d5af711bb10640001afd133","bdp_wmem","Mon Mar 13 2023 13:45:41 GMT-0500 (Central Daylight Time)","586670","Match,No Match","html-keyboard-response","37","125691","0.0-7.0-2.0","","null","","<div class='trialBorder'><div class='vertical-center'><img style='vertical-align:center; align:center' src='img/fixation2_sml.jpg'></div><div class='arrayDiv3'><div class='tl'><img class='introPic' src='trustrating_stim/white_mw042.bmp'><br><font color='green'><strong>Share</strong></font></div><div class='tc'><img class='introPic' src='trustrating_stim/white_mw013.bmp'><br><font color='red'><strong>Keep</strong></font></div><div class='tr'><img class='introPic' src='trustrating_stim/white_mw078.bmp'><br><font color='red'><strong>Keep</strong></font></div></div></div>","null","ARRAY","3","trustrating_stim/white_mw042.bmp,trustrating_stim/white_mw013.bmp,trustrating_stim/white_mw078.bmp","1,0,0","Match","e","4500","","","","",""
"","","","","5d5af711bb10640001afd133","bdp_wmem","Mon Mar 13 2023 13:45:41 GMT-0500 (Central Daylight Time)","586670","Match,No Match","html-keyboard-response","38","129697","0.0-7.0-3.0","","null","","<div class='trialBorder'><div class='vertical-center'><img src='img/fixation2_sml.jpg'</img></div></div>","null","DELAY","","","","","","","","","","",""
"","","","","5d5af711bb10640001afd133","bdp_wmem","Mon Mar 13 2023 13:45:41 GMT-0500 (Central Daylight Time)","586670","Match,No Match","html-keyboard-response","39","130960","0.0-7.0-4.0","","1261","","<div class='trialBorder'><div class='targDiv'><div class='tc'><img class='introPic' src='trustrating_stim/white_mw078.bmp'><br><font color='red'><strong>Keep</strong></font></div></div><div class='respDiv'><div class='respDivL'>Match<br>(e)</div><div class='respDivR'>No Match<br>(i)</div></div></div>","e","TARGET","3","trustrating_stim/white_mw042.bmp,trustrating_stim/white_mw013.bmp,trustrating_stim/white_mw078.bmp","1,0,0","Match","e","4500","trustrating_stim/white_mw078.bmp","red","Keep","REAL","1"
"","","","","5d5af711bb10640001afd133","bdp_wmem","Mon Mar 13 2023 13:45:41 GMT-0500 (Central Daylight Time)","586670","Match,No Match","html-keyboard-response","40","131467","0.0-7.0-5.0","","null","","<div class='trialBorder'><div class='vertical-center'><img src='img/correct.jpg'></div><div class='respDiv'><div class='respDivL'><font style='color:orange'>Match<br>(e)</font></div><div class='respDivR'>No Match<br>(i)</div></div></div>","null","FEEDBACK","","","","","","","","","","",""
"","","","","5d5af711bb10640001afd133","bdp_wmem","Mon Mar 13 2023 13:45:41 GMT-0500 (Central Daylight Time)","586670","Match,No Match","html-keyboard-response","41","131973","0.0-7.0-1.1","","null","","<div class='trialBorder'><div class='vertical-center'><img src='img/fixation2_sml.jpg'</img></div></div>","null","FIX","","","","","","","","","","",""
"","","","","5d5af711bb10640001afd133","bdp_wmem","Mon Mar 13 2023 13:45:41 GMT-0500 (Central Daylight Time)","586670","Match,No Match","html-keyboard-response","42","133475","0.0-7.0-2.1","","null","","<div class='trialBorder'><div class='vertical-center'><img style='vertical-align:center; align:center' src='img/fixation2_sml.jpg'></div><div class='arrayDiv1'><div class='tc'><img class='introPic' src='trustrating_stim/white_mw042.bmp'><br><font color='red'><strong>Keep</strong></font></div></div></div>","null","ARRAY","1","trustrating_stim/white_mw042.bmp","0","Match","e","1500","","","","",""
"","","","","5d5af711bb10640001afd133","bdp_wmem","Mon Mar 13 2023 13:45:41 GMT-0500 (Central Daylight Time)","586670","Match,No Match","html-keyboard-response","43","137482","0.0-7.0-3.1","","null","","<div class='trialBorder'><div class='vertical-center'><img src='img/fixation2_sml.jpg'</img></div></div>","null","DELAY","","","","","","","","","","",""
"","","","","5d5af711bb10640001afd133","bdp_wmem","Mon Mar 13 2023 13:45:41 GMT-0500 (Central Daylight Time)","586670","Match,No Match","html-keyboard-response","44","138504","0.0-7.0-4.1","","1021","","<div class='trialBorder'><div class='targDiv'><div class='tc'><img class='introPic' src='trustrating_stim/white_mw042.bmp'><br><font color='red'><strong>Keep</strong></font></div></div><div class='respDiv'><div class='respDivL'>Match<br>(e)</div><div class='respDivR'>No Match<br>(i)</div></div></div>","e","TARGET","1","trustrating_stim/white_mw042.bmp","0","Match","e","1500","trustrating_stim/white_mw042.bmp","red","Keep","REAL","1"
"","","","","5d5af711bb10640001afd133","bdp_wmem","Mon Mar 13 2023 13:45:41 GMT-0500 (Central Daylight Time)","586670","Match,No Match","html-keyboard-response","45","139010","0.0-7.0-5.1","","null","","<div class='trialBorder'><div class='vertical-center'><img src='img/correct.jpg'></div><div class='respDiv'><div class='respDivL'><font style='color:orange'>Match<br>(e)</font></div><div class='respDivR'>No Match<br>(i)</div></div></div>","null","FEEDBACK","","","","","","","","","","",""
"","","","","5d5af711bb10640001afd133","bdp_wmem","Mon Mar 13 2023 13:45:41 GMT-0500 (Central Daylight Time)","586670","Match,No Match","html-keyboard-response","46","139514","0.0-7.0-1.2","","null","","<div class='trialBorder'><div class='vertical-center'><img src='img/fixation2_sml.jpg'</img></div></div>","null","FIX","","","","","","","","","","",""
"","","","","5d5af711bb10640001afd133","bdp_wmem","Mon Mar 13 2023 13:45:41 GMT-0500 (Central Daylight Time)","586670","Match,No Match","html-keyboard-response","47","141021","0.0-7.0-2.2","","null","","<div class='trialBorder'><div class='vertical-center'><img style='vertical-align:center; align:center' src='img/fixation2_sml.jpg'></div><div class='arrayDiv1'><div class='tc'><img class='introPic' src='trustrating_stim/white_mw038.bmp'><br><font color='green'><strong>Share</strong></font></div></div></div>","null","ARRAY","1","trustrating_stim/white_mw038.bmp","1","noMatchFace","i","1500","","","","",""
"","","","","5d5af711bb10640001afd133","bdp_wmem","Mon Mar 13 2023 13:45:41 GMT-0500 (Central Daylight Time)","586670","Match,No Match","html-keyboard-response","48","145026","0.0-7.0-3.2","","null","","<div class='trialBorder'><div class='vertical-center'><img src='img/fixation2_sml.jpg'</img></div></div>","null","DELAY","","","","","","","","","","",""
"","","","","5d5af711bb10640001afd133","bdp_wmem","Mon Mar 13 2023 13:45:41 GMT-0500 (Central Daylight Time)","586670","Match,No Match","html-keyboard-response","49","146129","0.0-7.0-4.2","","1100","","<div class='trialBorder'><div class='targDiv'><div class='tc'><img class='introPic' src='trustrating_stim/white_mw042.bmp'><br><font color='green'><strong>Share</strong></font></div></div><div class='respDiv'><div class='respDivL'>Match<br>(e)</div><div class='respDivR'>No Match<br>(i)</div></div></div>","i","TARGET","1","trustrating_stim/white_mw038.bmp","1","noMatchFace","i","1500","trustrating_stim/white_mw042.bmp","green","Share","REAL","1"
"","","","","5d5af711bb10640001afd133","bdp_wmem","Mon Mar 13 2023 13:45:41 GMT-0500 (Central Daylight Time)","586670","Match,No Match","html-keyboard-response","50","146635","0.0-7.0-5.2","","null","","<div class='trialBorder'><div class='vertical-center'><img src='img/correct.jpg'></div><div class='respDiv'><div class='respDivL'>Match<br>(e)</div><div class='respDivR'><font style='color:orange'>No Match<br>(i)</font></div></div></div>","null","FEEDBACK","","","","","","","","","","",""
"","","","","5d5af711bb10640001afd133","bdp_wmem","Mon Mar 13 2023 13:45:41 GMT-0500 (Central Daylight Time)","586670","Match,No Match","html-keyboard-response","51","147141","0.0-7.0-1.3","","null","","<div class='trialBorder'><div class='vertical-center'><img src='img/fixation2_sml.jpg'</img></div></div>","null","FIX","","","","","","","","","","",""
"","","","","5d5af711bb10640001afd133","bdp_wmem","Mon Mar 13 2023 13:45:41 GMT-0500 (Central Daylight Time)","586670","Match,No Match","html-keyboard-response","52","151644","0.0-7.0-2.3","","null","","<div class='trialBorder'><div class='vertical-center'><img style='vertical-align:center; align:center' src='img/fixation2_sml.jpg'></div><div class='arrayDiv3'><div class='tl'><img class='introPic' src='trustrating_stim/white_mw003.bmp'><br><font color='red'><strong>Keep</strong></font></div><div class='tc'><img class='introPic' src='trustrating_stim/white_mw091.bmp'><br><font color='green'><strong>Share</strong></font></div><div class='tr'><img class='introPic' src='trustrating_stim/white_mw010.bmp'><br><font color='red'><strong>Keep</strong></font></div></div></div>","null","ARRAY","3","trustrating_stim/white_mw003.bmp,trustrating_stim/white_mw091.bmp,trustrating_stim/white_mw010.bmp","0,1,0","noMatchFace","i","4500","","","","",""
"","","","","5d5af711bb10640001afd133","bdp_wmem","Mon Mar 13 2023 13:45:41 GMT-0500 (Central Daylight Time)","586670","Match,No Match","html-keyboard-response","53","155650","0.0-7.0-3.3","","null","","<div class='trialBorder'><div class='vertical-center'><img src='img/fixation2_sml.jpg'</img></div></div>","null","DELAY","","","","","","","","","","",""
"","","","","5d5af711bb10640001afd133","bdp_wmem","Mon Mar 13 2023 13:45:41 GMT-0500 (Central Daylight Time)","586670","Match,No Match","html-keyboard-response","54","156977","0.0-7.0-4.3","","1325","","<div class='trialBorder'><div class='targDiv'><div class='tc'><img class='introPic' src='trustrating_stim/white_mw092.bmp'><br><font color='green'><strong>Share</strong></font></div></div><div class='respDiv'><div class='respDivL'>Match<br>(e)</div><div class='respDivR'>No Match<br>(i)</div></div></div>","i","TARGET","3","trustrating_stim/white_mw003.bmp,trustrating_stim/white_mw091.bmp,trustrating_stim/white_mw010.bmp","0,1,0","noMatchFace","i","4500","trustrating_stim/white_mw092.bmp","green","Share","REAL","1"
"","","","","5d5af711bb10640001afd133","bdp_wmem","Mon Mar 13 2023 13:45:41 GMT-0500 (Central Daylight Time)","586670","Match,No Match","html-keyboard-response","55","157484","0.0-7.0-5.3","","null","","<div class='trialBorder'><div class='vertical-center'><img src='img/correct.jpg'></div><div class='respDiv'><div class='respDivL'>Match<br>(e)</div><div class='respDivR'><font style='color:orange'>No Match<br>(i)</font></div></div></div>","null","FEEDBACK","","","","","","","","","","",""
"","","","","5d5af711bb10640001afd133","bdp_wmem","Mon Mar 13 2023 13:45:41 GMT-0500 (Central Daylight Time)","586670","Match,No Match","html-keyboard-response","56","157988","0.0-7.0-1.4","","null","","<div class='trialBorder'><div class='vertical-center'><img src='img/fixation2_sml.jpg'</img></div></div>","null","FIX","","","","","","","","","","",""
"","","","","5d5af711bb10640001afd133","bdp_wmem","Mon Mar 13 2023 13:45:41 GMT-0500 (Central Daylight Time)","586670","Match,No Match","html-keyboard-response","57","160995","0.0-7.0-2.4","","null","","<div class='trialBorder'><div class='vertical-center'><img style='vertical-align:center; align:center' src='img/fixation2_sml.jpg'></div><div class='arrayDiv2'><div class='tl'><img class='introPic' src='trustrating_stim/white_mw085.bmp'><br><font color='green'><strong>Share</strong></font></div><div class='tr'><img class='introPic' src='trustrating_stim/white_mw078.bmp'><br><font color='red'><strong>Keep</strong></font></div></div></div>","null","ARRAY","2","trustrating_stim/white_mw085.bmp,trustrating_stim/white_mw078.bmp","1,0","Match","e","3000","","","","",""
"","","","","5d5af711bb10640001afd133","bdp_wmem","Mon Mar 13 2023 13:45:41 GMT-0500 (Central Daylight Time)","586670","Match,No Match","html-keyboard-response","58","164999","0.0-7.0-3.4","","null","","<div class='trialBorder'><div class='vertical-center'><img src='img/fixation2_sml.jpg'</img></div></div>","null","DELAY","","","","","","","","","","",""
"","","","","5d5af711bb10640001afd133","bdp_wmem","Mon Mar 13 2023 13:45:41 GMT-0500 (Central Daylight Time)","586670","Match,No Match","html-keyboard-response","59","166633","0.0-7.0-4.4","","1632","","<div class='trialBorder'><div class='targDiv'><div class='tc'><img class='introPic' src='trustrating_stim/white_mw085.bmp'><br><font color='green'><strong>Share</strong></font></div></div><div class='respDiv'><div class='respDivL'>Match<br>(e)</div><div class='respDivR'>No Match<br>(i)</div></div></div>","i","TARGET","2","trustrating_stim/white_mw085.bmp,trustrating_stim/white_mw078.bmp","1,0","Match","e","3000","trustrating_stim/white_mw085.bmp","green","Share","REAL","0"
"","","","","5d5af711bb10640001afd133","bdp_wmem","Mon Mar 13 2023 13:45:41 GMT-0500 (Central Daylight Time)","586670","Match,No Match","html-keyboard-response","60","167139","0.0-7.0-5.4","","null","","<div class='trialBorder'><div class='vertical-center'><img src='img/error.jpg'></div><div class='respDiv'><div class='respDivL'>Match<br>(e)</div><div class='respDivR'><font style='color:orange'>No Match<br>(i)</font></div></div></div>","null","FEEDBACK","","","","","","","","","","",""
"","","","","5d5af711bb10640001afd133","bdp_wmem","Mon Mar 13 2023 13:45:41 GMT-0500 (Central Daylight Time)","586670","Match,No Match","html-keyboard-response","61","167645","0.0-7.0-1.5","","null","","<div class='trialBorder'><div class='vertical-center'><img src='img/fixation2_sml.jpg'</img></div></div>","null","FIX","","","","","","","","","","",""
"","","","","5d5af711bb10640001afd133","bdp_wmem","Mon Mar 13 2023 13:45:41 GMT-0500 (Central Daylight Time)","586670","Match,No Match","html-keyboard-response","62","170652","0.0-7.0-2.5","","null","","<div class='trialBorder'><div class='vertical-center'><img style='vertical-align:center; align:center' src='img/fixation2_sml.jpg'></div><div class='arrayDiv2'><div class='tl'><img class='introPic' src='trustrating_stim/white_mw040.bmp'><br><font color='red'><strong>Keep</strong></font></div><div class='tr'><img class='introPic' src='trustrating_stim/white_mw085.bmp'><br><font color='green'><strong>Share</strong></font></div></div></div>","null","ARRAY","2","trustrating_stim/white_mw040.bmp,trustrating_stim/white_mw085.bmp","0,1","noMatchOutcome","i","3000","","","","",""
"","","","","5d5af711bb10640001afd133","bdp_wmem","Mon Mar 13 2023 13:45:41 GMT-0500 (Central Daylight Time)","586670","Match,No Match","html-keyboard-response","63","174658","0.0-7.0-3.5","","null","","<div class='trialBorder'><div class='vertical-center'><img src='img/fixation2_sml.jpg'</img></div></div>","null","DELAY","","","","","","","","","","",""
"","","","","5d5af711bb10640001afd133","bdp_wmem","Mon Mar 13 2023 13:45:41 GMT-0500 (Central Daylight Time)","586670","Match,No Match","html-keyboard-response","64","175907","0.0-7.0-4.5","","1246","","<div class='trialBorder'><div class='targDiv'><div class='tc'><img class='introPic' src='trustrating_stim/white_mw085.bmp'><br><font color='red'><strong>Keep</strong></font></div></div><div class='respDiv'><div class='respDivL'>Match<br>(e)</div><div class='respDivR'>No Match<br>(i)</div></div></div>","i","TARGET","2","trustrating_stim/white_mw040.bmp,trustrating_stim/white_mw085.bmp","0,1","noMatchOutcome","i","3000","trustrating_stim/white_mw085.bmp","red","Keep","REAL","1"
"","","","","5d5af711bb10640001afd133","bdp_wmem","Mon Mar 13 2023 13:45:41 GMT-0500 (Central Daylight Time)","586670","Match,No Match","html-keyboard-response","65","176412","0.0-7.0-5.5","","null","","<div class='trialBorder'><div class='vertical-center'><img src='img/correct.jpg'></div><div class='respDiv'><div class='respDivL'>Match<br>(e)</div><div class='respDivR'><font style='color:orange'>No Match<br>(i)</font></div></div></div>","null","FEEDBACK","","","","","","","","","","",""
"","","","","5d5af711bb10640001afd133","bdp_wmem","Mon Mar 13 2023 13:45:41 GMT-0500 (Central Daylight Time)","586670","Match,No Match","html-keyboard-response","66","176918","0.0-7.0-1.6","","null","","<div class='trialBorder'><div class='vertical-center'><img src='img/fixation2_sml.jpg'</img></div></div>","null","FIX","","","","","","","","","","",""
"","","","","5d5af711bb10640001afd133","bdp_wmem","Mon Mar 13 2023 13:45:41 GMT-0500 (Central Daylight Time)","586670","Match,No Match","html-keyboard-response","67","179924","0.0-7.0-2.6","","null","","<div class='trialBorder'><div class='vertical-center'><img style='vertical-align:center; align:center' src='img/fixation2_sml.jpg'></div><div class='arrayDiv2'><div class='tl'><img class='introPic' src='trustrating_stim/white_mw040.bmp'><br><font color='green'><strong>Share</strong></font></div><div class='tr'><img class='introPic' src='trustrating_stim/white_mw092.bmp'><br><font color='red'><strong>Keep</strong></font></div></div></div>","null","ARRAY","2","trustrating_stim/white_mw040.bmp,trustrating_stim/white_mw092.bmp","1,0","noMatchFace","i","3000","","","","",""
"","","","","5d5af711bb10640001afd133","bdp_wmem","Mon Mar 13 2023 13:45:41 GMT-0500 (Central Daylight Time)","586670","Match,No Match","html-keyboard-response","68","183931","0.0-7.0-3.6","","null","","<div class='trialBorder'><div class='vertical-center'><img src='img/fixation2_sml.jpg'</img></div></div>","null","DELAY","","","","","","","","","","",""
"","","","","5d5af711bb10640001afd133","bdp_wmem","Mon Mar 13 2023 13:45:41 GMT-0500 (Central Daylight Time)","586670","Match,No Match","html-keyboard-response","69","185162","0.0-7.0-4.6","","1228","","<div class='trialBorder'><div class='targDiv'><div class='tc'><img class='introPic' src='trustrating_stim/white_mw010.bmp'><br><font color='red'><strong>Keep</strong></font></div></div><div class='respDiv'><div class='respDivL'>Match<br>(e)</div><div class='respDivR'>No Match<br>(i)</div></div></div>","i","TARGET","2","trustrating_stim/white_mw040.bmp,trustrating_stim/white_mw092.bmp","1,0","noMatchFace","i","3000","trustrating_stim/white_mw010.bmp","red","Keep","REAL","1"
"","","","","5d5af711bb10640001afd133","bdp_wmem","Mon Mar 13 2023 13:45:41 GMT-0500 (Central Daylight Time)","586670","Match,No Match","html-keyboard-response","70","185668","0.0-7.0-5.6","","null","","<div class='trialBorder'><div class='vertical-center'><img src='img/correct.jpg'></div><div class='respDiv'><div class='respDivL'>Match<br>(e)</div><div class='respDivR'><font style='color:orange'>No Match<br>(i)</font></div></div></div>","null","FEEDBACK","","","","","","","","","","",""
"","","","","5d5af711bb10640001afd133","bdp_wmem","Mon Mar 13 2023 13:45:41 GMT-0500 (Central Daylight Time)","586670","Match,No Match","html-keyboard-response","71","186174","0.0-7.0-1.7","","null","","<div class='trialBorder'><div class='vertical-center'><img src='img/fixation2_sml.jpg'</img></div></div>","null","FIX","","","","","","","","","","",""
"","","","","5d5af711bb10640001afd133","bdp_wmem","Mon Mar 13 2023 13:45:41 GMT-0500 (Central Daylight Time)","586670","Match,No Match","html-keyboard-response","72","189176","0.0-7.0-2.7","","null","","<div class='trialBorder'><div class='vertical-center'><img style='vertical-align:center; align:center' src='img/fixation2_sml.jpg'></div><div class='arrayDiv2'><div class='tl'><img class='introPic' src='trustrating_stim/white_mw003.bmp'><br><font color='green'><strong>Share</strong></font></div><div class='tr'><img class='introPic' src='trustrating_stim/white_mw042.bmp'><br><font color='red'><strong>Keep</strong></font></div></div></div>","null","ARRAY","2","trustrating_stim/white_mw003.bmp,trustrating_stim/white_mw042.bmp","1,0","Match","e","3000","","","","",""
"","","","","5d5af711bb10640001afd133","bdp_wmem","Mon Mar 13 2023 13:45:41 GMT-0500 (Central Daylight Time)","586670","Match,No Match","html-keyboard-response","73","193183","0.0-7.0-3.7","","null","","<div class='trialBorder'><div class='vertical-center'><img src='img/fixation2_sml.jpg'</img></div></div>","null","DELAY","","","","","","","","","","",""
"","","","","5d5af711bb10640001afd133","bdp_wmem","Mon Mar 13 2023 13:45:41 GMT-0500 (Central Daylight Time)","586670","Match,No Match","html-keyboard-response","74","194203","0.0-7.0-4.7","","1017","","<div class='trialBorder'><div class='targDiv'><div class='tc'><img class='introPic' src='trustrating_stim/white_mw003.bmp'><br><font color='green'><strong>Share</strong></font></div></div><div class='respDiv'><div class='respDivL'>Match<br>(e)</div><div class='respDivR'>No Match<br>(i)</div></div></div>","e","TARGET","2","trustrating_stim/white_mw003.bmp,trustrating_stim/white_mw042.bmp","1,0","Match","e","3000","trustrating_stim/white_mw003.bmp","green","Share","REAL","1"
"","","","","5d5af711bb10640001afd133","bdp_wmem","Mon Mar 13 2023 13:45:41 GMT-0500 (Central Daylight Time)","586670","Match,No Match","html-keyboard-response","75","194709","0.0-7.0-5.7","","null","","<div class='trialBorder'><div class='vertical-center'><img src='img/correct.jpg'></div><div class='respDiv'><div class='respDivL'><font style='color:orange'>Match<br>(e)</font></div><div class='respDivR'>No Match<br>(i)</div></div></div>","null","FEEDBACK","","","","","","","","","","",""
"","","","","5d5af711bb10640001afd133","bdp_wmem","Mon Mar 13 2023 13:45:41 GMT-0500 (Central Daylight Time)","586670","Match,No Match","html-keyboard-response","76","195216","0.0-7.0-1.8","","null","","<div class='trialBorder'><div class='vertical-center'><img src='img/fixation2_sml.jpg'</img></div></div>","null","FIX","","","","","","","","","","",""
"","","","","5d5af711bb10640001afd133","bdp_wmem","Mon Mar 13 2023 13:45:41 GMT-0500 (Central Daylight Time)","586670","Match,No Match","html-keyboard-response","77","196722","0.0-7.0-2.8","","null","","<div class='trialBorder'><div class='vertical-center'><img style='vertical-align:center; align:center' src='img/fixation2_sml.jpg'></div><div class='arrayDiv1'><div class='tc'><img class='introPic' src='trustrating_stim/white_mw091.bmp'><br><font color='red'><strong>Keep</strong></font></div></div></div>","null","ARRAY","1","trustrating_stim/white_mw091.bmp","0","noMatchOutcome","i","1500","","","","",""
"","","","","5d5af711bb10640001afd133","bdp_wmem","Mon Mar 13 2023 13:45:41 GMT-0500 (Central Daylight Time)","586670","Match,No Match","html-keyboard-response","78","200726","0.0-7.0-3.8","","null","","<div class='trialBorder'><div class='vertical-center'><img src='img/fixation2_sml.jpg'</img></div></div>","null","DELAY","","","","","","","","","","",""
"","","","","5d5af711bb10640001afd133","bdp_wmem","Mon Mar 13 2023 13:45:41 GMT-0500 (Central Daylight Time)","586670","Match,No Match","html-keyboard-response","79","201746","0.0-7.0-4.8","","1019","","<div class='trialBorder'><div class='targDiv'><div class='tc'><img class='introPic' src='trustrating_stim/white_mw091.bmp'><br><font color='green'><strong>Share</strong></font></div></div><div class='respDiv'><div class='respDivL'>Match<br>(e)</div><div class='respDivR'>No Match<br>(i)</div></div></div>","i","TARGET","1","trustrating_stim/white_mw091.bmp","0","noMatchOutcome","i","1500","trustrating_stim/white_mw091.bmp","green","Share","REAL","1"
"","","","","5d5af711bb10640001afd133","bdp_wmem","Mon Mar 13 2023 13:45:41 GMT-0500 (Central Daylight Time)","586670","Match,No Match","html-keyboard-response","80","202253","0.0-7.0-5.8","","null","","<div class='trialBorder'><div class='vertical-center'><img src='img/correct.jpg'></div><div class='respDiv'><div class='respDivL'>Match<br>(e)</div><div class='respDivR'><font style='color:orange'>No Match<br>(i)</font></div></div></div>","null","FEEDBACK","","","","","","","","","","",""
"","","","","5d5af711bb10640001afd133","bdp_wmem","Mon Mar 13 2023 13:45:41 GMT-0500 (Central Daylight Time)","586670","Match,No Match","html-keyboard-response","81","202756","0.0-7.0-1.9","","null","","<div class='trialBorder'><div class='vertical-center'><img src='img/fixation2_sml.jpg'</img></div></div>","null","FIX","","","","","","","","","","",""
"","","","","5d5af711bb10640001afd133","bdp_wmem","Mon Mar 13 2023 13:45:41 GMT-0500 (Central Daylight Time)","586670","Match,No Match","html-keyboard-response","82","207263","0.0-7.0-2.9","","null","","<div class='trialBorder'><div class='vertical-center'><img style='vertical-align:center; align:center' src='img/fixation2_sml.jpg'></div><div class='arrayDiv3'><div class='tl'><img class='introPic' src='trustrating_stim/white_mw003.bmp'><br><font color='green'><strong>Share</strong></font></div><div class='tc'><img class='introPic' src='trustrating_stim/white_mw010.bmp'><br><font color='red'><strong>Keep</strong></font></div><div class='tr'><img class='introPic' src='trustrating_stim/white_mw085.bmp'><br><font color='red'><strong>Keep</strong></font></div></div></div>","null","ARRAY","3","trustrating_stim/white_mw003.bmp,trustrating_stim/white_mw010.bmp,trustrating_stim/white_mw085.bmp","1,0,0","noMatchOutcome","i","4500","","","","",""
"","","","","5d5af711bb10640001afd133","bdp_wmem","Mon Mar 13 2023 13:45:41 GMT-0500 (Central Daylight Time)","586670","Match,No Match","html-keyboard-response","83","211269","0.0-7.0-3.9","","null","","<div class='trialBorder'><div class='vertical-center'><img src='img/fixation2_sml.jpg'</img></div></div>","null","DELAY","","","","","","","","","","",""
"","","","","5d5af711bb10640001afd133","bdp_wmem","Mon Mar 13 2023 13:45:41 GMT-0500 (Central Daylight Time)","586670","Match,No Match","html-keyboard-response","84","212339","0.0-7.0-4.9","","1068","","<div class='trialBorder'><div class='targDiv'><div class='tc'><img class='introPic' src='trustrating_stim/white_mw085.bmp'><br><font color='green'><strong>Share</strong></font></div></div><div class='respDiv'><div class='respDivL'>Match<br>(e)</div><div class='respDivR'>No Match<br>(i)</div></div></div>","e","TARGET","3","trustrating_stim/white_mw003.bmp,trustrating_stim/white_mw010.bmp,trustrating_stim/white_mw085.bmp","1,0,0","noMatchOutcome","i","4500","trustrating_stim/white_mw085.bmp","green","Share","REAL","0"
"","","","","5d5af711bb10640001afd133","bdp_wmem","Mon Mar 13 2023 13:45:41 GMT-0500 (Central Daylight Time)","586670","Match,No Match","html-keyboard-response","85","212845","0.0-7.0-5.9","","null","","<div class='trialBorder'><div class='vertical-center'><img src='img/error.jpg'></div><div class='respDiv'><div class='respDivL'><font style='color:orange'>Match<br>(e)</font></div><div class='respDivR'>No Match<br>(i)</div></div></div>","null","FEEDBACK","","","","","","","","","","",""
"","","","","5d5af711bb10640001afd133","bdp_wmem","Mon Mar 13 2023 13:45:41 GMT-0500 (Central Daylight Time)","586670","Match,No Match","html-keyboard-response","86","213349","0.0-7.0-1.10","","null","","<div class='trialBorder'><div class='vertical-center'><img src='img/fixation2_sml.jpg'</img></div></div>","null","FIX","","","","","","","","","","",""
"","","","","5d5af711bb10640001afd133","bdp_wmem","Mon Mar 13 2023 13:45:41 GMT-0500 (Central Daylight Time)","586670","Match,No Match","html-keyboard-response","87","217857","0.0-7.0-2.10","","null","","<div class='trialBorder'><div class='vertical-center'><img style='vertical-align:center; align:center' src='img/fixation2_sml.jpg'></div><div class='arrayDiv3'><div class='tl'><img class='introPic' src='trustrating_stim/white_mw012.bmp'><br><font color='green'><strong>Share</strong></font></div><div class='tc'><img class='introPic' src='trustrating_stim/white_mw092.bmp'><br><font color='red'><strong>Keep</strong></font></div><div class='tr'><img class='introPic' src='trustrating_stim/white_mw013.bmp'><br><font color='green'><strong>Share</strong></font></div></div></div>","null","ARRAY","3","trustrating_stim/white_mw012.bmp,trustrating_stim/white_mw092.bmp,trustrating_stim/white_mw013.bmp","1,0,1","noMatchOutcome","i","4500","","","","",""
"","","","","5d5af711bb10640001afd133","bdp_wmem","Mon Mar 13 2023 13:45:41 GMT-0500 (Central Daylight Time)","586670","Match,No Match","html-keyboard-response","88","221863","0.0-7.0-3.10","","null","","<div class='trialBorder'><div class='vertical-center'><img src='img/fixation2_sml.jpg'</img></div></div>","null","DELAY","","","","","","","","","","",""
"","","","","5d5af711bb10640001afd133","bdp_wmem","Mon Mar 13 2023 13:45:41 GMT-0500 (Central Daylight Time)","586670","Match,No Match","html-keyboard-response","89","223370","0.0-7.0-4.10","","1507","","<div class='trialBorder'><div class='targDiv'><div class='tc'><img class='introPic' src='trustrating_stim/white_mw092.bmp'><br><font color='green'><strong>Share</strong></font></div></div><div class='respDiv'><div class='respDivL'>Match<br>(e)</div><div class='respDivR'>No Match<br>(i)</div></div></div>","i","TARGET","3","trustrating_stim/white_mw012.bmp,trustrating_stim/white_mw092.bmp,trustrating_stim/white_mw013.bmp","1,0,1","noMatchOutcome","i","4500","trustrating_stim/white_mw092.bmp","green","Share","REAL","1"
"","","","","5d5af711bb10640001afd133","bdp_wmem","Mon Mar 13 2023 13:45:41 GMT-0500 (Central Daylight Time)","586670","Match,No Match","html-keyboard-response","90","223877","0.0-7.0-5.10","","null","","<div class='trialBorder'><div class='vertical-center'><img src='img/correct.jpg'></div><div class='respDiv'><div class='respDivL'>Match<br>(e)</div><div class='respDivR'><font style='color:orange'>No Match<br>(i)</font></div></div></div>","null","FEEDBACK","","","","","","","","","","",""
"","","","","5d5af711bb10640001afd133","bdp_wmem","Mon Mar 13 2023 13:45:41 GMT-0500 (Central Daylight Time)","586670","Match,No Match","html-keyboard-response","91","224384","0.0-7.0-1.11","","null","","<div class='trialBorder'><div class='vertical-center'><img src='img/fixation2_sml.jpg'</img></div></div>","null","FIX","","","","","","","","","","",""
"","","","","5d5af711bb10640001afd133","bdp_wmem","Mon Mar 13 2023 13:45:41 GMT-0500 (Central Daylight Time)","586670","Match,No Match","html-keyboard-response","92","225886","0.0-7.0-2.11","","null","","<div class='trialBorder'><div class='vertical-center'><img style='vertical-align:center; align:center' src='img/fixation2_sml.jpg'></div><div class='arrayDiv1'><div class='tc'><img class='introPic' src='trustrating_stim/white_mw078.bmp'><br><font color='green'><strong>Share</strong></font></div></div></div>","null","ARRAY","1","trustrating_stim/white_mw078.bmp","1","Match","e","1500","","","","",""
"","","","","5d5af711bb10640001afd133","bdp_wmem","Mon Mar 13 2023 13:45:41 GMT-0500 (Central Daylight Time)","586670","Match,No Match","html-keyboard-response","93","229889","0.0-7.0-3.11","","null","","<div class='trialBorder'><div class='vertical-center'><img src='img/fixation2_sml.jpg'</img></div></div>","null","DELAY","","","","","","","","","","",""
"","","","","5d5af711bb10640001afd133","bdp_wmem","Mon Mar 13 2023 13:45:41 GMT-0500 (Central Daylight Time)","586670","Match,No Match","html-keyboard-response","94","232354","0.0-7.0-4.11","","2463","","<div class='trialBorder'><div class='targDiv'><div class='tc'><img class='introPic' src='trustrating_stim/white_mw078.bmp'><br><font color='green'><strong>Share</strong></font></div></div><div class='respDiv'><div class='respDivL'>Match<br>(e)</div><div class='respDivR'>No Match<br>(i)</div></div></div>","e","TARGET","1","trustrating_stim/white_mw078.bmp","1","Match","e","1500","trustrating_stim/white_mw078.bmp","green","Share","REAL","1"
"","","","","5d5af711bb10640001afd133","bdp_wmem","Mon Mar 13 2023 13:45:41 GMT-0500 (Central Daylight Time)","586670","Match,No Match","html-keyboard-response","95","232856","0.0-7.0-5.11","","null","","<div class='trialBorder'><div class='vertical-center'><img src='img/correct.jpg'></div><div class='respDiv'><div class='respDivL'><font style='color:orange'>Match<br>(e)</font></div><div class='respDivR'>No Match<br>(i)</div></div></div>","null","FEEDBACK","","","","","","","","","","",""
"","","","","5d5af711bb10640001afd133","bdp_wmem","Mon Mar 13 2023 13:45:41 GMT-0500 (Central Daylight Time)","586670","Match,No Match","html-keyboard-response","96","233360","0.0-7.0-1.12","","null","","<div class='trialBorder'><div class='vertical-center'><img src='img/fixation2_sml.jpg'</img></div></div>","null","FIX","","","","","","","","","","",""
"","","","","5d5af711bb10640001afd133","bdp_wmem","Mon Mar 13 2023 13:45:41 GMT-0500 (Central Daylight Time)","586670","Match,No Match","html-keyboard-response","97","236362","0.0-7.0-2.12","","null","","<div class='trialBorder'><div class='vertical-center'><img style='vertical-align:center; align:center' src='img/fixation2_sml.jpg'></div><div class='arrayDiv2'><div class='tl'><img class='introPic' src='trustrating_stim/white_mw010.bmp'><br><font color='green'><strong>Share</strong></font></div><div class='tr'><img class='introPic' src='trustrating_stim/white_mw013.bmp'><br><font color='red'><strong>Keep</strong></font></div></div></div>","null","ARRAY","2","trustrating_stim/white_mw010.bmp,trustrating_stim/white_mw013.bmp","1,0","Match","e","3000","","","","",""
"","","","","5d5af711bb10640001afd133","bdp_wmem","Mon Mar 13 2023 13:45:41 GMT-0500 (Central Daylight Time)","586670","Match,No Match","html-keyboard-response","98","240366","0.0-7.0-3.12","","null","","<div class='trialBorder'><div class='vertical-center'><img src='img/fixation2_sml.jpg'</img></div></div>","null","DELAY","","","","","","","","","","",""
"","","","","5d5af711bb10640001afd133","bdp_wmem","Mon Mar 13 2023 13:45:41 GMT-0500 (Central Daylight Time)","586670","Match,No Match","html-keyboard-response","99","242203","0.0-7.0-4.12","","1836","","<div class='trialBorder'><div class='targDiv'><div class='tc'><img class='introPic' src='trustrating_stim/white_mw013.bmp'><br><font color='red'><strong>Keep</strong></font></div></div><div class='respDiv'><div class='respDivL'>Match<br>(e)</div><div class='respDivR'>No Match<br>(i)</div></div></div>","e","TARGET","2","trustrating_stim/white_mw010.bmp,trustrating_stim/white_mw013.bmp","1,0","Match","e","3000","trustrating_stim/white_mw013.bmp","red","Keep","REAL","1"
"","","","","5d5af711bb10640001afd133","bdp_wmem","Mon Mar 13 2023 13:45:41 GMT-0500 (Central Daylight Time)","586670","Match,No Match","html-keyboard-response","100","242708","0.0-7.0-5.12","","null","","<div class='trialBorder'><div class='vertical-center'><img src='img/correct.jpg'></div><div class='respDiv'><div class='respDivL'><font style='color:orange'>Match<br>(e)</font></div><div class='respDivR'>No Match<br>(i)</div></div></div>","null","FEEDBACK","","","","","","","","","","",""
"","","","","5d5af711bb10640001afd133","bdp_wmem","Mon Mar 13 2023 13:45:41 GMT-0500 (Central Daylight Time)","586670","Match,No Match","html-keyboard-response","101","243215","0.0-7.0-1.13","","null","","<div class='trialBorder'><div class='vertical-center'><img src='img/fixation2_sml.jpg'</img></div></div>","null","FIX","","","","","","","","","","",""
"","","","","5d5af711bb10640001afd133","bdp_wmem","Mon Mar 13 2023 13:45:41 GMT-0500 (Central Daylight Time)","586670","Match,No Match","html-keyboard-response","102","244716","0.0-7.0-2.13","","null","","<div class='trialBorder'><div class='vertical-center'><img style='vertical-align:center; align:center' src='img/fixation2_sml.jpg'></div><div class='arrayDiv1'><div class='tc'><img class='introPic' src='trustrating_stim/white_mw013.bmp'><br><font color='green'><strong>Share</strong></font></div></div></div>","null","ARRAY","1","trustrating_stim/white_mw013.bmp","1","noMatchOutcome","i","1500","","","","",""
"","","","","5d5af711bb10640001afd133","bdp_wmem","Mon Mar 13 2023 13:45:41 GMT-0500 (Central Daylight Time)","586670","Match,No Match","html-keyboard-response","103","248718","0.0-7.0-3.13","","null","","<div class='trialBorder'><div class='vertical-center'><img src='img/fixation2_sml.jpg'</img></div></div>","null","DELAY","","","","","","","","","","",""
"","","","","5d5af711bb10640001afd133","bdp_wmem","Mon Mar 13 2023 13:45:41 GMT-0500 (Central Daylight Time)","586670","Match,No Match","html-keyboard-response","104","249611","0.0-7.0-4.13","","891","","<div class='trialBorder'><div class='targDiv'><div class='tc'><img class='introPic' src='trustrating_stim/white_mw013.bmp'><br><font color='red'><strong>Keep</strong></font></div></div><div class='respDiv'><div class='respDivL'>Match<br>(e)</div><div class='respDivR'>No Match<br>(i)</div></div></div>","i","TARGET","1","trustrating_stim/white_mw013.bmp","1","noMatchOutcome","i","1500","trustrating_stim/white_mw013.bmp","red","Keep","REAL","1"
"","","","","5d5af711bb10640001afd133","bdp_wmem","Mon Mar 13 2023 13:45:41 GMT-0500 (Central Daylight Time)","586670","Match,No Match","html-keyboard-response","105","250114","0.0-7.0-5.13","","null","","<div class='trialBorder'><div class='vertical-center'><img src='img/correct.jpg'></div><div class='respDiv'><div class='respDivL'>Match<br>(e)</div><div class='respDivR'><font style='color:orange'>No Match<br>(i)</font></div></div></div>","null","FEEDBACK","","","","","","","","","","",""
"","","","","5d5af711bb10640001afd133","bdp_wmem","Mon Mar 13 2023 13:45:41 GMT-0500 (Central Daylight Time)","586670","Match,No Match","html-keyboard-response","106","250614","0.0-7.0-1.14","","null","","<div class='trialBorder'><div class='vertical-center'><img src='img/fixation2_sml.jpg'</img></div></div>","null","FIX","","","","","","","","","","",""
"","","","","5d5af711bb10640001afd133","bdp_wmem","Mon Mar 13 2023 13:45:41 GMT-0500 (Central Daylight Time)","586670","Match,No Match","html-keyboard-response","107","255121","0.0-7.0-2.14","","null","","<div class='trialBorder'><div class='vertical-center'><img style='vertical-align:center; align:center' src='img/fixation2_sml.jpg'></div><div class='arrayDiv3'><div class='tl'><img class='introPic' src='trustrating_stim/white_mw038.bmp'><br><font color='red'><strong>Keep</strong></font></div><div class='tc'><img class='introPic' src='trustrating_stim/white_mw013.bmp'><br><font color='green'><strong>Share</strong></font></div><div class='tr'><img class='introPic' src='trustrating_stim/white_mw010.bmp'><br><font color='green'><strong>Share</strong></font></div></div></div>","null","ARRAY","3","trustrating_stim/white_mw038.bmp,trustrating_stim/white_mw013.bmp,trustrating_stim/white_mw010.bmp","0,1,1","Match","e","4500","","","","",""
"","","","","5d5af711bb10640001afd133","bdp_wmem","Mon Mar 13 2023 13:45:41 GMT-0500 (Central Daylight Time)","586670","Match,No Match","html-keyboard-response","108","259127","0.0-7.0-3.14","","null","","<div class='trialBorder'><div class='vertical-center'><img src='img/fixation2_sml.jpg'</img></div></div>","null","DELAY","","","","","","","","","","",""
"","","","","5d5af711bb10640001afd133","bdp_wmem","Mon Mar 13 2023 13:45:41 GMT-0500 (Central Daylight Time)","586670","Match,No Match","html-keyboard-response","109","260556","0.0-7.0-4.14","","1428","","<div class='trialBorder'><div class='targDiv'><div class='tc'><img class='introPic' src='trustrating_stim/white_mw013.bmp'><br><font color='green'><strong>Share</strong></font></div></div><div class='respDiv'><div class='respDivL'>Match<br>(e)</div><div class='respDivR'>No Match<br>(i)</div></div></div>","e","TARGET","3","trustrating_stim/white_mw038.bmp,trustrating_stim/white_mw013.bmp,trustrating_stim/white_mw010.bmp","0,1,1","Match","e","4500","trustrating_stim/white_mw013.bmp","green","Share","REAL","1"
"","","","","5d5af711bb10640001afd133","bdp_wmem","Mon Mar 13 2023 13:45:41 GMT-0500 (Central Daylight Time)","586670","Match,No Match","html-keyboard-response","110","261062","0.0-7.0-5.14","","null","","<div class='trialBorder'><div class='vertical-center'><img src='img/correct.jpg'></div><div class='respDiv'><div class='respDivL'><font style='color:orange'>Match<br>(e)</font></div><div class='respDivR'>No Match<br>(i)</div></div></div>","null","FEEDBACK","","","","","","","","","","",""
"","","","","5d5af711bb10640001afd133","bdp_wmem","Mon Mar 13 2023 13:45:41 GMT-0500 (Central Daylight Time)","586670","Match,No Match","html-keyboard-response","111","261568","0.0-7.0-1.15","","null","","<div class='trialBorder'><div class='vertical-center'><img src='img/fixation2_sml.jpg'</img></div></div>","null","FIX","","","","","","","","","","",""
"","","","","5d5af711bb10640001afd133","bdp_wmem","Mon Mar 13 2023 13:45:41 GMT-0500 (Central Daylight Time)","586670","Match,No Match","html-keyboard-response","112","264574","0.0-7.0-2.15","","null","","<div class='trialBorder'><div class='vertical-center'><img style='vertical-align:center; align:center' src='img/fixation2_sml.jpg'></div><div class='arrayDiv2'><div class='tl'><img class='introPic' src='trustrating_stim/white_mw091.bmp'><br><font color='green'><strong>Share</strong></font></div><div class='tr'><img class='introPic' src='trustrating_stim/white_mw010.bmp'><br><font color='red'><strong>Keep</strong></font></div></div></div>","null","ARRAY","2","trustrating_stim/white_mw091.bmp,trustrating_stim/white_mw010.bmp","1,0","noMatchOutcome","i","3000","","","","",""
"","","","","5d5af711bb10640001afd133","bdp_wmem","Mon Mar 13 2023 13:45:41 GMT-0500 (Central Daylight Time)","586670","Match,No Match","html-keyboard-response","113","268581","0.0-7.0-3.15","","null","","<div class='trialBorder'><div class='vertical-center'><img src='img/fixation2_sml.jpg'</img></div></div>","null","DELAY","","","","","","","","","","",""
"","","","","5d5af711bb10640001afd133","bdp_wmem","Mon Mar 13 2023 13:45:41 GMT-0500 (Central Daylight Time)","586670","Match,No Match","html-keyboard-response","114","270106","0.0-7.0-4.15","","1525","","<div class='trialBorder'><div class='targDiv'><div class='tc'><img class='introPic' src='trustrating_stim/white_mw091.bmp'><br><font color='red'><strong>Keep</strong></font></div></div><div class='respDiv'><div class='respDivL'>Match<br>(e)</div><div class='respDivR'>No Match<br>(i)</div></div></div>","e","TARGET","2","trustrating_stim/white_mw091.bmp,trustrating_stim/white_mw010.bmp","1,0","noMatchOutcome","i","3000","trustrating_stim/white_mw091.bmp","red","Keep","REAL","0"
"","","","","5d5af711bb10640001afd133","bdp_wmem","Mon Mar 13 2023 13:45:41 GMT-0500 (Central Daylight Time)","586670","Match,No Match","html-keyboard-response","115","270607","0.0-7.0-5.15","","null","","<div class='trialBorder'><div class='vertical-center'><img src='img/error.jpg'></div><div class='respDiv'><div class='respDivL'><font style='color:orange'>Match<br>(e)</font></div><div class='respDivR'>No Match<br>(i)</div></div></div>","null","FEEDBACK","","","","","","","","","","",""
"","","","","5d5af711bb10640001afd133","bdp_wmem","Mon Mar 13 2023 13:45:41 GMT-0500 (Central Daylight Time)","586670","Match,No Match","html-keyboard-response","116","271111","0.0-7.0-1.16","","null","","<div class='trialBorder'><div class='vertical-center'><img src='img/fixation2_sml.jpg'</img></div></div>","null","FIX","","","","","","","","","","",""
"","","","","5d5af711bb10640001afd133","bdp_wmem","Mon Mar 13 2023 13:45:41 GMT-0500 (Central Daylight Time)","586670","Match,No Match","html-keyboard-response","117","275615","0.0-7.0-2.16","","null","","<div class='trialBorder'><div class='vertical-center'><img style='vertical-align:center; align:center' src='img/fixation2_sml.jpg'></div><div class='arrayDiv3'><div class='tl'><img class='introPic' src='trustrating_stim/white_mw085.bmp'><br><font color='green'><strong>Share</strong></font></div><div class='tc'><img class='introPic' src='trustrating_stim/white_mw013.bmp'><br><font color='red'><strong>Keep</strong></font></div><div class='tr'><img class='introPic' src='trustrating_stim/white_mw040.bmp'><br><font color='red'><strong>Keep</strong></font></div></div></div>","null","ARRAY","3","trustrating_stim/white_mw085.bmp,trustrating_stim/white_mw013.bmp,trustrating_stim/white_mw040.bmp","1,0,0","noMatchOutcome","i","4500","","","","",""
"","","","","5d5af711bb10640001afd133","bdp_wmem","Mon Mar 13 2023 13:45:41 GMT-0500 (Central Daylight Time)","586670","Match,No Match","html-keyboard-response","118","279621","0.0-7.0-3.16","","null","","<div class='trialBorder'><div class='vertical-center'><img src='img/fixation2_sml.jpg'</img></div></div>","null","DELAY","","","","","","","","","","",""
"","","","","5d5af711bb10640001afd133","bdp_wmem","Mon Mar 13 2023 13:45:41 GMT-0500 (Central Daylight Time)","586670","Match,No Match","html-keyboard-response","119","280876","0.0-7.0-4.16","","1252","","<div class='trialBorder'><div class='targDiv'><div class='tc'><img class='introPic' src='trustrating_stim/white_mw013.bmp'><br><font color='green'><strong>Share</strong></font></div></div><div class='respDiv'><div class='respDivL'>Match<br>(e)</div><div class='respDivR'>No Match<br>(i)</div></div></div>","e","TARGET","3","trustrating_stim/white_mw085.bmp,trustrating_stim/white_mw013.bmp,trustrating_stim/white_mw040.bmp","1,0,0","noMatchOutcome","i","4500","trustrating_stim/white_mw013.bmp","green","Share","REAL","0"
"","","","","5d5af711bb10640001afd133","bdp_wmem","Mon Mar 13 2023 13:45:41 GMT-0500 (Central Daylight Time)","586670","Match,No Match","html-keyboard-response","120","281382","0.0-7.0-5.16","","null","","<div class='trialBorder'><div class='vertical-center'><img src='img/error.jpg'></div><div class='respDiv'><div class='respDivL'><font style='color:orange'>Match<br>(e)</font></div><div class='respDivR'>No Match<br>(i)</div></div></div>","null","FEEDBACK","","","","","","","","","","",""
"","","","","5d5af711bb10640001afd133","bdp_wmem","Mon Mar 13 2023 13:45:41 GMT-0500 (Central Daylight Time)","586670","Match,No Match","html-keyboard-response","121","281887","0.0-7.0-1.17","","null","","<div class='trialBorder'><div class='vertical-center'><img src='img/fixation2_sml.jpg'</img></div></div>","null","FIX","","","","","","","","","","",""
"","","","","5d5af711bb10640001afd133","bdp_wmem","Mon Mar 13 2023 13:45:41 GMT-0500 (Central Daylight Time)","586670","Match,No Match","html-keyboard-response","122","284890","0.0-7.0-2.17","","null","","<div class='trialBorder'><div class='vertical-center'><img style='vertical-align:center; align:center' src='img/fixation2_sml.jpg'></div><div class='arrayDiv2'><div class='tl'><img class='introPic' src='trustrating_stim/white_mw070.bmp'><br><font color='red'><strong>Keep</strong></font></div><div class='tr'><img class='introPic' src='trustrating_stim/white_mw042.bmp'><br><font color='green'><strong>Share</strong></font></div></div></div>","null","ARRAY","2","trustrating_stim/white_mw070.bmp,trustrating_stim/white_mw042.bmp","0,1","Match","e","3000","","","","",""
"","","","","5d5af711bb10640001afd133","bdp_wmem","Mon Mar 13 2023 13:45:41 GMT-0500 (Central Daylight Time)","586670","Match,No Match","html-keyboard-response","123","288892","0.0-7.0-3.17","","null","","<div class='trialBorder'><div class='vertical-center'><img src='img/fixation2_sml.jpg'</img></div></div>","null","DELAY","","","","","","","","","","",""
"","","","","5d5af711bb10640001afd133","bdp_wmem","Mon Mar 13 2023 13:45:41 GMT-0500 (Central Daylight Time)","586670","Match,No Match","html-keyboard-response","124","290740","0.0-7.0-4.17","","1848","","<div class='trialBorder'><div class='targDiv'><div class='tc'><img class='introPic' src='trustrating_stim/white_mw070.bmp'><br><font color='red'><strong>Keep</strong></font></div></div><div class='respDiv'><div class='respDivL'>Match<br>(e)</div><div class='respDivR'>No Match<br>(i)</div></div></div>","i","TARGET","2","trustrating_stim/white_mw070.bmp,trustrating_stim/white_mw042.bmp","0,1","Match","e","3000","trustrating_stim/white_mw070.bmp","red","Keep","REAL","0"
"","","","","5d5af711bb10640001afd133","bdp_wmem","Mon Mar 13 2023 13:45:41 GMT-0500 (Central Daylight Time)","586670","Match,No Match","html-keyboard-response","125","291247","0.0-7.0-5.17","","null","","<div class='trialBorder'><div class='vertical-center'><img src='img/error.jpg'></div><div class='respDiv'><div class='respDivL'>Match<br>(e)</div><div class='respDivR'><font style='color:orange'>No Match<br>(i)</font></div></div></div>","null","FEEDBACK","","","","","","","","","","",""
"","","","","5d5af711bb10640001afd133","bdp_wmem","Mon Mar 13 2023 13:45:41 GMT-0500 (Central Daylight Time)","586670","Match,No Match","html-keyboard-response","126","291751","0.0-7.0-1.18","","null","","<div class='trialBorder'><div class='vertical-center'><img src='img/fixation2_sml.jpg'</img></div></div>","null","FIX","","","","","","","","","","",""
"","","","","5d5af711bb10640001afd133","bdp_wmem","Mon Mar 13 2023 13:45:41 GMT-0500 (Central Daylight Time)","586670","Match,No Match","html-keyboard-response","127","294754","0.0-7.0-2.18","","null","","<div class='trialBorder'><div class='vertical-center'><img style='vertical-align:center; align:center' src='img/fixation2_sml.jpg'></div><div class='arrayDiv2'><div class='tl'><img class='introPic' src='trustrating_stim/white_mw013.bmp'><br><font color='green'><strong>Share</strong></font></div><div class='tr'><img class='introPic' src='trustrating_stim/white_mw012.bmp'><br><font color='red'><strong>Keep</strong></font></div></div></div>","null","ARRAY","2","trustrating_stim/white_mw013.bmp,trustrating_stim/white_mw012.bmp","1,0","Match","e","3000","","","","",""
"","","","","5d5af711bb10640001afd133","bdp_wmem","Mon Mar 13 2023 13:45:41 GMT-0500 (Central Daylight Time)","586670","Match,No Match","html-keyboard-response","128","298757","0.0-7.0-3.18","","null","","<div class='trialBorder'><div class='vertical-center'><img src='img/fixation2_sml.jpg'</img></div></div>","null","DELAY","","","","","","","","","","",""
"","","","","5d5af711bb10640001afd133","bdp_wmem","Mon Mar 13 2023 13:45:41 GMT-0500 (Central Daylight Time)","586670","Match,No Match","html-keyboard-response","129","300140","0.0-7.0-4.18","","1382","","<div class='trialBorder'><div class='targDiv'><div class='tc'><img class='introPic' src='trustrating_stim/white_mw012.bmp'><br><font color='red'><strong>Keep</strong></font></div></div><div class='respDiv'><div class='respDivL'>Match<br>(e)</div><div class='respDivR'>No Match<br>(i)</div></div></div>","i","TARGET","2","trustrating_stim/white_mw013.bmp,trustrating_stim/white_mw012.bmp","1,0","Match","e","3000","trustrating_stim/white_mw012.bmp","red","Keep","REAL","0"
"","","","","5d5af711bb10640001afd133","bdp_wmem","Mon Mar 13 2023 13:45:41 GMT-0500 (Central Daylight Time)","586670","Match,No Match","html-keyboard-response","130","300647","0.0-7.0-5.18","","null","","<div class='trialBorder'><div class='vertical-center'><img src='img/error.jpg'></div><div class='respDiv'><div class='respDivL'>Match<br>(e)</div><div class='respDivR'><font style='color:orange'>No Match<br>(i)</font></div></div></div>","null","FEEDBACK","","","","","","","","","","",""
"","","","","5d5af711bb10640001afd133","bdp_wmem","Mon Mar 13 2023 13:45:41 GMT-0500 (Central Daylight Time)","586670","Match,No Match","html-keyboard-response","131","301152","0.0-7.0-1.19","","null","","<div class='trialBorder'><div class='vertical-center'><img src='img/fixation2_sml.jpg'</img></div></div>","null","FIX","","","","","","","","","","",""
"","","","","5d5af711bb10640001afd133","bdp_wmem","Mon Mar 13 2023 13:45:41 GMT-0500 (Central Daylight Time)","586670","Match,No Match","html-keyboard-response","132","302659","0.0-7.0-2.19","","null","","<div class='trialBorder'><div class='vertical-center'><img style='vertical-align:center; align:center' src='img/fixation2_sml.jpg'></div><div class='arrayDiv1'><div class='tc'><img class='introPic' src='trustrating_stim/white_mw042.bmp'><br><font color='green'><strong>Share</strong></font></div></div></div>","null","ARRAY","1","trustrating_stim/white_mw042.bmp","1","noMatchOutcome","i","1500","","","","",""
"","","","","5d5af711bb10640001afd133","bdp_wmem","Mon Mar 13 2023 13:45:41 GMT-0500 (Central Daylight Time)","586670","Match,No Match","html-keyboard-response","133","306664","0.0-7.0-3.19","","null","","<div class='trialBorder'><div class='vertical-center'><img src='img/fixation2_sml.jpg'</img></div></div>","null","DELAY","","","","","","","","","","",""
"","","","","5d5af711bb10640001afd133","bdp_wmem","Mon Mar 13 2023 13:45:41 GMT-0500 (Central Daylight Time)","586670","Match,No Match","html-keyboard-response","134","308141","0.0-7.0-4.19","","1475","","<div class='trialBorder'><div class='targDiv'><div class='tc'><img class='introPic' src='trustrating_stim/white_mw042.bmp'><br><font color='red'><strong>Keep</strong></font></div></div><div class='respDiv'><div class='respDivL'>Match<br>(e)</div><div class='respDivR'>No Match<br>(i)</div></div></div>","e","TARGET","1","trustrating_stim/white_mw042.bmp","1","noMatchOutcome","i","1500","trustrating_stim/white_mw042.bmp","red","Keep","REAL","0"
"","","","","5d5af711bb10640001afd133","bdp_wmem","Mon Mar 13 2023 13:45:41 GMT-0500 (Central Daylight Time)","586670","Match,No Match","html-keyboard-response","135","308647","0.0-7.0-5.19","","null","","<div class='trialBorder'><div class='vertical-center'><img src='img/error.jpg'></div><div class='respDiv'><div class='respDivL'><font style='color:orange'>Match<br>(e)</font></div><div class='respDivR'>No Match<br>(i)</div></div></div>","null","FEEDBACK","","","","","","","","","","",""
"","","","","5d5af711bb10640001afd133","bdp_wmem","Mon Mar 13 2023 13:45:41 GMT-0500 (Central Daylight Time)","586670","Match,No Match","html-keyboard-response","136","309151","0.0-7.0-1.20","","null","","<div class='trialBorder'><div class='vertical-center'><img src='img/fixation2_sml.jpg'</img></div></div>","null","FIX","","","","","","","","","","",""
"","","","","5d5af711bb10640001afd133","bdp_wmem","Mon Mar 13 2023 13:45:41 GMT-0500 (Central Daylight Time)","586670","Match,No Match","html-keyboard-response","137","310653","0.0-7.0-2.20","","null","","<div class='trialBorder'><div class='vertical-center'><img style='vertical-align:center; align:center' src='img/fixation2_sml.jpg'></div><div class='arrayDiv1'><div class='tc'><img class='introPic' src='trustrating_stim/white_mw042.bmp'><br><font color='red'><strong>Keep</strong></font></div></div></div>","null","ARRAY","1","trustrating_stim/white_mw042.bmp","0","noMatchFace","i","1500","","","","",""
"","","","","5d5af711bb10640001afd133","bdp_wmem","Mon Mar 13 2023 13:45:41 GMT-0500 (Central Daylight Time)","586670","Match,No Match","html-keyboard-response","138","314659","0.0-7.0-3.20","","null","","<div class='trialBorder'><div class='vertical-center'><img src='img/fixation2_sml.jpg'</img></div></div>","null","DELAY","","","","","","","","","","",""
"","","","","5d5af711bb10640001afd133","bdp_wmem","Mon Mar 13 2023 13:45:41 GMT-0500 (Central Daylight Time)","586670","Match,No Match","html-keyboard-response","139","326742","0.0-7.0-4.20","","12081","","<div class='trialBorder'><div class='targDiv'><div class='tc'><img class='introPic' src='trustrating_stim/white_mw010.bmp'><br><font color='red'><strong>Keep</strong></font></div></div><div class='respDiv'><div class='respDivL'>Match<br>(e)</div><div class='respDivR'>No Match<br>(i)</div></div></div>","i","TARGET","1","trustrating_stim/white_mw042.bmp","0","noMatchFace","i","1500","trustrating_stim/white_mw010.bmp","red","Keep","REAL","1"
"","","","","5d5af711bb10640001afd133","bdp_wmem","Mon Mar 13 2023 13:45:41 GMT-0500 (Central Daylight Time)","586670","Match,No Match","html-keyboard-response","140","327249","0.0-7.0-5.20","","null","","<div class='trialBorder'><div class='vertical-center'><img src='img/correct.jpg'></div><div class='respDiv'><div class='respDivL'>Match<br>(e)</div><div class='respDivR'><font style='color:orange'>No Match<br>(i)</font></div></div></div>","null","FEEDBACK","","","","","","","","","","",""
"","","","","5d5af711bb10640001afd133","bdp_wmem","Mon Mar 13 2023 13:45:41 GMT-0500 (Central Daylight Time)","586670","Match,No Match","html-keyboard-response","141","327751","0.0-7.0-1.21","","null","","<div class='trialBorder'><div class='vertical-center'><img src='img/fixation2_sml.jpg'</img></div></div>","null","FIX","","","","","","","","","","",""
"","","","","5d5af711bb10640001afd133","bdp_wmem","Mon Mar 13 2023 13:45:41 GMT-0500 (Central Daylight Time)","586670","Match,No Match","html-keyboard-response","142","332253","0.0-7.0-2.21","","null","","<div class='trialBorder'><div class='vertical-center'><img style='vertical-align:center; align:center' src='img/fixation2_sml.jpg'></div><div class='arrayDiv3'><div class='tl'><img class='introPic' src='trustrating_stim/white_mw042.bmp'><br><font color='red'><strong>Keep</strong></font></div><div class='tc'><img class='introPic' src='trustrating_stim/white_mw003.bmp'><br><font color='green'><strong>Share</strong></font></div><div class='tr'><img class='introPic' src='trustrating_stim/white_mw012.bmp'><br><font color='red'><strong>Keep</strong></font></div></div></div>","null","ARRAY","3","trustrating_stim/white_mw042.bmp,trustrating_stim/white_mw003.bmp,trustrating_stim/white_mw012.bmp","0,1,0","Match","e","4500","","","","",""
"","","","","5d5af711bb10640001afd133","bdp_wmem","Mon Mar 13 2023 13:45:41 GMT-0500 (Central Daylight Time)","586670","Match,No Match","html-keyboard-response","143","336258","0.0-7.0-3.21","","null","","<div class='trialBorder'><div class='vertical-center'><img src='img/fixation2_sml.jpg'</img></div></div>","null","DELAY","","","","","","","","","","",""
"","","","","5d5af711bb10640001afd133","bdp_wmem","Mon Mar 13 2023 13:45:41 GMT-0500 (Central Daylight Time)","586670","Match,No Match","html-keyboard-response","144","343973","0.0-7.0-4.21","","7714","","<div class='trialBorder'><div class='targDiv'><div class='tc'><img class='introPic' src='trustrating_stim/white_mw003.bmp'><br><font color='green'><strong>Share</strong></font></div></div><div class='respDiv'><div class='respDivL'>Match<br>(e)</div><div class='respDivR'>No Match<br>(i)</div></div></div>","e","TARGET","3","trustrating_stim/white_mw042.bmp,trustrating_stim/white_mw003.bmp,trustrating_stim/white_mw012.bmp","0,1,0","Match","e","4500","trustrating_stim/white_mw003.bmp","green","Share","REAL","1"
"","","","","5d5af711bb10640001afd133","bdp_wmem","Mon Mar 13 2023 13:45:41 GMT-0500 (Central Daylight Time)","586670","Match,No Match","html-keyboard-response","145","344477","0.0-7.0-5.21","","null","","<div class='trialBorder'><div class='vertical-center'><img src='img/correct.jpg'></div><div class='respDiv'><div class='respDivL'><font style='color:orange'>Match<br>(e)</font></div><div class='respDivR'>No Match<br>(i)</div></div></div>","null","FEEDBACK","","","","","","","","","","",""
"","","","","5d5af711bb10640001afd133","bdp_wmem","Mon Mar 13 2023 13:45:41 GMT-0500 (Central Daylight Time)","586670","Match,No Match","html-keyboard-response","146","344979","0.0-7.0-1.22","","null","","<div class='trialBorder'><div class='vertical-center'><img src='img/fixation2_sml.jpg'</img></div></div>","null","FIX","","","","","","","","","","",""
"","","","","5d5af711bb10640001afd133","bdp_wmem","Mon Mar 13 2023 13:45:41 GMT-0500 (Central Daylight Time)","586670","Match,No Match","html-keyboard-response","147","346485","0.0-7.0-2.22","","null","","<div class='trialBorder'><div class='vertical-center'><img style='vertical-align:center; align:center' src='img/fixation2_sml.jpg'></div><div class='arrayDiv1'><div class='tc'><img class='introPic' src='trustrating_stim/white_mw092.bmp'><br><font color='red'><strong>Keep</strong></font></div></div></div>","null","ARRAY","1","trustrating_stim/white_mw092.bmp","0","Match","e","1500","","","","",""
"","","","","5d5af711bb10640001afd133","bdp_wmem","Mon Mar 13 2023 13:45:41 GMT-0500 (Central Daylight Time)","586670","Match,No Match","html-keyboard-response","148","350492","0.0-7.0-3.22","","null","","<div class='trialBorder'><div class='vertical-center'><img src='img/fixation2_sml.jpg'</img></div></div>","null","DELAY","","","","","","","","","","",""
"","","","","5d5af711bb10640001afd133","bdp_wmem","Mon Mar 13 2023 13:45:41 GMT-0500 (Central Daylight Time)","586670","Match,No Match","html-keyboard-response","149","351582","0.0-7.0-4.22","","1089","","<div class='trialBorder'><div class='targDiv'><div class='tc'><img class='introPic' src='trustrating_stim/white_mw092.bmp'><br><font color='red'><strong>Keep</strong></font></div></div><div class='respDiv'><div class='respDivL'>Match<br>(e)</div><div class='respDivR'>No Match<br>(i)</div></div></div>","e","TARGET","1","trustrating_stim/white_mw092.bmp","0","Match","e","1500","trustrating_stim/white_mw092.bmp","red","Keep","REAL","1"
"","","","","5d5af711bb10640001afd133","bdp_wmem","Mon Mar 13 2023 13:45:41 GMT-0500 (Central Daylight Time)","586670","Match,No Match","html-keyboard-response","150","352088","0.0-7.0-5.22","","null","","<div class='trialBorder'><div class='vertical-center'><img src='img/correct.jpg'></div><div class='respDiv'><div class='respDivL'><font style='color:orange'>Match<br>(e)</font></div><div class='respDivR'>No Match<br>(i)</div></div></div>","null","FEEDBACK","","","","","","","","","","",""
"","","","","5d5af711bb10640001afd133","bdp_wmem","Mon Mar 13 2023 13:45:41 GMT-0500 (Central Daylight Time)","586670","Match,No Match","html-keyboard-response","151","352593","0.0-7.0-1.23","","null","","<div class='trialBorder'><div class='vertical-center'><img src='img/fixation2_sml.jpg'</img></div></div>","null","FIX","","","","","","","","","","",""
"","","","","5d5af711bb10640001afd133","bdp_wmem","Mon Mar 13 2023 13:45:41 GMT-0500 (Central Daylight Time)","586670","Match,No Match","html-keyboard-response","152","354098","0.0-7.0-2.23","","null","","<div class='trialBorder'><div class='vertical-center'><img style='vertical-align:center; align:center' src='img/fixation2_sml.jpg'></div><div class='arrayDiv1'><div class='tc'><img class='introPic' src='trustrating_stim/white_mw040.bmp'><br><font color='green'><strong>Share</strong></font></div></div></div>","null","ARRAY","1","trustrating_stim/white_mw040.bmp","1","Match","e","1500","","","","",""
"","","","","5d5af711bb10640001afd133","bdp_wmem","Mon Mar 13 2023 13:45:41 GMT-0500 (Central Daylight Time)","586670","Match,No Match","html-keyboard-response","153","358102","0.0-7.0-3.23","","null","","<div class='trialBorder'><div class='vertical-center'><img src='img/fixation2_sml.jpg'</img></div></div>","null","DELAY","","","","","","","","","","",""
"","","","","5d5af711bb10640001afd133","bdp_wmem","Mon Mar 13 2023 13:45:41 GMT-0500 (Central Daylight Time)","586670","Match,No Match","html-keyboard-response","154","359326","0.0-7.0-4.23","","1222","","<div class='trialBorder'><div class='targDiv'><div class='tc'><img class='introPic' src='trustrating_stim/white_mw040.bmp'><br><font color='green'><strong>Share</strong></font></div></div><div class='respDiv'><div class='respDivL'>Match<br>(e)</div><div class='respDivR'>No Match<br>(i)</div></div></div>","e","TARGET","1","trustrating_stim/white_mw040.bmp","1","Match","e","1500","trustrating_stim/white_mw040.bmp","green","Share","REAL","1"
"","","","","5d5af711bb10640001afd133","bdp_wmem","Mon Mar 13 2023 13:45:41 GMT-0500 (Central Daylight Time)","586670","Match,No Match","html-keyboard-response","155","359831","0.0-7.0-5.23","","null","","<div class='trialBorder'><div class='vertical-center'><img src='img/correct.jpg'></div><div class='respDiv'><div class='respDivL'><font style='color:orange'>Match<br>(e)</font></div><div class='respDivR'>No Match<br>(i)</div></div></div>","null","FEEDBACK","","","","","","","","","","",""
"","","","","5d5af711bb10640001afd133","bdp_wmem","Mon Mar 13 2023 13:45:41 GMT-0500 (Central Daylight Time)","586670","Match,No Match","html-keyboard-response","156","360335","0.0-7.0-1.24","","null","","<div class='trialBorder'><div class='vertical-center'><img src='img/fixation2_sml.jpg'</img></div></div>","null","FIX","","","","","","","","","","",""
"","","","","5d5af711bb10640001afd133","bdp_wmem","Mon Mar 13 2023 13:45:41 GMT-0500 (Central Daylight Time)","586670","Match,No Match","html-keyboard-response","157","364841","0.0-7.0-2.24","","null","","<div class='trialBorder'><div class='vertical-center'><img style='vertical-align:center; align:center' src='img/fixation2_sml.jpg'></div><div class='arrayDiv3'><div class='tl'><img class='introPic' src='trustrating_stim/white_mw012.bmp'><br><font color='green'><strong>Share</strong></font></div><div class='tc'><img class='introPic' src='trustrating_stim/white_mw092.bmp'><br><font color='red'><strong>Keep</strong></font></div><div class='tr'><img class='introPic' src='trustrating_stim/white_mw078.bmp'><br><font color='red'><strong>Keep</strong></font></div></div></div>","null","ARRAY","3","trustrating_stim/white_mw012.bmp,trustrating_stim/white_mw092.bmp,trustrating_stim/white_mw078.bmp","1,0,0","Match","e","4500","","","","",""
"","","","","5d5af711bb10640001afd133","bdp_wmem","Mon Mar 13 2023 13:45:41 GMT-0500 (Central Daylight Time)","586670","Match,No Match","html-keyboard-response","158","368848","0.0-7.0-3.24","","null","","<div class='trialBorder'><div class='vertical-center'><img src='img/fixation2_sml.jpg'</img></div></div>","null","DELAY","","","","","","","","","","",""
"","","","","5d5af711bb10640001afd133","bdp_wmem","Mon Mar 13 2023 13:45:41 GMT-0500 (Central Daylight Time)","586670","Match,No Match","html-keyboard-response","159","370455","0.0-7.0-4.24","","1605","","<div class='trialBorder'><div class='targDiv'><div class='tc'><img class='introPic' src='trustrating_stim/white_mw092.bmp'><br><font color='red'><strong>Keep</strong></font></div></div><div class='respDiv'><div class='respDivL'>Match<br>(e)</div><div class='respDivR'>No Match<br>(i)</div></div></div>","i","TARGET","3","trustrating_stim/white_mw012.bmp,trustrating_stim/white_mw092.bmp,trustrating_stim/white_mw078.bmp","1,0,0","Match","e","4500","trustrating_stim/white_mw092.bmp","red","Keep","REAL","0"
"","","","","5d5af711bb10640001afd133","bdp_wmem","Mon Mar 13 2023 13:45:41 GMT-0500 (Central Daylight Time)","586670","Match,No Match","html-keyboard-response","160","370961","0.0-7.0-5.24","","null","","<div class='trialBorder'><div class='vertical-center'><img src='img/error.jpg'></div><div class='respDiv'><div class='respDivL'>Match<br>(e)</div><div class='respDivR'><font style='color:orange'>No Match<br>(i)</font></div></div></div>","null","FEEDBACK","","","","","","","","","","",""
"","","","","5d5af711bb10640001afd133","bdp_wmem","Mon Mar 13 2023 13:45:41 GMT-0500 (Central Daylight Time)","586670","Match,No Match","html-keyboard-response","161","371468","0.0-7.0-1.25","","null","","<div class='trialBorder'><div class='vertical-center'><img src='img/fixation2_sml.jpg'</img></div></div>","null","FIX","","","","","","","","","","",""
"","","","","5d5af711bb10640001afd133","bdp_wmem","Mon Mar 13 2023 13:45:41 GMT-0500 (Central Daylight Time)","586670","Match,No Match","html-keyboard-response","162","372969","0.0-7.0-2.25","","null","","<div class='trialBorder'><div class='vertical-center'><img style='vertical-align:center; align:center' src='img/fixation2_sml.jpg'></div><div class='arrayDiv1'><div class='tc'><img class='introPic' src='trustrating_stim/white_mw013.bmp'><br><font color='red'><strong>Keep</strong></font></div></div></div>","null","ARRAY","1","trustrating_stim/white_mw013.bmp","0","Match","e","1500","","","","",""
"","","","","5d5af711bb10640001afd133","bdp_wmem","Mon Mar 13 2023 13:45:41 GMT-0500 (Central Daylight Time)","586670","Match,No Match","html-keyboard-response","163","376975","0.0-7.0-3.25","","null","","<div class='trialBorder'><div class='vertical-center'><img src='img/fixation2_sml.jpg'</img></div></div>","null","DELAY","","","","","","","","","","",""
"","","","","5d5af711bb10640001afd133","bdp_wmem","Mon Mar 13 2023 13:45:41 GMT-0500 (Central Daylight Time)","586670","Match,No Match","html-keyboard-response","164","378167","0.0-7.0-4.25","","1191","","<div class='trialBorder'><div class='targDiv'><div class='tc'><img class='introPic' src='trustrating_stim/white_mw013.bmp'><br><font color='red'><strong>Keep</strong></font></div></div><div class='respDiv'><div class='respDivL'>Match<br>(e)</div><div class='respDivR'>No Match<br>(i)</div></div></div>","i","TARGET","1","trustrating_stim/white_mw013.bmp","0","Match","e","1500","trustrating_stim/white_mw013.bmp","red","Keep","REAL","0"
"","","","","5d5af711bb10640001afd133","bdp_wmem","Mon Mar 13 2023 13:45:41 GMT-0500 (Central Daylight Time)","586670","Match,No Match","html-keyboard-response","165","378674","0.0-7.0-5.25","","null","","<div class='trialBorder'><div class='vertical-center'><img src='img/error.jpg'></div><div class='respDiv'><div class='respDivL'>Match<br>(e)</div><div class='respDivR'><font style='color:orange'>No Match<br>(i)</font></div></div></div>","null","FEEDBACK","","","","","","","","","","",""
"","","","","5d5af711bb10640001afd133","bdp_wmem","Mon Mar 13 2023 13:45:41 GMT-0500 (Central Daylight Time)","586670","Match,No Match","html-keyboard-response","166","379179","0.0-7.0-1.26","","null","","<div class='trialBorder'><div class='vertical-center'><img src='img/fixation2_sml.jpg'</img></div></div>","null","FIX","","","","","","","","","","",""
"","","","","5d5af711bb10640001afd133","bdp_wmem","Mon Mar 13 2023 13:45:41 GMT-0500 (Central Daylight Time)","586670","Match,No Match","html-keyboard-response","167","382182","0.0-7.0-2.26","","null","","<div class='trialBorder'><div class='vertical-center'><img style='vertical-align:center; align:center' src='img/fixation2_sml.jpg'></div><div class='arrayDiv2'><div class='tl'><img class='introPic' src='trustrating_stim/white_mw040.bmp'><br><font color='red'><strong>Keep</strong></font></div><div class='tr'><img class='introPic' src='trustrating_stim/white_mw092.bmp'><br><font color='green'><strong>Share</strong></font></div></div></div>","null","ARRAY","2","trustrating_stim/white_mw040.bmp,trustrating_stim/white_mw092.bmp","0,1","noMatchOutcome","i","3000","","","","",""
"","","","","5d5af711bb10640001afd133","bdp_wmem","Mon Mar 13 2023 13:45:41 GMT-0500 (Central Daylight Time)","586670","Match,No Match","html-keyboard-response","168","386189","0.0-7.0-3.26","","null","","<div class='trialBorder'><div class='vertical-center'><img src='img/fixation2_sml.jpg'</img></div></div>","null","DELAY","","","","","","","","","","",""
"","","","","5d5af711bb10640001afd133","bdp_wmem","Mon Mar 13 2023 13:45:41 GMT-0500 (Central Daylight Time)","586670","Match,No Match","html-keyboard-response","169","390063","0.0-7.0-4.26","","3873","","<div class='trialBorder'><div class='targDiv'><div class='tc'><img class='introPic' src='trustrating_stim/white_mw040.bmp'><br><font color='green'><strong>Share</strong></font></div></div><div class='respDiv'><div class='respDivL'>Match<br>(e)</div><div class='respDivR'>No Match<br>(i)</div></div></div>","e","TARGET","2","trustrating_stim/white_mw040.bmp,trustrating_stim/white_mw092.bmp","0,1","noMatchOutcome","i","3000","trustrating_stim/white_mw040.bmp","green","Share","REAL","0"
"","","","","5d5af711bb10640001afd133","bdp_wmem","Mon Mar 13 2023 13:45:41 GMT-0500 (Central Daylight Time)","586670","Match,No Match","html-keyboard-response","170","390566","0.0-7.0-5.26","","null","","<div class='trialBorder'><div class='vertical-center'><img src='img/error.jpg'></div><div class='respDiv'><div class='respDivL'><font style='color:orange'>Match<br>(e)</font></div><div class='respDivR'>No Match<br>(i)</div></div></div>","null","FEEDBACK","","","","","","","","","","",""
"","","","","5d5af711bb10640001afd133","bdp_wmem","Mon Mar 13 2023 13:45:41 GMT-0500 (Central Daylight Time)","586670","Match,No Match","html-keyboard-response","171","391069","0.0-7.0-1.27","","null","","<div class='trialBorder'><div class='vertical-center'><img src='img/fixation2_sml.jpg'</img></div></div>","null","FIX","","","","","","","","","","",""
"","","","","5d5af711bb10640001afd133","bdp_wmem","Mon Mar 13 2023 13:45:41 GMT-0500 (Central Daylight Time)","586670","Match,No Match","html-keyboard-response","172","395571","0.0-7.0-2.27","","null","","<div class='trialBorder'><div class='vertical-center'><img style='vertical-align:center; align:center' src='img/fixation2_sml.jpg'></div><div class='arrayDiv3'><div class='tl'><img class='introPic' src='trustrating_stim/white_mw042.bmp'><br><font color='green'><strong>Share</strong></font></div><div class='tc'><img class='introPic' src='trustrating_stim/white_mw012.bmp'><br><font color='green'><strong>Share</strong></font></div><div class='tr'><img class='introPic' src='trustrating_stim/white_mw038.bmp'><br><font color='red'><strong>Keep</strong></font></div></div></div>","null","ARRAY","3","trustrating_stim/white_mw042.bmp,trustrating_stim/white_mw012.bmp,trustrating_stim/white_mw038.bmp","1,1,0","noMatchFace","i","4500","","","","",""
"","","","","5d5af711bb10640001afd133","bdp_wmem","Mon Mar 13 2023 13:45:41 GMT-0500 (Central Daylight Time)","586670","Match,No Match","html-keyboard-response","173","399576","0.0-7.0-3.27","","null","","<div class='trialBorder'><div class='vertical-center'><img src='img/fixation2_sml.jpg'</img></div></div>","null","DELAY","","","","","","","","","","",""
"","","","","5d5af711bb10640001afd133","bdp_wmem","Mon Mar 13 2023 13:45:41 GMT-0500 (Central Daylight Time)","586670","Match,No Match","html-keyboard-response","174","400936","0.0-7.0-4.27","","1358","","<div class='trialBorder'><div class='targDiv'><div class='tc'><img class='introPic' src='trustrating_stim/white_mw070.bmp'><br><font color='red'><strong>Keep</strong></font></div></div><div class='respDiv'><div class='respDivL'>Match<br>(e)</div><div class='respDivR'>No Match<br>(i)</div></div></div>","i","TARGET","3","trustrating_stim/white_mw042.bmp,trustrating_stim/white_mw012.bmp,trustrating_stim/white_mw038.bmp","1,1,0","noMatchFace","i","4500","trustrating_stim/white_mw070.bmp","red","Keep","REAL","1"
"","","","","5d5af711bb10640001afd133","bdp_wmem","Mon Mar 13 2023 13:45:41 GMT-0500 (Central Daylight Time)","586670","Match,No Match","html-keyboard-response","175","401442","0.0-7.0-5.27","","null","","<div class='trialBorder'><div class='vertical-center'><img src='img/correct.jpg'></div><div class='respDiv'><div class='respDivL'>Match<br>(e)</div><div class='respDivR'><font style='color:orange'>No Match<br>(i)</font></div></div></div>","null","FEEDBACK","","","","","","","","","","",""
"","","","","5d5af711bb10640001afd133","bdp_wmem","Mon Mar 13 2023 13:45:41 GMT-0500 (Central Daylight Time)","586670","Match,No Match","html-keyboard-response","176","401948","0.0-7.0-1.28","","null","","<div class='trialBorder'><div class='vertical-center'><img src='img/fixation2_sml.jpg'</img></div></div>","null","FIX","","","","","","","","","","",""
"","","","","5d5af711bb10640001afd133","bdp_wmem","Mon Mar 13 2023 13:45:41 GMT-0500 (Central Daylight Time)","586670","Match,No Match","html-keyboard-response","177","404950","0.0-7.0-2.28","","null","","<div class='trialBorder'><div class='vertical-center'><img style='vertical-align:center; align:center' src='img/fixation2_sml.jpg'></div><div class='arrayDiv2'><div class='tl'><img class='introPic' src='trustrating_stim/white_mw040.bmp'><br><font color='green'><strong>Share</strong></font></div><div class='tr'><img class='introPic' src='trustrating_stim/white_mw091.bmp'><br><font color='red'><strong>Keep</strong></font></div></div></div>","null","ARRAY","2","trustrating_stim/white_mw040.bmp,trustrating_stim/white_mw091.bmp","1,0","noMatchFace","i","3000","","","","",""
"","","","","5d5af711bb10640001afd133","bdp_wmem","Mon Mar 13 2023 13:45:41 GMT-0500 (Central Daylight Time)","586670","Match,No Match","html-keyboard-response","178","408956","0.0-7.0-3.28","","null","","<div class='trialBorder'><div class='vertical-center'><img src='img/fixation2_sml.jpg'</img></div></div>","null","DELAY","","","","","","","","","","",""
"","","","","5d5af711bb10640001afd133","bdp_wmem","Mon Mar 13 2023 13:45:41 GMT-0500 (Central Daylight Time)","586670","Match,No Match","html-keyboard-response","179","409768","0.0-7.0-4.28","","810","","<div class='trialBorder'><div class='targDiv'><div class='tc'><img class='introPic' src='trustrating_stim/white_mw042.bmp'><br><font color='red'><strong>Keep</strong></font></div></div><div class='respDiv'><div class='respDivL'>Match<br>(e)</div><div class='respDivR'>No Match<br>(i)</div></div></div>","i","TARGET","2","trustrating_stim/white_mw040.bmp,trustrating_stim/white_mw091.bmp","1,0","noMatchFace","i","3000","trustrating_stim/white_mw042.bmp","red","Keep","REAL","1"
"","","","","5d5af711bb10640001afd133","bdp_wmem","Mon Mar 13 2023 13:45:41 GMT-0500 (Central Daylight Time)","586670","Match,No Match","html-keyboard-response","180","410275","0.0-7.0-5.28","","null","","<div class='trialBorder'><div class='vertical-center'><img src='img/correct.jpg'></div><div class='respDiv'><div class='respDivL'>Match<br>(e)</div><div class='respDivR'><font style='color:orange'>No Match<br>(i)</font></div></div></div>","null","FEEDBACK","","","","","","","","","","",""
"","","","","5d5af711bb10640001afd133","bdp_wmem","Mon Mar 13 2023 13:45:41 GMT-0500 (Central Daylight Time)","586670","Match,No Match","html-keyboard-response","181","410776","0.0-7.0-1.29","","null","","<div class='trialBorder'><div class='vertical-center'><img src='img/fixation2_sml.jpg'</img></div></div>","null","FIX","","","","","","","","","","",""
"","","","","5d5af711bb10640001afd133","bdp_wmem","Mon Mar 13 2023 13:45:41 GMT-0500 (Central Daylight Time)","586670","Match,No Match","html-keyboard-response","182","412279","0.0-7.0-2.29","","null","","<div class='trialBorder'><div class='vertical-center'><img style='vertical-align:center; align:center' src='img/fixation2_sml.jpg'></div><div class='arrayDiv1'><div class='tc'><img class='introPic' src='trustrating_stim/white_mw078.bmp'><br><font color='red'><strong>Keep</strong></font></div></div></div>","null","ARRAY","1","trustrating_stim/white_mw078.bmp","0","noMatchFace","i","1500","","","","",""
"","","","","5d5af711bb10640001afd133","bdp_wmem","Mon Mar 13 2023 13:45:41 GMT-0500 (Central Daylight Time)","586670","Match,No Match","html-keyboard-response","183","416284","0.0-7.0-3.29","","null","","<div class='trialBorder'><div class='vertical-center'><img src='img/fixation2_sml.jpg'</img></div></div>","null","DELAY","","","","","","","","","","",""
"","","","","5d5af711bb10640001afd133","bdp_wmem","Mon Mar 13 2023 13:45:41 GMT-0500 (Central Daylight Time)","586670","Match,No Match","html-keyboard-response","184","417278","0.0-7.0-4.29","","992","","<div class='trialBorder'><div class='targDiv'><div class='tc'><img class='introPic' src='trustrating_stim/white_mw070.bmp'><br><font color='red'><strong>Keep</strong></font></div></div><div class='respDiv'><div class='respDivL'>Match<br>(e)</div><div class='respDivR'>No Match<br>(i)</div></div></div>","i","TARGET","1","trustrating_stim/white_mw078.bmp","0","noMatchFace","i","1500","trustrating_stim/white_mw070.bmp","red","Keep","REAL","1"
"","","","","5d5af711bb10640001afd133","bdp_wmem","Mon Mar 13 2023 13:45:41 GMT-0500 (Central Daylight Time)","586670","Match,No Match","html-keyboard-response","185","417784","0.0-7.0-5.29","","null","","<div class='trialBorder'><div class='vertical-center'><img src='img/correct.jpg'></div><div class='respDiv'><div class='respDivL'>Match<br>(e)</div><div class='respDivR'><font style='color:orange'>No Match<br>(i)</font></div></div></div>","null","FEEDBACK","","","","","","","","","","",""
"","","","","5d5af711bb10640001afd133","bdp_wmem","Mon Mar 13 2023 13:45:41 GMT-0500 (Central Daylight Time)","586670","Match,No Match","html-keyboard-response","186","418289","0.0-7.0-1.30","","null","","<div class='trialBorder'><div class='vertical-center'><img src='img/fixation2_sml.jpg'</img></div></div>","null","FIX","","","","","","","","","","",""
"","","","","5d5af711bb10640001afd133","bdp_wmem","Mon Mar 13 2023 13:45:41 GMT-0500 (Central Daylight Time)","586670","Match,No Match","html-keyboard-response","187","419796","0.0-7.0-2.30","","null","","<div class='trialBorder'><div class='vertical-center'><img style='vertical-align:center; align:center' src='img/fixation2_sml.jpg'></div><div class='arrayDiv1'><div class='tc'><img class='introPic' src='trustrating_stim/white_mw042.bmp'><br><font color='red'><strong>Keep</strong></font></div></div></div>","null","ARRAY","1","trustrating_stim/white_mw042.bmp","0","Match","e","1500","","","","",""
"","","","","5d5af711bb10640001afd133","bdp_wmem","Mon Mar 13 2023 13:45:41 GMT-0500 (Central Daylight Time)","586670","Match,No Match","html-keyboard-response","188","423802","0.0-7.0-3.30","","null","","<div class='trialBorder'><div class='vertical-center'><img src='img/fixation2_sml.jpg'</img></div></div>","null","DELAY","","","","","","","","","","",""
