"trial_type","trial_index","time_elapsed","internal_node_id","subject_id","task","startTime","totalTime","labels","view_history","rt","event","trial","time","trialtype","success","stimulus","key_press","stimType","arraySize","arrayFaces","arrayOutcomes","matchType","corrResp","arrayDur","targFace","targCol","targOutcome","trialType","corr"
"pavlovia","0","4","0.0-0.0","sconelab1","bdp_wmem","Mon Feb 20 2023 23:58:23 GMT-0500 (Eastern Standard Time)","617882","Match,No Match","","","","","","","","","","","","","","","","","","","","",""
"instructions","1","3811","0.0-1.0","sconelab1","bdp_wmem","Mon Feb 20 2023 23:58:23 GMT-0500 (Eastern Standard Time)","617882","Match,No Match","[{""page_index"":0,""viewing_time"":3806}]","3806","","","","","","","","","","","","","","","","","","",""
"","","","","sconelab1","bdp_wmem","Mon Feb 20 2023 23:58:23 GMT-0500 (Eastern Standard Time)","617882","Match,No Match","","","fullscreenenter","2","5372","fullscreenenter","","","","","","","","","","","","","","",""
"fullscreen","2","6363","0.0-2.0","sconelab1","bdp_wmem","Mon Feb 20 2023 23:58:23 GMT-0500 (Eastern Standard Time)","617882","Match,No Match","","","","","","","true","","","","","","","","","","","","","",""
"instructions","3","94032","0.0-4.0","sconelab1","bdp_wmem","Mon Feb 20 2023 23:58:23 GMT-0500 (Eastern Standard Time)","617882","Match,No Match","[{""page_index"":0,""viewing_time"":25044},{""page_index"":1,""viewing_time"":27900},{""page_index"":2,""viewing_time"":14999},{""page_index"":3,""viewing_time"":5655},{""page_index"":4,""viewing_time"":14069}]","87667","","","","","","","","","","","","","","","","","","",""
"html-keyboard-response","4","94535","0.0-5.0-1.0","sconelab1","bdp_wmem","Mon Feb 20 2023 23:58:23 GMT-0500 (Eastern Standard Time)","617882","Match,No Match","","null","","","","","","<div class='trialBorder'><div class='vertical-center'><img src='img/fixation2_sml.jpg'</img></div></div>","null","FIX","","","","","","","","","","",""
"html-keyboard-response","5","96039","0.0-5.0-2.0","sconelab1","bdp_wmem","Mon Feb 20 2023 23:58:23 GMT-0500 (Eastern Standard Time)","617882","Match,No Match","","null","","","","","","<div class='trialBorder'><div class='vertical-center'><img style='vertical-align:center; align:center' src='img/fixation2_sml.jpg'></div><div class='arrayDiv1'><div class='tc'><img class='introPic' src='trustrating_stim/white_mw091.bmp'><br><font color='green'><strong>Share</strong></font></div></div></div>","null","ARRAY","1","trustrating_stim/white_mw091.bmp","1","Match","e","1500","","","","",""
"html-keyboard-response","6","100046","0.0-5.0-3.0","sconelab1","bdp_wmem","Mon Feb 20 2023 23:58:23 GMT-0500 (Eastern Standard Time)","617882","Match,No Match","","null","","","","","","<div class='trialBorder'><div class='vertical-center'><img src='img/fixation2_sml.jpg'</img></div></div>","null","DELAY","","","","","","","","","","",""
"html-keyboard-response","7","100985","0.0-5.0-4.0","sconelab1","bdp_wmem","Mon Feb 20 2023 23:58:23 GMT-0500 (Eastern Standard Time)","617882","Match,No Match","","938","","","","","","<div class='trialBorder'><div class='targDiv'><div class='tc'><img class='introPic' src='trustrating_stim/white_mw091.bmp'><br><font color='green'><strong>Share</strong></font></div></div><div class='respDiv'><div class='respDivL'>Match<br>(e)</div><div class='respDivR'>No Match<br>(i)</div></div></div>","e","TARGET","1","trustrating_stim/white_mw091.bmp","1","Match","e","1500","trustrating_stim/white_mw091.bmp","green","Share","PRACTICE","1"
"html-keyboard-response","8","101489","0.0-5.0-5.0","sconelab1","bdp_wmem","Mon Feb 20 2023 23:58:23 GMT-0500 (Eastern Standard Time)","617882","Match,No Match","","null","","","","","","<div class='trialBorder'><div class='vertical-center'><img src='img/correct.jpg'></div><div class='respDiv'><div class='respDivL'><font style='color:orange'>Match<br>(e)</font></div><div class='respDivR'>No Match<br>(i)</div></div></div>","null","FEEDBACK","","","","","","","","","","",""
"html-keyboard-response","9","101998","0.0-5.0-1.1","sconelab1","bdp_wmem","Mon Feb 20 2023 23:58:23 GMT-0500 (Eastern Standard Time)","617882","Match,No Match","","null","","","","","","<div class='trialBorder'><div class='vertical-center'><img src='img/fixation2_sml.jpg'</img></div></div>","null","FIX","","","","","","","","","","",""
"html-keyboard-response","10","105003","0.0-5.0-2.1","sconelab1","bdp_wmem","Mon Feb 20 2023 23:58:23 GMT-0500 (Eastern Standard Time)","617882","Match,No Match","","null","","","","","","<div class='trialBorder'><div class='vertical-center'><img style='vertical-align:center; align:center' src='img/fixation2_sml.jpg'></div><div class='arrayDiv2'><div class='tl'><img class='introPic' src='trustrating_stim/white_mw010.bmp'><br><font color='red'><strong>Keep</strong></font></div><div class='tr'><img class='introPic' src='trustrating_stim/white_mw091.bmp'><br><font color='green'><strong>Share</strong></font></div></div></div>","null","ARRAY","2","trustrating_stim/white_mw010.bmp,trustrating_stim/white_mw091.bmp","0,1","Match","e","3000","","","","",""
"html-keyboard-response","11","109016","0.0-5.0-3.1","sconelab1","bdp_wmem","Mon Feb 20 2023 23:58:23 GMT-0500 (Eastern Standard Time)","617882","Match,No Match","","null","","","","","","<div class='trialBorder'><div class='vertical-center'><img src='img/fixation2_sml.jpg'</img></div></div>","null","DELAY","","","","","","","","","","",""
"html-keyboard-response","12","109932","0.0-5.0-4.1","sconelab1","bdp_wmem","Mon Feb 20 2023 23:58:23 GMT-0500 (Eastern Standard Time)","617882","Match,No Match","","913","","","","","","<div class='trialBorder'><div class='targDiv'><div class='tc'><img class='introPic' src='trustrating_stim/white_mw091.bmp'><br><font color='green'><strong>Share</strong></font></div></div><div class='respDiv'><div class='respDivL'>Match<br>(e)</div><div class='respDivR'>No Match<br>(i)</div></div></div>","e","TARGET","2","trustrating_stim/white_mw010.bmp,trustrating_stim/white_mw091.bmp","0,1","Match","e","3000","trustrating_stim/white_mw091.bmp","green","Share","PRACTICE","1"
"html-keyboard-response","13","110439","0.0-5.0-5.1","sconelab1","bdp_wmem","Mon Feb 20 2023 23:58:23 GMT-0500 (Eastern Standard Time)","617882","Match,No Match","","null","","","","","","<div class='trialBorder'><div class='vertical-center'><img src='img/correct.jpg'></div><div class='respDiv'><div class='respDivL'><font style='color:orange'>Match<br>(e)</font></div><div class='respDivR'>No Match<br>(i)</div></div></div>","null","FEEDBACK","","","","","","","","","","",""
"html-keyboard-response","14","110942","0.0-5.0-1.2","sconelab1","bdp_wmem","Mon Feb 20 2023 23:58:23 GMT-0500 (Eastern Standard Time)","617882","Match,No Match","","null","","","","","","<div class='trialBorder'><div class='vertical-center'><img src='img/fixation2_sml.jpg'</img></div></div>","null","FIX","","","","","","","","","","",""
"html-keyboard-response","15","112448","0.0-5.0-2.2","sconelab1","bdp_wmem","Mon Feb 20 2023 23:58:23 GMT-0500 (Eastern Standard Time)","617882","Match,No Match","","null","","","","","","<div class='trialBorder'><div class='vertical-center'><img style='vertical-align:center; align:center' src='img/fixation2_sml.jpg'></div><div class='arrayDiv1'><div class='tc'><img class='introPic' src='trustrating_stim/white_mw038.bmp'><br><font color='green'><strong>Share</strong></font></div></div></div>","null","ARRAY","1","trustrating_stim/white_mw038.bmp","1","noMatchFace","i","1500","","","","",""
"html-keyboard-response","16","116454","0.0-5.0-3.2","sconelab1","bdp_wmem","Mon Feb 20 2023 23:58:23 GMT-0500 (Eastern Standard Time)","617882","Match,No Match","","null","","","","","","<div class='trialBorder'><div class='vertical-center'><img src='img/fixation2_sml.jpg'</img></div></div>","null","DELAY","","","","","","","","","","",""
"html-keyboard-response","17","117805","0.0-5.0-4.2","sconelab1","bdp_wmem","Mon Feb 20 2023 23:58:23 GMT-0500 (Eastern Standard Time)","617882","Match,No Match","","1349","","","","","","<div class='trialBorder'><div class='targDiv'><div class='tc'><img class='introPic' src='trustrating_stim/white_mw091.bmp'><br><font color='green'><strong>Share</strong></font></div></div><div class='respDiv'><div class='respDivL'>Match<br>(e)</div><div class='respDivR'>No Match<br>(i)</div></div></div>","i","TARGET","1","trustrating_stim/white_mw038.bmp","1","noMatchFace","i","1500","trustrating_stim/white_mw091.bmp","green","Share","PRACTICE","1"
"html-keyboard-response","18","118311","0.0-5.0-5.2","sconelab1","bdp_wmem","Mon Feb 20 2023 23:58:23 GMT-0500 (Eastern Standard Time)","617882","Match,No Match","","null","","","","","","<div class='trialBorder'><div class='vertical-center'><img src='img/correct.jpg'></div><div class='respDiv'><div class='respDivL'>Match<br>(e)</div><div class='respDivR'><font style='color:orange'>No Match<br>(i)</font></div></div></div>","null","FEEDBACK","","","","","","","","","","",""
"html-keyboard-response","19","118813","0.0-5.0-1.3","sconelab1","bdp_wmem","Mon Feb 20 2023 23:58:23 GMT-0500 (Eastern Standard Time)","617882","Match,No Match","","null","","","","","","<div class='trialBorder'><div class='vertical-center'><img src='img/fixation2_sml.jpg'</img></div></div>","null","FIX","","","","","","","","","","",""
"html-keyboard-response","20","123318","0.0-5.0-2.3","sconelab1","bdp_wmem","Mon Feb 20 2023 23:58:23 GMT-0500 (Eastern Standard Time)","617882","Match,No Match","","null","","","","","","<div class='trialBorder'><div class='vertical-center'><img style='vertical-align:center; align:center' src='img/fixation2_sml.jpg'></div><div class='arrayDiv3'><div class='tl'><img class='introPic' src='trustrating_stim/white_mw012.bmp'><br><font color='red'><strong>Keep</strong></font></div><div class='tc'><img class='introPic' src='trustrating_stim/white_mw042.bmp'><br><font color='green'><strong>Share</strong></font></div><div class='tr'><img class='introPic' src='trustrating_stim/white_mw038.bmp'><br><font color='green'><strong>Share</strong></font></div></div></div>","null","ARRAY","3","trustrating_stim/white_mw012.bmp,trustrating_stim/white_mw042.bmp,trustrating_stim/white_mw038.bmp","0,1,1","Match","e","4500","","","","",""
"html-keyboard-response","21","127320","0.0-5.0-3.3","sconelab1","bdp_wmem","Mon Feb 20 2023 23:58:23 GMT-0500 (Eastern Standard Time)","617882","Match,No Match","","null","","","","","","<div class='trialBorder'><div class='vertical-center'><img src='img/fixation2_sml.jpg'</img></div></div>","null","DELAY","","","","","","","","","","",""
"html-keyboard-response","22","129107","0.0-5.0-4.3","sconelab1","bdp_wmem","Mon Feb 20 2023 23:58:23 GMT-0500 (Eastern Standard Time)","617882","Match,No Match","","1784","","","","","","<div class='trialBorder'><div class='targDiv'><div class='tc'><img class='introPic' src='trustrating_stim/white_mw042.bmp'><br><font color='green'><strong>Share</strong></font></div></div><div class='respDiv'><div class='respDivL'>Match<br>(e)</div><div class='respDivR'>No Match<br>(i)</div></div></div>","e","TARGET","3","trustrating_stim/white_mw012.bmp,trustrating_stim/white_mw042.bmp,trustrating_stim/white_mw038.bmp","0,1,1","Match","e","4500","trustrating_stim/white_mw042.bmp","green","Share","PRACTICE","1"
"html-keyboard-response","23","129613","0.0-5.0-5.3","sconelab1","bdp_wmem","Mon Feb 20 2023 23:58:23 GMT-0500 (Eastern Standard Time)","617882","Match,No Match","","null","","","","","","<div class='trialBorder'><div class='vertical-center'><img src='img/correct.jpg'></div><div class='respDiv'><div class='respDivL'><font style='color:orange'>Match<br>(e)</font></div><div class='respDivR'>No Match<br>(i)</div></div></div>","null","FEEDBACK","","","","","","","","","","",""
"html-keyboard-response","24","130119","0.0-5.0-1.4","sconelab1","bdp_wmem","Mon Feb 20 2023 23:58:23 GMT-0500 (Eastern Standard Time)","617882","Match,No Match","","null","","","","","","<div class='trialBorder'><div class='vertical-center'><img src='img/fixation2_sml.jpg'</img></div></div>","null","FIX","","","","","","","","","","",""
"html-keyboard-response","25","134632","0.0-5.0-2.4","sconelab1","bdp_wmem","Mon Feb 20 2023 23:58:23 GMT-0500 (Eastern Standard Time)","617882","Match,No Match","","null","","","","","","<div class='trialBorder'><div class='vertical-center'><img style='vertical-align:center; align:center' src='img/fixation2_sml.jpg'></div><div class='arrayDiv3'><div class='tl'><img class='introPic' src='trustrating_stim/white_mw003.bmp'><br><font color='green'><strong>Share</strong></font></div><div class='tc'><img class='introPic' src='trustrating_stim/white_mw012.bmp'><br><font color='green'><strong>Share</strong></font></div><div class='tr'><img class='introPic' src='trustrating_stim/white_mw078.bmp'><br><font color='red'><strong>Keep</strong></font></div></div></div>","null","ARRAY","3","trustrating_stim/white_mw003.bmp,trustrating_stim/white_mw012.bmp,trustrating_stim/white_mw078.bmp","1,1,0","noMatchOutcome","i","4500","","","","",""
"html-keyboard-response","26","138637","0.0-5.0-3.4","sconelab1","bdp_wmem","Mon Feb 20 2023 23:58:23 GMT-0500 (Eastern Standard Time)","617882","Match,No Match","","null","","","","","","<div class='trialBorder'><div class='vertical-center'><img src='img/fixation2_sml.jpg'</img></div></div>","null","DELAY","","","","","","","","","","",""
"html-keyboard-response","27","141587","0.0-5.0-4.4","sconelab1","bdp_wmem","Mon Feb 20 2023 23:58:23 GMT-0500 (Eastern Standard Time)","617882","Match,No Match","","2948","","","","","","<div class='trialBorder'><div class='targDiv'><div class='tc'><img class='introPic' src='trustrating_stim/white_mw012.bmp'><br><font color='red'><strong>Keep</strong></font></div></div><div class='respDiv'><div class='respDivL'>Match<br>(e)</div><div class='respDivR'>No Match<br>(i)</div></div></div>","i","TARGET","3","trustrating_stim/white_mw003.bmp,trustrating_stim/white_mw012.bmp,trustrating_stim/white_mw078.bmp","1,1,0","noMatchOutcome","i","4500","trustrating_stim/white_mw012.bmp","red","Keep","PRACTICE","1"
"html-keyboard-response","28","142093","0.0-5.0-5.4","sconelab1","bdp_wmem","Mon Feb 20 2023 23:58:23 GMT-0500 (Eastern Standard Time)","617882","Match,No Match","","null","","","","","","<div class='trialBorder'><div class='vertical-center'><img src='img/correct.jpg'></div><div class='respDiv'><div class='respDivL'>Match<br>(e)</div><div class='respDivR'><font style='color:orange'>No Match<br>(i)</font></div></div></div>","null","FEEDBACK","","","","","","","","","","",""
"html-keyboard-response","29","142594","0.0-5.0-1.5","sconelab1","bdp_wmem","Mon Feb 20 2023 23:58:23 GMT-0500 (Eastern Standard Time)","617882","Match,No Match","","null","","","","","","<div class='trialBorder'><div class='vertical-center'><img src='img/fixation2_sml.jpg'</img></div></div>","null","FIX","","","","","","","","","","",""
"html-keyboard-response","30","145607","0.0-5.0-2.5","sconelab1","bdp_wmem","Mon Feb 20 2023 23:58:23 GMT-0500 (Eastern Standard Time)","617882","Match,No Match","","null","","","","","","<div class='trialBorder'><div class='vertical-center'><img style='vertical-align:center; align:center' src='img/fixation2_sml.jpg'></div><div class='arrayDiv2'><div class='tl'><img class='introPic' src='trustrating_stim/white_mw091.bmp'><br><font color='green'><strong>Share</strong></font></div><div class='tr'><img class='introPic' src='trustrating_stim/white_mw013.bmp'><br><font color='red'><strong>Keep</strong></font></div></div></div>","null","ARRAY","2","trustrating_stim/white_mw091.bmp,trustrating_stim/white_mw013.bmp","1,0","noMatchFace","i","3000","","","","",""
"html-keyboard-response","31","149612","0.0-5.0-3.5","sconelab1","bdp_wmem","Mon Feb 20 2023 23:58:23 GMT-0500 (Eastern Standard Time)","617882","Match,No Match","","null","","","","","","<div class='trialBorder'><div class='vertical-center'><img src='img/fixation2_sml.jpg'</img></div></div>","null","DELAY","","","","","","","","","","",""
"html-keyboard-response","32","151359","0.0-5.0-4.5","sconelab1","bdp_wmem","Mon Feb 20 2023 23:58:23 GMT-0500 (Eastern Standard Time)","617882","Match,No Match","","1743","","","","","","<div class='trialBorder'><div class='targDiv'><div class='tc'><img class='introPic' src='trustrating_stim/white_mw010.bmp'><br><font color='green'><strong>Share</strong></font></div></div><div class='respDiv'><div class='respDivL'>Match<br>(e)</div><div class='respDivR'>No Match<br>(i)</div></div></div>","i","TARGET","2","trustrating_stim/white_mw091.bmp,trustrating_stim/white_mw013.bmp","1,0","noMatchFace","i","3000","trustrating_stim/white_mw010.bmp","green","Share","PRACTICE","1"
"html-keyboard-response","33","151862","0.0-5.0-5.5","sconelab1","bdp_wmem","Mon Feb 20 2023 23:58:23 GMT-0500 (Eastern Standard Time)","617882","Match,No Match","","null","","","","","","<div class='trialBorder'><div class='vertical-center'><img src='img/correct.jpg'></div><div class='respDiv'><div class='respDivL'>Match<br>(e)</div><div class='respDivR'><font style='color:orange'>No Match<br>(i)</font></div></div></div>","null","FEEDBACK","","","","","","","","","","",""
"instructions","34","156380","0.0-6.0","sconelab1","bdp_wmem","Mon Feb 20 2023 23:58:23 GMT-0500 (Eastern Standard Time)","617882","Match,No Match","[{""page_index"":0,""viewing_time"":4517}]","4518","","","","","","","","","","","","","","","","","","",""
"html-keyboard-response","35","156883","0.0-7.0-1.0","sconelab1","bdp_wmem","Mon Feb 20 2023 23:58:23 GMT-0500 (Eastern Standard Time)","617882","Match,No Match","","null","","","","","","<div class='trialBorder'><div class='vertical-center'><img src='img/fixation2_sml.jpg'</img></div></div>","null","FIX","","","","","","","","","","",""
"html-keyboard-response","36","158392","0.0-7.0-2.0","sconelab1","bdp_wmem","Mon Feb 20 2023 23:58:23 GMT-0500 (Eastern Standard Time)","617882","Match,No Match","","null","","","","","","<div class='trialBorder'><div class='vertical-center'><img style='vertical-align:center; align:center' src='img/fixation2_sml.jpg'></div><div class='arrayDiv1'><div class='tc'><img class='introPic' src='trustrating_stim/white_mw078.bmp'><br><font color='green'><strong>Share</strong></font></div></div></div>","null","ARRAY","1","trustrating_stim/white_mw078.bmp","1","noMatchFace","i","1500","","","","",""
"html-keyboard-response","37","162396","0.0-7.0-3.0","sconelab1","bdp_wmem","Mon Feb 20 2023 23:58:23 GMT-0500 (Eastern Standard Time)","617882","Match,No Match","","null","","","","","","<div class='trialBorder'><div class='vertical-center'><img src='img/fixation2_sml.jpg'</img></div></div>","null","DELAY","","","","","","","","","","",""
"html-keyboard-response","38","163406","0.0-7.0-4.0","sconelab1","bdp_wmem","Mon Feb 20 2023 23:58:23 GMT-0500 (Eastern Standard Time)","617882","Match,No Match","","1006","","","","","","<div class='trialBorder'><div class='targDiv'><div class='tc'><img class='introPic' src='trustrating_stim/white_mw040.bmp'><br><font color='green'><strong>Share</strong></font></div></div><div class='respDiv'><div class='respDivL'>Match<br>(e)</div><div class='respDivR'>No Match<br>(i)</div></div></div>","i","TARGET","1","trustrating_stim/white_mw078.bmp","1","noMatchFace","i","1500","trustrating_stim/white_mw040.bmp","green","Share","REAL","1"
"html-keyboard-response","39","163911","0.0-7.0-5.0","sconelab1","bdp_wmem","Mon Feb 20 2023 23:58:23 GMT-0500 (Eastern Standard Time)","617882","Match,No Match","","null","","","","","","<div class='trialBorder'><div class='vertical-center'><img src='img/correct.jpg'></div><div class='respDiv'><div class='respDivL'>Match<br>(e)</div><div class='respDivR'><font style='color:orange'>No Match<br>(i)</font></div></div></div>","null","FEEDBACK","","","","","","","","","","",""
"html-keyboard-response","40","164413","0.0-7.0-1.1","sconelab1","bdp_wmem","Mon Feb 20 2023 23:58:23 GMT-0500 (Eastern Standard Time)","617882","Match,No Match","","null","","","","","","<div class='trialBorder'><div class='vertical-center'><img src='img/fixation2_sml.jpg'</img></div></div>","null","FIX","","","","","","","","","","",""
"html-keyboard-response","41","165916","0.0-7.0-2.1","sconelab1","bdp_wmem","Mon Feb 20 2023 23:58:23 GMT-0500 (Eastern Standard Time)","617882","Match,No Match","","null","","","","","","<div class='trialBorder'><div class='vertical-center'><img style='vertical-align:center; align:center' src='img/fixation2_sml.jpg'></div><div class='arrayDiv1'><div class='tc'><img class='introPic' src='trustrating_stim/white_mw038.bmp'><br><font color='red'><strong>Keep</strong></font></div></div></div>","null","ARRAY","1","trustrating_stim/white_mw038.bmp","0","Match","e","1500","","","","",""
"html-keyboard-response","42","169925","0.0-7.0-3.1","sconelab1","bdp_wmem","Mon Feb 20 2023 23:58:23 GMT-0500 (Eastern Standard Time)","617882","Match,No Match","","null","","","","","","<div class='trialBorder'><div class='vertical-center'><img src='img/fixation2_sml.jpg'</img></div></div>","null","DELAY","","","","","","","","","","",""
"html-keyboard-response","43","170554","0.0-7.0-4.1","sconelab1","bdp_wmem","Mon Feb 20 2023 23:58:23 GMT-0500 (Eastern Standard Time)","617882","Match,No Match","","627","","","","","","<div class='trialBorder'><div class='targDiv'><div class='tc'><img class='introPic' src='trustrating_stim/white_mw038.bmp'><br><font color='red'><strong>Keep</strong></font></div></div><div class='respDiv'><div class='respDivL'>Match<br>(e)</div><div class='respDivR'>No Match<br>(i)</div></div></div>","e","TARGET","1","trustrating_stim/white_mw038.bmp","0","Match","e","1500","trustrating_stim/white_mw038.bmp","red","Keep","REAL","1"
"html-keyboard-response","44","171058","0.0-7.0-5.1","sconelab1","bdp_wmem","Mon Feb 20 2023 23:58:23 GMT-0500 (Eastern Standard Time)","617882","Match,No Match","","null","","","","","","<div class='trialBorder'><div class='vertical-center'><img src='img/correct.jpg'></div><div class='respDiv'><div class='respDivL'><font style='color:orange'>Match<br>(e)</font></div><div class='respDivR'>No Match<br>(i)</div></div></div>","null","FEEDBACK","","","","","","","","","","",""
"html-keyboard-response","45","171563","0.0-7.0-1.2","sconelab1","bdp_wmem","Mon Feb 20 2023 23:58:23 GMT-0500 (Eastern Standard Time)","617882","Match,No Match","","null","","","","","","<div class='trialBorder'><div class='vertical-center'><img src='img/fixation2_sml.jpg'</img></div></div>","null","FIX","","","","","","","","","","",""
"html-keyboard-response","46","174571","0.0-7.0-2.2","sconelab1","bdp_wmem","Mon Feb 20 2023 23:58:23 GMT-0500 (Eastern Standard Time)","617882","Match,No Match","","null","","","","","","<div class='trialBorder'><div class='vertical-center'><img style='vertical-align:center; align:center' src='img/fixation2_sml.jpg'></div><div class='arrayDiv2'><div class='tl'><img class='introPic' src='trustrating_stim/white_mw042.bmp'><br><font color='red'><strong>Keep</strong></font></div><div class='tr'><img class='introPic' src='trustrating_stim/white_mw070.bmp'><br><font color='green'><strong>Share</strong></font></div></div></div>","null","ARRAY","2","trustrating_stim/white_mw042.bmp,trustrating_stim/white_mw070.bmp","0,1","Match","e","3000","","","","",""
"html-keyboard-response","47","178581","0.0-7.0-3.2","sconelab1","bdp_wmem","Mon Feb 20 2023 23:58:23 GMT-0500 (Eastern Standard Time)","617882","Match,No Match","","null","","","","","","<div class='trialBorder'><div class='vertical-center'><img src='img/fixation2_sml.jpg'</img></div></div>","null","DELAY","","","","","","","","","","",""
"html-keyboard-response","48","179692","0.0-7.0-4.2","sconelab1","bdp_wmem","Mon Feb 20 2023 23:58:23 GMT-0500 (Eastern Standard Time)","617882","Match,No Match","","1108","","","","","","<div class='trialBorder'><div class='targDiv'><div class='tc'><img class='introPic' src='trustrating_stim/white_mw042.bmp'><br><font color='red'><strong>Keep</strong></font></div></div><div class='respDiv'><div class='respDivL'>Match<br>(e)</div><div class='respDivR'>No Match<br>(i)</div></div></div>","e","TARGET","2","trustrating_stim/white_mw042.bmp,trustrating_stim/white_mw070.bmp","0,1","Match","e","3000","trustrating_stim/white_mw042.bmp","red","Keep","REAL","1"
"html-keyboard-response","49","180197","0.0-7.0-5.2","sconelab1","bdp_wmem","Mon Feb 20 2023 23:58:23 GMT-0500 (Eastern Standard Time)","617882","Match,No Match","","null","","","","","","<div class='trialBorder'><div class='vertical-center'><img src='img/correct.jpg'></div><div class='respDiv'><div class='respDivL'><font style='color:orange'>Match<br>(e)</font></div><div class='respDivR'>No Match<br>(i)</div></div></div>","null","FEEDBACK","","","","","","","","","","",""
"html-keyboard-response","50","180699","0.0-7.0-1.3","sconelab1","bdp_wmem","Mon Feb 20 2023 23:58:23 GMT-0500 (Eastern Standard Time)","617882","Match,No Match","","null","","","","","","<div class='trialBorder'><div class='vertical-center'><img src='img/fixation2_sml.jpg'</img></div></div>","null","FIX","","","","","","","","","","",""
"html-keyboard-response","51","185212","0.0-7.0-2.3","sconelab1","bdp_wmem","Mon Feb 20 2023 23:58:23 GMT-0500 (Eastern Standard Time)","617882","Match,No Match","","null","","","","","","<div class='trialBorder'><div class='vertical-center'><img style='vertical-align:center; align:center' src='img/fixation2_sml.jpg'></div><div class='arrayDiv3'><div class='tl'><img class='introPic' src='trustrating_stim/white_mw012.bmp'><br><font color='green'><strong>Share</strong></font></div><div class='tc'><img class='introPic' src='trustrating_stim/white_mw038.bmp'><br><font color='red'><strong>Keep</strong></font></div><div class='tr'><img class='introPic' src='trustrating_stim/white_mw003.bmp'><br><font color='red'><strong>Keep</strong></font></div></div></div>","null","ARRAY","3","trustrating_stim/white_mw012.bmp,trustrating_stim/white_mw038.bmp,trustrating_stim/white_mw003.bmp","1,0,0","Match","e","4500","","","","",""
"html-keyboard-response","52","189221","0.0-7.0-3.3","sconelab1","bdp_wmem","Mon Feb 20 2023 23:58:23 GMT-0500 (Eastern Standard Time)","617882","Match,No Match","","null","","","","","","<div class='trialBorder'><div class='vertical-center'><img src='img/fixation2_sml.jpg'</img></div></div>","null","DELAY","","","","","","","","","","",""
"html-keyboard-response","53","190961","0.0-7.0-4.3","sconelab1","bdp_wmem","Mon Feb 20 2023 23:58:23 GMT-0500 (Eastern Standard Time)","617882","Match,No Match","","1736","","","","","","<div class='trialBorder'><div class='targDiv'><div class='tc'><img class='introPic' src='trustrating_stim/white_mw038.bmp'><br><font color='red'><strong>Keep</strong></font></div></div><div class='respDiv'><div class='respDivL'>Match<br>(e)</div><div class='respDivR'>No Match<br>(i)</div></div></div>","e","TARGET","3","trustrating_stim/white_mw012.bmp,trustrating_stim/white_mw038.bmp,trustrating_stim/white_mw003.bmp","1,0,0","Match","e","4500","trustrating_stim/white_mw038.bmp","red","Keep","REAL","1"
"html-keyboard-response","54","191469","0.0-7.0-5.3","sconelab1","bdp_wmem","Mon Feb 20 2023 23:58:23 GMT-0500 (Eastern Standard Time)","617882","Match,No Match","","null","","","","","","<div class='trialBorder'><div class='vertical-center'><img src='img/correct.jpg'></div><div class='respDiv'><div class='respDivL'><font style='color:orange'>Match<br>(e)</font></div><div class='respDivR'>No Match<br>(i)</div></div></div>","null","FEEDBACK","","","","","","","","","","",""
"html-keyboard-response","55","191977","0.0-7.0-1.4","sconelab1","bdp_wmem","Mon Feb 20 2023 23:58:23 GMT-0500 (Eastern Standard Time)","617882","Match,No Match","","null","","","","","","<div class='trialBorder'><div class='vertical-center'><img src='img/fixation2_sml.jpg'</img></div></div>","null","FIX","","","","","","","","","","",""
"html-keyboard-response","56","193483","0.0-7.0-2.4","sconelab1","bdp_wmem","Mon Feb 20 2023 23:58:23 GMT-0500 (Eastern Standard Time)","617882","Match,No Match","","null","","","","","","<div class='trialBorder'><div class='vertical-center'><img style='vertical-align:center; align:center' src='img/fixation2_sml.jpg'></div><div class='arrayDiv1'><div class='tc'><img class='introPic' src='trustrating_stim/white_mw092.bmp'><br><font color='red'><strong>Keep</strong></font></div></div></div>","null","ARRAY","1","trustrating_stim/white_mw092.bmp","0","noMatchOutcome","i","1500","","","","",""
"html-keyboard-response","57","197488","0.0-7.0-3.4","sconelab1","bdp_wmem","Mon Feb 20 2023 23:58:23 GMT-0500 (Eastern Standard Time)","617882","Match,No Match","","null","","","","","","<div class='trialBorder'><div class='vertical-center'><img src='img/fixation2_sml.jpg'</img></div></div>","null","DELAY","","","","","","","","","","",""
"html-keyboard-response","58","198641","0.0-7.0-4.4","sconelab1","bdp_wmem","Mon Feb 20 2023 23:58:23 GMT-0500 (Eastern Standard Time)","617882","Match,No Match","","1150","","","","","","<div class='trialBorder'><div class='targDiv'><div class='tc'><img class='introPic' src='trustrating_stim/white_mw092.bmp'><br><font color='green'><strong>Share</strong></font></div></div><div class='respDiv'><div class='respDivL'>Match<br>(e)</div><div class='respDivR'>No Match<br>(i)</div></div></div>","i","TARGET","1","trustrating_stim/white_mw092.bmp","0","noMatchOutcome","i","1500","trustrating_stim/white_mw092.bmp","green","Share","REAL","1"
"html-keyboard-response","59","199149","0.0-7.0-5.4","sconelab1","bdp_wmem","Mon Feb 20 2023 23:58:23 GMT-0500 (Eastern Standard Time)","617882","Match,No Match","","null","","","","","","<div class='trialBorder'><div class='vertical-center'><img src='img/correct.jpg'></div><div class='respDiv'><div class='respDivL'>Match<br>(e)</div><div class='respDivR'><font style='color:orange'>No Match<br>(i)</font></div></div></div>","null","FEEDBACK","","","","","","","","","","",""
"html-keyboard-response","60","199654","0.0-7.0-1.5","sconelab1","bdp_wmem","Mon Feb 20 2023 23:58:23 GMT-0500 (Eastern Standard Time)","617882","Match,No Match","","null","","","","","","<div class='trialBorder'><div class='vertical-center'><img src='img/fixation2_sml.jpg'</img></div></div>","null","FIX","","","","","","","","","","",""
"html-keyboard-response","61","201163","0.0-7.0-2.5","sconelab1","bdp_wmem","Mon Feb 20 2023 23:58:23 GMT-0500 (Eastern Standard Time)","617882","Match,No Match","","null","","","","","","<div class='trialBorder'><div class='vertical-center'><img style='vertical-align:center; align:center' src='img/fixation2_sml.jpg'></div><div class='arrayDiv1'><div class='tc'><img class='introPic' src='trustrating_stim/white_mw092.bmp'><br><font color='red'><strong>Keep</strong></font></div></div></div>","null","ARRAY","1","trustrating_stim/white_mw092.bmp","0","Match","e","1500","","","","",""
"html-keyboard-response","62","205166","0.0-7.0-3.5","sconelab1","bdp_wmem","Mon Feb 20 2023 23:58:23 GMT-0500 (Eastern Standard Time)","617882","Match,No Match","","null","","","","","","<div class='trialBorder'><div class='vertical-center'><img src='img/fixation2_sml.jpg'</img></div></div>","null","DELAY","","","","","","","","","","",""
"html-keyboard-response","63","206032","0.0-7.0-4.5","sconelab1","bdp_wmem","Mon Feb 20 2023 23:58:23 GMT-0500 (Eastern Standard Time)","617882","Match,No Match","","865","","","","","","<div class='trialBorder'><div class='targDiv'><div class='tc'><img class='introPic' src='trustrating_stim/white_mw092.bmp'><br><font color='red'><strong>Keep</strong></font></div></div><div class='respDiv'><div class='respDivL'>Match<br>(e)</div><div class='respDivR'>No Match<br>(i)</div></div></div>","e","TARGET","1","trustrating_stim/white_mw092.bmp","0","Match","e","1500","trustrating_stim/white_mw092.bmp","red","Keep","REAL","1"
"html-keyboard-response","64","206541","0.0-7.0-5.5","sconelab1","bdp_wmem","Mon Feb 20 2023 23:58:23 GMT-0500 (Eastern Standard Time)","617882","Match,No Match","","null","","","","","","<div class='trialBorder'><div class='vertical-center'><img src='img/correct.jpg'></div><div class='respDiv'><div class='respDivL'><font style='color:orange'>Match<br>(e)</font></div><div class='respDivR'>No Match<br>(i)</div></div></div>","null","FEEDBACK","","","","","","","","","","",""
"html-keyboard-response","65","207049","0.0-7.0-1.6","sconelab1","bdp_wmem","Mon Feb 20 2023 23:58:23 GMT-0500 (Eastern Standard Time)","617882","Match,No Match","","null","","","","","","<div class='trialBorder'><div class='vertical-center'><img src='img/fixation2_sml.jpg'</img></div></div>","null","FIX","","","","","","","","","","",""
"html-keyboard-response","66","208558","0.0-7.0-2.6","sconelab1","bdp_wmem","Mon Feb 20 2023 23:58:23 GMT-0500 (Eastern Standard Time)","617882","Match,No Match","","null","","","","","","<div class='trialBorder'><div class='vertical-center'><img style='vertical-align:center; align:center' src='img/fixation2_sml.jpg'></div><div class='arrayDiv1'><div class='tc'><img class='introPic' src='trustrating_stim/white_mw042.bmp'><br><font color='green'><strong>Share</strong></font></div></div></div>","null","ARRAY","1","trustrating_stim/white_mw042.bmp","1","Match","e","1500","","","","",""
"html-keyboard-response","67","212561","0.0-7.0-3.6","sconelab1","bdp_wmem","Mon Feb 20 2023 23:58:23 GMT-0500 (Eastern Standard Time)","617882","Match,No Match","","null","","","","","","<div class='trialBorder'><div class='vertical-center'><img src='img/fixation2_sml.jpg'</img></div></div>","null","DELAY","","","","","","","","","","",""
"html-keyboard-response","68","213316","0.0-7.0-4.6","sconelab1","bdp_wmem","Mon Feb 20 2023 23:58:23 GMT-0500 (Eastern Standard Time)","617882","Match,No Match","","753","","","","","","<div class='trialBorder'><div class='targDiv'><div class='tc'><img class='introPic' src='trustrating_stim/white_mw042.bmp'><br><font color='green'><strong>Share</strong></font></div></div><div class='respDiv'><div class='respDivL'>Match<br>(e)</div><div class='respDivR'>No Match<br>(i)</div></div></div>","e","TARGET","1","trustrating_stim/white_mw042.bmp","1","Match","e","1500","trustrating_stim/white_mw042.bmp","green","Share","REAL","1"
"html-keyboard-response","69","213820","0.0-7.0-5.6","sconelab1","bdp_wmem","Mon Feb 20 2023 23:58:23 GMT-0500 (Eastern Standard Time)","617882","Match,No Match","","null","","","","","","<div class='trialBorder'><div class='vertical-center'><img src='img/correct.jpg'></div><div class='respDiv'><div class='respDivL'><font style='color:orange'>Match<br>(e)</font></div><div class='respDivR'>No Match<br>(i)</div></div></div>","null","FEEDBACK","","","","","","","","","","",""
"html-keyboard-response","70","214327","0.0-7.0-1.7","sconelab1","bdp_wmem","Mon Feb 20 2023 23:58:23 GMT-0500 (Eastern Standard Time)","617882","Match,No Match","","null","","","","","","<div class='trialBorder'><div class='vertical-center'><img src='img/fixation2_sml.jpg'</img></div></div>","null","FIX","","","","","","","","","","",""
"html-keyboard-response","71","218836","0.0-7.0-2.7","sconelab1","bdp_wmem","Mon Feb 20 2023 23:58:23 GMT-0500 (Eastern Standard Time)","617882","Match,No Match","","null","","","","","","<div class='trialBorder'><div class='vertical-center'><img style='vertical-align:center; align:center' src='img/fixation2_sml.jpg'></div><div class='arrayDiv3'><div class='tl'><img class='introPic' src='trustrating_stim/white_mw013.bmp'><br><font color='red'><strong>Keep</strong></font></div><div class='tc'><img class='introPic' src='trustrating_stim/white_mw038.bmp'><br><font color='red'><strong>Keep</strong></font></div><div class='tr'><img class='introPic' src='trustrating_stim/white_mw040.bmp'><br><font color='green'><strong>Share</strong></font></div></div></div>","null","ARRAY","3","trustrating_stim/white_mw013.bmp,trustrating_stim/white_mw038.bmp,trustrating_stim/white_mw040.bmp","0,0,1","noMatchOutcome","i","4500","","","","",""
"html-keyboard-response","72","222842","0.0-7.0-3.7","sconelab1","bdp_wmem","Mon Feb 20 2023 23:58:23 GMT-0500 (Eastern Standard Time)","617882","Match,No Match","","null","","","","","","<div class='trialBorder'><div class='vertical-center'><img src='img/fixation2_sml.jpg'</img></div></div>","null","DELAY","","","","","","","","","","",""
"html-keyboard-response","73","226392","0.0-7.0-4.7","sconelab1","bdp_wmem","Mon Feb 20 2023 23:58:23 GMT-0500 (Eastern Standard Time)","617882","Match,No Match","","3549","","","","","","<div class='trialBorder'><div class='targDiv'><div class='tc'><img class='introPic' src='trustrating_stim/white_mw013.bmp'><br><font color='green'><strong>Share</strong></font></div></div><div class='respDiv'><div class='respDivL'>Match<br>(e)</div><div class='respDivR'>No Match<br>(i)</div></div></div>","i","TARGET","3","trustrating_stim/white_mw013.bmp,trustrating_stim/white_mw038.bmp,trustrating_stim/white_mw040.bmp","0,0,1","noMatchOutcome","i","4500","trustrating_stim/white_mw013.bmp","green","Share","REAL","1"
"html-keyboard-response","74","226900","0.0-7.0-5.7","sconelab1","bdp_wmem","Mon Feb 20 2023 23:58:23 GMT-0500 (Eastern Standard Time)","617882","Match,No Match","","null","","","","","","<div class='trialBorder'><div class='vertical-center'><img src='img/correct.jpg'></div><div class='respDiv'><div class='respDivL'>Match<br>(e)</div><div class='respDivR'><font style='color:orange'>No Match<br>(i)</font></div></div></div>","null","FEEDBACK","","","","","","","","","","",""
"html-keyboard-response","75","227402","0.0-7.0-1.8","sconelab1","bdp_wmem","Mon Feb 20 2023 23:58:23 GMT-0500 (Eastern Standard Time)","617882","Match,No Match","","null","","","","","","<div class='trialBorder'><div class='vertical-center'><img src='img/fixation2_sml.jpg'</img></div></div>","null","FIX","","","","","","","","","","",""
"html-keyboard-response","76","228908","0.0-7.0-2.8","sconelab1","bdp_wmem","Mon Feb 20 2023 23:58:23 GMT-0500 (Eastern Standard Time)","617882","Match,No Match","","null","","","","","","<div class='trialBorder'><div class='vertical-center'><img style='vertical-align:center; align:center' src='img/fixation2_sml.jpg'></div><div class='arrayDiv1'><div class='tc'><img class='introPic' src='trustrating_stim/white_mw040.bmp'><br><font color='green'><strong>Share</strong></font></div></div></div>","null","ARRAY","1","trustrating_stim/white_mw040.bmp","1","Match","e","1500","","","","",""
"html-keyboard-response","77","232914","0.0-7.0-3.8","sconelab1","bdp_wmem","Mon Feb 20 2023 23:58:23 GMT-0500 (Eastern Standard Time)","617882","Match,No Match","","null","","","","","","<div class='trialBorder'><div class='vertical-center'><img src='img/fixation2_sml.jpg'</img></div></div>","null","DELAY","","","","","","","","","","",""
"html-keyboard-response","78","233692","0.0-7.0-4.8","sconelab1","bdp_wmem","Mon Feb 20 2023 23:58:23 GMT-0500 (Eastern Standard Time)","617882","Match,No Match","","776","","","","","","<div class='trialBorder'><div class='targDiv'><div class='tc'><img class='introPic' src='trustrating_stim/white_mw040.bmp'><br><font color='green'><strong>Share</strong></font></div></div><div class='respDiv'><div class='respDivL'>Match<br>(e)</div><div class='respDivR'>No Match<br>(i)</div></div></div>","e","TARGET","1","trustrating_stim/white_mw040.bmp","1","Match","e","1500","trustrating_stim/white_mw040.bmp","green","Share","REAL","1"
"html-keyboard-response","79","234196","0.0-7.0-5.8","sconelab1","bdp_wmem","Mon Feb 20 2023 23:58:23 GMT-0500 (Eastern Standard Time)","617882","Match,No Match","","null","","","","","","<div class='trialBorder'><div class='vertical-center'><img src='img/correct.jpg'></div><div class='respDiv'><div class='respDivL'><font style='color:orange'>Match<br>(e)</font></div><div class='respDivR'>No Match<br>(i)</div></div></div>","null","FEEDBACK","","","","","","","","","","",""
"html-keyboard-response","80","234708","0.0-7.0-1.9","sconelab1","bdp_wmem","Mon Feb 20 2023 23:58:23 GMT-0500 (Eastern Standard Time)","617882","Match,No Match","","null","","","","","","<div class='trialBorder'><div class='vertical-center'><img src='img/fixation2_sml.jpg'</img></div></div>","null","FIX","","","","","","","","","","",""
"html-keyboard-response","81","237710","0.0-7.0-2.9","sconelab1","bdp_wmem","Mon Feb 20 2023 23:58:23 GMT-0500 (Eastern Standard Time)","617882","Match,No Match","","null","","","","","","<div class='trialBorder'><div class='vertical-center'><img style='vertical-align:center; align:center' src='img/fixation2_sml.jpg'></div><div class='arrayDiv2'><div class='tl'><img class='introPic' src='trustrating_stim/white_mw091.bmp'><br><font color='red'><strong>Keep</strong></font></div><div class='tr'><img class='introPic' src='trustrating_stim/white_mw003.bmp'><br><font color='green'><strong>Share</strong></font></div></div></div>","null","ARRAY","2","trustrating_stim/white_mw091.bmp,trustrating_stim/white_mw003.bmp","0,1","noMatchOutcome","i","3000","","","","",""
"html-keyboard-response","82","241714","0.0-7.0-3.9","sconelab1","bdp_wmem","Mon Feb 20 2023 23:58:23 GMT-0500 (Eastern Standard Time)","617882","Match,No Match","","null","","","","","","<div class='trialBorder'><div class='vertical-center'><img src='img/fixation2_sml.jpg'</img></div></div>","null","DELAY","","","","","","","","","","",""
"html-keyboard-response","83","243203","0.0-7.0-4.9","sconelab1","bdp_wmem","Mon Feb 20 2023 23:58:23 GMT-0500 (Eastern Standard Time)","617882","Match,No Match","","1485","","","","","","<div class='trialBorder'><div class='targDiv'><div class='tc'><img class='introPic' src='trustrating_stim/white_mw091.bmp'><br><font color='green'><strong>Share</strong></font></div></div><div class='respDiv'><div class='respDivL'>Match<br>(e)</div><div class='respDivR'>No Match<br>(i)</div></div></div>","i","TARGET","2","trustrating_stim/white_mw091.bmp,trustrating_stim/white_mw003.bmp","0,1","noMatchOutcome","i","3000","trustrating_stim/white_mw091.bmp","green","Share","REAL","1"
"html-keyboard-response","84","243706","0.0-7.0-5.9","sconelab1","bdp_wmem","Mon Feb 20 2023 23:58:23 GMT-0500 (Eastern Standard Time)","617882","Match,No Match","","null","","","","","","<div class='trialBorder'><div class='vertical-center'><img src='img/correct.jpg'></div><div class='respDiv'><div class='respDivL'>Match<br>(e)</div><div class='respDivR'><font style='color:orange'>No Match<br>(i)</font></div></div></div>","null","FEEDBACK","","","","","","","","","","",""
"html-keyboard-response","85","244209","0.0-7.0-1.10","sconelab1","bdp_wmem","Mon Feb 20 2023 23:58:23 GMT-0500 (Eastern Standard Time)","617882","Match,No Match","","null","","","","","","<div class='trialBorder'><div class='vertical-center'><img src='img/fixation2_sml.jpg'</img></div></div>","null","FIX","","","","","","","","","","",""
"html-keyboard-response","86","247219","0.0-7.0-2.10","sconelab1","bdp_wmem","Mon Feb 20 2023 23:58:23 GMT-0500 (Eastern Standard Time)","617882","Match,No Match","","null","","","","","","<div class='trialBorder'><div class='vertical-center'><img style='vertical-align:center; align:center' src='img/fixation2_sml.jpg'></div><div class='arrayDiv2'><div class='tl'><img class='introPic' src='trustrating_stim/white_mw078.bmp'><br><font color='green'><strong>Share</strong></font></div><div class='tr'><img class='introPic' src='trustrating_stim/white_mw038.bmp'><br><font color='red'><strong>Keep</strong></font></div></div></div>","null","ARRAY","2","trustrating_stim/white_mw078.bmp,trustrating_stim/white_mw038.bmp","1,0","noMatchFace","i","3000","","","","",""
"html-keyboard-response","87","251229","0.0-7.0-3.10","sconelab1","bdp_wmem","Mon Feb 20 2023 23:58:23 GMT-0500 (Eastern Standard Time)","617882","Match,No Match","","null","","","","","","<div class='trialBorder'><div class='vertical-center'><img src='img/fixation2_sml.jpg'</img></div></div>","null","DELAY","","","","","","","","","","",""
"html-keyboard-response","88","252805","0.0-7.0-4.10","sconelab1","bdp_wmem","Mon Feb 20 2023 23:58:23 GMT-0500 (Eastern Standard Time)","617882","Match,No Match","","1574","","","","","","<div class='trialBorder'><div class='targDiv'><div class='tc'><img class='introPic' src='trustrating_stim/white_mw012.bmp'><br><font color='green'><strong>Share</strong></font></div></div><div class='respDiv'><div class='respDivL'>Match<br>(e)</div><div class='respDivR'>No Match<br>(i)</div></div></div>","i","TARGET","2","trustrating_stim/white_mw078.bmp,trustrating_stim/white_mw038.bmp","1,0","noMatchFace","i","3000","trustrating_stim/white_mw012.bmp","green","Share","REAL","1"
"html-keyboard-response","89","253316","0.0-7.0-5.10","sconelab1","bdp_wmem","Mon Feb 20 2023 23:58:23 GMT-0500 (Eastern Standard Time)","617882","Match,No Match","","null","","","","","","<div class='trialBorder'><div class='vertical-center'><img src='img/correct.jpg'></div><div class='respDiv'><div class='respDivL'>Match<br>(e)</div><div class='respDivR'><font style='color:orange'>No Match<br>(i)</font></div></div></div>","null","FEEDBACK","","","","","","","","","","",""
"html-keyboard-response","90","253827","0.0-7.0-1.11","sconelab1","bdp_wmem","Mon Feb 20 2023 23:58:23 GMT-0500 (Eastern Standard Time)","617882","Match,No Match","","null","","","","","","<div class='trialBorder'><div class='vertical-center'><img src='img/fixation2_sml.jpg'</img></div></div>","null","FIX","","","","","","","","","","",""
"html-keyboard-response","91","256831","0.0-7.0-2.11","sconelab1","bdp_wmem","Mon Feb 20 2023 23:58:23 GMT-0500 (Eastern Standard Time)","617882","Match,No Match","","null","","","","","","<div class='trialBorder'><div class='vertical-center'><img style='vertical-align:center; align:center' src='img/fixation2_sml.jpg'></div><div class='arrayDiv2'><div class='tl'><img class='introPic' src='trustrating_stim/white_mw012.bmp'><br><font color='green'><strong>Share</strong></font></div><div class='tr'><img class='introPic' src='trustrating_stim/white_mw085.bmp'><br><font color='red'><strong>Keep</strong></font></div></div></div>","null","ARRAY","2","trustrating_stim/white_mw012.bmp,trustrating_stim/white_mw085.bmp","1,0","noMatchFace","i","3000","","","","",""
"html-keyboard-response","92","260841","0.0-7.0-3.11","sconelab1","bdp_wmem","Mon Feb 20 2023 23:58:23 GMT-0500 (Eastern Standard Time)","617882","Match,No Match","","null","","","","","","<div class='trialBorder'><div class='vertical-center'><img src='img/fixation2_sml.jpg'</img></div></div>","null","DELAY","","","","","","","","","","",""
"html-keyboard-response","93","262315","0.0-7.0-4.11","sconelab1","bdp_wmem","Mon Feb 20 2023 23:58:23 GMT-0500 (Eastern Standard Time)","617882","Match,No Match","","1472","","","","","","<div class='trialBorder'><div class='targDiv'><div class='tc'><img class='introPic' src='trustrating_stim/white_mw078.bmp'><br><font color='red'><strong>Keep</strong></font></div></div><div class='respDiv'><div class='respDivL'>Match<br>(e)</div><div class='respDivR'>No Match<br>(i)</div></div></div>","i","TARGET","2","trustrating_stim/white_mw012.bmp,trustrating_stim/white_mw085.bmp","1,0","noMatchFace","i","3000","trustrating_stim/white_mw078.bmp","red","Keep","REAL","1"
"html-keyboard-response","94","262819","0.0-7.0-5.11","sconelab1","bdp_wmem","Mon Feb 20 2023 23:58:23 GMT-0500 (Eastern Standard Time)","617882","Match,No Match","","null","","","","","","<div class='trialBorder'><div class='vertical-center'><img src='img/correct.jpg'></div><div class='respDiv'><div class='respDivL'>Match<br>(e)</div><div class='respDivR'><font style='color:orange'>No Match<br>(i)</font></div></div></div>","null","FEEDBACK","","","","","","","","","","",""
"html-keyboard-response","95","263325","0.0-7.0-1.12","sconelab1","bdp_wmem","Mon Feb 20 2023 23:58:23 GMT-0500 (Eastern Standard Time)","617882","Match,No Match","","null","","","","","","<div class='trialBorder'><div class='vertical-center'><img src='img/fixation2_sml.jpg'</img></div></div>","null","FIX","","","","","","","","","","",""
"html-keyboard-response","96","266329","0.0-7.0-2.12","sconelab1","bdp_wmem","Mon Feb 20 2023 23:58:23 GMT-0500 (Eastern Standard Time)","617882","Match,No Match","","null","","","","","","<div class='trialBorder'><div class='vertical-center'><img style='vertical-align:center; align:center' src='img/fixation2_sml.jpg'></div><div class='arrayDiv2'><div class='tl'><img class='introPic' src='trustrating_stim/white_mw042.bmp'><br><font color='green'><strong>Share</strong></font></div><div class='tr'><img class='introPic' src='trustrating_stim/white_mw040.bmp'><br><font color='red'><strong>Keep</strong></font></div></div></div>","null","ARRAY","2","trustrating_stim/white_mw042.bmp,trustrating_stim/white_mw040.bmp","1,0","Match","e","3000","","","","",""
"html-keyboard-response","97","270338","0.0-7.0-3.12","sconelab1","bdp_wmem","Mon Feb 20 2023 23:58:23 GMT-0500 (Eastern Standard Time)","617882","Match,No Match","","null","","","","","","<div class='trialBorder'><div class='vertical-center'><img src='img/fixation2_sml.jpg'</img></div></div>","null","DELAY","","","","","","","","","","",""
"html-keyboard-response","98","272166","0.0-7.0-4.12","sconelab1","bdp_wmem","Mon Feb 20 2023 23:58:23 GMT-0500 (Eastern Standard Time)","617882","Match,No Match","","1825","","","","","","<div class='trialBorder'><div class='targDiv'><div class='tc'><img class='introPic' src='trustrating_stim/white_mw042.bmp'><br><font color='green'><strong>Share</strong></font></div></div><div class='respDiv'><div class='respDivL'>Match<br>(e)</div><div class='respDivR'>No Match<br>(i)</div></div></div>","e","TARGET","2","trustrating_stim/white_mw042.bmp,trustrating_stim/white_mw040.bmp","1,0","Match","e","3000","trustrating_stim/white_mw042.bmp","green","Share","REAL","1"
"html-keyboard-response","99","272670","0.0-7.0-5.12","sconelab1","bdp_wmem","Mon Feb 20 2023 23:58:23 GMT-0500 (Eastern Standard Time)","617882","Match,No Match","","null","","","","","","<div class='trialBorder'><div class='vertical-center'><img src='img/correct.jpg'></div><div class='respDiv'><div class='respDivL'><font style='color:orange'>Match<br>(e)</font></div><div class='respDivR'>No Match<br>(i)</div></div></div>","null","FEEDBACK","","","","","","","","","","",""
"html-keyboard-response","100","273176","0.0-7.0-1.13","sconelab1","bdp_wmem","Mon Feb 20 2023 23:58:23 GMT-0500 (Eastern Standard Time)","617882","Match,No Match","","null","","","","","","<div class='trialBorder'><div class='vertical-center'><img src='img/fixation2_sml.jpg'</img></div></div>","null","FIX","","","","","","","","","","",""
"html-keyboard-response","101","274680","0.0-7.0-2.13","sconelab1","bdp_wmem","Mon Feb 20 2023 23:58:23 GMT-0500 (Eastern Standard Time)","617882","Match,No Match","","null","","","","","","<div class='trialBorder'><div class='vertical-center'><img style='vertical-align:center; align:center' src='img/fixation2_sml.jpg'></div><div class='arrayDiv1'><div class='tc'><img class='introPic' src='trustrating_stim/white_mw042.bmp'><br><font color='green'><strong>Share</strong></font></div></div></div>","null","ARRAY","1","trustrating_stim/white_mw042.bmp","1","noMatchFace","i","1500","","","","",""
"html-keyboard-response","102","278683","0.0-7.0-3.13","sconelab1","bdp_wmem","Mon Feb 20 2023 23:58:23 GMT-0500 (Eastern Standard Time)","617882","Match,No Match","","null","","","","","","<div class='trialBorder'><div class='vertical-center'><img src='img/fixation2_sml.jpg'</img></div></div>","null","DELAY","","","","","","","","","","",""
"html-keyboard-response","103","279542","0.0-7.0-4.13","sconelab1","bdp_wmem","Mon Feb 20 2023 23:58:23 GMT-0500 (Eastern Standard Time)","617882","Match,No Match","","857","","","","","","<div class='trialBorder'><div class='targDiv'><div class='tc'><img class='introPic' src='trustrating_stim/white_mw010.bmp'><br><font color='green'><strong>Share</strong></font></div></div><div class='respDiv'><div class='respDivL'>Match<br>(e)</div><div class='respDivR'>No Match<br>(i)</div></div></div>","i","TARGET","1","trustrating_stim/white_mw042.bmp","1","noMatchFace","i","1500","trustrating_stim/white_mw010.bmp","green","Share","REAL","1"
"html-keyboard-response","104","280048","0.0-7.0-5.13","sconelab1","bdp_wmem","Mon Feb 20 2023 23:58:23 GMT-0500 (Eastern Standard Time)","617882","Match,No Match","","null","","","","","","<div class='trialBorder'><div class='vertical-center'><img src='img/correct.jpg'></div><div class='respDiv'><div class='respDivL'>Match<br>(e)</div><div class='respDivR'><font style='color:orange'>No Match<br>(i)</font></div></div></div>","null","FEEDBACK","","","","","","","","","","",""
"html-keyboard-response","105","280556","0.0-7.0-1.14","sconelab1","bdp_wmem","Mon Feb 20 2023 23:58:23 GMT-0500 (Eastern Standard Time)","617882","Match,No Match","","null","","","","","","<div class='trialBorder'><div class='vertical-center'><img src='img/fixation2_sml.jpg'</img></div></div>","null","FIX","","","","","","","","","","",""
"html-keyboard-response","106","283560","0.0-7.0-2.14","sconelab1","bdp_wmem","Mon Feb 20 2023 23:58:23 GMT-0500 (Eastern Standard Time)","617882","Match,No Match","","null","","","","","","<div class='trialBorder'><div class='vertical-center'><img style='vertical-align:center; align:center' src='img/fixation2_sml.jpg'></div><div class='arrayDiv2'><div class='tl'><img class='introPic' src='trustrating_stim/white_mw042.bmp'><br><font color='green'><strong>Share</strong></font></div><div class='tr'><img class='introPic' src='trustrating_stim/white_mw078.bmp'><br><font color='red'><strong>Keep</strong></font></div></div></div>","null","ARRAY","2","trustrating_stim/white_mw042.bmp,trustrating_stim/white_mw078.bmp","1,0","noMatchOutcome","i","3000","","","","",""
"html-keyboard-response","107","287570","0.0-7.0-3.14","sconelab1","bdp_wmem","Mon Feb 20 2023 23:58:23 GMT-0500 (Eastern Standard Time)","617882","Match,No Match","","null","","","","","","<div class='trialBorder'><div class='vertical-center'><img src='img/fixation2_sml.jpg'</img></div></div>","null","DELAY","","","","","","","","","","",""
"html-keyboard-response","108","289202","0.0-7.0-4.14","sconelab1","bdp_wmem","Mon Feb 20 2023 23:58:23 GMT-0500 (Eastern Standard Time)","617882","Match,No Match","","1628","","","","","","<div class='trialBorder'><div class='targDiv'><div class='tc'><img class='introPic' src='trustrating_stim/white_mw078.bmp'><br><font color='green'><strong>Share</strong></font></div></div><div class='respDiv'><div class='respDivL'>Match<br>(e)</div><div class='respDivR'>No Match<br>(i)</div></div></div>","i","TARGET","2","trustrating_stim/white_mw042.bmp,trustrating_stim/white_mw078.bmp","1,0","noMatchOutcome","i","3000","trustrating_stim/white_mw078.bmp","green","Share","REAL","1"
"html-keyboard-response","109","289706","0.0-7.0-5.14","sconelab1","bdp_wmem","Mon Feb 20 2023 23:58:23 GMT-0500 (Eastern Standard Time)","617882","Match,No Match","","null","","","","","","<div class='trialBorder'><div class='vertical-center'><img src='img/correct.jpg'></div><div class='respDiv'><div class='respDivL'>Match<br>(e)</div><div class='respDivR'><font style='color:orange'>No Match<br>(i)</font></div></div></div>","null","FEEDBACK","","","","","","","","","","",""
"html-keyboard-response","110","290208","0.0-7.0-1.15","sconelab1","bdp_wmem","Mon Feb 20 2023 23:58:23 GMT-0500 (Eastern Standard Time)","617882","Match,No Match","","null","","","","","","<div class='trialBorder'><div class='vertical-center'><img src='img/fixation2_sml.jpg'</img></div></div>","null","FIX","","","","","","","","","","",""
"html-keyboard-response","111","294712","0.0-7.0-2.15","sconelab1","bdp_wmem","Mon Feb 20 2023 23:58:23 GMT-0500 (Eastern Standard Time)","617882","Match,No Match","","null","","","","","","<div class='trialBorder'><div class='vertical-center'><img style='vertical-align:center; align:center' src='img/fixation2_sml.jpg'></div><div class='arrayDiv3'><div class='tl'><img class='introPic' src='trustrating_stim/white_mw003.bmp'><br><font color='green'><strong>Share</strong></font></div><div class='tc'><img class='introPic' src='trustrating_stim/white_mw010.bmp'><br><font color='red'><strong>Keep</strong></font></div><div class='tr'><img class='introPic' src='trustrating_stim/white_mw013.bmp'><br><font color='green'><strong>Share</strong></font></div></div></div>","null","ARRAY","3","trustrating_stim/white_mw003.bmp,trustrating_stim/white_mw010.bmp,trustrating_stim/white_mw013.bmp","1,0,1","Match","e","4500","","","","",""
"html-keyboard-response","112","298719","0.0-7.0-3.15","sconelab1","bdp_wmem","Mon Feb 20 2023 23:58:23 GMT-0500 (Eastern Standard Time)","617882","Match,No Match","","null","","","","","","<div class='trialBorder'><div class='vertical-center'><img src='img/fixation2_sml.jpg'</img></div></div>","null","DELAY","","","","","","","","","","",""
"html-keyboard-response","113","301278","0.0-7.0-4.15","sconelab1","bdp_wmem","Mon Feb 20 2023 23:58:23 GMT-0500 (Eastern Standard Time)","617882","Match,No Match","","2556","","","","","","<div class='trialBorder'><div class='targDiv'><div class='tc'><img class='introPic' src='trustrating_stim/white_mw013.bmp'><br><font color='green'><strong>Share</strong></font></div></div><div class='respDiv'><div class='respDivL'>Match<br>(e)</div><div class='respDivR'>No Match<br>(i)</div></div></div>","e","TARGET","3","trustrating_stim/white_mw003.bmp,trustrating_stim/white_mw010.bmp,trustrating_stim/white_mw013.bmp","1,0,1","Match","e","4500","trustrating_stim/white_mw013.bmp","green","Share","REAL","1"
"html-keyboard-response","114","301783","0.0-7.0-5.15","sconelab1","bdp_wmem","Mon Feb 20 2023 23:58:23 GMT-0500 (Eastern Standard Time)","617882","Match,No Match","","null","","","","","","<div class='trialBorder'><div class='vertical-center'><img src='img/correct.jpg'></div><div class='respDiv'><div class='respDivL'><font style='color:orange'>Match<br>(e)</font></div><div class='respDivR'>No Match<br>(i)</div></div></div>","null","FEEDBACK","","","","","","","","","","",""
"html-keyboard-response","115","302290","0.0-7.0-1.16","sconelab1","bdp_wmem","Mon Feb 20 2023 23:58:23 GMT-0500 (Eastern Standard Time)","617882","Match,No Match","","null","","","","","","<div class='trialBorder'><div class='vertical-center'><img src='img/fixation2_sml.jpg'</img></div></div>","null","FIX","","","","","","","","","","",""
"html-keyboard-response","116","306796","0.0-7.0-2.16","sconelab1","bdp_wmem","Mon Feb 20 2023 23:58:23 GMT-0500 (Eastern Standard Time)","617882","Match,No Match","","null","","","","","","<div class='trialBorder'><div class='vertical-center'><img style='vertical-align:center; align:center' src='img/fixation2_sml.jpg'></div><div class='arrayDiv3'><div class='tl'><img class='introPic' src='trustrating_stim/white_mw038.bmp'><br><font color='green'><strong>Share</strong></font></div><div class='tc'><img class='introPic' src='trustrating_stim/white_mw078.bmp'><br><font color='green'><strong>Share</strong></font></div><div class='tr'><img class='introPic' src='trustrating_stim/white_mw013.bmp'><br><font color='red'><strong>Keep</strong></font></div></div></div>","null","ARRAY","3","trustrating_stim/white_mw038.bmp,trustrating_stim/white_mw078.bmp,trustrating_stim/white_mw013.bmp","1,1,0","noMatchOutcome","i","4500","","","","",""
"html-keyboard-response","117","310801","0.0-7.0-3.16","sconelab1","bdp_wmem","Mon Feb 20 2023 23:58:23 GMT-0500 (Eastern Standard Time)","617882","Match,No Match","","null","","","","","","<div class='trialBorder'><div class='vertical-center'><img src='img/fixation2_sml.jpg'</img></div></div>","null","DELAY","","","","","","","","","","",""
"html-keyboard-response","118","312471","0.0-7.0-4.16","sconelab1","bdp_wmem","Mon Feb 20 2023 23:58:23 GMT-0500 (Eastern Standard Time)","617882","Match,No Match","","1667","","","","","","<div class='trialBorder'><div class='targDiv'><div class='tc'><img class='introPic' src='trustrating_stim/white_mw038.bmp'><br><font color='red'><strong>Keep</strong></font></div></div><div class='respDiv'><div class='respDivL'>Match<br>(e)</div><div class='respDivR'>No Match<br>(i)</div></div></div>","i","TARGET","3","trustrating_stim/white_mw038.bmp,trustrating_stim/white_mw078.bmp,trustrating_stim/white_mw013.bmp","1,1,0","noMatchOutcome","i","4500","trustrating_stim/white_mw038.bmp","red","Keep","REAL","1"
"html-keyboard-response","119","312976","0.0-7.0-5.16","sconelab1","bdp_wmem","Mon Feb 20 2023 23:58:23 GMT-0500 (Eastern Standard Time)","617882","Match,No Match","","null","","","","","","<div class='trialBorder'><div class='vertical-center'><img src='img/correct.jpg'></div><div class='respDiv'><div class='respDivL'>Match<br>(e)</div><div class='respDivR'><font style='color:orange'>No Match<br>(i)</font></div></div></div>","null","FEEDBACK","","","","","","","","","","",""
"html-keyboard-response","120","313479","0.0-7.0-1.17","sconelab1","bdp_wmem","Mon Feb 20 2023 23:58:23 GMT-0500 (Eastern Standard Time)","617882","Match,No Match","","null","","","","","","<div class='trialBorder'><div class='vertical-center'><img src='img/fixation2_sml.jpg'</img></div></div>","null","FIX","","","","","","","","","","",""
"html-keyboard-response","121","316482","0.0-7.0-2.17","sconelab1","bdp_wmem","Mon Feb 20 2023 23:58:23 GMT-0500 (Eastern Standard Time)","617882","Match,No Match","","null","","","","","","<div class='trialBorder'><div class='vertical-center'><img style='vertical-align:center; align:center' src='img/fixation2_sml.jpg'></div><div class='arrayDiv2'><div class='tl'><img class='introPic' src='trustrating_stim/white_mw013.bmp'><br><font color='green'><strong>Share</strong></font></div><div class='tr'><img class='introPic' src='trustrating_stim/white_mw038.bmp'><br><font color='red'><strong>Keep</strong></font></div></div></div>","null","ARRAY","2","trustrating_stim/white_mw013.bmp,trustrating_stim/white_mw038.bmp","1,0","noMatchOutcome","i","3000","","","","",""
"html-keyboard-response","122","320486","0.0-7.0-3.17","sconelab1","bdp_wmem","Mon Feb 20 2023 23:58:23 GMT-0500 (Eastern Standard Time)","617882","Match,No Match","","null","","","","","","<div class='trialBorder'><div class='vertical-center'><img src='img/fixation2_sml.jpg'</img></div></div>","null","DELAY","","","","","","","","","","",""
"html-keyboard-response","123","322269","0.0-7.0-4.17","sconelab1","bdp_wmem","Mon Feb 20 2023 23:58:23 GMT-0500 (Eastern Standard Time)","617882","Match,No Match","","1780","","","","","","<div class='trialBorder'><div class='targDiv'><div class='tc'><img class='introPic' src='trustrating_stim/white_mw038.bmp'><br><font color='green'><strong>Share</strong></font></div></div><div class='respDiv'><div class='respDivL'>Match<br>(e)</div><div class='respDivR'>No Match<br>(i)</div></div></div>","e","TARGET","2","trustrating_stim/white_mw013.bmp,trustrating_stim/white_mw038.bmp","1,0","noMatchOutcome","i","3000","trustrating_stim/white_mw038.bmp","green","Share","REAL","0"
"html-keyboard-response","124","322775","0.0-7.0-5.17","sconelab1","bdp_wmem","Mon Feb 20 2023 23:58:23 GMT-0500 (Eastern Standard Time)","617882","Match,No Match","","null","","","","","","<div class='trialBorder'><div class='vertical-center'><img src='img/error.jpg'></div><div class='respDiv'><div class='respDivL'><font style='color:orange'>Match<br>(e)</font></div><div class='respDivR'>No Match<br>(i)</div></div></div>","null","FEEDBACK","","","","","","","","","","",""
"html-keyboard-response","125","323281","0.0-7.0-1.18","sconelab1","bdp_wmem","Mon Feb 20 2023 23:58:23 GMT-0500 (Eastern Standard Time)","617882","Match,No Match","","null","","","","","","<div class='trialBorder'><div class='vertical-center'><img src='img/fixation2_sml.jpg'</img></div></div>","null","FIX","","","","","","","","","","",""
"html-keyboard-response","126","324785","0.0-7.0-2.18","sconelab1","bdp_wmem","Mon Feb 20 2023 23:58:23 GMT-0500 (Eastern Standard Time)","617882","Match,No Match","","null","","","","","","<div class='trialBorder'><div class='vertical-center'><img style='vertical-align:center; align:center' src='img/fixation2_sml.jpg'></div><div class='arrayDiv1'><div class='tc'><img class='introPic' src='trustrating_stim/white_mw042.bmp'><br><font color='red'><strong>Keep</strong></font></div></div></div>","null","ARRAY","1","trustrating_stim/white_mw042.bmp","0","noMatchOutcome","i","1500","","","","",""
"html-keyboard-response","127","328791","0.0-7.0-3.18","sconelab1","bdp_wmem","Mon Feb 20 2023 23:58:23 GMT-0500 (Eastern Standard Time)","617882","Match,No Match","","null","","","","","","<div class='trialBorder'><div class='vertical-center'><img src='img/fixation2_sml.jpg'</img></div></div>","null","DELAY","","","","","","","","","","",""
"html-keyboard-response","128","330323","0.0-7.0-4.18","sconelab1","bdp_wmem","Mon Feb 20 2023 23:58:23 GMT-0500 (Eastern Standard Time)","617882","Match,No Match","","1529","","","","","","<div class='trialBorder'><div class='targDiv'><div class='tc'><img class='introPic' src='trustrating_stim/white_mw042.bmp'><br><font color='green'><strong>Share</strong></font></div></div><div class='respDiv'><div class='respDivL'>Match<br>(e)</div><div class='respDivR'>No Match<br>(i)</div></div></div>","i","TARGET","1","trustrating_stim/white_mw042.bmp","0","noMatchOutcome","i","1500","trustrating_stim/white_mw042.bmp","green","Share","REAL","1"
"html-keyboard-response","129","330829","0.0-7.0-5.18","sconelab1","bdp_wmem","Mon Feb 20 2023 23:58:23 GMT-0500 (Eastern Standard Time)","617882","Match,No Match","","null","","","","","","<div class='trialBorder'><div class='vertical-center'><img src='img/correct.jpg'></div><div class='respDiv'><div class='respDivL'>Match<br>(e)</div><div class='respDivR'><font style='color:orange'>No Match<br>(i)</font></div></div></div>","null","FEEDBACK","","","","","","","","","","",""
"html-keyboard-response","130","331336","0.0-7.0-1.19","sconelab1","bdp_wmem","Mon Feb 20 2023 23:58:23 GMT-0500 (Eastern Standard Time)","617882","Match,No Match","","null","","","","","","<div class='trialBorder'><div class='vertical-center'><img src='img/fixation2_sml.jpg'</img></div></div>","null","FIX","","","","","","","","","","",""
"html-keyboard-response","131","332844","0.0-7.0-2.19","sconelab1","bdp_wmem","Mon Feb 20 2023 23:58:23 GMT-0500 (Eastern Standard Time)","617882","Match,No Match","","null","","","","","","<div class='trialBorder'><div class='vertical-center'><img style='vertical-align:center; align:center' src='img/fixation2_sml.jpg'></div><div class='arrayDiv1'><div class='tc'><img class='introPic' src='trustrating_stim/white_mw042.bmp'><br><font color='red'><strong>Keep</strong></font></div></div></div>","null","ARRAY","1","trustrating_stim/white_mw042.bmp","0","noMatchFace","i","1500","","","","",""
"html-keyboard-response","132","336854","0.0-7.0-3.19","sconelab1","bdp_wmem","Mon Feb 20 2023 23:58:23 GMT-0500 (Eastern Standard Time)","617882","Match,No Match","","null","","","","","","<div class='trialBorder'><div class='vertical-center'><img src='img/fixation2_sml.jpg'</img></div></div>","null","DELAY","","","","","","","","","","",""
"html-keyboard-response","133","337870","0.0-7.0-4.19","sconelab1","bdp_wmem","Mon Feb 20 2023 23:58:23 GMT-0500 (Eastern Standard Time)","617882","Match,No Match","","1013","","","","","","<div class='trialBorder'><div class='targDiv'><div class='tc'><img class='introPic' src='trustrating_stim/white_mw010.bmp'><br><font color='red'><strong>Keep</strong></font></div></div><div class='respDiv'><div class='respDivL'>Match<br>(e)</div><div class='respDivR'>No Match<br>(i)</div></div></div>","i","TARGET","1","trustrating_stim/white_mw042.bmp","0","noMatchFace","i","1500","trustrating_stim/white_mw010.bmp","red","Keep","REAL","1"
"html-keyboard-response","134","338373","0.0-7.0-5.19","sconelab1","bdp_wmem","Mon Feb 20 2023 23:58:23 GMT-0500 (Eastern Standard Time)","617882","Match,No Match","","null","","","","","","<div class='trialBorder'><div class='vertical-center'><img src='img/correct.jpg'></div><div class='respDiv'><div class='respDivL'>Match<br>(e)</div><div class='respDivR'><font style='color:orange'>No Match<br>(i)</font></div></div></div>","null","FEEDBACK","","","","","","","","","","",""
"html-keyboard-response","135","338878","0.0-7.0-1.20","sconelab1","bdp_wmem","Mon Feb 20 2023 23:58:23 GMT-0500 (Eastern Standard Time)","617882","Match,No Match","","null","","","","","","<div class='trialBorder'><div class='vertical-center'><img src='img/fixation2_sml.jpg'</img></div></div>","null","FIX","","","","","","","","","","",""
"html-keyboard-response","136","340385","0.0-7.0-2.20","sconelab1","bdp_wmem","Mon Feb 20 2023 23:58:23 GMT-0500 (Eastern Standard Time)","617882","Match,No Match","","null","","","","","","<div class='trialBorder'><div class='vertical-center'><img style='vertical-align:center; align:center' src='img/fixation2_sml.jpg'></div><div class='arrayDiv1'><div class='tc'><img class='introPic' src='trustrating_stim/white_mw085.bmp'><br><font color='green'><strong>Share</strong></font></div></div></div>","null","ARRAY","1","trustrating_stim/white_mw085.bmp","1","Match","e","1500","","","","",""
"html-keyboard-response","137","344386","0.0-7.0-3.20","sconelab1","bdp_wmem","Mon Feb 20 2023 23:58:23 GMT-0500 (Eastern Standard Time)","617882","Match,No Match","","null","","","","","","<div class='trialBorder'><div class='vertical-center'><img src='img/fixation2_sml.jpg'</img></div></div>","null","DELAY","","","","","","","","","","",""
"html-keyboard-response","138","346437","0.0-7.0-4.20","sconelab1","bdp_wmem","Mon Feb 20 2023 23:58:23 GMT-0500 (Eastern Standard Time)","617882","Match,No Match","","2049","","","","","","<div class='trialBorder'><div class='targDiv'><div class='tc'><img class='introPic' src='trustrating_stim/white_mw085.bmp'><br><font color='green'><strong>Share</strong></font></div></div><div class='respDiv'><div class='respDivL'>Match<br>(e)</div><div class='respDivR'>No Match<br>(i)</div></div></div>","e","TARGET","1","trustrating_stim/white_mw085.bmp","1","Match","e","1500","trustrating_stim/white_mw085.bmp","green","Share","REAL","1"
"html-keyboard-response","139","346944","0.0-7.0-5.20","sconelab1","bdp_wmem","Mon Feb 20 2023 23:58:23 GMT-0500 (Eastern Standard Time)","617882","Match,No Match","","null","","","","","","<div class='trialBorder'><div class='vertical-center'><img src='img/correct.jpg'></div><div class='respDiv'><div class='respDivL'><font style='color:orange'>Match<br>(e)</font></div><div class='respDivR'>No Match<br>(i)</div></div></div>","null","FEEDBACK","","","","","","","","","","",""
"html-keyboard-response","140","347452","0.0-7.0-1.21","sconelab1","bdp_wmem","Mon Feb 20 2023 23:58:23 GMT-0500 (Eastern Standard Time)","617882","Match,No Match","","null","","","","","","<div class='trialBorder'><div class='vertical-center'><img src='img/fixation2_sml.jpg'</img></div></div>","null","FIX","","","","","","","","","","",""
"html-keyboard-response","141","350464","0.0-7.0-2.21","sconelab1","bdp_wmem","Mon Feb 20 2023 23:58:23 GMT-0500 (Eastern Standard Time)","617882","Match,No Match","","null","","","","","","<div class='trialBorder'><div class='vertical-center'><img style='vertical-align:center; align:center' src='img/fixation2_sml.jpg'></div><div class='arrayDiv2'><div class='tl'><img class='introPic' src='trustrating_stim/white_mw010.bmp'><br><font color='green'><strong>Share</strong></font></div><div class='tr'><img class='introPic' src='trustrating_stim/white_mw038.bmp'><br><font color='red'><strong>Keep</strong></font></div></div></div>","null","ARRAY","2","trustrating_stim/white_mw010.bmp,trustrating_stim/white_mw038.bmp","1,0","noMatchFace","i","3000","","","","",""
"html-keyboard-response","142","354474","0.0-7.0-3.21","sconelab1","bdp_wmem","Mon Feb 20 2023 23:58:23 GMT-0500 (Eastern Standard Time)","617882","Match,No Match","","null","","","","","","<div class='trialBorder'><div class='vertical-center'><img src='img/fixation2_sml.jpg'</img></div></div>","null","DELAY","","","","","","","","","","",""
"html-keyboard-response","143","356339","0.0-7.0-4.21","sconelab1","bdp_wmem","Mon Feb 20 2023 23:58:23 GMT-0500 (Eastern Standard Time)","617882","Match,No Match","","1863","","","","","","<div class='trialBorder'><div class='targDiv'><div class='tc'><img class='introPic' src='trustrating_stim/white_mw042.bmp'><br><font color='red'><strong>Keep</strong></font></div></div><div class='respDiv'><div class='respDivL'>Match<br>(e)</div><div class='respDivR'>No Match<br>(i)</div></div></div>","i","TARGET","2","trustrating_stim/white_mw010.bmp,trustrating_stim/white_mw038.bmp","1,0","noMatchFace","i","3000","trustrating_stim/white_mw042.bmp","red","Keep","REAL","1"
"html-keyboard-response","144","356846","0.0-7.0-5.21","sconelab1","bdp_wmem","Mon Feb 20 2023 23:58:23 GMT-0500 (Eastern Standard Time)","617882","Match,No Match","","null","","","","","","<div class='trialBorder'><div class='vertical-center'><img src='img/correct.jpg'></div><div class='respDiv'><div class='respDivL'>Match<br>(e)</div><div class='respDivR'><font style='color:orange'>No Match<br>(i)</font></div></div></div>","null","FEEDBACK","","","","","","","","","","",""
"html-keyboard-response","145","357354","0.0-7.0-1.22","sconelab1","bdp_wmem","Mon Feb 20 2023 23:58:23 GMT-0500 (Eastern Standard Time)","617882","Match,No Match","","null","","","","","","<div class='trialBorder'><div class='vertical-center'><img src='img/fixation2_sml.jpg'</img></div></div>","null","FIX","","","","","","","","","","",""
"html-keyboard-response","146","361857","0.0-7.0-2.22","sconelab1","bdp_wmem","Mon Feb 20 2023 23:58:23 GMT-0500 (Eastern Standard Time)","617882","Match,No Match","","null","","","","","","<div class='trialBorder'><div class='vertical-center'><img style='vertical-align:center; align:center' src='img/fixation2_sml.jpg'></div><div class='arrayDiv3'><div class='tl'><img class='introPic' src='trustrating_stim/white_mw013.bmp'><br><font color='green'><strong>Share</strong></font></div><div class='tc'><img class='introPic' src='trustrating_stim/white_mw092.bmp'><br><font color='red'><strong>Keep</strong></font></div><div class='tr'><img class='introPic' src='trustrating_stim/white_mw085.bmp'><br><font color='green'><strong>Share</strong></font></div></div></div>","null","ARRAY","3","trustrating_stim/white_mw013.bmp,trustrating_stim/white_mw092.bmp,trustrating_stim/white_mw085.bmp","1,0,1","noMatchOutcome","i","4500","","","","",""
"html-keyboard-response","147","365863","0.0-7.0-3.22","sconelab1","bdp_wmem","Mon Feb 20 2023 23:58:23 GMT-0500 (Eastern Standard Time)","617882","Match,No Match","","null","","","","","","<div class='trialBorder'><div class='vertical-center'><img src='img/fixation2_sml.jpg'</img></div></div>","null","DELAY","","","","","","","","","","",""
"html-keyboard-response","148","367129","0.0-7.0-4.22","sconelab1","bdp_wmem","Mon Feb 20 2023 23:58:23 GMT-0500 (Eastern Standard Time)","617882","Match,No Match","","1264","","","","","","<div class='trialBorder'><div class='targDiv'><div class='tc'><img class='introPic' src='trustrating_stim/white_mw013.bmp'><br><font color='red'><strong>Keep</strong></font></div></div><div class='respDiv'><div class='respDivL'>Match<br>(e)</div><div class='respDivR'>No Match<br>(i)</div></div></div>","i","TARGET","3","trustrating_stim/white_mw013.bmp,trustrating_stim/white_mw092.bmp,trustrating_stim/white_mw085.bmp","1,0,1","noMatchOutcome","i","4500","trustrating_stim/white_mw013.bmp","red","Keep","REAL","1"
"html-keyboard-response","149","367637","0.0-7.0-5.22","sconelab1","bdp_wmem","Mon Feb 20 2023 23:58:23 GMT-0500 (Eastern Standard Time)","617882","Match,No Match","","null","","","","","","<div class='trialBorder'><div class='vertical-center'><img src='img/correct.jpg'></div><div class='respDiv'><div class='respDivL'>Match<br>(e)</div><div class='respDivR'><font style='color:orange'>No Match<br>(i)</font></div></div></div>","null","FEEDBACK","","","","","","","","","","",""
"html-keyboard-response","150","368144","0.0-7.0-1.23","sconelab1","bdp_wmem","Mon Feb 20 2023 23:58:23 GMT-0500 (Eastern Standard Time)","617882","Match,No Match","","null","","","","","","<div class='trialBorder'><div class='vertical-center'><img src='img/fixation2_sml.jpg'</img></div></div>","null","FIX","","","","","","","","","","",""
"html-keyboard-response","151","372649","0.0-7.0-2.23","sconelab1","bdp_wmem","Mon Feb 20 2023 23:58:23 GMT-0500 (Eastern Standard Time)","617882","Match,No Match","","null","","","","","","<div class='trialBorder'><div class='vertical-center'><img style='vertical-align:center; align:center' src='img/fixation2_sml.jpg'></div><div class='arrayDiv3'><div class='tl'><img class='introPic' src='trustrating_stim/white_mw092.bmp'><br><font color='red'><strong>Keep</strong></font></div><div class='tc'><img class='introPic' src='trustrating_stim/white_mw078.bmp'><br><font color='red'><strong>Keep</strong></font></div><div class='tr'><img class='introPic' src='trustrating_stim/white_mw091.bmp'><br><font color='green'><strong>Share</strong></font></div></div></div>","null","ARRAY","3","trustrating_stim/white_mw092.bmp,trustrating_stim/white_mw078.bmp,trustrating_stim/white_mw091.bmp","0,0,1","noMatchFace","i","4500","","","","",""
"html-keyboard-response","152","376655","0.0-7.0-3.23","sconelab1","bdp_wmem","Mon Feb 20 2023 23:58:23 GMT-0500 (Eastern Standard Time)","617882","Match,No Match","","null","","","","","","<div class='trialBorder'><div class='vertical-center'><img src='img/fixation2_sml.jpg'</img></div></div>","null","DELAY","","","","","","","","","","",""
"html-keyboard-response","153","378245","0.0-7.0-4.23","sconelab1","bdp_wmem","Mon Feb 20 2023 23:58:23 GMT-0500 (Eastern Standard Time)","617882","Match,No Match","","1588","","","","","","<div class='trialBorder'><div class='targDiv'><div class='tc'><img class='introPic' src='trustrating_stim/white_mw013.bmp'><br><font color='green'><strong>Share</strong></font></div></div><div class='respDiv'><div class='respDivL'>Match<br>(e)</div><div class='respDivR'>No Match<br>(i)</div></div></div>","i","TARGET","3","trustrating_stim/white_mw092.bmp,trustrating_stim/white_mw078.bmp,trustrating_stim/white_mw091.bmp","0,0,1","noMatchFace","i","4500","trustrating_stim/white_mw013.bmp","green","Share","REAL","1"
"html-keyboard-response","154","378747","0.0-7.0-5.23","sconelab1","bdp_wmem","Mon Feb 20 2023 23:58:23 GMT-0500 (Eastern Standard Time)","617882","Match,No Match","","null","","","","","","<div class='trialBorder'><div class='vertical-center'><img src='img/correct.jpg'></div><div class='respDiv'><div class='respDivL'>Match<br>(e)</div><div class='respDivR'><font style='color:orange'>No Match<br>(i)</font></div></div></div>","null","FEEDBACK","","","","","","","","","","",""
"html-keyboard-response","155","379253","0.0-7.0-1.24","sconelab1","bdp_wmem","Mon Feb 20 2023 23:58:23 GMT-0500 (Eastern Standard Time)","617882","Match,No Match","","null","","","","","","<div class='trialBorder'><div class='vertical-center'><img src='img/fixation2_sml.jpg'</img></div></div>","null","FIX","","","","","","","","","","",""
"html-keyboard-response","156","382260","0.0-7.0-2.24","sconelab1","bdp_wmem","Mon Feb 20 2023 23:58:23 GMT-0500 (Eastern Standard Time)","617882","Match,No Match","","null","","","","","","<div class='trialBorder'><div class='vertical-center'><img style='vertical-align:center; align:center' src='img/fixation2_sml.jpg'></div><div class='arrayDiv2'><div class='tl'><img class='introPic' src='trustrating_stim/white_mw070.bmp'><br><font color='green'><strong>Share</strong></font></div><div class='tr'><img class='introPic' src='trustrating_stim/white_mw085.bmp'><br><font color='red'><strong>Keep</strong></font></div></div></div>","null","ARRAY","2","trustrating_stim/white_mw070.bmp,trustrating_stim/white_mw085.bmp","1,0","Match","e","3000","","","","",""
"html-keyboard-response","157","386270","0.0-7.0-3.24","sconelab1","bdp_wmem","Mon Feb 20 2023 23:58:23 GMT-0500 (Eastern Standard Time)","617882","Match,No Match","","null","","","","","","<div class='trialBorder'><div class='vertical-center'><img src='img/fixation2_sml.jpg'</img></div></div>","null","DELAY","","","","","","","","","","",""
"html-keyboard-response","158","388565","0.0-7.0-4.24","sconelab1","bdp_wmem","Mon Feb 20 2023 23:58:23 GMT-0500 (Eastern Standard Time)","617882","Match,No Match","","2292","","","","","","<div class='trialBorder'><div class='targDiv'><div class='tc'><img class='introPic' src='trustrating_stim/white_mw085.bmp'><br><font color='red'><strong>Keep</strong></font></div></div><div class='respDiv'><div class='respDivL'>Match<br>(e)</div><div class='respDivR'>No Match<br>(i)</div></div></div>","e","TARGET","2","trustrating_stim/white_mw070.bmp,trustrating_stim/white_mw085.bmp","1,0","Match","e","3000","trustrating_stim/white_mw085.bmp","red","Keep","REAL","1"
"html-keyboard-response","159","389071","0.0-7.0-5.24","sconelab1","bdp_wmem","Mon Feb 20 2023 23:58:23 GMT-0500 (Eastern Standard Time)","617882","Match,No Match","","null","","","","","","<div class='trialBorder'><div class='vertical-center'><img src='img/correct.jpg'></div><div class='respDiv'><div class='respDivL'><font style='color:orange'>Match<br>(e)</font></div><div class='respDivR'>No Match<br>(i)</div></div></div>","null","FEEDBACK","","","","","","","","","","",""
"html-keyboard-response","160","389583","0.0-7.0-1.25","sconelab1","bdp_wmem","Mon Feb 20 2023 23:58:23 GMT-0500 (Eastern Standard Time)","617882","Match,No Match","","null","","","","","","<div class='trialBorder'><div class='vertical-center'><img src='img/fixation2_sml.jpg'</img></div></div>","null","FIX","","","","","","","","","","",""
"html-keyboard-response","161","394094","0.0-7.0-2.25","sconelab1","bdp_wmem","Mon Feb 20 2023 23:58:23 GMT-0500 (Eastern Standard Time)","617882","Match,No Match","","null","","","","","","<div class='trialBorder'><div class='vertical-center'><img style='vertical-align:center; align:center' src='img/fixation2_sml.jpg'></div><div class='arrayDiv3'><div class='tl'><img class='introPic' src='trustrating_stim/white_mw092.bmp'><br><font color='red'><strong>Keep</strong></font></div><div class='tc'><img class='introPic' src='trustrating_stim/white_mw091.bmp'><br><font color='red'><strong>Keep</strong></font></div><div class='tr'><img class='introPic' src='trustrating_stim/white_mw042.bmp'><br><font color='green'><strong>Share</strong></font></div></div></div>","null","ARRAY","3","trustrating_stim/white_mw092.bmp,trustrating_stim/white_mw091.bmp,trustrating_stim/white_mw042.bmp","0,0,1","Match","e","4500","","","","",""
"html-keyboard-response","162","398099","0.0-7.0-3.25","sconelab1","bdp_wmem","Mon Feb 20 2023 23:58:23 GMT-0500 (Eastern Standard Time)","617882","Match,No Match","","null","","","","","","<div class='trialBorder'><div class='vertical-center'><img src='img/fixation2_sml.jpg'</img></div></div>","null","DELAY","","","","","","","","","","",""
"html-keyboard-response","163","400177","0.0-7.0-4.25","sconelab1","bdp_wmem","Mon Feb 20 2023 23:58:23 GMT-0500 (Eastern Standard Time)","617882","Match,No Match","","2075","","","","","","<div class='trialBorder'><div class='targDiv'><div class='tc'><img class='introPic' src='trustrating_stim/white_mw042.bmp'><br><font color='green'><strong>Share</strong></font></div></div><div class='respDiv'><div class='respDivL'>Match<br>(e)</div><div class='respDivR'>No Match<br>(i)</div></div></div>","e","TARGET","3","trustrating_stim/white_mw092.bmp,trustrating_stim/white_mw091.bmp,trustrating_stim/white_mw042.bmp","0,0,1","Match","e","4500","trustrating_stim/white_mw042.bmp","green","Share","REAL","1"
"html-keyboard-response","164","400681","0.0-7.0-5.25","sconelab1","bdp_wmem","Mon Feb 20 2023 23:58:23 GMT-0500 (Eastern Standard Time)","617882","Match,No Match","","null","","","","","","<div class='trialBorder'><div class='vertical-center'><img src='img/correct.jpg'></div><div class='respDiv'><div class='respDivL'><font style='color:orange'>Match<br>(e)</font></div><div class='respDivR'>No Match<br>(i)</div></div></div>","null","FEEDBACK","","","","","","","","","","",""
"html-keyboard-response","165","401192","0.0-7.0-1.26","sconelab1","bdp_wmem","Mon Feb 20 2023 23:58:23 GMT-0500 (Eastern Standard Time)","617882","Match,No Match","","null","","","","","","<div class='trialBorder'><div class='vertical-center'><img src='img/fixation2_sml.jpg'</img></div></div>","null","FIX","","","","","","","","","","",""
"html-keyboard-response","166","402695","0.0-7.0-2.26","sconelab1","bdp_wmem","Mon Feb 20 2023 23:58:23 GMT-0500 (Eastern Standard Time)","617882","Match,No Match","","null","","","","","","<div class='trialBorder'><div class='vertical-center'><img style='vertical-align:center; align:center' src='img/fixation2_sml.jpg'></div><div class='arrayDiv1'><div class='tc'><img class='introPic' src='trustrating_stim/white_mw042.bmp'><br><font color='red'><strong>Keep</strong></font></div></div></div>","null","ARRAY","1","trustrating_stim/white_mw042.bmp","0","noMatchFace","i","1500","","","","",""
"html-keyboard-response","167","406703","0.0-7.0-3.26","sconelab1","bdp_wmem","Mon Feb 20 2023 23:58:23 GMT-0500 (Eastern Standard Time)","617882","Match,No Match","","null","","","","","","<div class='trialBorder'><div class='vertical-center'><img src='img/fixation2_sml.jpg'</img></div></div>","null","DELAY","","","","","","","","","","",""
"html-keyboard-response","168","407784","0.0-7.0-4.26","sconelab1","bdp_wmem","Mon Feb 20 2023 23:58:23 GMT-0500 (Eastern Standard Time)","617882","Match,No Match","","1079","","","","","","<div class='trialBorder'><div class='targDiv'><div class='tc'><img class='introPic' src='trustrating_stim/white_mw012.bmp'><br><font color='red'><strong>Keep</strong></font></div></div><div class='respDiv'><div class='respDivL'>Match<br>(e)</div><div class='respDivR'>No Match<br>(i)</div></div></div>","i","TARGET","1","trustrating_stim/white_mw042.bmp","0","noMatchFace","i","1500","trustrating_stim/white_mw012.bmp","red","Keep","REAL","1"
"html-keyboard-response","169","408292","0.0-7.0-5.26","sconelab1","bdp_wmem","Mon Feb 20 2023 23:58:23 GMT-0500 (Eastern Standard Time)","617882","Match,No Match","","null","","","","","","<div class='trialBorder'><div class='vertical-center'><img src='img/correct.jpg'></div><div class='respDiv'><div class='respDivL'>Match<br>(e)</div><div class='respDivR'><font style='color:orange'>No Match<br>(i)</font></div></div></div>","null","FEEDBACK","","","","","","","","","","",""
"html-keyboard-response","170","408799","0.0-7.0-1.27","sconelab1","bdp_wmem","Mon Feb 20 2023 23:58:23 GMT-0500 (Eastern Standard Time)","617882","Match,No Match","","null","","","","","","<div class='trialBorder'><div class='vertical-center'><img src='img/fixation2_sml.jpg'</img></div></div>","null","FIX","","","","","","","","","","",""
"html-keyboard-response","171","410308","0.0-7.0-2.27","sconelab1","bdp_wmem","Mon Feb 20 2023 23:58:23 GMT-0500 (Eastern Standard Time)","617882","Match,No Match","","null","","","","","","<div class='trialBorder'><div class='vertical-center'><img style='vertical-align:center; align:center' src='img/fixation2_sml.jpg'></div><div class='arrayDiv1'><div class='tc'><img class='introPic' src='trustrating_stim/white_mw013.bmp'><br><font color='red'><strong>Keep</strong></font></div></div></div>","null","ARRAY","1","trustrating_stim/white_mw013.bmp","0","Match","e","1500","","","","",""
"html-keyboard-response","172","414318","0.0-7.0-3.27","sconelab1","bdp_wmem","Mon Feb 20 2023 23:58:23 GMT-0500 (Eastern Standard Time)","617882","Match,No Match","","null","","","","","","<div class='trialBorder'><div class='vertical-center'><img src='img/fixation2_sml.jpg'</img></div></div>","null","DELAY","","","","","","","","","","",""
"html-keyboard-response","173","415545","0.0-7.0-4.27","sconelab1","bdp_wmem","Mon Feb 20 2023 23:58:23 GMT-0500 (Eastern Standard Time)","617882","Match,No Match","","1224","","","","","","<div class='trialBorder'><div class='targDiv'><div class='tc'><img class='introPic' src='trustrating_stim/white_mw013.bmp'><br><font color='red'><strong>Keep</strong></font></div></div><div class='respDiv'><div class='respDivL'>Match<br>(e)</div><div class='respDivR'>No Match<br>(i)</div></div></div>","e","TARGET","1","trustrating_stim/white_mw013.bmp","0","Match","e","1500","trustrating_stim/white_mw013.bmp","red","Keep","REAL","1"
"html-keyboard-response","174","416053","0.0-7.0-5.27","sconelab1","bdp_wmem","Mon Feb 20 2023 23:58:23 GMT-0500 (Eastern Standard Time)","617882","Match,No Match","","null","","","","","","<div class='trialBorder'><div class='vertical-center'><img src='img/correct.jpg'></div><div class='respDiv'><div class='respDivL'><font style='color:orange'>Match<br>(e)</font></div><div class='respDivR'>No Match<br>(i)</div></div></div>","null","FEEDBACK","","","","","","","","","","",""
"html-keyboard-response","175","416558","0.0-7.0-1.28","sconelab1","bdp_wmem","Mon Feb 20 2023 23:58:23 GMT-0500 (Eastern Standard Time)","617882","Match,No Match","","null","","","","","","<div class='trialBorder'><div class='vertical-center'><img src='img/fixation2_sml.jpg'</img></div></div>","null","FIX","","","","","","","","","","",""
"html-keyboard-response","176","421066","0.0-7.0-2.28","sconelab1","bdp_wmem","Mon Feb 20 2023 23:58:23 GMT-0500 (Eastern Standard Time)","617882","Match,No Match","","null","","","","","","<div class='trialBorder'><div class='vertical-center'><img style='vertical-align:center; align:center' src='img/fixation2_sml.jpg'></div><div class='arrayDiv3'><div class='tl'><img class='introPic' src='trustrating_stim/white_mw040.bmp'><br><font color='red'><strong>Keep</strong></font></div><div class='tc'><img class='introPic' src='trustrating_stim/white_mw038.bmp'><br><font color='green'><strong>Share</strong></font></div><div class='tr'><img class='introPic' src='trustrating_stim/white_mw003.bmp'><br><font color='green'><strong>Share</strong></font></div></div></div>","null","ARRAY","3","trustrating_stim/white_mw040.bmp,trustrating_stim/white_mw038.bmp,trustrating_stim/white_mw003.bmp","0,1,1","Match","e","4500","","","","",""
"html-keyboard-response","177","425075","0.0-7.0-3.28","sconelab1","bdp_wmem","Mon Feb 20 2023 23:58:23 GMT-0500 (Eastern Standard Time)","617882","Match,No Match","","null","","","","","","<div class='trialBorder'><div class='vertical-center'><img src='img/fixation2_sml.jpg'</img></div></div>","null","DELAY","","","","","","","","","","",""
"html-keyboard-response","178","426604","0.0-7.0-4.28","sconelab1","bdp_wmem","Mon Feb 20 2023 23:58:23 GMT-0500 (Eastern Standard Time)","617882","Match,No Match","","1527","","","","","","<div class='trialBorder'><div class='targDiv'><div class='tc'><img class='introPic' src='trustrating_stim/white_mw038.bmp'><br><font color='green'><strong>Share</strong></font></div></div><div class='respDiv'><div class='respDivL'>Match<br>(e)</div><div class='respDivR'>No Match<br>(i)</div></div></div>","e","TARGET","3","trustrating_stim/white_mw040.bmp,trustrating_stim/white_mw038.bmp,trustrating_stim/white_mw003.bmp","0,1,1","Match","e","4500","trustrating_stim/white_mw038.bmp","green","Share","REAL","1"
"html-keyboard-response","179","427107","0.0-7.0-5.28","sconelab1","bdp_wmem","Mon Feb 20 2023 23:58:23 GMT-0500 (Eastern Standard Time)","617882","Match,No Match","","null","","","","","","<div class='trialBorder'><div class='vertical-center'><img src='img/correct.jpg'></div><div class='respDiv'><div class='respDivL'><font style='color:orange'>Match<br>(e)</font></div><div class='respDivR'>No Match<br>(i)</div></div></div>","null","FEEDBACK","","","","","","","","","","",""
"html-keyboard-response","180","427612","0.0-7.0-1.29","sconelab1","bdp_wmem","Mon Feb 20 2023 23:58:23 GMT-0500 (Eastern Standard Time)","617882","Match,No Match","","null","","","","","","<div class='trialBorder'><div class='vertical-center'><img src='img/fixation2_sml.jpg'</img></div></div>","null","FIX","","","","","","","","","","",""
"html-keyboard-response","181","430622","0.0-7.0-2.29","sconelab1","bdp_wmem","Mon Feb 20 2023 23:58:23 GMT-0500 (Eastern Standard Time)","617882","Match,No Match","","null","","","","","","<div class='trialBorder'><div class='vertical-center'><img style='vertical-align:center; align:center' src='img/fixation2_sml.jpg'></div><div class='arrayDiv2'><div class='tl'><img class='introPic' src='trustrating_stim/white_mw040.bmp'><br><font color='red'><strong>Keep</strong></font></div><div class='tr'><img class='introPic' src='trustrating_stim/white_mw085.bmp'><br><font color='green'><strong>Share</strong></font></div></div></div>","null","ARRAY","2","trustrating_stim/white_mw040.bmp,trustrating_stim/white_mw085.bmp","0,1","noMatchFace","i","3000","","","","",""
"html-keyboard-response","182","434627","0.0-7.0-3.29","sconelab1","bdp_wmem","Mon Feb 20 2023 23:58:23 GMT-0500 (Eastern Standard Time)","617882","Match,No Match","","null","","","","","","<div class='trialBorder'><div class='vertical-center'><img src='img/fixation2_sml.jpg'</img></div></div>","null","DELAY","","","","","","","","","","",""
"html-keyboard-response","183","436504","0.0-7.0-4.29","sconelab1","bdp_wmem","Mon Feb 20 2023 23:58:23 GMT-0500 (Eastern Standard Time)","617882","Match,No Match","","1875","","","","","","<div class='trialBorder'><div class='targDiv'><div class='tc'><img class='introPic' src='trustrating_stim/white_mw038.bmp'><br><font color='red'><strong>Keep</strong></font></div></div><div class='respDiv'><div class='respDivL'>Match<br>(e)</div><div class='respDivR'>No Match<br>(i)</div></div></div>","i","TARGET","2","trustrating_stim/white_mw040.bmp,trustrating_stim/white_mw085.bmp","0,1","noMatchFace","i","3000","trustrating_stim/white_mw038.bmp","red","Keep","REAL","1"
"html-keyboard-response","184","437006","0.0-7.0-5.29","sconelab1","bdp_wmem","Mon Feb 20 2023 23:58:23 GMT-0500 (Eastern Standard Time)","617882","Match,No Match","","null","","","","","","<div class='trialBorder'><div class='vertical-center'><img src='img/correct.jpg'></div><div class='respDiv'><div class='respDivL'>Match<br>(e)</div><div class='respDivR'><font style='color:orange'>No Match<br>(i)</font></div></div></div>","null","FEEDBACK","","","","","","","","","","",""
"html-keyboard-response","185","437517","0.0-7.0-1.30","sconelab1","bdp_wmem","Mon Feb 20 2023 23:58:23 GMT-0500 (Eastern Standard Time)","617882","Match,No Match","","null","","","","","","<div class='trialBorder'><div class='vertical-center'><img src='img/fixation2_sml.jpg'</img></div></div>","null","FIX","","","","","","","","","","",""
"html-keyboard-response","186","439021","0.0-7.0-2.30","sconelab1","bdp_wmem","Mon Feb 20 2023 23:58:23 GMT-0500 (Eastern Standard Time)","617882","Match,No Match","","null","","","","","","<div class='trialBorder'><div class='vertical-center'><img style='vertical-align:center; align:center' src='img/fixation2_sml.jpg'></div><div class='arrayDiv1'><div class='tc'><img class='introPic' src='trustrating_stim/white_mw012.bmp'><br><font color='red'><strong>Keep</strong></font></div></div></div>","null","ARRAY","1","trustrating_stim/white_mw012.bmp","0","Match","e","1500","","","","",""
"html-keyboard-response","187","443026","0.0-7.0-3.30","sconelab1","bdp_wmem","Mon Feb 20 2023 23:58:23 GMT-0500 (Eastern Standard Time)","617882","Match,No Match","","null","","","","","","<div class='trialBorder'><div class='vertical-center'><img src='img/fixation2_sml.jpg'</img></div></div>","null","DELAY","","","","","","","","","","",""
"html-keyboard-response","188","444048","0.0-7.0-4.30","sconelab1","bdp_wmem","Mon Feb 20 2023 23:58:23 GMT-0500 (Eastern Standard Time)","617882","Match,No Match","","1019","","","","","","<div class='trialBorder'><div class='targDiv'><div class='tc'><img class='introPic' src='trustrating_stim/white_mw012.bmp'><br><font color='red'><strong>Keep</strong></font></div></div><div class='respDiv'><div class='respDivL'>Match<br>(e)</div><div class='respDivR'>No Match<br>(i)</div></div></div>","e","TARGET","1","trustrating_stim/white_mw012.bmp","0","Match","e","1500","trustrating_stim/white_mw012.bmp","red","Keep","REAL","1"
"html-keyboard-response","189","444550","0.0-7.0-5.30","sconelab1","bdp_wmem","Mon Feb 20 2023 23:58:23 GMT-0500 (Eastern Standard Time)","617882","Match,No Match","","null","","","","","","<div class='trialBorder'><div class='vertical-center'><img src='img/correct.jpg'></div><div class='respDiv'><div class='respDivL'><font style='color:orange'>Match<br>(e)</font></div><div class='respDivR'>No Match<br>(i)</div></div></div>","null","FEEDBACK","","","","","","","","","","",""
"html-keyboard-response","190","445058","0.0-7.0-1.31","sconelab1","bdp_wmem","Mon Feb 20 2023 23:58:23 GMT-0500 (Eastern Standard Time)","617882","Match,No Match","","null","","","","","","<div class='trialBorder'><div class='vertical-center'><img src='img/fixation2_sml.jpg'</img></div></div>","null","FIX","","","","","","","","","","",""
"html-keyboard-response","191","449563","0.0-7.0-2.31","sconelab1","bdp_wmem","Mon Feb 20 2023 23:58:23 GMT-0500 (Eastern Standard Time)","617882","Match,No Match","","null","","","","","","<div class='trialBorder'><div class='vertical-center'><img style='vertical-align:center; align:center' src='img/fixation2_sml.jpg'></div><div class='arrayDiv3'><div class='tl'><img class='introPic' src='trustrating_stim/white_mw038.bmp'><br><font color='green'><strong>Share</strong></font></div><div class='tc'><img class='introPic' src='trustrating_stim/white_mw092.bmp'><br><font color='red'><strong>Keep</strong></font></div><div class='tr'><img class='introPic' src='trustrating_stim/white_mw078.bmp'><br><font color='red'><strong>Keep</strong></font></div></div></div>","null","ARRAY","3","trustrating_stim/white_mw038.bmp,trustrating_stim/white_mw092.bmp,trustrating_stim/white_mw078.bmp","1,0,0","noMatchFace","i","4500","","","","",""
"html-keyboard-response","192","453572","0.0-7.0-3.31","sconelab1","bdp_wmem","Mon Feb 20 2023 23:58:23 GMT-0500 (Eastern Standard Time)","617882","Match,No Match","","null","","","","","","<div class='trialBorder'><div class='vertical-center'><img src='img/fixation2_sml.jpg'</img></div></div>","null","DELAY","","","","","","","","","","",""
"html-keyboard-response","193","454771","0.0-7.0-4.31","sconelab1","bdp_wmem","Mon Feb 20 2023 23:58:23 GMT-0500 (Eastern Standard Time)","617882","Match,No Match","","1195","","","","","","<div class='trialBorder'><div class='targDiv'><div class='tc'><img class='introPic' src='trustrating_stim/white_mw012.bmp'><br><font color='red'><strong>Keep</strong></font></div></div><div class='respDiv'><div class='respDivL'>Match<br>(e)</div><div class='respDivR'>No Match<br>(i)</div></div></div>","i","TARGET","3","trustrating_stim/white_mw038.bmp,trustrating_stim/white_mw092.bmp,trustrating_stim/white_mw078.bmp","1,0,0","noMatchFace","i","4500","trustrating_stim/white_mw012.bmp","red","Keep","REAL","1"
"html-keyboard-response","194","455276","0.0-7.0-5.31","sconelab1","bdp_wmem","Mon Feb 20 2023 23:58:23 GMT-0500 (Eastern Standard Time)","617882","Match,No Match","","null","","","","","","<div class='trialBorder'><div class='vertical-center'><img src='img/correct.jpg'></div><div class='respDiv'><div class='respDivL'>Match<br>(e)</div><div class='respDivR'><font style='color:orange'>No Match<br>(i)</font></div></div></div>","null","FEEDBACK","","","","","","","","","","",""
