"trial_type","trial_index","time_elapsed","internal_node_id","subject_id","task","startTime","totalTime","labels","view_history","rt","event","trial","time","trialtype","success","stimulus","key_press","stimType","arraySize","arrayFaces","arrayOutcomes","matchType","corrResp","arrayDur","targFace","targCol","targOutcome","trialType","corr"
"pavlovia","0","3","0.0-0.0","6108114eaacc3458294b244c","bdp_wmem","Tue Mar 14 2023 13:46:31 GMT-0400 (Eastern Daylight Time)","759341","Match,No Match","","","","","","","","","","","","","","","","","","","","",""
"instructions","1","132599","0.0-1.0","6108114eaacc3458294b244c","bdp_wmem","Tue Mar 14 2023 13:46:31 GMT-0400 (Eastern Daylight Time)","759341","Match,No Match","[{""page_index"":0,""viewing_time"":132595}]","132595","","","","","","","","","","","","","","","","","","",""
"","","","","6108114eaacc3458294b244c","bdp_wmem","Tue Mar 14 2023 13:46:31 GMT-0400 (Eastern Daylight Time)","759341","Match,No Match","","","fullscreenenter","2","136177","fullscreenenter","","","","","","","","","","","","","","",""
"fullscreen","2","137175","0.0-2.0","6108114eaacc3458294b244c","bdp_wmem","Tue Mar 14 2023 13:46:31 GMT-0400 (Eastern Daylight Time)","759341","Match,No Match","","","","","","","true","","","","","","","","","","","","","",""
"instructions","3","221440","0.0-4.0","6108114eaacc3458294b244c","bdp_wmem","Tue Mar 14 2023 13:46:31 GMT-0400 (Eastern Daylight Time)","759341","Match,No Match","[{""page_index"":0,""viewing_time"":17574},{""page_index"":1,""viewing_time"":40453},{""page_index"":2,""viewing_time"":14672},{""page_index"":3,""viewing_time"":6686},{""page_index"":4,""viewing_time"":4879}]","84264","","","","","","","","","","","","","","","","","","",""
"html-keyboard-response","4","221945","0.0-5.0-1.0","6108114eaacc3458294b244c","bdp_wmem","Tue Mar 14 2023 13:46:31 GMT-0400 (Eastern Daylight Time)","759341","Match,No Match","","null","","","","","","<div class='trialBorder'><div class='vertical-center'><img src='img/fixation2_sml.jpg'</img></div></div>","null","FIX","","","","","","","","","","",""
"html-keyboard-response","5","224952","0.0-5.0-2.0","6108114eaacc3458294b244c","bdp_wmem","Tue Mar 14 2023 13:46:31 GMT-0400 (Eastern Daylight Time)","759341","Match,No Match","","null","","","","","","<div class='trialBorder'><div class='vertical-center'><img style='vertical-align:center; align:center' src='img/fixation2_sml.jpg'></div><div class='arrayDiv2'><div class='tl'><img class='introPic' src='trustrating_stim/white_mw012.bmp'><br><font color='red'><strong>Keep</strong></font></div><div class='tr'><img class='introPic' src='trustrating_stim/white_mw070.bmp'><br><font color='green'><strong>Share</strong></font></div></div></div>","null","ARRAY","2","trustrating_stim/white_mw012.bmp,trustrating_stim/white_mw070.bmp","0,1","Match","e","3000","","","","",""
"html-keyboard-response","6","228959","0.0-5.0-3.0","6108114eaacc3458294b244c","bdp_wmem","Tue Mar 14 2023 13:46:31 GMT-0400 (Eastern Daylight Time)","759341","Match,No Match","","null","","","","","","<div class='trialBorder'><div class='vertical-center'><img src='img/fixation2_sml.jpg'</img></div></div>","null","DELAY","","","","","","","","","","",""
"html-keyboard-response","7","230264","0.0-5.0-4.0","6108114eaacc3458294b244c","bdp_wmem","Tue Mar 14 2023 13:46:31 GMT-0400 (Eastern Daylight Time)","759341","Match,No Match","","1302","","","","","","<div class='trialBorder'><div class='targDiv'><div class='tc'><img class='introPic' src='trustrating_stim/white_mw070.bmp'><br><font color='green'><strong>Share</strong></font></div></div><div class='respDiv'><div class='respDivL'>Match<br>(e)</div><div class='respDivR'>No Match<br>(i)</div></div></div>","e","TARGET","2","trustrating_stim/white_mw012.bmp,trustrating_stim/white_mw070.bmp","0,1","Match","e","3000","trustrating_stim/white_mw070.bmp","green","Share","PRACTICE","1"
"html-keyboard-response","8","230768","0.0-5.0-5.0","6108114eaacc3458294b244c","bdp_wmem","Tue Mar 14 2023 13:46:31 GMT-0400 (Eastern Daylight Time)","759341","Match,No Match","","null","","","","","","<div class='trialBorder'><div class='vertical-center'><img src='img/correct.jpg'></div><div class='respDiv'><div class='respDivL'><font style='color:orange'>Match<br>(e)</font></div><div class='respDivR'>No Match<br>(i)</div></div></div>","null","FEEDBACK","","","","","","","","","","",""
"html-keyboard-response","9","231273","0.0-5.0-1.1","6108114eaacc3458294b244c","bdp_wmem","Tue Mar 14 2023 13:46:31 GMT-0400 (Eastern Daylight Time)","759341","Match,No Match","","null","","","","","","<div class='trialBorder'><div class='vertical-center'><img src='img/fixation2_sml.jpg'</img></div></div>","null","FIX","","","","","","","","","","",""
"html-keyboard-response","10","232776","0.0-5.0-2.1","6108114eaacc3458294b244c","bdp_wmem","Tue Mar 14 2023 13:46:31 GMT-0400 (Eastern Daylight Time)","759341","Match,No Match","","null","","","","","","<div class='trialBorder'><div class='vertical-center'><img style='vertical-align:center; align:center' src='img/fixation2_sml.jpg'></div><div class='arrayDiv1'><div class='tc'><img class='introPic' src='trustrating_stim/white_mw091.bmp'><br><font color='red'><strong>Keep</strong></font></div></div></div>","null","ARRAY","1","trustrating_stim/white_mw091.bmp","0","noMatchFace","i","1500","","","","",""
"html-keyboard-response","11","236784","0.0-5.0-3.1","6108114eaacc3458294b244c","bdp_wmem","Tue Mar 14 2023 13:46:31 GMT-0400 (Eastern Daylight Time)","759341","Match,No Match","","null","","","","","","<div class='trialBorder'><div class='vertical-center'><img src='img/fixation2_sml.jpg'</img></div></div>","null","DELAY","","","","","","","","","","",""
"html-keyboard-response","12","237850","0.0-5.0-4.1","6108114eaacc3458294b244c","bdp_wmem","Tue Mar 14 2023 13:46:31 GMT-0400 (Eastern Daylight Time)","759341","Match,No Match","","1065","","","","","","<div class='trialBorder'><div class='targDiv'><div class='tc'><img class='introPic' src='trustrating_stim/white_mw070.bmp'><br><font color='red'><strong>Keep</strong></font></div></div><div class='respDiv'><div class='respDivL'>Match<br>(e)</div><div class='respDivR'>No Match<br>(i)</div></div></div>","i","TARGET","1","trustrating_stim/white_mw091.bmp","0","noMatchFace","i","1500","trustrating_stim/white_mw070.bmp","red","Keep","PRACTICE","1"
"html-keyboard-response","13","238351","0.0-5.0-5.1","6108114eaacc3458294b244c","bdp_wmem","Tue Mar 14 2023 13:46:31 GMT-0400 (Eastern Daylight Time)","759341","Match,No Match","","null","","","","","","<div class='trialBorder'><div class='vertical-center'><img src='img/correct.jpg'></div><div class='respDiv'><div class='respDivL'>Match<br>(e)</div><div class='respDivR'><font style='color:orange'>No Match<br>(i)</font></div></div></div>","null","FEEDBACK","","","","","","","","","","",""
"html-keyboard-response","14","238856","0.0-5.0-1.2","6108114eaacc3458294b244c","bdp_wmem","Tue Mar 14 2023 13:46:31 GMT-0400 (Eastern Daylight Time)","759341","Match,No Match","","null","","","","","","<div class='trialBorder'><div class='vertical-center'><img src='img/fixation2_sml.jpg'</img></div></div>","null","FIX","","","","","","","","","","",""
"html-keyboard-response","15","243360","0.0-5.0-2.2","6108114eaacc3458294b244c","bdp_wmem","Tue Mar 14 2023 13:46:31 GMT-0400 (Eastern Daylight Time)","759341","Match,No Match","","null","","","","","","<div class='trialBorder'><div class='vertical-center'><img style='vertical-align:center; align:center' src='img/fixation2_sml.jpg'></div><div class='arrayDiv3'><div class='tl'><img class='introPic' src='trustrating_stim/white_mw038.bmp'><br><font color='green'><strong>Share</strong></font></div><div class='tc'><img class='introPic' src='trustrating_stim/white_mw091.bmp'><br><font color='green'><strong>Share</strong></font></div><div class='tr'><img class='introPic' src='trustrating_stim/white_mw042.bmp'><br><font color='red'><strong>Keep</strong></font></div></div></div>","null","ARRAY","3","trustrating_stim/white_mw038.bmp,trustrating_stim/white_mw091.bmp,trustrating_stim/white_mw042.bmp","1,1,0","noMatchOutcome","i","4500","","","","",""
"html-keyboard-response","16","247367","0.0-5.0-3.2","6108114eaacc3458294b244c","bdp_wmem","Tue Mar 14 2023 13:46:31 GMT-0400 (Eastern Daylight Time)","759341","Match,No Match","","null","","","","","","<div class='trialBorder'><div class='vertical-center'><img src='img/fixation2_sml.jpg'</img></div></div>","null","DELAY","","","","","","","","","","",""
"html-keyboard-response","17","248714","0.0-5.0-4.2","6108114eaacc3458294b244c","bdp_wmem","Tue Mar 14 2023 13:46:31 GMT-0400 (Eastern Daylight Time)","759341","Match,No Match","","1345","","","","","","<div class='trialBorder'><div class='targDiv'><div class='tc'><img class='introPic' src='trustrating_stim/white_mw042.bmp'><br><font color='green'><strong>Share</strong></font></div></div><div class='respDiv'><div class='respDivL'>Match<br>(e)</div><div class='respDivR'>No Match<br>(i)</div></div></div>","i","TARGET","3","trustrating_stim/white_mw038.bmp,trustrating_stim/white_mw091.bmp,trustrating_stim/white_mw042.bmp","1,1,0","noMatchOutcome","i","4500","trustrating_stim/white_mw042.bmp","green","Share","PRACTICE","1"
"html-keyboard-response","18","249217","0.0-5.0-5.2","6108114eaacc3458294b244c","bdp_wmem","Tue Mar 14 2023 13:46:31 GMT-0400 (Eastern Daylight Time)","759341","Match,No Match","","null","","","","","","<div class='trialBorder'><div class='vertical-center'><img src='img/correct.jpg'></div><div class='respDiv'><div class='respDivL'>Match<br>(e)</div><div class='respDivR'><font style='color:orange'>No Match<br>(i)</font></div></div></div>","null","FEEDBACK","","","","","","","","","","",""
"html-keyboard-response","19","249722","0.0-5.0-1.3","6108114eaacc3458294b244c","bdp_wmem","Tue Mar 14 2023 13:46:31 GMT-0400 (Eastern Daylight Time)","759341","Match,No Match","","null","","","","","","<div class='trialBorder'><div class='vertical-center'><img src='img/fixation2_sml.jpg'</img></div></div>","null","FIX","","","","","","","","","","",""
"html-keyboard-response","20","254226","0.0-5.0-2.3","6108114eaacc3458294b244c","bdp_wmem","Tue Mar 14 2023 13:46:31 GMT-0400 (Eastern Daylight Time)","759341","Match,No Match","","null","","","","","","<div class='trialBorder'><div class='vertical-center'><img style='vertical-align:center; align:center' src='img/fixation2_sml.jpg'></div><div class='arrayDiv3'><div class='tl'><img class='introPic' src='trustrating_stim/white_mw085.bmp'><br><font color='red'><strong>Keep</strong></font></div><div class='tc'><img class='introPic' src='trustrating_stim/white_mw091.bmp'><br><font color='red'><strong>Keep</strong></font></div><div class='tr'><img class='introPic' src='trustrating_stim/white_mw012.bmp'><br><font color='green'><strong>Share</strong></font></div></div></div>","null","ARRAY","3","trustrating_stim/white_mw085.bmp,trustrating_stim/white_mw091.bmp,trustrating_stim/white_mw012.bmp","0,0,1","Match","e","4500","","","","",""
"html-keyboard-response","21","258232","0.0-5.0-3.3","6108114eaacc3458294b244c","bdp_wmem","Tue Mar 14 2023 13:46:31 GMT-0400 (Eastern Daylight Time)","759341","Match,No Match","","null","","","","","","<div class='trialBorder'><div class='vertical-center'><img src='img/fixation2_sml.jpg'</img></div></div>","null","DELAY","","","","","","","","","","",""
"html-keyboard-response","22","259234","0.0-5.0-4.3","6108114eaacc3458294b244c","bdp_wmem","Tue Mar 14 2023 13:46:31 GMT-0400 (Eastern Daylight Time)","759341","Match,No Match","","1001","","","","","","<div class='trialBorder'><div class='targDiv'><div class='tc'><img class='introPic' src='trustrating_stim/white_mw012.bmp'><br><font color='green'><strong>Share</strong></font></div></div><div class='respDiv'><div class='respDivL'>Match<br>(e)</div><div class='respDivR'>No Match<br>(i)</div></div></div>","e","TARGET","3","trustrating_stim/white_mw085.bmp,trustrating_stim/white_mw091.bmp,trustrating_stim/white_mw012.bmp","0,0,1","Match","e","4500","trustrating_stim/white_mw012.bmp","green","Share","PRACTICE","1"
"html-keyboard-response","23","259736","0.0-5.0-5.3","6108114eaacc3458294b244c","bdp_wmem","Tue Mar 14 2023 13:46:31 GMT-0400 (Eastern Daylight Time)","759341","Match,No Match","","null","","","","","","<div class='trialBorder'><div class='vertical-center'><img src='img/correct.jpg'></div><div class='respDiv'><div class='respDivL'><font style='color:orange'>Match<br>(e)</font></div><div class='respDivR'>No Match<br>(i)</div></div></div>","null","FEEDBACK","","","","","","","","","","",""
"html-keyboard-response","24","260240","0.0-5.0-1.4","6108114eaacc3458294b244c","bdp_wmem","Tue Mar 14 2023 13:46:31 GMT-0400 (Eastern Daylight Time)","759341","Match,No Match","","null","","","","","","<div class='trialBorder'><div class='vertical-center'><img src='img/fixation2_sml.jpg'</img></div></div>","null","FIX","","","","","","","","","","",""
"html-keyboard-response","25","263248","0.0-5.0-2.4","6108114eaacc3458294b244c","bdp_wmem","Tue Mar 14 2023 13:46:31 GMT-0400 (Eastern Daylight Time)","759341","Match,No Match","","null","","","","","","<div class='trialBorder'><div class='vertical-center'><img style='vertical-align:center; align:center' src='img/fixation2_sml.jpg'></div><div class='arrayDiv2'><div class='tl'><img class='introPic' src='trustrating_stim/white_mw013.bmp'><br><font color='green'><strong>Share</strong></font></div><div class='tr'><img class='introPic' src='trustrating_stim/white_mw040.bmp'><br><font color='red'><strong>Keep</strong></font></div></div></div>","null","ARRAY","2","trustrating_stim/white_mw013.bmp,trustrating_stim/white_mw040.bmp","1,0","noMatchFace","i","3000","","","","",""
"html-keyboard-response","26","267259","0.0-5.0-3.4","6108114eaacc3458294b244c","bdp_wmem","Tue Mar 14 2023 13:46:31 GMT-0400 (Eastern Daylight Time)","759341","Match,No Match","","null","","","","","","<div class='trialBorder'><div class='vertical-center'><img src='img/fixation2_sml.jpg'</img></div></div>","null","DELAY","","","","","","","","","","",""
"html-keyboard-response","27","268193","0.0-5.0-4.4","6108114eaacc3458294b244c","bdp_wmem","Tue Mar 14 2023 13:46:31 GMT-0400 (Eastern Daylight Time)","759341","Match,No Match","","932","","","","","","<div class='trialBorder'><div class='targDiv'><div class='tc'><img class='introPic' src='trustrating_stim/white_mw010.bmp'><br><font color='green'><strong>Share</strong></font></div></div><div class='respDiv'><div class='respDivL'>Match<br>(e)</div><div class='respDivR'>No Match<br>(i)</div></div></div>","i","TARGET","2","trustrating_stim/white_mw013.bmp,trustrating_stim/white_mw040.bmp","1,0","noMatchFace","i","3000","trustrating_stim/white_mw010.bmp","green","Share","PRACTICE","1"
"html-keyboard-response","28","268698","0.0-5.0-5.4","6108114eaacc3458294b244c","bdp_wmem","Tue Mar 14 2023 13:46:31 GMT-0400 (Eastern Daylight Time)","759341","Match,No Match","","null","","","","","","<div class='trialBorder'><div class='vertical-center'><img src='img/correct.jpg'></div><div class='respDiv'><div class='respDivL'>Match<br>(e)</div><div class='respDivR'><font style='color:orange'>No Match<br>(i)</font></div></div></div>","null","FEEDBACK","","","","","","","","","","",""
"html-keyboard-response","29","269209","0.0-5.0-1.5","6108114eaacc3458294b244c","bdp_wmem","Tue Mar 14 2023 13:46:31 GMT-0400 (Eastern Daylight Time)","759341","Match,No Match","","null","","","","","","<div class='trialBorder'><div class='vertical-center'><img src='img/fixation2_sml.jpg'</img></div></div>","null","FIX","","","","","","","","","","",""
"html-keyboard-response","30","270713","0.0-5.0-2.5","6108114eaacc3458294b244c","bdp_wmem","Tue Mar 14 2023 13:46:31 GMT-0400 (Eastern Daylight Time)","759341","Match,No Match","","null","","","","","","<div class='trialBorder'><div class='vertical-center'><img style='vertical-align:center; align:center' src='img/fixation2_sml.jpg'></div><div class='arrayDiv1'><div class='tc'><img class='introPic' src='trustrating_stim/white_mw038.bmp'><br><font color='green'><strong>Share</strong></font></div></div></div>","null","ARRAY","1","trustrating_stim/white_mw038.bmp","1","Match","e","1500","","","","",""
"html-keyboard-response","31","274720","0.0-5.0-3.5","6108114eaacc3458294b244c","bdp_wmem","Tue Mar 14 2023 13:46:31 GMT-0400 (Eastern Daylight Time)","759341","Match,No Match","","null","","","","","","<div class='trialBorder'><div class='vertical-center'><img src='img/fixation2_sml.jpg'</img></div></div>","null","DELAY","","","","","","","","","","",""
"html-keyboard-response","32","275389","0.0-5.0-4.5","6108114eaacc3458294b244c","bdp_wmem","Tue Mar 14 2023 13:46:31 GMT-0400 (Eastern Daylight Time)","759341","Match,No Match","","668","","","","","","<div class='trialBorder'><div class='targDiv'><div class='tc'><img class='introPic' src='trustrating_stim/white_mw038.bmp'><br><font color='green'><strong>Share</strong></font></div></div><div class='respDiv'><div class='respDivL'>Match<br>(e)</div><div class='respDivR'>No Match<br>(i)</div></div></div>","e","TARGET","1","trustrating_stim/white_mw038.bmp","1","Match","e","1500","trustrating_stim/white_mw038.bmp","green","Share","PRACTICE","1"
"html-keyboard-response","33","275897","0.0-5.0-5.5","6108114eaacc3458294b244c","bdp_wmem","Tue Mar 14 2023 13:46:31 GMT-0400 (Eastern Daylight Time)","759341","Match,No Match","","null","","","","","","<div class='trialBorder'><div class='vertical-center'><img src='img/correct.jpg'></div><div class='respDiv'><div class='respDivL'><font style='color:orange'>Match<br>(e)</font></div><div class='respDivR'>No Match<br>(i)</div></div></div>","null","FEEDBACK","","","","","","","","","","",""
"instructions","34","277497","0.0-6.0","6108114eaacc3458294b244c","bdp_wmem","Tue Mar 14 2023 13:46:31 GMT-0400 (Eastern Daylight Time)","759341","Match,No Match","[{""page_index"":0,""viewing_time"":1600}]","1600","","","","","","","","","","","","","","","","","","",""
"html-keyboard-response","35","277999","0.0-7.0-1.0","6108114eaacc3458294b244c","bdp_wmem","Tue Mar 14 2023 13:46:31 GMT-0400 (Eastern Daylight Time)","759341","Match,No Match","","null","","","","","","<div class='trialBorder'><div class='vertical-center'><img src='img/fixation2_sml.jpg'</img></div></div>","null","FIX","","","","","","","","","","",""
"html-keyboard-response","36","279504","0.0-7.0-2.0","6108114eaacc3458294b244c","bdp_wmem","Tue Mar 14 2023 13:46:31 GMT-0400 (Eastern Daylight Time)","759341","Match,No Match","","null","","","","","","<div class='trialBorder'><div class='vertical-center'><img style='vertical-align:center; align:center' src='img/fixation2_sml.jpg'></div><div class='arrayDiv1'><div class='tc'><img class='introPic' src='trustrating_stim/white_mw091.bmp'><br><font color='red'><strong>Keep</strong></font></div></div></div>","null","ARRAY","1","trustrating_stim/white_mw091.bmp","0","noMatchFace","i","1500","","","","",""
"html-keyboard-response","37","283513","0.0-7.0-3.0","6108114eaacc3458294b244c","bdp_wmem","Tue Mar 14 2023 13:46:31 GMT-0400 (Eastern Daylight Time)","759341","Match,No Match","","null","","","","","","<div class='trialBorder'><div class='vertical-center'><img src='img/fixation2_sml.jpg'</img></div></div>","null","DELAY","","","","","","","","","","",""
"html-keyboard-response","38","284202","0.0-7.0-4.0","6108114eaacc3458294b244c","bdp_wmem","Tue Mar 14 2023 13:46:31 GMT-0400 (Eastern Daylight Time)","759341","Match,No Match","","688","","","","","","<div class='trialBorder'><div class='targDiv'><div class='tc'><img class='introPic' src='trustrating_stim/white_mw085.bmp'><br><font color='red'><strong>Keep</strong></font></div></div><div class='respDiv'><div class='respDivL'>Match<br>(e)</div><div class='respDivR'>No Match<br>(i)</div></div></div>","i","TARGET","1","trustrating_stim/white_mw091.bmp","0","noMatchFace","i","1500","trustrating_stim/white_mw085.bmp","red","Keep","REAL","1"
"html-keyboard-response","39","284704","0.0-7.0-5.0","6108114eaacc3458294b244c","bdp_wmem","Tue Mar 14 2023 13:46:31 GMT-0400 (Eastern Daylight Time)","759341","Match,No Match","","null","","","","","","<div class='trialBorder'><div class='vertical-center'><img src='img/correct.jpg'></div><div class='respDiv'><div class='respDivL'>Match<br>(e)</div><div class='respDivR'><font style='color:orange'>No Match<br>(i)</font></div></div></div>","null","FEEDBACK","","","","","","","","","","",""
"html-keyboard-response","40","285208","0.0-7.0-1.1","6108114eaacc3458294b244c","bdp_wmem","Tue Mar 14 2023 13:46:31 GMT-0400 (Eastern Daylight Time)","759341","Match,No Match","","null","","","","","","<div class='trialBorder'><div class='vertical-center'><img src='img/fixation2_sml.jpg'</img></div></div>","null","FIX","","","","","","","","","","",""
"html-keyboard-response","41","288216","0.0-7.0-2.1","6108114eaacc3458294b244c","bdp_wmem","Tue Mar 14 2023 13:46:31 GMT-0400 (Eastern Daylight Time)","759341","Match,No Match","","null","","","","","","<div class='trialBorder'><div class='vertical-center'><img style='vertical-align:center; align:center' src='img/fixation2_sml.jpg'></div><div class='arrayDiv2'><div class='tl'><img class='introPic' src='trustrating_stim/white_mw078.bmp'><br><font color='green'><strong>Share</strong></font></div><div class='tr'><img class='introPic' src='trustrating_stim/white_mw070.bmp'><br><font color='red'><strong>Keep</strong></font></div></div></div>","null","ARRAY","2","trustrating_stim/white_mw078.bmp,trustrating_stim/white_mw070.bmp","1,0","Match","e","3000","","","","",""
"html-keyboard-response","42","292226","0.0-7.0-3.1","6108114eaacc3458294b244c","bdp_wmem","Tue Mar 14 2023 13:46:31 GMT-0400 (Eastern Daylight Time)","759341","Match,No Match","","null","","","","","","<div class='trialBorder'><div class='vertical-center'><img src='img/fixation2_sml.jpg'</img></div></div>","null","DELAY","","","","","","","","","","",""
"html-keyboard-response","43","292963","0.0-7.0-4.1","6108114eaacc3458294b244c","bdp_wmem","Tue Mar 14 2023 13:46:31 GMT-0400 (Eastern Daylight Time)","759341","Match,No Match","","735","","","","","","<div class='trialBorder'><div class='targDiv'><div class='tc'><img class='introPic' src='trustrating_stim/white_mw078.bmp'><br><font color='green'><strong>Share</strong></font></div></div><div class='respDiv'><div class='respDivL'>Match<br>(e)</div><div class='respDivR'>No Match<br>(i)</div></div></div>","i","TARGET","2","trustrating_stim/white_mw078.bmp,trustrating_stim/white_mw070.bmp","1,0","Match","e","3000","trustrating_stim/white_mw078.bmp","green","Share","REAL","0"
"html-keyboard-response","44","293465","0.0-7.0-5.1","6108114eaacc3458294b244c","bdp_wmem","Tue Mar 14 2023 13:46:31 GMT-0400 (Eastern Daylight Time)","759341","Match,No Match","","null","","","","","","<div class='trialBorder'><div class='vertical-center'><img src='img/error.jpg'></div><div class='respDiv'><div class='respDivL'>Match<br>(e)</div><div class='respDivR'><font style='color:orange'>No Match<br>(i)</font></div></div></div>","null","FEEDBACK","","","","","","","","","","",""
"html-keyboard-response","45","293968","0.0-7.0-1.2","6108114eaacc3458294b244c","bdp_wmem","Tue Mar 14 2023 13:46:31 GMT-0400 (Eastern Daylight Time)","759341","Match,No Match","","null","","","","","","<div class='trialBorder'><div class='vertical-center'><img src='img/fixation2_sml.jpg'</img></div></div>","null","FIX","","","","","","","","","","",""
"html-keyboard-response","46","296976","0.0-7.0-2.2","6108114eaacc3458294b244c","bdp_wmem","Tue Mar 14 2023 13:46:31 GMT-0400 (Eastern Daylight Time)","759341","Match,No Match","","null","","","","","","<div class='trialBorder'><div class='vertical-center'><img style='vertical-align:center; align:center' src='img/fixation2_sml.jpg'></div><div class='arrayDiv2'><div class='tl'><img class='introPic' src='trustrating_stim/white_mw092.bmp'><br><font color='red'><strong>Keep</strong></font></div><div class='tr'><img class='introPic' src='trustrating_stim/white_mw091.bmp'><br><font color='green'><strong>Share</strong></font></div></div></div>","null","ARRAY","2","trustrating_stim/white_mw092.bmp,trustrating_stim/white_mw091.bmp","0,1","noMatchOutcome","i","3000","","","","",""
"html-keyboard-response","47","300986","0.0-7.0-3.2","6108114eaacc3458294b244c","bdp_wmem","Tue Mar 14 2023 13:46:31 GMT-0400 (Eastern Daylight Time)","759341","Match,No Match","","null","","","","","","<div class='trialBorder'><div class='vertical-center'><img src='img/fixation2_sml.jpg'</img></div></div>","null","DELAY","","","","","","","","","","",""
"html-keyboard-response","48","302899","0.0-7.0-4.2","6108114eaacc3458294b244c","bdp_wmem","Tue Mar 14 2023 13:46:31 GMT-0400 (Eastern Daylight Time)","759341","Match,No Match","","1912","","","","","","<div class='trialBorder'><div class='targDiv'><div class='tc'><img class='introPic' src='trustrating_stim/white_mw091.bmp'><br><font color='red'><strong>Keep</strong></font></div></div><div class='respDiv'><div class='respDivL'>Match<br>(e)</div><div class='respDivR'>No Match<br>(i)</div></div></div>","e","TARGET","2","trustrating_stim/white_mw092.bmp,trustrating_stim/white_mw091.bmp","0,1","noMatchOutcome","i","3000","trustrating_stim/white_mw091.bmp","red","Keep","REAL","0"
"html-keyboard-response","49","303401","0.0-7.0-5.2","6108114eaacc3458294b244c","bdp_wmem","Tue Mar 14 2023 13:46:31 GMT-0400 (Eastern Daylight Time)","759341","Match,No Match","","null","","","","","","<div class='trialBorder'><div class='vertical-center'><img src='img/error.jpg'></div><div class='respDiv'><div class='respDivL'><font style='color:orange'>Match<br>(e)</font></div><div class='respDivR'>No Match<br>(i)</div></div></div>","null","FEEDBACK","","","","","","","","","","",""
"html-keyboard-response","50","303906","0.0-7.0-1.3","6108114eaacc3458294b244c","bdp_wmem","Tue Mar 14 2023 13:46:31 GMT-0400 (Eastern Daylight Time)","759341","Match,No Match","","null","","","","","","<div class='trialBorder'><div class='vertical-center'><img src='img/fixation2_sml.jpg'</img></div></div>","null","FIX","","","","","","","","","","",""
"html-keyboard-response","51","308411","0.0-7.0-2.3","6108114eaacc3458294b244c","bdp_wmem","Tue Mar 14 2023 13:46:31 GMT-0400 (Eastern Daylight Time)","759341","Match,No Match","","null","","","","","","<div class='trialBorder'><div class='vertical-center'><img style='vertical-align:center; align:center' src='img/fixation2_sml.jpg'></div><div class='arrayDiv3'><div class='tl'><img class='introPic' src='trustrating_stim/white_mw003.bmp'><br><font color='red'><strong>Keep</strong></font></div><div class='tc'><img class='introPic' src='trustrating_stim/white_mw012.bmp'><br><font color='green'><strong>Share</strong></font></div><div class='tr'><img class='introPic' src='trustrating_stim/white_mw092.bmp'><br><font color='green'><strong>Share</strong></font></div></div></div>","null","ARRAY","3","trustrating_stim/white_mw003.bmp,trustrating_stim/white_mw012.bmp,trustrating_stim/white_mw092.bmp","0,1,1","Match","e","4500","","","","",""
"html-keyboard-response","52","312416","0.0-7.0-3.3","6108114eaacc3458294b244c","bdp_wmem","Tue Mar 14 2023 13:46:31 GMT-0400 (Eastern Daylight Time)","759341","Match,No Match","","null","","","","","","<div class='trialBorder'><div class='vertical-center'><img src='img/fixation2_sml.jpg'</img></div></div>","null","DELAY","","","","","","","","","","",""
"html-keyboard-response","53","314493","0.0-7.0-4.3","6108114eaacc3458294b244c","bdp_wmem","Tue Mar 14 2023 13:46:31 GMT-0400 (Eastern Daylight Time)","759341","Match,No Match","","2075","","","","","","<div class='trialBorder'><div class='targDiv'><div class='tc'><img class='introPic' src='trustrating_stim/white_mw092.bmp'><br><font color='green'><strong>Share</strong></font></div></div><div class='respDiv'><div class='respDivL'>Match<br>(e)</div><div class='respDivR'>No Match<br>(i)</div></div></div>","e","TARGET","3","trustrating_stim/white_mw003.bmp,trustrating_stim/white_mw012.bmp,trustrating_stim/white_mw092.bmp","0,1,1","Match","e","4500","trustrating_stim/white_mw092.bmp","green","Share","REAL","1"
"html-keyboard-response","54","315001","0.0-7.0-5.3","6108114eaacc3458294b244c","bdp_wmem","Tue Mar 14 2023 13:46:31 GMT-0400 (Eastern Daylight Time)","759341","Match,No Match","","null","","","","","","<div class='trialBorder'><div class='vertical-center'><img src='img/correct.jpg'></div><div class='respDiv'><div class='respDivL'><font style='color:orange'>Match<br>(e)</font></div><div class='respDivR'>No Match<br>(i)</div></div></div>","null","FEEDBACK","","","","","","","","","","",""
"html-keyboard-response","55","315504","0.0-7.0-1.4","6108114eaacc3458294b244c","bdp_wmem","Tue Mar 14 2023 13:46:31 GMT-0400 (Eastern Daylight Time)","759341","Match,No Match","","null","","","","","","<div class='trialBorder'><div class='vertical-center'><img src='img/fixation2_sml.jpg'</img></div></div>","null","FIX","","","","","","","","","","",""
"html-keyboard-response","56","318513","0.0-7.0-2.4","6108114eaacc3458294b244c","bdp_wmem","Tue Mar 14 2023 13:46:31 GMT-0400 (Eastern Daylight Time)","759341","Match,No Match","","null","","","","","","<div class='trialBorder'><div class='vertical-center'><img style='vertical-align:center; align:center' src='img/fixation2_sml.jpg'></div><div class='arrayDiv2'><div class='tl'><img class='introPic' src='trustrating_stim/white_mw012.bmp'><br><font color='green'><strong>Share</strong></font></div><div class='tr'><img class='introPic' src='trustrating_stim/white_mw038.bmp'><br><font color='red'><strong>Keep</strong></font></div></div></div>","null","ARRAY","2","trustrating_stim/white_mw012.bmp,trustrating_stim/white_mw038.bmp","1,0","Match","e","3000","","","","",""
"html-keyboard-response","57","322523","0.0-7.0-3.4","6108114eaacc3458294b244c","bdp_wmem","Tue Mar 14 2023 13:46:31 GMT-0400 (Eastern Daylight Time)","759341","Match,No Match","","null","","","","","","<div class='trialBorder'><div class='vertical-center'><img src='img/fixation2_sml.jpg'</img></div></div>","null","DELAY","","","","","","","","","","",""
"html-keyboard-response","58","323377","0.0-7.0-4.4","6108114eaacc3458294b244c","bdp_wmem","Tue Mar 14 2023 13:46:31 GMT-0400 (Eastern Daylight Time)","759341","Match,No Match","","852","","","","","","<div class='trialBorder'><div class='targDiv'><div class='tc'><img class='introPic' src='trustrating_stim/white_mw012.bmp'><br><font color='green'><strong>Share</strong></font></div></div><div class='respDiv'><div class='respDivL'>Match<br>(e)</div><div class='respDivR'>No Match<br>(i)</div></div></div>","e","TARGET","2","trustrating_stim/white_mw012.bmp,trustrating_stim/white_mw038.bmp","1,0","Match","e","3000","trustrating_stim/white_mw012.bmp","green","Share","REAL","1"
"html-keyboard-response","59","323881","0.0-7.0-5.4","6108114eaacc3458294b244c","bdp_wmem","Tue Mar 14 2023 13:46:31 GMT-0400 (Eastern Daylight Time)","759341","Match,No Match","","null","","","","","","<div class='trialBorder'><div class='vertical-center'><img src='img/correct.jpg'></div><div class='respDiv'><div class='respDivL'><font style='color:orange'>Match<br>(e)</font></div><div class='respDivR'>No Match<br>(i)</div></div></div>","null","FEEDBACK","","","","","","","","","","",""
"html-keyboard-response","60","324386","0.0-7.0-1.5","6108114eaacc3458294b244c","bdp_wmem","Tue Mar 14 2023 13:46:31 GMT-0400 (Eastern Daylight Time)","759341","Match,No Match","","null","","","","","","<div class='trialBorder'><div class='vertical-center'><img src='img/fixation2_sml.jpg'</img></div></div>","null","FIX","","","","","","","","","","",""
"html-keyboard-response","61","328891","0.0-7.0-2.5","6108114eaacc3458294b244c","bdp_wmem","Tue Mar 14 2023 13:46:31 GMT-0400 (Eastern Daylight Time)","759341","Match,No Match","","null","","","","","","<div class='trialBorder'><div class='vertical-center'><img style='vertical-align:center; align:center' src='img/fixation2_sml.jpg'></div><div class='arrayDiv3'><div class='tl'><img class='introPic' src='trustrating_stim/white_mw092.bmp'><br><font color='green'><strong>Share</strong></font></div><div class='tc'><img class='introPic' src='trustrating_stim/white_mw070.bmp'><br><font color='red'><strong>Keep</strong></font></div><div class='tr'><img class='introPic' src='trustrating_stim/white_mw085.bmp'><br><font color='red'><strong>Keep</strong></font></div></div></div>","null","ARRAY","3","trustrating_stim/white_mw092.bmp,trustrating_stim/white_mw070.bmp,trustrating_stim/white_mw085.bmp","1,0,0","Match","e","4500","","","","",""
"html-keyboard-response","62","332896","0.0-7.0-3.5","6108114eaacc3458294b244c","bdp_wmem","Tue Mar 14 2023 13:46:31 GMT-0400 (Eastern Daylight Time)","759341","Match,No Match","","null","","","","","","<div class='trialBorder'><div class='vertical-center'><img src='img/fixation2_sml.jpg'</img></div></div>","null","DELAY","","","","","","","","","","",""
"html-keyboard-response","63","333560","0.0-7.0-4.5","6108114eaacc3458294b244c","bdp_wmem","Tue Mar 14 2023 13:46:31 GMT-0400 (Eastern Daylight Time)","759341","Match,No Match","","663","","","","","","<div class='trialBorder'><div class='targDiv'><div class='tc'><img class='introPic' src='trustrating_stim/white_mw092.bmp'><br><font color='green'><strong>Share</strong></font></div></div><div class='respDiv'><div class='respDivL'>Match<br>(e)</div><div class='respDivR'>No Match<br>(i)</div></div></div>","e","TARGET","3","trustrating_stim/white_mw092.bmp,trustrating_stim/white_mw070.bmp,trustrating_stim/white_mw085.bmp","1,0,0","Match","e","4500","trustrating_stim/white_mw092.bmp","green","Share","REAL","1"
"html-keyboard-response","64","334065","0.0-7.0-5.5","6108114eaacc3458294b244c","bdp_wmem","Tue Mar 14 2023 13:46:31 GMT-0400 (Eastern Daylight Time)","759341","Match,No Match","","null","","","","","","<div class='trialBorder'><div class='vertical-center'><img src='img/correct.jpg'></div><div class='respDiv'><div class='respDivL'><font style='color:orange'>Match<br>(e)</font></div><div class='respDivR'>No Match<br>(i)</div></div></div>","null","FEEDBACK","","","","","","","","","","",""
"html-keyboard-response","65","334568","0.0-7.0-1.6","6108114eaacc3458294b244c","bdp_wmem","Tue Mar 14 2023 13:46:31 GMT-0400 (Eastern Daylight Time)","759341","Match,No Match","","null","","","","","","<div class='trialBorder'><div class='vertical-center'><img src='img/fixation2_sml.jpg'</img></div></div>","null","FIX","","","","","","","","","","",""
"html-keyboard-response","66","336073","0.0-7.0-2.6","6108114eaacc3458294b244c","bdp_wmem","Tue Mar 14 2023 13:46:31 GMT-0400 (Eastern Daylight Time)","759341","Match,No Match","","null","","","","","","<div class='trialBorder'><div class='vertical-center'><img style='vertical-align:center; align:center' src='img/fixation2_sml.jpg'></div><div class='arrayDiv1'><div class='tc'><img class='introPic' src='trustrating_stim/white_mw010.bmp'><br><font color='red'><strong>Keep</strong></font></div></div></div>","null","ARRAY","1","trustrating_stim/white_mw010.bmp","0","Match","e","1500","","","","",""
"html-keyboard-response","67","340084","0.0-7.0-3.6","6108114eaacc3458294b244c","bdp_wmem","Tue Mar 14 2023 13:46:31 GMT-0400 (Eastern Daylight Time)","759341","Match,No Match","","null","","","","","","<div class='trialBorder'><div class='vertical-center'><img src='img/fixation2_sml.jpg'</img></div></div>","null","DELAY","","","","","","","","","","",""
"html-keyboard-response","68","341424","0.0-7.0-4.6","6108114eaacc3458294b244c","bdp_wmem","Tue Mar 14 2023 13:46:31 GMT-0400 (Eastern Daylight Time)","759341","Match,No Match","","1339","","","","","","<div class='trialBorder'><div class='targDiv'><div class='tc'><img class='introPic' src='trustrating_stim/white_mw010.bmp'><br><font color='red'><strong>Keep</strong></font></div></div><div class='respDiv'><div class='respDivL'>Match<br>(e)</div><div class='respDivR'>No Match<br>(i)</div></div></div>","e","TARGET","1","trustrating_stim/white_mw010.bmp","0","Match","e","1500","trustrating_stim/white_mw010.bmp","red","Keep","REAL","1"
"html-keyboard-response","69","341929","0.0-7.0-5.6","6108114eaacc3458294b244c","bdp_wmem","Tue Mar 14 2023 13:46:31 GMT-0400 (Eastern Daylight Time)","759341","Match,No Match","","null","","","","","","<div class='trialBorder'><div class='vertical-center'><img src='img/correct.jpg'></div><div class='respDiv'><div class='respDivL'><font style='color:orange'>Match<br>(e)</font></div><div class='respDivR'>No Match<br>(i)</div></div></div>","null","FEEDBACK","","","","","","","","","","",""
"html-keyboard-response","70","342434","0.0-7.0-1.7","6108114eaacc3458294b244c","bdp_wmem","Tue Mar 14 2023 13:46:31 GMT-0400 (Eastern Daylight Time)","759341","Match,No Match","","null","","","","","","<div class='trialBorder'><div class='vertical-center'><img src='img/fixation2_sml.jpg'</img></div></div>","null","FIX","","","","","","","","","","",""
"html-keyboard-response","71","345445","0.0-7.0-2.7","6108114eaacc3458294b244c","bdp_wmem","Tue Mar 14 2023 13:46:31 GMT-0400 (Eastern Daylight Time)","759341","Match,No Match","","null","","","","","","<div class='trialBorder'><div class='vertical-center'><img style='vertical-align:center; align:center' src='img/fixation2_sml.jpg'></div><div class='arrayDiv2'><div class='tl'><img class='introPic' src='trustrating_stim/white_mw038.bmp'><br><font color='red'><strong>Keep</strong></font></div><div class='tr'><img class='introPic' src='trustrating_stim/white_mw003.bmp'><br><font color='green'><strong>Share</strong></font></div></div></div>","null","ARRAY","2","trustrating_stim/white_mw038.bmp,trustrating_stim/white_mw003.bmp","0,1","noMatchFace","i","3000","","","","",""
"html-keyboard-response","72","349449","0.0-7.0-3.7","6108114eaacc3458294b244c","bdp_wmem","Tue Mar 14 2023 13:46:31 GMT-0400 (Eastern Daylight Time)","759341","Match,No Match","","null","","","","","","<div class='trialBorder'><div class='vertical-center'><img src='img/fixation2_sml.jpg'</img></div></div>","null","DELAY","","","","","","","","","","",""
"html-keyboard-response","73","350273","0.0-7.0-4.7","6108114eaacc3458294b244c","bdp_wmem","Tue Mar 14 2023 13:46:31 GMT-0400 (Eastern Daylight Time)","759341","Match,No Match","","823","","","","","","<div class='trialBorder'><div class='targDiv'><div class='tc'><img class='introPic' src='trustrating_stim/white_mw078.bmp'><br><font color='red'><strong>Keep</strong></font></div></div><div class='respDiv'><div class='respDivL'>Match<br>(e)</div><div class='respDivR'>No Match<br>(i)</div></div></div>","i","TARGET","2","trustrating_stim/white_mw038.bmp,trustrating_stim/white_mw003.bmp","0,1","noMatchFace","i","3000","trustrating_stim/white_mw078.bmp","red","Keep","REAL","1"
"html-keyboard-response","74","350777","0.0-7.0-5.7","6108114eaacc3458294b244c","bdp_wmem","Tue Mar 14 2023 13:46:31 GMT-0400 (Eastern Daylight Time)","759341","Match,No Match","","null","","","","","","<div class='trialBorder'><div class='vertical-center'><img src='img/correct.jpg'></div><div class='respDiv'><div class='respDivL'>Match<br>(e)</div><div class='respDivR'><font style='color:orange'>No Match<br>(i)</font></div></div></div>","null","FEEDBACK","","","","","","","","","","",""
"html-keyboard-response","75","351281","0.0-7.0-1.8","6108114eaacc3458294b244c","bdp_wmem","Tue Mar 14 2023 13:46:31 GMT-0400 (Eastern Daylight Time)","759341","Match,No Match","","null","","","","","","<div class='trialBorder'><div class='vertical-center'><img src='img/fixation2_sml.jpg'</img></div></div>","null","FIX","","","","","","","","","","",""
"html-keyboard-response","76","352785","0.0-7.0-2.8","6108114eaacc3458294b244c","bdp_wmem","Tue Mar 14 2023 13:46:31 GMT-0400 (Eastern Daylight Time)","759341","Match,No Match","","null","","","","","","<div class='trialBorder'><div class='vertical-center'><img style='vertical-align:center; align:center' src='img/fixation2_sml.jpg'></div><div class='arrayDiv1'><div class='tc'><img class='introPic' src='trustrating_stim/white_mw013.bmp'><br><font color='green'><strong>Share</strong></font></div></div></div>","null","ARRAY","1","trustrating_stim/white_mw013.bmp","1","Match","e","1500","","","","",""
"html-keyboard-response","77","356792","0.0-7.0-3.8","6108114eaacc3458294b244c","bdp_wmem","Tue Mar 14 2023 13:46:31 GMT-0400 (Eastern Daylight Time)","759341","Match,No Match","","null","","","","","","<div class='trialBorder'><div class='vertical-center'><img src='img/fixation2_sml.jpg'</img></div></div>","null","DELAY","","","","","","","","","","",""
"html-keyboard-response","78","357590","0.0-7.0-4.8","6108114eaacc3458294b244c","bdp_wmem","Tue Mar 14 2023 13:46:31 GMT-0400 (Eastern Daylight Time)","759341","Match,No Match","","797","","","","","","<div class='trialBorder'><div class='targDiv'><div class='tc'><img class='introPic' src='trustrating_stim/white_mw013.bmp'><br><font color='green'><strong>Share</strong></font></div></div><div class='respDiv'><div class='respDivL'>Match<br>(e)</div><div class='respDivR'>No Match<br>(i)</div></div></div>","e","TARGET","1","trustrating_stim/white_mw013.bmp","1","Match","e","1500","trustrating_stim/white_mw013.bmp","green","Share","REAL","1"
"html-keyboard-response","79","358098","0.0-7.0-5.8","6108114eaacc3458294b244c","bdp_wmem","Tue Mar 14 2023 13:46:31 GMT-0400 (Eastern Daylight Time)","759341","Match,No Match","","null","","","","","","<div class='trialBorder'><div class='vertical-center'><img src='img/correct.jpg'></div><div class='respDiv'><div class='respDivL'><font style='color:orange'>Match<br>(e)</font></div><div class='respDivR'>No Match<br>(i)</div></div></div>","null","FEEDBACK","","","","","","","","","","",""
"html-keyboard-response","80","358601","0.0-7.0-1.9","6108114eaacc3458294b244c","bdp_wmem","Tue Mar 14 2023 13:46:31 GMT-0400 (Eastern Daylight Time)","759341","Match,No Match","","null","","","","","","<div class='trialBorder'><div class='vertical-center'><img src='img/fixation2_sml.jpg'</img></div></div>","null","FIX","","","","","","","","","","",""
"html-keyboard-response","81","361608","0.0-7.0-2.9","6108114eaacc3458294b244c","bdp_wmem","Tue Mar 14 2023 13:46:31 GMT-0400 (Eastern Daylight Time)","759341","Match,No Match","","null","","","","","","<div class='trialBorder'><div class='vertical-center'><img style='vertical-align:center; align:center' src='img/fixation2_sml.jpg'></div><div class='arrayDiv2'><div class='tl'><img class='introPic' src='trustrating_stim/white_mw091.bmp'><br><font color='green'><strong>Share</strong></font></div><div class='tr'><img class='introPic' src='trustrating_stim/white_mw013.bmp'><br><font color='red'><strong>Keep</strong></font></div></div></div>","null","ARRAY","2","trustrating_stim/white_mw091.bmp,trustrating_stim/white_mw013.bmp","1,0","noMatchOutcome","i","3000","","","","",""
"html-keyboard-response","82","365619","0.0-7.0-3.9","6108114eaacc3458294b244c","bdp_wmem","Tue Mar 14 2023 13:46:31 GMT-0400 (Eastern Daylight Time)","759341","Match,No Match","","null","","","","","","<div class='trialBorder'><div class='vertical-center'><img src='img/fixation2_sml.jpg'</img></div></div>","null","DELAY","","","","","","","","","","",""
"html-keyboard-response","83","367010","0.0-7.0-4.9","6108114eaacc3458294b244c","bdp_wmem","Tue Mar 14 2023 13:46:31 GMT-0400 (Eastern Daylight Time)","759341","Match,No Match","","1390","","","","","","<div class='trialBorder'><div class='targDiv'><div class='tc'><img class='introPic' src='trustrating_stim/white_mw013.bmp'><br><font color='green'><strong>Share</strong></font></div></div><div class='respDiv'><div class='respDivL'>Match<br>(e)</div><div class='respDivR'>No Match<br>(i)</div></div></div>","e","TARGET","2","trustrating_stim/white_mw091.bmp,trustrating_stim/white_mw013.bmp","1,0","noMatchOutcome","i","3000","trustrating_stim/white_mw013.bmp","green","Share","REAL","0"
"html-keyboard-response","84","367513","0.0-7.0-5.9","6108114eaacc3458294b244c","bdp_wmem","Tue Mar 14 2023 13:46:31 GMT-0400 (Eastern Daylight Time)","759341","Match,No Match","","null","","","","","","<div class='trialBorder'><div class='vertical-center'><img src='img/error.jpg'></div><div class='respDiv'><div class='respDivL'><font style='color:orange'>Match<br>(e)</font></div><div class='respDivR'>No Match<br>(i)</div></div></div>","null","FEEDBACK","","","","","","","","","","",""
"html-keyboard-response","85","368017","0.0-7.0-1.10","6108114eaacc3458294b244c","bdp_wmem","Tue Mar 14 2023 13:46:31 GMT-0400 (Eastern Daylight Time)","759341","Match,No Match","","null","","","","","","<div class='trialBorder'><div class='vertical-center'><img src='img/fixation2_sml.jpg'</img></div></div>","null","FIX","","","","","","","","","","",""
"html-keyboard-response","86","369520","0.0-7.0-2.10","6108114eaacc3458294b244c","bdp_wmem","Tue Mar 14 2023 13:46:31 GMT-0400 (Eastern Daylight Time)","759341","Match,No Match","","null","","","","","","<div class='trialBorder'><div class='vertical-center'><img style='vertical-align:center; align:center' src='img/fixation2_sml.jpg'></div><div class='arrayDiv1'><div class='tc'><img class='introPic' src='trustrating_stim/white_mw038.bmp'><br><font color='red'><strong>Keep</strong></font></div></div></div>","null","ARRAY","1","trustrating_stim/white_mw038.bmp","0","noMatchOutcome","i","1500","","","","",""
"html-keyboard-response","87","373532","0.0-7.0-3.10","6108114eaacc3458294b244c","bdp_wmem","Tue Mar 14 2023 13:46:31 GMT-0400 (Eastern Daylight Time)","759341","Match,No Match","","null","","","","","","<div class='trialBorder'><div class='vertical-center'><img src='img/fixation2_sml.jpg'</img></div></div>","null","DELAY","","","","","","","","","","",""
"html-keyboard-response","88","374323","0.0-7.0-4.10","6108114eaacc3458294b244c","bdp_wmem","Tue Mar 14 2023 13:46:31 GMT-0400 (Eastern Daylight Time)","759341","Match,No Match","","790","","","","","","<div class='trialBorder'><div class='targDiv'><div class='tc'><img class='introPic' src='trustrating_stim/white_mw038.bmp'><br><font color='green'><strong>Share</strong></font></div></div><div class='respDiv'><div class='respDivL'>Match<br>(e)</div><div class='respDivR'>No Match<br>(i)</div></div></div>","i","TARGET","1","trustrating_stim/white_mw038.bmp","0","noMatchOutcome","i","1500","trustrating_stim/white_mw038.bmp","green","Share","REAL","1"
"html-keyboard-response","89","374826","0.0-7.0-5.10","6108114eaacc3458294b244c","bdp_wmem","Tue Mar 14 2023 13:46:31 GMT-0400 (Eastern Daylight Time)","759341","Match,No Match","","null","","","","","","<div class='trialBorder'><div class='vertical-center'><img src='img/correct.jpg'></div><div class='respDiv'><div class='respDivL'>Match<br>(e)</div><div class='respDivR'><font style='color:orange'>No Match<br>(i)</font></div></div></div>","null","FEEDBACK","","","","","","","","","","",""
"html-keyboard-response","90","375331","0.0-7.0-1.11","6108114eaacc3458294b244c","bdp_wmem","Tue Mar 14 2023 13:46:31 GMT-0400 (Eastern Daylight Time)","759341","Match,No Match","","null","","","","","","<div class='trialBorder'><div class='vertical-center'><img src='img/fixation2_sml.jpg'</img></div></div>","null","FIX","","","","","","","","","","",""
"html-keyboard-response","91","376835","0.0-7.0-2.11","6108114eaacc3458294b244c","bdp_wmem","Tue Mar 14 2023 13:46:31 GMT-0400 (Eastern Daylight Time)","759341","Match,No Match","","null","","","","","","<div class='trialBorder'><div class='vertical-center'><img style='vertical-align:center; align:center' src='img/fixation2_sml.jpg'></div><div class='arrayDiv1'><div class='tc'><img class='introPic' src='trustrating_stim/white_mw070.bmp'><br><font color='red'><strong>Keep</strong></font></div></div></div>","null","ARRAY","1","trustrating_stim/white_mw070.bmp","0","noMatchFace","i","1500","","","","",""
"html-keyboard-response","92","380842","0.0-7.0-3.11","6108114eaacc3458294b244c","bdp_wmem","Tue Mar 14 2023 13:46:31 GMT-0400 (Eastern Daylight Time)","759341","Match,No Match","","null","","","","","","<div class='trialBorder'><div class='vertical-center'><img src='img/fixation2_sml.jpg'</img></div></div>","null","DELAY","","","","","","","","","","",""
"html-keyboard-response","93","382443","0.0-7.0-4.11","6108114eaacc3458294b244c","bdp_wmem","Tue Mar 14 2023 13:46:31 GMT-0400 (Eastern Daylight Time)","759341","Match,No Match","","1600","","","","","","<div class='trialBorder'><div class='targDiv'><div class='tc'><img class='introPic' src='trustrating_stim/white_mw091.bmp'><br><font color='red'><strong>Keep</strong></font></div></div><div class='respDiv'><div class='respDivL'>Match<br>(e)</div><div class='respDivR'>No Match<br>(i)</div></div></div>","e","TARGET","1","trustrating_stim/white_mw070.bmp","0","noMatchFace","i","1500","trustrating_stim/white_mw091.bmp","red","Keep","REAL","0"
"html-keyboard-response","94","382948","0.0-7.0-5.11","6108114eaacc3458294b244c","bdp_wmem","Tue Mar 14 2023 13:46:31 GMT-0400 (Eastern Daylight Time)","759341","Match,No Match","","null","","","","","","<div class='trialBorder'><div class='vertical-center'><img src='img/error.jpg'></div><div class='respDiv'><div class='respDivL'><font style='color:orange'>Match<br>(e)</font></div><div class='respDivR'>No Match<br>(i)</div></div></div>","null","FEEDBACK","","","","","","","","","","",""
"html-keyboard-response","95","383449","0.0-7.0-1.12","6108114eaacc3458294b244c","bdp_wmem","Tue Mar 14 2023 13:46:31 GMT-0400 (Eastern Daylight Time)","759341","Match,No Match","","null","","","","","","<div class='trialBorder'><div class='vertical-center'><img src='img/fixation2_sml.jpg'</img></div></div>","null","FIX","","","","","","","","","","",""
"html-keyboard-response","96","384952","0.0-7.0-2.12","6108114eaacc3458294b244c","bdp_wmem","Tue Mar 14 2023 13:46:31 GMT-0400 (Eastern Daylight Time)","759341","Match,No Match","","null","","","","","","<div class='trialBorder'><div class='vertical-center'><img style='vertical-align:center; align:center' src='img/fixation2_sml.jpg'></div><div class='arrayDiv1'><div class='tc'><img class='introPic' src='trustrating_stim/white_mw070.bmp'><br><font color='green'><strong>Share</strong></font></div></div></div>","null","ARRAY","1","trustrating_stim/white_mw070.bmp","1","Match","e","1500","","","","",""
"html-keyboard-response","97","388962","0.0-7.0-3.12","6108114eaacc3458294b244c","bdp_wmem","Tue Mar 14 2023 13:46:31 GMT-0400 (Eastern Daylight Time)","759341","Match,No Match","","null","","","","","","<div class='trialBorder'><div class='vertical-center'><img src='img/fixation2_sml.jpg'</img></div></div>","null","DELAY","","","","","","","","","","",""
"html-keyboard-response","98","390160","0.0-7.0-4.12","6108114eaacc3458294b244c","bdp_wmem","Tue Mar 14 2023 13:46:31 GMT-0400 (Eastern Daylight Time)","759341","Match,No Match","","1197","","","","","","<div class='trialBorder'><div class='targDiv'><div class='tc'><img class='introPic' src='trustrating_stim/white_mw070.bmp'><br><font color='green'><strong>Share</strong></font></div></div><div class='respDiv'><div class='respDivL'>Match<br>(e)</div><div class='respDivR'>No Match<br>(i)</div></div></div>","e","TARGET","1","trustrating_stim/white_mw070.bmp","1","Match","e","1500","trustrating_stim/white_mw070.bmp","green","Share","REAL","1"
"html-keyboard-response","99","390665","0.0-7.0-5.12","6108114eaacc3458294b244c","bdp_wmem","Tue Mar 14 2023 13:46:31 GMT-0400 (Eastern Daylight Time)","759341","Match,No Match","","null","","","","","","<div class='trialBorder'><div class='vertical-center'><img src='img/correct.jpg'></div><div class='respDiv'><div class='respDivL'><font style='color:orange'>Match<br>(e)</font></div><div class='respDivR'>No Match<br>(i)</div></div></div>","null","FEEDBACK","","","","","","","","","","",""
"html-keyboard-response","100","391169","0.0-7.0-1.13","6108114eaacc3458294b244c","bdp_wmem","Tue Mar 14 2023 13:46:31 GMT-0400 (Eastern Daylight Time)","759341","Match,No Match","","null","","","","","","<div class='trialBorder'><div class='vertical-center'><img src='img/fixation2_sml.jpg'</img></div></div>","null","FIX","","","","","","","","","","",""
"html-keyboard-response","101","395674","0.0-7.0-2.13","6108114eaacc3458294b244c","bdp_wmem","Tue Mar 14 2023 13:46:31 GMT-0400 (Eastern Daylight Time)","759341","Match,No Match","","null","","","","","","<div class='trialBorder'><div class='vertical-center'><img style='vertical-align:center; align:center' src='img/fixation2_sml.jpg'></div><div class='arrayDiv3'><div class='tl'><img class='introPic' src='trustrating_stim/white_mw010.bmp'><br><font color='red'><strong>Keep</strong></font></div><div class='tc'><img class='introPic' src='trustrating_stim/white_mw042.bmp'><br><font color='red'><strong>Keep</strong></font></div><div class='tr'><img class='introPic' src='trustrating_stim/white_mw092.bmp'><br><font color='green'><strong>Share</strong></font></div></div></div>","null","ARRAY","3","trustrating_stim/white_mw010.bmp,trustrating_stim/white_mw042.bmp,trustrating_stim/white_mw092.bmp","0,0,1","noMatchOutcome","i","4500","","","","",""
"html-keyboard-response","102","399683","0.0-7.0-3.13","6108114eaacc3458294b244c","bdp_wmem","Tue Mar 14 2023 13:46:31 GMT-0400 (Eastern Daylight Time)","759341","Match,No Match","","null","","","","","","<div class='trialBorder'><div class='vertical-center'><img src='img/fixation2_sml.jpg'</img></div></div>","null","DELAY","","","","","","","","","","",""
"html-keyboard-response","103","401120","0.0-7.0-4.13","6108114eaacc3458294b244c","bdp_wmem","Tue Mar 14 2023 13:46:31 GMT-0400 (Eastern Daylight Time)","759341","Match,No Match","","1436","","","","","","<div class='trialBorder'><div class='targDiv'><div class='tc'><img class='introPic' src='trustrating_stim/white_mw042.bmp'><br><font color='green'><strong>Share</strong></font></div></div><div class='respDiv'><div class='respDivL'>Match<br>(e)</div><div class='respDivR'>No Match<br>(i)</div></div></div>","i","TARGET","3","trustrating_stim/white_mw010.bmp,trustrating_stim/white_mw042.bmp,trustrating_stim/white_mw092.bmp","0,0,1","noMatchOutcome","i","4500","trustrating_stim/white_mw042.bmp","green","Share","REAL","1"
"html-keyboard-response","104","401628","0.0-7.0-5.13","6108114eaacc3458294b244c","bdp_wmem","Tue Mar 14 2023 13:46:31 GMT-0400 (Eastern Daylight Time)","759341","Match,No Match","","null","","","","","","<div class='trialBorder'><div class='vertical-center'><img src='img/correct.jpg'></div><div class='respDiv'><div class='respDivL'>Match<br>(e)</div><div class='respDivR'><font style='color:orange'>No Match<br>(i)</font></div></div></div>","null","FEEDBACK","","","","","","","","","","",""
"html-keyboard-response","105","402139","0.0-7.0-1.14","6108114eaacc3458294b244c","bdp_wmem","Tue Mar 14 2023 13:46:31 GMT-0400 (Eastern Daylight Time)","759341","Match,No Match","","null","","","","","","<div class='trialBorder'><div class='vertical-center'><img src='img/fixation2_sml.jpg'</img></div></div>","null","FIX","","","","","","","","","","",""
"html-keyboard-response","106","406644","0.0-7.0-2.14","6108114eaacc3458294b244c","bdp_wmem","Tue Mar 14 2023 13:46:31 GMT-0400 (Eastern Daylight Time)","759341","Match,No Match","","null","","","","","","<div class='trialBorder'><div class='vertical-center'><img style='vertical-align:center; align:center' src='img/fixation2_sml.jpg'></div><div class='arrayDiv3'><div class='tl'><img class='introPic' src='trustrating_stim/white_mw012.bmp'><br><font color='red'><strong>Keep</strong></font></div><div class='tc'><img class='introPic' src='trustrating_stim/white_mw040.bmp'><br><font color='green'><strong>Share</strong></font></div><div class='tr'><img class='introPic' src='trustrating_stim/white_mw070.bmp'><br><font color='red'><strong>Keep</strong></font></div></div></div>","null","ARRAY","3","trustrating_stim/white_mw012.bmp,trustrating_stim/white_mw040.bmp,trustrating_stim/white_mw070.bmp","0,1,0","Match","e","4500","","","","",""
"html-keyboard-response","107","410649","0.0-7.0-3.14","6108114eaacc3458294b244c","bdp_wmem","Tue Mar 14 2023 13:46:31 GMT-0400 (Eastern Daylight Time)","759341","Match,No Match","","null","","","","","","<div class='trialBorder'><div class='vertical-center'><img src='img/fixation2_sml.jpg'</img></div></div>","null","DELAY","","","","","","","","","","",""
"html-keyboard-response","108","411692","0.0-7.0-4.14","6108114eaacc3458294b244c","bdp_wmem","Tue Mar 14 2023 13:46:31 GMT-0400 (Eastern Daylight Time)","759341","Match,No Match","","1043","","","","","","<div class='trialBorder'><div class='targDiv'><div class='tc'><img class='introPic' src='trustrating_stim/white_mw012.bmp'><br><font color='red'><strong>Keep</strong></font></div></div><div class='respDiv'><div class='respDivL'>Match<br>(e)</div><div class='respDivR'>No Match<br>(i)</div></div></div>","e","TARGET","3","trustrating_stim/white_mw012.bmp,trustrating_stim/white_mw040.bmp,trustrating_stim/white_mw070.bmp","0,1,0","Match","e","4500","trustrating_stim/white_mw012.bmp","red","Keep","REAL","1"
"html-keyboard-response","109","412193","0.0-7.0-5.14","6108114eaacc3458294b244c","bdp_wmem","Tue Mar 14 2023 13:46:31 GMT-0400 (Eastern Daylight Time)","759341","Match,No Match","","null","","","","","","<div class='trialBorder'><div class='vertical-center'><img src='img/correct.jpg'></div><div class='respDiv'><div class='respDivL'><font style='color:orange'>Match<br>(e)</font></div><div class='respDivR'>No Match<br>(i)</div></div></div>","null","FEEDBACK","","","","","","","","","","",""
"html-keyboard-response","110","412698","0.0-7.0-1.15","6108114eaacc3458294b244c","bdp_wmem","Tue Mar 14 2023 13:46:31 GMT-0400 (Eastern Daylight Time)","759341","Match,No Match","","null","","","","","","<div class='trialBorder'><div class='vertical-center'><img src='img/fixation2_sml.jpg'</img></div></div>","null","FIX","","","","","","","","","","",""
"html-keyboard-response","111","414202","0.0-7.0-2.15","6108114eaacc3458294b244c","bdp_wmem","Tue Mar 14 2023 13:46:31 GMT-0400 (Eastern Daylight Time)","759341","Match,No Match","","null","","","","","","<div class='trialBorder'><div class='vertical-center'><img style='vertical-align:center; align:center' src='img/fixation2_sml.jpg'></div><div class='arrayDiv1'><div class='tc'><img class='introPic' src='trustrating_stim/white_mw010.bmp'><br><font color='green'><strong>Share</strong></font></div></div></div>","null","ARRAY","1","trustrating_stim/white_mw010.bmp","1","Match","e","1500","","","","",""
"html-keyboard-response","112","418209","0.0-7.0-3.15","6108114eaacc3458294b244c","bdp_wmem","Tue Mar 14 2023 13:46:31 GMT-0400 (Eastern Daylight Time)","759341","Match,No Match","","null","","","","","","<div class='trialBorder'><div class='vertical-center'><img src='img/fixation2_sml.jpg'</img></div></div>","null","DELAY","","","","","","","","","","",""
"html-keyboard-response","113","418818","0.0-7.0-4.15","6108114eaacc3458294b244c","bdp_wmem","Tue Mar 14 2023 13:46:31 GMT-0400 (Eastern Daylight Time)","759341","Match,No Match","","608","","","","","","<div class='trialBorder'><div class='targDiv'><div class='tc'><img class='introPic' src='trustrating_stim/white_mw010.bmp'><br><font color='green'><strong>Share</strong></font></div></div><div class='respDiv'><div class='respDivL'>Match<br>(e)</div><div class='respDivR'>No Match<br>(i)</div></div></div>","e","TARGET","1","trustrating_stim/white_mw010.bmp","1","Match","e","1500","trustrating_stim/white_mw010.bmp","green","Share","REAL","1"
"html-keyboard-response","114","419322","0.0-7.0-5.15","6108114eaacc3458294b244c","bdp_wmem","Tue Mar 14 2023 13:46:31 GMT-0400 (Eastern Daylight Time)","759341","Match,No Match","","null","","","","","","<div class='trialBorder'><div class='vertical-center'><img src='img/correct.jpg'></div><div class='respDiv'><div class='respDivL'><font style='color:orange'>Match<br>(e)</font></div><div class='respDivR'>No Match<br>(i)</div></div></div>","null","FEEDBACK","","","","","","","","","","",""
"html-keyboard-response","115","419827","0.0-7.0-1.16","6108114eaacc3458294b244c","bdp_wmem","Tue Mar 14 2023 13:46:31 GMT-0400 (Eastern Daylight Time)","759341","Match,No Match","","null","","","","","","<div class='trialBorder'><div class='vertical-center'><img src='img/fixation2_sml.jpg'</img></div></div>","null","FIX","","","","","","","","","","",""
"html-keyboard-response","116","422834","0.0-7.0-2.16","6108114eaacc3458294b244c","bdp_wmem","Tue Mar 14 2023 13:46:31 GMT-0400 (Eastern Daylight Time)","759341","Match,No Match","","null","","","","","","<div class='trialBorder'><div class='vertical-center'><img style='vertical-align:center; align:center' src='img/fixation2_sml.jpg'></div><div class='arrayDiv2'><div class='tl'><img class='introPic' src='trustrating_stim/white_mw070.bmp'><br><font color='green'><strong>Share</strong></font></div><div class='tr'><img class='introPic' src='trustrating_stim/white_mw040.bmp'><br><font color='red'><strong>Keep</strong></font></div></div></div>","null","ARRAY","2","trustrating_stim/white_mw070.bmp,trustrating_stim/white_mw040.bmp","1,0","Match","e","3000","","","","",""
"html-keyboard-response","117","426842","0.0-7.0-3.16","6108114eaacc3458294b244c","bdp_wmem","Tue Mar 14 2023 13:46:31 GMT-0400 (Eastern Daylight Time)","759341","Match,No Match","","null","","","","","","<div class='trialBorder'><div class='vertical-center'><img src='img/fixation2_sml.jpg'</img></div></div>","null","DELAY","","","","","","","","","","",""
"html-keyboard-response","118","427799","0.0-7.0-4.16","6108114eaacc3458294b244c","bdp_wmem","Tue Mar 14 2023 13:46:31 GMT-0400 (Eastern Daylight Time)","759341","Match,No Match","","956","","","","","","<div class='trialBorder'><div class='targDiv'><div class='tc'><img class='introPic' src='trustrating_stim/white_mw040.bmp'><br><font color='red'><strong>Keep</strong></font></div></div><div class='respDiv'><div class='respDivL'>Match<br>(e)</div><div class='respDivR'>No Match<br>(i)</div></div></div>","e","TARGET","2","trustrating_stim/white_mw070.bmp,trustrating_stim/white_mw040.bmp","1,0","Match","e","3000","trustrating_stim/white_mw040.bmp","red","Keep","REAL","1"
"html-keyboard-response","119","428308","0.0-7.0-5.16","6108114eaacc3458294b244c","bdp_wmem","Tue Mar 14 2023 13:46:31 GMT-0400 (Eastern Daylight Time)","759341","Match,No Match","","null","","","","","","<div class='trialBorder'><div class='vertical-center'><img src='img/correct.jpg'></div><div class='respDiv'><div class='respDivL'><font style='color:orange'>Match<br>(e)</font></div><div class='respDivR'>No Match<br>(i)</div></div></div>","null","FEEDBACK","","","","","","","","","","",""
"html-keyboard-response","120","428819","0.0-7.0-1.17","6108114eaacc3458294b244c","bdp_wmem","Tue Mar 14 2023 13:46:31 GMT-0400 (Eastern Daylight Time)","759341","Match,No Match","","null","","","","","","<div class='trialBorder'><div class='vertical-center'><img src='img/fixation2_sml.jpg'</img></div></div>","null","FIX","","","","","","","","","","",""
"html-keyboard-response","121","431826","0.0-7.0-2.17","6108114eaacc3458294b244c","bdp_wmem","Tue Mar 14 2023 13:46:31 GMT-0400 (Eastern Daylight Time)","759341","Match,No Match","","null","","","","","","<div class='trialBorder'><div class='vertical-center'><img style='vertical-align:center; align:center' src='img/fixation2_sml.jpg'></div><div class='arrayDiv2'><div class='tl'><img class='introPic' src='trustrating_stim/white_mw003.bmp'><br><font color='green'><strong>Share</strong></font></div><div class='tr'><img class='introPic' src='trustrating_stim/white_mw013.bmp'><br><font color='red'><strong>Keep</strong></font></div></div></div>","null","ARRAY","2","trustrating_stim/white_mw003.bmp,trustrating_stim/white_mw013.bmp","1,0","noMatchFace","i","3000","","","","",""
"html-keyboard-response","122","435834","0.0-7.0-3.17","6108114eaacc3458294b244c","bdp_wmem","Tue Mar 14 2023 13:46:31 GMT-0400 (Eastern Daylight Time)","759341","Match,No Match","","null","","","","","","<div class='trialBorder'><div class='vertical-center'><img src='img/fixation2_sml.jpg'</img></div></div>","null","DELAY","","","","","","","","","","",""
"html-keyboard-response","123","436625","0.0-7.0-4.17","6108114eaacc3458294b244c","bdp_wmem","Tue Mar 14 2023 13:46:31 GMT-0400 (Eastern Daylight Time)","759341","Match,No Match","","790","","","","","","<div class='trialBorder'><div class='targDiv'><div class='tc'><img class='introPic' src='trustrating_stim/white_mw078.bmp'><br><font color='green'><strong>Share</strong></font></div></div><div class='respDiv'><div class='respDivL'>Match<br>(e)</div><div class='respDivR'>No Match<br>(i)</div></div></div>","e","TARGET","2","trustrating_stim/white_mw003.bmp,trustrating_stim/white_mw013.bmp","1,0","noMatchFace","i","3000","trustrating_stim/white_mw078.bmp","green","Share","REAL","0"
"html-keyboard-response","124","437131","0.0-7.0-5.17","6108114eaacc3458294b244c","bdp_wmem","Tue Mar 14 2023 13:46:31 GMT-0400 (Eastern Daylight Time)","759341","Match,No Match","","null","","","","","","<div class='trialBorder'><div class='vertical-center'><img src='img/error.jpg'></div><div class='respDiv'><div class='respDivL'><font style='color:orange'>Match<br>(e)</font></div><div class='respDivR'>No Match<br>(i)</div></div></div>","null","FEEDBACK","","","","","","","","","","",""
"html-keyboard-response","125","437637","0.0-7.0-1.18","6108114eaacc3458294b244c","bdp_wmem","Tue Mar 14 2023 13:46:31 GMT-0400 (Eastern Daylight Time)","759341","Match,No Match","","null","","","","","","<div class='trialBorder'><div class='vertical-center'><img src='img/fixation2_sml.jpg'</img></div></div>","null","FIX","","","","","","","","","","",""
"html-keyboard-response","126","440644","0.0-7.0-2.18","6108114eaacc3458294b244c","bdp_wmem","Tue Mar 14 2023 13:46:31 GMT-0400 (Eastern Daylight Time)","759341","Match,No Match","","null","","","","","","<div class='trialBorder'><div class='vertical-center'><img style='vertical-align:center; align:center' src='img/fixation2_sml.jpg'></div><div class='arrayDiv2'><div class='tl'><img class='introPic' src='trustrating_stim/white_mw038.bmp'><br><font color='red'><strong>Keep</strong></font></div><div class='tr'><img class='introPic' src='trustrating_stim/white_mw003.bmp'><br><font color='green'><strong>Share</strong></font></div></div></div>","null","ARRAY","2","trustrating_stim/white_mw038.bmp,trustrating_stim/white_mw003.bmp","0,1","Match","e","3000","","","","",""
"html-keyboard-response","127","444649","0.0-7.0-3.18","6108114eaacc3458294b244c","bdp_wmem","Tue Mar 14 2023 13:46:31 GMT-0400 (Eastern Daylight Time)","759341","Match,No Match","","null","","","","","","<div class='trialBorder'><div class='vertical-center'><img src='img/fixation2_sml.jpg'</img></div></div>","null","DELAY","","","","","","","","","","",""
"html-keyboard-response","128","445638","0.0-7.0-4.18","6108114eaacc3458294b244c","bdp_wmem","Tue Mar 14 2023 13:46:31 GMT-0400 (Eastern Daylight Time)","759341","Match,No Match","","988","","","","","","<div class='trialBorder'><div class='targDiv'><div class='tc'><img class='introPic' src='trustrating_stim/white_mw038.bmp'><br><font color='red'><strong>Keep</strong></font></div></div><div class='respDiv'><div class='respDivL'>Match<br>(e)</div><div class='respDivR'>No Match<br>(i)</div></div></div>","e","TARGET","2","trustrating_stim/white_mw038.bmp,trustrating_stim/white_mw003.bmp","0,1","Match","e","3000","trustrating_stim/white_mw038.bmp","red","Keep","REAL","1"
"html-keyboard-response","129","446147","0.0-7.0-5.18","6108114eaacc3458294b244c","bdp_wmem","Tue Mar 14 2023 13:46:31 GMT-0400 (Eastern Daylight Time)","759341","Match,No Match","","null","","","","","","<div class='trialBorder'><div class='vertical-center'><img src='img/correct.jpg'></div><div class='respDiv'><div class='respDivL'><font style='color:orange'>Match<br>(e)</font></div><div class='respDivR'>No Match<br>(i)</div></div></div>","null","FEEDBACK","","","","","","","","","","",""
"html-keyboard-response","130","446652","0.0-7.0-1.19","6108114eaacc3458294b244c","bdp_wmem","Tue Mar 14 2023 13:46:31 GMT-0400 (Eastern Daylight Time)","759341","Match,No Match","","null","","","","","","<div class='trialBorder'><div class='vertical-center'><img src='img/fixation2_sml.jpg'</img></div></div>","null","FIX","","","","","","","","","","",""
"html-keyboard-response","131","449659","0.0-7.0-2.19","6108114eaacc3458294b244c","bdp_wmem","Tue Mar 14 2023 13:46:31 GMT-0400 (Eastern Daylight Time)","759341","Match,No Match","","null","","","","","","<div class='trialBorder'><div class='vertical-center'><img style='vertical-align:center; align:center' src='img/fixation2_sml.jpg'></div><div class='arrayDiv2'><div class='tl'><img class='introPic' src='trustrating_stim/white_mw040.bmp'><br><font color='red'><strong>Keep</strong></font></div><div class='tr'><img class='introPic' src='trustrating_stim/white_mw013.bmp'><br><font color='green'><strong>Share</strong></font></div></div></div>","null","ARRAY","2","trustrating_stim/white_mw040.bmp,trustrating_stim/white_mw013.bmp","0,1","Match","e","3000","","","","",""
"html-keyboard-response","132","453667","0.0-7.0-3.19","6108114eaacc3458294b244c","bdp_wmem","Tue Mar 14 2023 13:46:31 GMT-0400 (Eastern Daylight Time)","759341","Match,No Match","","null","","","","","","<div class='trialBorder'><div class='vertical-center'><img src='img/fixation2_sml.jpg'</img></div></div>","null","DELAY","","","","","","","","","","",""
"html-keyboard-response","133","454494","0.0-7.0-4.19","6108114eaacc3458294b244c","bdp_wmem","Tue Mar 14 2023 13:46:31 GMT-0400 (Eastern Daylight Time)","759341","Match,No Match","","827","","","","","","<div class='trialBorder'><div class='targDiv'><div class='tc'><img class='introPic' src='trustrating_stim/white_mw013.bmp'><br><font color='green'><strong>Share</strong></font></div></div><div class='respDiv'><div class='respDivL'>Match<br>(e)</div><div class='respDivR'>No Match<br>(i)</div></div></div>","e","TARGET","2","trustrating_stim/white_mw040.bmp,trustrating_stim/white_mw013.bmp","0,1","Match","e","3000","trustrating_stim/white_mw013.bmp","green","Share","REAL","1"
"html-keyboard-response","134","455002","0.0-7.0-5.19","6108114eaacc3458294b244c","bdp_wmem","Tue Mar 14 2023 13:46:31 GMT-0400 (Eastern Daylight Time)","759341","Match,No Match","","null","","","","","","<div class='trialBorder'><div class='vertical-center'><img src='img/correct.jpg'></div><div class='respDiv'><div class='respDivL'><font style='color:orange'>Match<br>(e)</font></div><div class='respDivR'>No Match<br>(i)</div></div></div>","null","FEEDBACK","","","","","","","","","","",""
"html-keyboard-response","135","455506","0.0-7.0-1.20","6108114eaacc3458294b244c","bdp_wmem","Tue Mar 14 2023 13:46:31 GMT-0400 (Eastern Daylight Time)","759341","Match,No Match","","null","","","","","","<div class='trialBorder'><div class='vertical-center'><img src='img/fixation2_sml.jpg'</img></div></div>","null","FIX","","","","","","","","","","",""
"html-keyboard-response","136","457010","0.0-7.0-2.20","6108114eaacc3458294b244c","bdp_wmem","Tue Mar 14 2023 13:46:31 GMT-0400 (Eastern Daylight Time)","759341","Match,No Match","","null","","","","","","<div class='trialBorder'><div class='vertical-center'><img style='vertical-align:center; align:center' src='img/fixation2_sml.jpg'></div><div class='arrayDiv1'><div class='tc'><img class='introPic' src='trustrating_stim/white_mw013.bmp'><br><font color='red'><strong>Keep</strong></font></div></div></div>","null","ARRAY","1","trustrating_stim/white_mw013.bmp","0","Match","e","1500","","","","",""
"html-keyboard-response","137","461020","0.0-7.0-3.20","6108114eaacc3458294b244c","bdp_wmem","Tue Mar 14 2023 13:46:31 GMT-0400 (Eastern Daylight Time)","759341","Match,No Match","","null","","","","","","<div class='trialBorder'><div class='vertical-center'><img src='img/fixation2_sml.jpg'</img></div></div>","null","DELAY","","","","","","","","","","",""
"html-keyboard-response","138","502961","0.0-7.0-4.20","6108114eaacc3458294b244c","bdp_wmem","Tue Mar 14 2023 13:46:31 GMT-0400 (Eastern Daylight Time)","759341","Match,No Match","","41940","","","","","","<div class='trialBorder'><div class='targDiv'><div class='tc'><img class='introPic' src='trustrating_stim/white_mw013.bmp'><br><font color='red'><strong>Keep</strong></font></div></div><div class='respDiv'><div class='respDivL'>Match<br>(e)</div><div class='respDivR'>No Match<br>(i)</div></div></div>","e","TARGET","1","trustrating_stim/white_mw013.bmp","0","Match","e","1500","trustrating_stim/white_mw013.bmp","red","Keep","REAL","1"
"html-keyboard-response","139","503466","0.0-7.0-5.20","6108114eaacc3458294b244c","bdp_wmem","Tue Mar 14 2023 13:46:31 GMT-0400 (Eastern Daylight Time)","759341","Match,No Match","","null","","","","","","<div class='trialBorder'><div class='vertical-center'><img src='img/correct.jpg'></div><div class='respDiv'><div class='respDivL'><font style='color:orange'>Match<br>(e)</font></div><div class='respDivR'>No Match<br>(i)</div></div></div>","null","FEEDBACK","","","","","","","","","","",""
"html-keyboard-response","140","503971","0.0-7.0-1.21","6108114eaacc3458294b244c","bdp_wmem","Tue Mar 14 2023 13:46:31 GMT-0400 (Eastern Daylight Time)","759341","Match,No Match","","null","","","","","","<div class='trialBorder'><div class='vertical-center'><img src='img/fixation2_sml.jpg'</img></div></div>","null","FIX","","","","","","","","","","",""
"html-keyboard-response","141","508476","0.0-7.0-2.21","6108114eaacc3458294b244c","bdp_wmem","Tue Mar 14 2023 13:46:31 GMT-0400 (Eastern Daylight Time)","759341","Match,No Match","","null","","","","","","<div class='trialBorder'><div class='vertical-center'><img style='vertical-align:center; align:center' src='img/fixation2_sml.jpg'></div><div class='arrayDiv3'><div class='tl'><img class='introPic' src='trustrating_stim/white_mw091.bmp'><br><font color='green'><strong>Share</strong></font></div><div class='tc'><img class='introPic' src='trustrating_stim/white_mw038.bmp'><br><font color='red'><strong>Keep</strong></font></div><div class='tr'><img class='introPic' src='trustrating_stim/white_mw010.bmp'><br><font color='red'><strong>Keep</strong></font></div></div></div>","null","ARRAY","3","trustrating_stim/white_mw091.bmp,trustrating_stim/white_mw038.bmp,trustrating_stim/white_mw010.bmp","1,0,0","Match","e","4500","","","","",""
"html-keyboard-response","142","512483","0.0-7.0-3.21","6108114eaacc3458294b244c","bdp_wmem","Tue Mar 14 2023 13:46:31 GMT-0400 (Eastern Daylight Time)","759341","Match,No Match","","null","","","","","","<div class='trialBorder'><div class='vertical-center'><img src='img/fixation2_sml.jpg'</img></div></div>","null","DELAY","","","","","","","","","","",""
"html-keyboard-response","143","514045","0.0-7.0-4.21","6108114eaacc3458294b244c","bdp_wmem","Tue Mar 14 2023 13:46:31 GMT-0400 (Eastern Daylight Time)","759341","Match,No Match","","1561","","","","","","<div class='trialBorder'><div class='targDiv'><div class='tc'><img class='introPic' src='trustrating_stim/white_mw091.bmp'><br><font color='green'><strong>Share</strong></font></div></div><div class='respDiv'><div class='respDivL'>Match<br>(e)</div><div class='respDivR'>No Match<br>(i)</div></div></div>","e","TARGET","3","trustrating_stim/white_mw091.bmp,trustrating_stim/white_mw038.bmp,trustrating_stim/white_mw010.bmp","1,0,0","Match","e","4500","trustrating_stim/white_mw091.bmp","green","Share","REAL","1"
"html-keyboard-response","144","514548","0.0-7.0-5.21","6108114eaacc3458294b244c","bdp_wmem","Tue Mar 14 2023 13:46:31 GMT-0400 (Eastern Daylight Time)","759341","Match,No Match","","null","","","","","","<div class='trialBorder'><div class='vertical-center'><img src='img/correct.jpg'></div><div class='respDiv'><div class='respDivL'><font style='color:orange'>Match<br>(e)</font></div><div class='respDivR'>No Match<br>(i)</div></div></div>","null","FEEDBACK","","","","","","","","","","",""
"html-keyboard-response","145","515053","0.0-7.0-1.22","6108114eaacc3458294b244c","bdp_wmem","Tue Mar 14 2023 13:46:31 GMT-0400 (Eastern Daylight Time)","759341","Match,No Match","","null","","","","","","<div class='trialBorder'><div class='vertical-center'><img src='img/fixation2_sml.jpg'</img></div></div>","null","FIX","","","","","","","","","","",""
"html-keyboard-response","146","518060","0.0-7.0-2.22","6108114eaacc3458294b244c","bdp_wmem","Tue Mar 14 2023 13:46:31 GMT-0400 (Eastern Daylight Time)","759341","Match,No Match","","null","","","","","","<div class='trialBorder'><div class='vertical-center'><img style='vertical-align:center; align:center' src='img/fixation2_sml.jpg'></div><div class='arrayDiv2'><div class='tl'><img class='introPic' src='trustrating_stim/white_mw042.bmp'><br><font color='green'><strong>Share</strong></font></div><div class='tr'><img class='introPic' src='trustrating_stim/white_mw078.bmp'><br><font color='red'><strong>Keep</strong></font></div></div></div>","null","ARRAY","2","trustrating_stim/white_mw042.bmp,trustrating_stim/white_mw078.bmp","1,0","noMatchFace","i","3000","","","","",""
"html-keyboard-response","147","522067","0.0-7.0-3.22","6108114eaacc3458294b244c","bdp_wmem","Tue Mar 14 2023 13:46:31 GMT-0400 (Eastern Daylight Time)","759341","Match,No Match","","null","","","","","","<div class='trialBorder'><div class='vertical-center'><img src='img/fixation2_sml.jpg'</img></div></div>","null","DELAY","","","","","","","","","","",""
"html-keyboard-response","148","522922","0.0-7.0-4.22","6108114eaacc3458294b244c","bdp_wmem","Tue Mar 14 2023 13:46:31 GMT-0400 (Eastern Daylight Time)","759341","Match,No Match","","854","","","","","","<div class='trialBorder'><div class='targDiv'><div class='tc'><img class='introPic' src='trustrating_stim/white_mw010.bmp'><br><font color='red'><strong>Keep</strong></font></div></div><div class='respDiv'><div class='respDivL'>Match<br>(e)</div><div class='respDivR'>No Match<br>(i)</div></div></div>","i","TARGET","2","trustrating_stim/white_mw042.bmp,trustrating_stim/white_mw078.bmp","1,0","noMatchFace","i","3000","trustrating_stim/white_mw010.bmp","red","Keep","REAL","1"
"html-keyboard-response","149","523426","0.0-7.0-5.22","6108114eaacc3458294b244c","bdp_wmem","Tue Mar 14 2023 13:46:31 GMT-0400 (Eastern Daylight Time)","759341","Match,No Match","","null","","","","","","<div class='trialBorder'><div class='vertical-center'><img src='img/correct.jpg'></div><div class='respDiv'><div class='respDivL'>Match<br>(e)</div><div class='respDivR'><font style='color:orange'>No Match<br>(i)</font></div></div></div>","null","FEEDBACK","","","","","","","","","","",""
"html-keyboard-response","150","523930","0.0-7.0-1.23","6108114eaacc3458294b244c","bdp_wmem","Tue Mar 14 2023 13:46:31 GMT-0400 (Eastern Daylight Time)","759341","Match,No Match","","null","","","","","","<div class='trialBorder'><div class='vertical-center'><img src='img/fixation2_sml.jpg'</img></div></div>","null","FIX","","","","","","","","","","",""
"html-keyboard-response","151","528435","0.0-7.0-2.23","6108114eaacc3458294b244c","bdp_wmem","Tue Mar 14 2023 13:46:31 GMT-0400 (Eastern Daylight Time)","759341","Match,No Match","","null","","","","","","<div class='trialBorder'><div class='vertical-center'><img style='vertical-align:center; align:center' src='img/fixation2_sml.jpg'></div><div class='arrayDiv3'><div class='tl'><img class='introPic' src='trustrating_stim/white_mw038.bmp'><br><font color='green'><strong>Share</strong></font></div><div class='tc'><img class='introPic' src='trustrating_stim/white_mw091.bmp'><br><font color='green'><strong>Share</strong></font></div><div class='tr'><img class='introPic' src='trustrating_stim/white_mw085.bmp'><br><font color='red'><strong>Keep</strong></font></div></div></div>","null","ARRAY","3","trustrating_stim/white_mw038.bmp,trustrating_stim/white_mw091.bmp,trustrating_stim/white_mw085.bmp","1,1,0","noMatchOutcome","i","4500","","","","",""
"html-keyboard-response","152","532445","0.0-7.0-3.23","6108114eaacc3458294b244c","bdp_wmem","Tue Mar 14 2023 13:46:31 GMT-0400 (Eastern Daylight Time)","759341","Match,No Match","","null","","","","","","<div class='trialBorder'><div class='vertical-center'><img src='img/fixation2_sml.jpg'</img></div></div>","null","DELAY","","","","","","","","","","",""
"html-keyboard-response","153","533270","0.0-7.0-4.23","6108114eaacc3458294b244c","bdp_wmem","Tue Mar 14 2023 13:46:31 GMT-0400 (Eastern Daylight Time)","759341","Match,No Match","","824","","","","","","<div class='trialBorder'><div class='targDiv'><div class='tc'><img class='introPic' src='trustrating_stim/white_mw038.bmp'><br><font color='red'><strong>Keep</strong></font></div></div><div class='respDiv'><div class='respDivL'>Match<br>(e)</div><div class='respDivR'>No Match<br>(i)</div></div></div>","e","TARGET","3","trustrating_stim/white_mw038.bmp,trustrating_stim/white_mw091.bmp,trustrating_stim/white_mw085.bmp","1,1,0","noMatchOutcome","i","4500","trustrating_stim/white_mw038.bmp","red","Keep","REAL","0"
"html-keyboard-response","154","533780","0.0-7.0-5.23","6108114eaacc3458294b244c","bdp_wmem","Tue Mar 14 2023 13:46:31 GMT-0400 (Eastern Daylight Time)","759341","Match,No Match","","null","","","","","","<div class='trialBorder'><div class='vertical-center'><img src='img/error.jpg'></div><div class='respDiv'><div class='respDivL'><font style='color:orange'>Match<br>(e)</font></div><div class='respDivR'>No Match<br>(i)</div></div></div>","null","FEEDBACK","","","","","","","","","","",""
"html-keyboard-response","155","534285","0.0-7.0-1.24","6108114eaacc3458294b244c","bdp_wmem","Tue Mar 14 2023 13:46:31 GMT-0400 (Eastern Daylight Time)","759341","Match,No Match","","null","","","","","","<div class='trialBorder'><div class='vertical-center'><img src='img/fixation2_sml.jpg'</img></div></div>","null","FIX","","","","","","","","","","",""
"html-keyboard-response","156","537292","0.0-7.0-2.24","6108114eaacc3458294b244c","bdp_wmem","Tue Mar 14 2023 13:46:31 GMT-0400 (Eastern Daylight Time)","759341","Match,No Match","","null","","","","","","<div class='trialBorder'><div class='vertical-center'><img style='vertical-align:center; align:center' src='img/fixation2_sml.jpg'></div><div class='arrayDiv2'><div class='tl'><img class='introPic' src='trustrating_stim/white_mw040.bmp'><br><font color='green'><strong>Share</strong></font></div><div class='tr'><img class='introPic' src='trustrating_stim/white_mw013.bmp'><br><font color='red'><strong>Keep</strong></font></div></div></div>","null","ARRAY","2","trustrating_stim/white_mw040.bmp,trustrating_stim/white_mw013.bmp","1,0","noMatchOutcome","i","3000","","","","",""
"html-keyboard-response","157","541299","0.0-7.0-3.24","6108114eaacc3458294b244c","bdp_wmem","Tue Mar 14 2023 13:46:31 GMT-0400 (Eastern Daylight Time)","759341","Match,No Match","","null","","","","","","<div class='trialBorder'><div class='vertical-center'><img src='img/fixation2_sml.jpg'</img></div></div>","null","DELAY","","","","","","","","","","",""
"html-keyboard-response","158","542013","0.0-7.0-4.24","6108114eaacc3458294b244c","bdp_wmem","Tue Mar 14 2023 13:46:31 GMT-0400 (Eastern Daylight Time)","759341","Match,No Match","","713","","","","","","<div class='trialBorder'><div class='targDiv'><div class='tc'><img class='introPic' src='trustrating_stim/white_mw013.bmp'><br><font color='green'><strong>Share</strong></font></div></div><div class='respDiv'><div class='respDivL'>Match<br>(e)</div><div class='respDivR'>No Match<br>(i)</div></div></div>","i","TARGET","2","trustrating_stim/white_mw040.bmp,trustrating_stim/white_mw013.bmp","1,0","noMatchOutcome","i","3000","trustrating_stim/white_mw013.bmp","green","Share","REAL","1"
"html-keyboard-response","159","542516","0.0-7.0-5.24","6108114eaacc3458294b244c","bdp_wmem","Tue Mar 14 2023 13:46:31 GMT-0400 (Eastern Daylight Time)","759341","Match,No Match","","null","","","","","","<div class='trialBorder'><div class='vertical-center'><img src='img/correct.jpg'></div><div class='respDiv'><div class='respDivL'>Match<br>(e)</div><div class='respDivR'><font style='color:orange'>No Match<br>(i)</font></div></div></div>","null","FEEDBACK","","","","","","","","","","",""
"html-keyboard-response","160","543018","0.0-7.0-1.25","6108114eaacc3458294b244c","bdp_wmem","Tue Mar 14 2023 13:46:31 GMT-0400 (Eastern Daylight Time)","759341","Match,No Match","","null","","","","","","<div class='trialBorder'><div class='vertical-center'><img src='img/fixation2_sml.jpg'</img></div></div>","null","FIX","","","","","","","","","","",""
"html-keyboard-response","161","547526","0.0-7.0-2.25","6108114eaacc3458294b244c","bdp_wmem","Tue Mar 14 2023 13:46:31 GMT-0400 (Eastern Daylight Time)","759341","Match,No Match","","null","","","","","","<div class='trialBorder'><div class='vertical-center'><img style='vertical-align:center; align:center' src='img/fixation2_sml.jpg'></div><div class='arrayDiv3'><div class='tl'><img class='introPic' src='trustrating_stim/white_mw012.bmp'><br><font color='red'><strong>Keep</strong></font></div><div class='tc'><img class='introPic' src='trustrating_stim/white_mw003.bmp'><br><font color='green'><strong>Share</strong></font></div><div class='tr'><img class='introPic' src='trustrating_stim/white_mw091.bmp'><br><font color='green'><strong>Share</strong></font></div></div></div>","null","ARRAY","3","trustrating_stim/white_mw012.bmp,trustrating_stim/white_mw003.bmp,trustrating_stim/white_mw091.bmp","0,1,1","Match","e","4500","","","","",""
"html-keyboard-response","162","551531","0.0-7.0-3.25","6108114eaacc3458294b244c","bdp_wmem","Tue Mar 14 2023 13:46:31 GMT-0400 (Eastern Daylight Time)","759341","Match,No Match","","null","","","","","","<div class='trialBorder'><div class='vertical-center'><img src='img/fixation2_sml.jpg'</img></div></div>","null","DELAY","","","","","","","","","","",""
"html-keyboard-response","163","552870","0.0-7.0-4.25","6108114eaacc3458294b244c","bdp_wmem","Tue Mar 14 2023 13:46:31 GMT-0400 (Eastern Daylight Time)","759341","Match,No Match","","1338","","","","","","<div class='trialBorder'><div class='targDiv'><div class='tc'><img class='introPic' src='trustrating_stim/white_mw003.bmp'><br><font color='green'><strong>Share</strong></font></div></div><div class='respDiv'><div class='respDivL'>Match<br>(e)</div><div class='respDivR'>No Match<br>(i)</div></div></div>","e","TARGET","3","trustrating_stim/white_mw012.bmp,trustrating_stim/white_mw003.bmp,trustrating_stim/white_mw091.bmp","0,1,1","Match","e","4500","trustrating_stim/white_mw003.bmp","green","Share","REAL","1"
"html-keyboard-response","164","553379","0.0-7.0-5.25","6108114eaacc3458294b244c","bdp_wmem","Tue Mar 14 2023 13:46:31 GMT-0400 (Eastern Daylight Time)","759341","Match,No Match","","null","","","","","","<div class='trialBorder'><div class='vertical-center'><img src='img/correct.jpg'></div><div class='respDiv'><div class='respDivL'><font style='color:orange'>Match<br>(e)</font></div><div class='respDivR'>No Match<br>(i)</div></div></div>","null","FEEDBACK","","","","","","","","","","",""
"html-keyboard-response","165","553883","0.0-7.0-1.26","6108114eaacc3458294b244c","bdp_wmem","Tue Mar 14 2023 13:46:31 GMT-0400 (Eastern Daylight Time)","759341","Match,No Match","","null","","","","","","<div class='trialBorder'><div class='vertical-center'><img src='img/fixation2_sml.jpg'</img></div></div>","null","FIX","","","","","","","","","","",""
"html-keyboard-response","166","556891","0.0-7.0-2.26","6108114eaacc3458294b244c","bdp_wmem","Tue Mar 14 2023 13:46:31 GMT-0400 (Eastern Daylight Time)","759341","Match,No Match","","null","","","","","","<div class='trialBorder'><div class='vertical-center'><img style='vertical-align:center; align:center' src='img/fixation2_sml.jpg'></div><div class='arrayDiv2'><div class='tl'><img class='introPic' src='trustrating_stim/white_mw085.bmp'><br><font color='green'><strong>Share</strong></font></div><div class='tr'><img class='introPic' src='trustrating_stim/white_mw040.bmp'><br><font color='red'><strong>Keep</strong></font></div></div></div>","null","ARRAY","2","trustrating_stim/white_mw085.bmp,trustrating_stim/white_mw040.bmp","1,0","Match","e","3000","","","","",""
"html-keyboard-response","167","560901","0.0-7.0-3.26","6108114eaacc3458294b244c","bdp_wmem","Tue Mar 14 2023 13:46:31 GMT-0400 (Eastern Daylight Time)","759341","Match,No Match","","null","","","","","","<div class='trialBorder'><div class='vertical-center'><img src='img/fixation2_sml.jpg'</img></div></div>","null","DELAY","","","","","","","","","","",""
"html-keyboard-response","168","561913","0.0-7.0-4.26","6108114eaacc3458294b244c","bdp_wmem","Tue Mar 14 2023 13:46:31 GMT-0400 (Eastern Daylight Time)","759341","Match,No Match","","1011","","","","","","<div class='trialBorder'><div class='targDiv'><div class='tc'><img class='introPic' src='trustrating_stim/white_mw085.bmp'><br><font color='green'><strong>Share</strong></font></div></div><div class='respDiv'><div class='respDivL'>Match<br>(e)</div><div class='respDivR'>No Match<br>(i)</div></div></div>","e","TARGET","2","trustrating_stim/white_mw085.bmp,trustrating_stim/white_mw040.bmp","1,0","Match","e","3000","trustrating_stim/white_mw085.bmp","green","Share","REAL","1"
"html-keyboard-response","169","562418","0.0-7.0-5.26","6108114eaacc3458294b244c","bdp_wmem","Tue Mar 14 2023 13:46:31 GMT-0400 (Eastern Daylight Time)","759341","Match,No Match","","null","","","","","","<div class='trialBorder'><div class='vertical-center'><img src='img/correct.jpg'></div><div class='respDiv'><div class='respDivL'><font style='color:orange'>Match<br>(e)</font></div><div class='respDivR'>No Match<br>(i)</div></div></div>","null","FEEDBACK","","","","","","","","","","",""
"html-keyboard-response","170","562922","0.0-7.0-1.27","6108114eaacc3458294b244c","bdp_wmem","Tue Mar 14 2023 13:46:31 GMT-0400 (Eastern Daylight Time)","759341","Match,No Match","","null","","","","","","<div class='trialBorder'><div class='vertical-center'><img src='img/fixation2_sml.jpg'</img></div></div>","null","FIX","","","","","","","","","","",""
"html-keyboard-response","171","564427","0.0-7.0-2.27","6108114eaacc3458294b244c","bdp_wmem","Tue Mar 14 2023 13:46:31 GMT-0400 (Eastern Daylight Time)","759341","Match,No Match","","null","","","","","","<div class='trialBorder'><div class='vertical-center'><img style='vertical-align:center; align:center' src='img/fixation2_sml.jpg'></div><div class='arrayDiv1'><div class='tc'><img class='introPic' src='trustrating_stim/white_mw013.bmp'><br><font color='red'><strong>Keep</strong></font></div></div></div>","null","ARRAY","1","trustrating_stim/white_mw013.bmp","0","noMatchOutcome","i","1500","","","","",""
"html-keyboard-response","172","568436","0.0-7.0-3.27","6108114eaacc3458294b244c","bdp_wmem","Tue Mar 14 2023 13:46:31 GMT-0400 (Eastern Daylight Time)","759341","Match,No Match","","null","","","","","","<div class='trialBorder'><div class='vertical-center'><img src='img/fixation2_sml.jpg'</img></div></div>","null","DELAY","","","","","","","","","","",""
"html-keyboard-response","173","573429","0.0-7.0-4.27","6108114eaacc3458294b244c","bdp_wmem","Tue Mar 14 2023 13:46:31 GMT-0400 (Eastern Daylight Time)","759341","Match,No Match","","4992","","","","","","<div class='trialBorder'><div class='targDiv'><div class='tc'><img class='introPic' src='trustrating_stim/white_mw013.bmp'><br><font color='green'><strong>Share</strong></font></div></div><div class='respDiv'><div class='respDivL'>Match<br>(e)</div><div class='respDivR'>No Match<br>(i)</div></div></div>","e","TARGET","1","trustrating_stim/white_mw013.bmp","0","noMatchOutcome","i","1500","trustrating_stim/white_mw013.bmp","green","Share","REAL","0"
"html-keyboard-response","174","573933","0.0-7.0-5.27","6108114eaacc3458294b244c","bdp_wmem","Tue Mar 14 2023 13:46:31 GMT-0400 (Eastern Daylight Time)","759341","Match,No Match","","null","","","","","","<div class='trialBorder'><div class='vertical-center'><img src='img/error.jpg'></div><div class='respDiv'><div class='respDivL'><font style='color:orange'>Match<br>(e)</font></div><div class='respDivR'>No Match<br>(i)</div></div></div>","null","FEEDBACK","","","","","","","","","","",""
"html-keyboard-response","175","574435","0.0-7.0-1.28","6108114eaacc3458294b244c","bdp_wmem","Tue Mar 14 2023 13:46:31 GMT-0400 (Eastern Daylight Time)","759341","Match,No Match","","null","","","","","","<div class='trialBorder'><div class='vertical-center'><img src='img/fixation2_sml.jpg'</img></div></div>","null","FIX","","","","","","","","","","",""
"html-keyboard-response","176","578943","0.0-7.0-2.28","6108114eaacc3458294b244c","bdp_wmem","Tue Mar 14 2023 13:46:31 GMT-0400 (Eastern Daylight Time)","759341","Match,No Match","","null","","","","","","<div class='trialBorder'><div class='vertical-center'><img style='vertical-align:center; align:center' src='img/fixation2_sml.jpg'></div><div class='arrayDiv3'><div class='tl'><img class='introPic' src='trustrating_stim/white_mw085.bmp'><br><font color='green'><strong>Share</strong></font></div><div class='tc'><img class='introPic' src='trustrating_stim/white_mw042.bmp'><br><font color='green'><strong>Share</strong></font></div><div class='tr'><img class='introPic' src='trustrating_stim/white_mw040.bmp'><br><font color='red'><strong>Keep</strong></font></div></div></div>","null","ARRAY","3","trustrating_stim/white_mw085.bmp,trustrating_stim/white_mw042.bmp,trustrating_stim/white_mw040.bmp","1,1,0","noMatchOutcome","i","4500","","","","",""
"html-keyboard-response","177","582949","0.0-7.0-3.28","6108114eaacc3458294b244c","bdp_wmem","Tue Mar 14 2023 13:46:31 GMT-0400 (Eastern Daylight Time)","759341","Match,No Match","","null","","","","","","<div class='trialBorder'><div class='vertical-center'><img src='img/fixation2_sml.jpg'</img></div></div>","null","DELAY","","","","","","","","","","",""
"html-keyboard-response","178","584440","0.0-7.0-4.28","6108114eaacc3458294b244c","bdp_wmem","Tue Mar 14 2023 13:46:31 GMT-0400 (Eastern Daylight Time)","759341","Match,No Match","","1490","","","","","","<div class='trialBorder'><div class='targDiv'><div class='tc'><img class='introPic' src='trustrating_stim/white_mw042.bmp'><br><font color='red'><strong>Keep</strong></font></div></div><div class='respDiv'><div class='respDivL'>Match<br>(e)</div><div class='respDivR'>No Match<br>(i)</div></div></div>","e","TARGET","3","trustrating_stim/white_mw085.bmp,trustrating_stim/white_mw042.bmp,trustrating_stim/white_mw040.bmp","1,1,0","noMatchOutcome","i","4500","trustrating_stim/white_mw042.bmp","red","Keep","REAL","0"
"html-keyboard-response","179","584947","0.0-7.0-5.28","6108114eaacc3458294b244c","bdp_wmem","Tue Mar 14 2023 13:46:31 GMT-0400 (Eastern Daylight Time)","759341","Match,No Match","","null","","","","","","<div class='trialBorder'><div class='vertical-center'><img src='img/error.jpg'></div><div class='respDiv'><div class='respDivL'><font style='color:orange'>Match<br>(e)</font></div><div class='respDivR'>No Match<br>(i)</div></div></div>","null","FEEDBACK","","","","","","","","","","",""
"html-keyboard-response","180","585450","0.0-7.0-1.29","6108114eaacc3458294b244c","bdp_wmem","Tue Mar 14 2023 13:46:31 GMT-0400 (Eastern Daylight Time)","759341","Match,No Match","","null","","","","","","<div class='trialBorder'><div class='vertical-center'><img src='img/fixation2_sml.jpg'</img></div></div>","null","FIX","","","","","","","","","","",""
"html-keyboard-response","181","588459","0.0-7.0-2.29","6108114eaacc3458294b244c","bdp_wmem","Tue Mar 14 2023 13:46:31 GMT-0400 (Eastern Daylight Time)","759341","Match,No Match","","null","","","","","","<div class='trialBorder'><div class='vertical-center'><img style='vertical-align:center; align:center' src='img/fixation2_sml.jpg'></div><div class='arrayDiv2'><div class='tl'><img class='introPic' src='trustrating_stim/white_mw042.bmp'><br><font color='green'><strong>Share</strong></font></div><div class='tr'><img class='introPic' src='trustrating_stim/white_mw040.bmp'><br><font color='red'><strong>Keep</strong></font></div></div></div>","null","ARRAY","2","trustrating_stim/white_mw042.bmp,trustrating_stim/white_mw040.bmp","1,0","noMatchOutcome","i","3000","","","","",""
"html-keyboard-response","182","592469","0.0-7.0-3.29","6108114eaacc3458294b244c","bdp_wmem","Tue Mar 14 2023 13:46:31 GMT-0400 (Eastern Daylight Time)","759341","Match,No Match","","null","","","","","","<div class='trialBorder'><div class='vertical-center'><img src='img/fixation2_sml.jpg'</img></div></div>","null","DELAY","","","","","","","","","","",""
"html-keyboard-response","183","593873","0.0-7.0-4.29","6108114eaacc3458294b244c","bdp_wmem","Tue Mar 14 2023 13:46:31 GMT-0400 (Eastern Daylight Time)","759341","Match,No Match","","1403","","","","","","<div class='trialBorder'><div class='targDiv'><div class='tc'><img class='introPic' src='trustrating_stim/white_mw042.bmp'><br><font color='red'><strong>Keep</strong></font></div></div><div class='respDiv'><div class='respDivL'>Match<br>(e)</div><div class='respDivR'>No Match<br>(i)</div></div></div>","e","TARGET","2","trustrating_stim/white_mw042.bmp,trustrating_stim/white_mw040.bmp","1,0","noMatchOutcome","i","3000","trustrating_stim/white_mw042.bmp","red","Keep","REAL","0"
"html-keyboard-response","184","594379","0.0-7.0-5.29","6108114eaacc3458294b244c","bdp_wmem","Tue Mar 14 2023 13:46:31 GMT-0400 (Eastern Daylight Time)","759341","Match,No Match","","null","","","","","","<div class='trialBorder'><div class='vertical-center'><img src='img/error.jpg'></div><div class='respDiv'><div class='respDivL'><font style='color:orange'>Match<br>(e)</font></div><div class='respDivR'>No Match<br>(i)</div></div></div>","null","FEEDBACK","","","","","","","","","","",""
"html-keyboard-response","185","594884","0.0-7.0-1.30","6108114eaacc3458294b244c","bdp_wmem","Tue Mar 14 2023 13:46:31 GMT-0400 (Eastern Daylight Time)","759341","Match,No Match","","null","","","","","","<div class='trialBorder'><div class='vertical-center'><img src='img/fixation2_sml.jpg'</img></div></div>","null","FIX","","","","","","","","","","",""
"html-keyboard-response","186","597891","0.0-7.0-2.30","6108114eaacc3458294b244c","bdp_wmem","Tue Mar 14 2023 13:46:31 GMT-0400 (Eastern Daylight Time)","759341","Match,No Match","","null","","","","","","<div class='trialBorder'><div class='vertical-center'><img style='vertical-align:center; align:center' src='img/fixation2_sml.jpg'></div><div class='arrayDiv2'><div class='tl'><img class='introPic' src='trustrating_stim/white_mw040.bmp'><br><font color='green'><strong>Share</strong></font></div><div class='tr'><img class='introPic' src='trustrating_stim/white_mw070.bmp'><br><font color='red'><strong>Keep</strong></font></div></div></div>","null","ARRAY","2","trustrating_stim/white_mw040.bmp,trustrating_stim/white_mw070.bmp","1,0","noMatchFace","i","3000","","","","",""
"html-keyboard-response","187","601899","0.0-7.0-3.30","6108114eaacc3458294b244c","bdp_wmem","Tue Mar 14 2023 13:46:31 GMT-0400 (Eastern Daylight Time)","759341","Match,No Match","","null","","","","","","<div class='trialBorder'><div class='vertical-center'><img src='img/fixation2_sml.jpg'</img></div></div>","null","DELAY","","","","","","","","","","",""
