"trial_type","trial_index","time_elapsed","internal_node_id","subject_id","task","startTime","totalTime","labels","view_history","rt","event","trial","time","trialtype","success","stimulus","key_press","stimType","arraySize","arrayFaces","arrayOutcomes","matchType","corrResp","arrayDur","targFace","targCol","targOutcome","trialType","corr"
"pavlovia","0","3","0.0-0.0","63ee5e103b44d07673cc8bd6","bdp_wmem","Sat Apr 08 2023 09:36:00 GMT-0700 (Pacific Daylight Time)","552648","Match,No Match","","","","","","","","","","","","","","","","","","","","",""
"instructions","1","5599","0.0-1.0","63ee5e103b44d07673cc8bd6","bdp_wmem","Sat Apr 08 2023 09:36:00 GMT-0700 (Pacific Daylight Time)","552648","Match,No Match","[{""page_index"":0,""viewing_time"":5595}]","5595","","","","","","","","","","","","","","","","","","",""
"","","","","63ee5e103b44d07673cc8bd6","bdp_wmem","Sat Apr 08 2023 09:36:00 GMT-0700 (Pacific Daylight Time)","552648","Match,No Match","","","fullscreenenter","2","9659","fullscreenenter","","","","","","","","","","","","","","",""
"fullscreen","2","10632","0.0-2.0","63ee5e103b44d07673cc8bd6","bdp_wmem","Sat Apr 08 2023 09:36:00 GMT-0700 (Pacific Daylight Time)","552648","Match,No Match","","","","","","","true","","","","","","","","","","","","","",""
"","","","","63ee5e103b44d07673cc8bd6","bdp_wmem","Sat Apr 08 2023 09:36:00 GMT-0700 (Pacific Daylight Time)","552648","Match,No Match","","","fullscreenexit","3","24197","fullscreenexit","","","","","","","","","","","","","","",""
"instructions","3","59119","0.0-4.0","63ee5e103b44d07673cc8bd6","bdp_wmem","Sat Apr 08 2023 09:36:00 GMT-0700 (Pacific Daylight Time)","552648","Match,No Match","[{""page_index"":0,""viewing_time"":14394},{""page_index"":1,""viewing_time"":21683},{""page_index"":2,""viewing_time"":8674},{""page_index"":3,""viewing_time"":1850},{""page_index"":4,""viewing_time"":1885}]","48486","","","","","","","","","","","","","","","","","","",""
"html-keyboard-response","4","59622","0.0-5.0-1.0","63ee5e103b44d07673cc8bd6","bdp_wmem","Sat Apr 08 2023 09:36:00 GMT-0700 (Pacific Daylight Time)","552648","Match,No Match","","null","","","","","","<div class='trialBorder'><div class='vertical-center'><img src='img/fixation2_sml.jpg'</img></div></div>","null","FIX","","","","","","","","","","",""
"html-keyboard-response","5","64124","0.0-5.0-2.0","63ee5e103b44d07673cc8bd6","bdp_wmem","Sat Apr 08 2023 09:36:00 GMT-0700 (Pacific Daylight Time)","552648","Match,No Match","","null","","","","","","<div class='trialBorder'><div class='vertical-center'><img style='vertical-align:center; align:center' src='img/fixation2_sml.jpg'></div><div class='arrayDiv3'><div class='tl'><img class='introPic' src='trustrating_stim/white_mw042.bmp'><br><font color='red'><strong>Keep</strong></font></div><div class='tc'><img class='introPic' src='trustrating_stim/white_mw010.bmp'><br><font color='red'><strong>Keep</strong></font></div><div class='tr'><img class='introPic' src='trustrating_stim/white_mw092.bmp'><br><font color='green'><strong>Share</strong></font></div></div></div>","null","ARRAY","3","trustrating_stim/white_mw042.bmp,trustrating_stim/white_mw010.bmp,trustrating_stim/white_mw092.bmp","0,0,1","noMatchOutcome","i","4500","","","","",""
"html-keyboard-response","6","68127","0.0-5.0-3.0","63ee5e103b44d07673cc8bd6","bdp_wmem","Sat Apr 08 2023 09:36:00 GMT-0700 (Pacific Daylight Time)","552648","Match,No Match","","null","","","","","","<div class='trialBorder'><div class='vertical-center'><img src='img/fixation2_sml.jpg'</img></div></div>","null","DELAY","","","","","","","","","","",""
"html-keyboard-response","7","69387","0.0-5.0-4.0","63ee5e103b44d07673cc8bd6","bdp_wmem","Sat Apr 08 2023 09:36:00 GMT-0700 (Pacific Daylight Time)","552648","Match,No Match","","1259","","","","","","<div class='trialBorder'><div class='targDiv'><div class='tc'><img class='introPic' src='trustrating_stim/white_mw042.bmp'><br><font color='green'><strong>Share</strong></font></div></div><div class='respDiv'><div class='respDivL'>Match<br>(e)</div><div class='respDivR'>No Match<br>(i)</div></div></div>","e","TARGET","3","trustrating_stim/white_mw042.bmp,trustrating_stim/white_mw010.bmp,trustrating_stim/white_mw092.bmp","0,0,1","noMatchOutcome","i","4500","trustrating_stim/white_mw042.bmp","green","Share","PRACTICE","0"
"html-keyboard-response","8","69889","0.0-5.0-5.0","63ee5e103b44d07673cc8bd6","bdp_wmem","Sat Apr 08 2023 09:36:00 GMT-0700 (Pacific Daylight Time)","552648","Match,No Match","","null","","","","","","<div class='trialBorder'><div class='vertical-center'><img src='img/error.jpg'></div><div class='respDiv'><div class='respDivL'><font style='color:orange'>Match<br>(e)</font></div><div class='respDivR'>No Match<br>(i)</div></div></div>","null","FEEDBACK","","","","","","","","","","",""
"html-keyboard-response","9","70390","0.0-5.0-1.1","63ee5e103b44d07673cc8bd6","bdp_wmem","Sat Apr 08 2023 09:36:00 GMT-0700 (Pacific Daylight Time)","552648","Match,No Match","","null","","","","","","<div class='trialBorder'><div class='vertical-center'><img src='img/fixation2_sml.jpg'</img></div></div>","null","FIX","","","","","","","","","","",""
"html-keyboard-response","10","74892","0.0-5.0-2.1","63ee5e103b44d07673cc8bd6","bdp_wmem","Sat Apr 08 2023 09:36:00 GMT-0700 (Pacific Daylight Time)","552648","Match,No Match","","null","","","","","","<div class='trialBorder'><div class='vertical-center'><img style='vertical-align:center; align:center' src='img/fixation2_sml.jpg'></div><div class='arrayDiv3'><div class='tl'><img class='introPic' src='trustrating_stim/white_mw078.bmp'><br><font color='green'><strong>Share</strong></font></div><div class='tc'><img class='introPic' src='trustrating_stim/white_mw040.bmp'><br><font color='green'><strong>Share</strong></font></div><div class='tr'><img class='introPic' src='trustrating_stim/white_mw092.bmp'><br><font color='red'><strong>Keep</strong></font></div></div></div>","null","ARRAY","3","trustrating_stim/white_mw078.bmp,trustrating_stim/white_mw040.bmp,trustrating_stim/white_mw092.bmp","1,1,0","Match","e","4500","","","","",""
"html-keyboard-response","11","78893","0.0-5.0-3.1","63ee5e103b44d07673cc8bd6","bdp_wmem","Sat Apr 08 2023 09:36:00 GMT-0700 (Pacific Daylight Time)","552648","Match,No Match","","null","","","","","","<div class='trialBorder'><div class='vertical-center'><img src='img/fixation2_sml.jpg'</img></div></div>","null","DELAY","","","","","","","","","","",""
"html-keyboard-response","12","82059","0.0-5.0-4.1","63ee5e103b44d07673cc8bd6","bdp_wmem","Sat Apr 08 2023 09:36:00 GMT-0700 (Pacific Daylight Time)","552648","Match,No Match","","3165","","","","","","<div class='trialBorder'><div class='targDiv'><div class='tc'><img class='introPic' src='trustrating_stim/white_mw078.bmp'><br><font color='green'><strong>Share</strong></font></div></div><div class='respDiv'><div class='respDivL'>Match<br>(e)</div><div class='respDivR'>No Match<br>(i)</div></div></div>","e","TARGET","3","trustrating_stim/white_mw078.bmp,trustrating_stim/white_mw040.bmp,trustrating_stim/white_mw092.bmp","1,1,0","Match","e","4500","trustrating_stim/white_mw078.bmp","green","Share","PRACTICE","1"
"html-keyboard-response","13","82560","0.0-5.0-5.1","63ee5e103b44d07673cc8bd6","bdp_wmem","Sat Apr 08 2023 09:36:00 GMT-0700 (Pacific Daylight Time)","552648","Match,No Match","","null","","","","","","<div class='trialBorder'><div class='vertical-center'><img src='img/correct.jpg'></div><div class='respDiv'><div class='respDivL'><font style='color:orange'>Match<br>(e)</font></div><div class='respDivR'>No Match<br>(i)</div></div></div>","null","FEEDBACK","","","","","","","","","","",""
"html-keyboard-response","14","83062","0.0-5.0-1.2","63ee5e103b44d07673cc8bd6","bdp_wmem","Sat Apr 08 2023 09:36:00 GMT-0700 (Pacific Daylight Time)","552648","Match,No Match","","null","","","","","","<div class='trialBorder'><div class='vertical-center'><img src='img/fixation2_sml.jpg'</img></div></div>","null","FIX","","","","","","","","","","",""
"html-keyboard-response","15","84565","0.0-5.0-2.2","63ee5e103b44d07673cc8bd6","bdp_wmem","Sat Apr 08 2023 09:36:00 GMT-0700 (Pacific Daylight Time)","552648","Match,No Match","","null","","","","","","<div class='trialBorder'><div class='vertical-center'><img style='vertical-align:center; align:center' src='img/fixation2_sml.jpg'></div><div class='arrayDiv1'><div class='tc'><img class='introPic' src='trustrating_stim/white_mw010.bmp'><br><font color='green'><strong>Share</strong></font></div></div></div>","null","ARRAY","1","trustrating_stim/white_mw010.bmp","1","Match","e","1500","","","","",""
"html-keyboard-response","16","88566","0.0-5.0-3.2","63ee5e103b44d07673cc8bd6","bdp_wmem","Sat Apr 08 2023 09:36:00 GMT-0700 (Pacific Daylight Time)","552648","Match,No Match","","null","","","","","","<div class='trialBorder'><div class='vertical-center'><img src='img/fixation2_sml.jpg'</img></div></div>","null","DELAY","","","","","","","","","","",""
"html-keyboard-response","17","89397","0.0-5.0-4.2","63ee5e103b44d07673cc8bd6","bdp_wmem","Sat Apr 08 2023 09:36:00 GMT-0700 (Pacific Daylight Time)","552648","Match,No Match","","830","","","","","","<div class='trialBorder'><div class='targDiv'><div class='tc'><img class='introPic' src='trustrating_stim/white_mw010.bmp'><br><font color='green'><strong>Share</strong></font></div></div><div class='respDiv'><div class='respDivL'>Match<br>(e)</div><div class='respDivR'>No Match<br>(i)</div></div></div>","e","TARGET","1","trustrating_stim/white_mw010.bmp","1","Match","e","1500","trustrating_stim/white_mw010.bmp","green","Share","PRACTICE","1"
"html-keyboard-response","18","89900","0.0-5.0-5.2","63ee5e103b44d07673cc8bd6","bdp_wmem","Sat Apr 08 2023 09:36:00 GMT-0700 (Pacific Daylight Time)","552648","Match,No Match","","null","","","","","","<div class='trialBorder'><div class='vertical-center'><img src='img/correct.jpg'></div><div class='respDiv'><div class='respDivL'><font style='color:orange'>Match<br>(e)</font></div><div class='respDivR'>No Match<br>(i)</div></div></div>","null","FEEDBACK","","","","","","","","","","",""
"html-keyboard-response","19","90402","0.0-5.0-1.3","63ee5e103b44d07673cc8bd6","bdp_wmem","Sat Apr 08 2023 09:36:00 GMT-0700 (Pacific Daylight Time)","552648","Match,No Match","","null","","","","","","<div class='trialBorder'><div class='vertical-center'><img src='img/fixation2_sml.jpg'</img></div></div>","null","FIX","","","","","","","","","","",""
"html-keyboard-response","20","93404","0.0-5.0-2.3","63ee5e103b44d07673cc8bd6","bdp_wmem","Sat Apr 08 2023 09:36:00 GMT-0700 (Pacific Daylight Time)","552648","Match,No Match","","null","","","","","","<div class='trialBorder'><div class='vertical-center'><img style='vertical-align:center; align:center' src='img/fixation2_sml.jpg'></div><div class='arrayDiv2'><div class='tl'><img class='introPic' src='trustrating_stim/white_mw085.bmp'><br><font color='green'><strong>Share</strong></font></div><div class='tr'><img class='introPic' src='trustrating_stim/white_mw040.bmp'><br><font color='red'><strong>Keep</strong></font></div></div></div>","null","ARRAY","2","trustrating_stim/white_mw085.bmp,trustrating_stim/white_mw040.bmp","1,0","Match","e","3000","","","","",""
"html-keyboard-response","21","97406","0.0-5.0-3.3","63ee5e103b44d07673cc8bd6","bdp_wmem","Sat Apr 08 2023 09:36:00 GMT-0700 (Pacific Daylight Time)","552648","Match,No Match","","null","","","","","","<div class='trialBorder'><div class='vertical-center'><img src='img/fixation2_sml.jpg'</img></div></div>","null","DELAY","","","","","","","","","","",""
"html-keyboard-response","22","99611","0.0-5.0-4.3","63ee5e103b44d07673cc8bd6","bdp_wmem","Sat Apr 08 2023 09:36:00 GMT-0700 (Pacific Daylight Time)","552648","Match,No Match","","2204","","","","","","<div class='trialBorder'><div class='targDiv'><div class='tc'><img class='introPic' src='trustrating_stim/white_mw040.bmp'><br><font color='red'><strong>Keep</strong></font></div></div><div class='respDiv'><div class='respDivL'>Match<br>(e)</div><div class='respDivR'>No Match<br>(i)</div></div></div>","i","TARGET","2","trustrating_stim/white_mw085.bmp,trustrating_stim/white_mw040.bmp","1,0","Match","e","3000","trustrating_stim/white_mw040.bmp","red","Keep","PRACTICE","0"
"html-keyboard-response","23","100114","0.0-5.0-5.3","63ee5e103b44d07673cc8bd6","bdp_wmem","Sat Apr 08 2023 09:36:00 GMT-0700 (Pacific Daylight Time)","552648","Match,No Match","","null","","","","","","<div class='trialBorder'><div class='vertical-center'><img src='img/error.jpg'></div><div class='respDiv'><div class='respDivL'>Match<br>(e)</div><div class='respDivR'><font style='color:orange'>No Match<br>(i)</font></div></div></div>","null","FEEDBACK","","","","","","","","","","",""
"html-keyboard-response","24","100614","0.0-5.0-1.4","63ee5e103b44d07673cc8bd6","bdp_wmem","Sat Apr 08 2023 09:36:00 GMT-0700 (Pacific Daylight Time)","552648","Match,No Match","","null","","","","","","<div class='trialBorder'><div class='vertical-center'><img src='img/fixation2_sml.jpg'</img></div></div>","null","FIX","","","","","","","","","","",""
"html-keyboard-response","25","103616","0.0-5.0-2.4","63ee5e103b44d07673cc8bd6","bdp_wmem","Sat Apr 08 2023 09:36:00 GMT-0700 (Pacific Daylight Time)","552648","Match,No Match","","null","","","","","","<div class='trialBorder'><div class='vertical-center'><img style='vertical-align:center; align:center' src='img/fixation2_sml.jpg'></div><div class='arrayDiv2'><div class='tl'><img class='introPic' src='trustrating_stim/white_mw038.bmp'><br><font color='green'><strong>Share</strong></font></div><div class='tr'><img class='introPic' src='trustrating_stim/white_mw003.bmp'><br><font color='red'><strong>Keep</strong></font></div></div></div>","null","ARRAY","2","trustrating_stim/white_mw038.bmp,trustrating_stim/white_mw003.bmp","1,0","noMatchOutcome","i","3000","","","","",""
"html-keyboard-response","26","107618","0.0-5.0-3.4","63ee5e103b44d07673cc8bd6","bdp_wmem","Sat Apr 08 2023 09:36:00 GMT-0700 (Pacific Daylight Time)","552648","Match,No Match","","null","","","","","","<div class='trialBorder'><div class='vertical-center'><img src='img/fixation2_sml.jpg'</img></div></div>","null","DELAY","","","","","","","","","","",""
"html-keyboard-response","27","108540","0.0-5.0-4.4","63ee5e103b44d07673cc8bd6","bdp_wmem","Sat Apr 08 2023 09:36:00 GMT-0700 (Pacific Daylight Time)","552648","Match,No Match","","921","","","","","","<div class='trialBorder'><div class='targDiv'><div class='tc'><img class='introPic' src='trustrating_stim/white_mw038.bmp'><br><font color='red'><strong>Keep</strong></font></div></div><div class='respDiv'><div class='respDivL'>Match<br>(e)</div><div class='respDivR'>No Match<br>(i)</div></div></div>","i","TARGET","2","trustrating_stim/white_mw038.bmp,trustrating_stim/white_mw003.bmp","1,0","noMatchOutcome","i","3000","trustrating_stim/white_mw038.bmp","red","Keep","PRACTICE","1"
"html-keyboard-response","28","109042","0.0-5.0-5.4","63ee5e103b44d07673cc8bd6","bdp_wmem","Sat Apr 08 2023 09:36:00 GMT-0700 (Pacific Daylight Time)","552648","Match,No Match","","null","","","","","","<div class='trialBorder'><div class='vertical-center'><img src='img/correct.jpg'></div><div class='respDiv'><div class='respDivL'>Match<br>(e)</div><div class='respDivR'><font style='color:orange'>No Match<br>(i)</font></div></div></div>","null","FEEDBACK","","","","","","","","","","",""
"html-keyboard-response","29","109544","0.0-5.0-1.5","63ee5e103b44d07673cc8bd6","bdp_wmem","Sat Apr 08 2023 09:36:00 GMT-0700 (Pacific Daylight Time)","552648","Match,No Match","","null","","","","","","<div class='trialBorder'><div class='vertical-center'><img src='img/fixation2_sml.jpg'</img></div></div>","null","FIX","","","","","","","","","","",""
"html-keyboard-response","30","111046","0.0-5.0-2.5","63ee5e103b44d07673cc8bd6","bdp_wmem","Sat Apr 08 2023 09:36:00 GMT-0700 (Pacific Daylight Time)","552648","Match,No Match","","null","","","","","","<div class='trialBorder'><div class='vertical-center'><img style='vertical-align:center; align:center' src='img/fixation2_sml.jpg'></div><div class='arrayDiv1'><div class='tc'><img class='introPic' src='trustrating_stim/white_mw092.bmp'><br><font color='green'><strong>Share</strong></font></div></div></div>","null","ARRAY","1","trustrating_stim/white_mw092.bmp","1","noMatchFace","i","1500","","","","",""
"html-keyboard-response","31","115047","0.0-5.0-3.5","63ee5e103b44d07673cc8bd6","bdp_wmem","Sat Apr 08 2023 09:36:00 GMT-0700 (Pacific Daylight Time)","552648","Match,No Match","","null","","","","","","<div class='trialBorder'><div class='vertical-center'><img src='img/fixation2_sml.jpg'</img></div></div>","null","DELAY","","","","","","","","","","",""
"html-keyboard-response","32","116059","0.0-5.0-4.5","63ee5e103b44d07673cc8bd6","bdp_wmem","Sat Apr 08 2023 09:36:00 GMT-0700 (Pacific Daylight Time)","552648","Match,No Match","","1011","","","","","","<div class='trialBorder'><div class='targDiv'><div class='tc'><img class='introPic' src='trustrating_stim/white_mw038.bmp'><br><font color='green'><strong>Share</strong></font></div></div><div class='respDiv'><div class='respDivL'>Match<br>(e)</div><div class='respDivR'>No Match<br>(i)</div></div></div>","i","TARGET","1","trustrating_stim/white_mw092.bmp","1","noMatchFace","i","1500","trustrating_stim/white_mw038.bmp","green","Share","PRACTICE","1"
"html-keyboard-response","33","116561","0.0-5.0-5.5","63ee5e103b44d07673cc8bd6","bdp_wmem","Sat Apr 08 2023 09:36:00 GMT-0700 (Pacific Daylight Time)","552648","Match,No Match","","null","","","","","","<div class='trialBorder'><div class='vertical-center'><img src='img/correct.jpg'></div><div class='respDiv'><div class='respDivL'>Match<br>(e)</div><div class='respDivR'><font style='color:orange'>No Match<br>(i)</font></div></div></div>","null","FEEDBACK","","","","","","","","","","",""
"instructions","34","122761","0.0-6.0","63ee5e103b44d07673cc8bd6","bdp_wmem","Sat Apr 08 2023 09:36:00 GMT-0700 (Pacific Daylight Time)","552648","Match,No Match","[{""page_index"":0,""viewing_time"":6200}]","6200","","","","","","","","","","","","","","","","","","",""
"html-keyboard-response","35","123266","0.0-7.0-1.0","63ee5e103b44d07673cc8bd6","bdp_wmem","Sat Apr 08 2023 09:36:00 GMT-0700 (Pacific Daylight Time)","552648","Match,No Match","","null","","","","","","<div class='trialBorder'><div class='vertical-center'><img src='img/fixation2_sml.jpg'</img></div></div>","null","FIX","","","","","","","","","","",""
"html-keyboard-response","36","126268","0.0-7.0-2.0","63ee5e103b44d07673cc8bd6","bdp_wmem","Sat Apr 08 2023 09:36:00 GMT-0700 (Pacific Daylight Time)","552648","Match,No Match","","null","","","","","","<div class='trialBorder'><div class='vertical-center'><img style='vertical-align:center; align:center' src='img/fixation2_sml.jpg'></div><div class='arrayDiv2'><div class='tl'><img class='introPic' src='trustrating_stim/white_mw042.bmp'><br><font color='red'><strong>Keep</strong></font></div><div class='tr'><img class='introPic' src='trustrating_stim/white_mw085.bmp'><br><font color='green'><strong>Share</strong></font></div></div></div>","null","ARRAY","2","trustrating_stim/white_mw042.bmp,trustrating_stim/white_mw085.bmp","0,1","noMatchOutcome","i","3000","","","","",""
"html-keyboard-response","37","130284","0.0-7.0-3.0","63ee5e103b44d07673cc8bd6","bdp_wmem","Sat Apr 08 2023 09:36:00 GMT-0700 (Pacific Daylight Time)","552648","Match,No Match","","null","","","","","","<div class='trialBorder'><div class='vertical-center'><img src='img/fixation2_sml.jpg'</img></div></div>","null","DELAY","","","","","","","","","","",""
"html-keyboard-response","38","130933","0.0-7.0-4.0","63ee5e103b44d07673cc8bd6","bdp_wmem","Sat Apr 08 2023 09:36:00 GMT-0700 (Pacific Daylight Time)","552648","Match,No Match","","649","","","","","","<div class='trialBorder'><div class='targDiv'><div class='tc'><img class='introPic' src='trustrating_stim/white_mw042.bmp'><br><font color='green'><strong>Share</strong></font></div></div><div class='respDiv'><div class='respDivL'>Match<br>(e)</div><div class='respDivR'>No Match<br>(i)</div></div></div>","e","TARGET","2","trustrating_stim/white_mw042.bmp,trustrating_stim/white_mw085.bmp","0,1","noMatchOutcome","i","3000","trustrating_stim/white_mw042.bmp","green","Share","REAL","0"
"html-keyboard-response","39","131436","0.0-7.0-5.0","63ee5e103b44d07673cc8bd6","bdp_wmem","Sat Apr 08 2023 09:36:00 GMT-0700 (Pacific Daylight Time)","552648","Match,No Match","","null","","","","","","<div class='trialBorder'><div class='vertical-center'><img src='img/error.jpg'></div><div class='respDiv'><div class='respDivL'><font style='color:orange'>Match<br>(e)</font></div><div class='respDivR'>No Match<br>(i)</div></div></div>","null","FEEDBACK","","","","","","","","","","",""
"html-keyboard-response","40","131937","0.0-7.0-1.1","63ee5e103b44d07673cc8bd6","bdp_wmem","Sat Apr 08 2023 09:36:00 GMT-0700 (Pacific Daylight Time)","552648","Match,No Match","","null","","","","","","<div class='trialBorder'><div class='vertical-center'><img src='img/fixation2_sml.jpg'</img></div></div>","null","FIX","","","","","","","","","","",""
"html-keyboard-response","41","134939","0.0-7.0-2.1","63ee5e103b44d07673cc8bd6","bdp_wmem","Sat Apr 08 2023 09:36:00 GMT-0700 (Pacific Daylight Time)","552648","Match,No Match","","null","","","","","","<div class='trialBorder'><div class='vertical-center'><img style='vertical-align:center; align:center' src='img/fixation2_sml.jpg'></div><div class='arrayDiv2'><div class='tl'><img class='introPic' src='trustrating_stim/white_mw092.bmp'><br><font color='green'><strong>Share</strong></font></div><div class='tr'><img class='introPic' src='trustrating_stim/white_mw085.bmp'><br><font color='red'><strong>Keep</strong></font></div></div></div>","null","ARRAY","2","trustrating_stim/white_mw092.bmp,trustrating_stim/white_mw085.bmp","1,0","noMatchOutcome","i","3000","","","","",""
"html-keyboard-response","42","138941","0.0-7.0-3.1","63ee5e103b44d07673cc8bd6","bdp_wmem","Sat Apr 08 2023 09:36:00 GMT-0700 (Pacific Daylight Time)","552648","Match,No Match","","null","","","","","","<div class='trialBorder'><div class='vertical-center'><img src='img/fixation2_sml.jpg'</img></div></div>","null","DELAY","","","","","","","","","","",""
"html-keyboard-response","43","140220","0.0-7.0-4.1","63ee5e103b44d07673cc8bd6","bdp_wmem","Sat Apr 08 2023 09:36:00 GMT-0700 (Pacific Daylight Time)","552648","Match,No Match","","1279","","","","","","<div class='trialBorder'><div class='targDiv'><div class='tc'><img class='introPic' src='trustrating_stim/white_mw092.bmp'><br><font color='red'><strong>Keep</strong></font></div></div><div class='respDiv'><div class='respDivL'>Match<br>(e)</div><div class='respDivR'>No Match<br>(i)</div></div></div>","i","TARGET","2","trustrating_stim/white_mw092.bmp,trustrating_stim/white_mw085.bmp","1,0","noMatchOutcome","i","3000","trustrating_stim/white_mw092.bmp","red","Keep","REAL","1"
"html-keyboard-response","44","140722","0.0-7.0-5.1","63ee5e103b44d07673cc8bd6","bdp_wmem","Sat Apr 08 2023 09:36:00 GMT-0700 (Pacific Daylight Time)","552648","Match,No Match","","null","","","","","","<div class='trialBorder'><div class='vertical-center'><img src='img/correct.jpg'></div><div class='respDiv'><div class='respDivL'>Match<br>(e)</div><div class='respDivR'><font style='color:orange'>No Match<br>(i)</font></div></div></div>","null","FEEDBACK","","","","","","","","","","",""
"html-keyboard-response","45","141224","0.0-7.0-1.2","63ee5e103b44d07673cc8bd6","bdp_wmem","Sat Apr 08 2023 09:36:00 GMT-0700 (Pacific Daylight Time)","552648","Match,No Match","","null","","","","","","<div class='trialBorder'><div class='vertical-center'><img src='img/fixation2_sml.jpg'</img></div></div>","null","FIX","","","","","","","","","","",""
"html-keyboard-response","46","145726","0.0-7.0-2.2","63ee5e103b44d07673cc8bd6","bdp_wmem","Sat Apr 08 2023 09:36:00 GMT-0700 (Pacific Daylight Time)","552648","Match,No Match","","null","","","","","","<div class='trialBorder'><div class='vertical-center'><img style='vertical-align:center; align:center' src='img/fixation2_sml.jpg'></div><div class='arrayDiv3'><div class='tl'><img class='introPic' src='trustrating_stim/white_mw038.bmp'><br><font color='red'><strong>Keep</strong></font></div><div class='tc'><img class='introPic' src='trustrating_stim/white_mw042.bmp'><br><font color='green'><strong>Share</strong></font></div><div class='tr'><img class='introPic' src='trustrating_stim/white_mw012.bmp'><br><font color='green'><strong>Share</strong></font></div></div></div>","null","ARRAY","3","trustrating_stim/white_mw038.bmp,trustrating_stim/white_mw042.bmp,trustrating_stim/white_mw012.bmp","0,1,1","Match","e","4500","","","","",""
"html-keyboard-response","47","149727","0.0-7.0-3.2","63ee5e103b44d07673cc8bd6","bdp_wmem","Sat Apr 08 2023 09:36:00 GMT-0700 (Pacific Daylight Time)","552648","Match,No Match","","null","","","","","","<div class='trialBorder'><div class='vertical-center'><img src='img/fixation2_sml.jpg'</img></div></div>","null","DELAY","","","","","","","","","","",""
"html-keyboard-response","48","151314","0.0-7.0-4.2","63ee5e103b44d07673cc8bd6","bdp_wmem","Sat Apr 08 2023 09:36:00 GMT-0700 (Pacific Daylight Time)","552648","Match,No Match","","1586","","","","","","<div class='trialBorder'><div class='targDiv'><div class='tc'><img class='introPic' src='trustrating_stim/white_mw042.bmp'><br><font color='green'><strong>Share</strong></font></div></div><div class='respDiv'><div class='respDivL'>Match<br>(e)</div><div class='respDivR'>No Match<br>(i)</div></div></div>","i","TARGET","3","trustrating_stim/white_mw038.bmp,trustrating_stim/white_mw042.bmp,trustrating_stim/white_mw012.bmp","0,1,1","Match","e","4500","trustrating_stim/white_mw042.bmp","green","Share","REAL","0"
"html-keyboard-response","49","151816","0.0-7.0-5.2","63ee5e103b44d07673cc8bd6","bdp_wmem","Sat Apr 08 2023 09:36:00 GMT-0700 (Pacific Daylight Time)","552648","Match,No Match","","null","","","","","","<div class='trialBorder'><div class='vertical-center'><img src='img/error.jpg'></div><div class='respDiv'><div class='respDivL'>Match<br>(e)</div><div class='respDivR'><font style='color:orange'>No Match<br>(i)</font></div></div></div>","null","FEEDBACK","","","","","","","","","","",""
"html-keyboard-response","50","152317","0.0-7.0-1.3","63ee5e103b44d07673cc8bd6","bdp_wmem","Sat Apr 08 2023 09:36:00 GMT-0700 (Pacific Daylight Time)","552648","Match,No Match","","null","","","","","","<div class='trialBorder'><div class='vertical-center'><img src='img/fixation2_sml.jpg'</img></div></div>","null","FIX","","","","","","","","","","",""
"html-keyboard-response","51","155319","0.0-7.0-2.3","63ee5e103b44d07673cc8bd6","bdp_wmem","Sat Apr 08 2023 09:36:00 GMT-0700 (Pacific Daylight Time)","552648","Match,No Match","","null","","","","","","<div class='trialBorder'><div class='vertical-center'><img style='vertical-align:center; align:center' src='img/fixation2_sml.jpg'></div><div class='arrayDiv2'><div class='tl'><img class='introPic' src='trustrating_stim/white_mw003.bmp'><br><font color='green'><strong>Share</strong></font></div><div class='tr'><img class='introPic' src='trustrating_stim/white_mw091.bmp'><br><font color='red'><strong>Keep</strong></font></div></div></div>","null","ARRAY","2","trustrating_stim/white_mw003.bmp,trustrating_stim/white_mw091.bmp","1,0","Match","e","3000","","","","",""
"html-keyboard-response","52","159321","0.0-7.0-3.3","63ee5e103b44d07673cc8bd6","bdp_wmem","Sat Apr 08 2023 09:36:00 GMT-0700 (Pacific Daylight Time)","552648","Match,No Match","","null","","","","","","<div class='trialBorder'><div class='vertical-center'><img src='img/fixation2_sml.jpg'</img></div></div>","null","DELAY","","","","","","","","","","",""
"html-keyboard-response","53","160261","0.0-7.0-4.3","63ee5e103b44d07673cc8bd6","bdp_wmem","Sat Apr 08 2023 09:36:00 GMT-0700 (Pacific Daylight Time)","552648","Match,No Match","","940","","","","","","<div class='trialBorder'><div class='targDiv'><div class='tc'><img class='introPic' src='trustrating_stim/white_mw003.bmp'><br><font color='green'><strong>Share</strong></font></div></div><div class='respDiv'><div class='respDivL'>Match<br>(e)</div><div class='respDivR'>No Match<br>(i)</div></div></div>","e","TARGET","2","trustrating_stim/white_mw003.bmp,trustrating_stim/white_mw091.bmp","1,0","Match","e","3000","trustrating_stim/white_mw003.bmp","green","Share","REAL","1"
"html-keyboard-response","54","160762","0.0-7.0-5.3","63ee5e103b44d07673cc8bd6","bdp_wmem","Sat Apr 08 2023 09:36:00 GMT-0700 (Pacific Daylight Time)","552648","Match,No Match","","null","","","","","","<div class='trialBorder'><div class='vertical-center'><img src='img/correct.jpg'></div><div class='respDiv'><div class='respDivL'><font style='color:orange'>Match<br>(e)</font></div><div class='respDivR'>No Match<br>(i)</div></div></div>","null","FEEDBACK","","","","","","","","","","",""
"html-keyboard-response","55","161264","0.0-7.0-1.4","63ee5e103b44d07673cc8bd6","bdp_wmem","Sat Apr 08 2023 09:36:00 GMT-0700 (Pacific Daylight Time)","552648","Match,No Match","","null","","","","","","<div class='trialBorder'><div class='vertical-center'><img src='img/fixation2_sml.jpg'</img></div></div>","null","FIX","","","","","","","","","","",""
"html-keyboard-response","56","162766","0.0-7.0-2.4","63ee5e103b44d07673cc8bd6","bdp_wmem","Sat Apr 08 2023 09:36:00 GMT-0700 (Pacific Daylight Time)","552648","Match,No Match","","null","","","","","","<div class='trialBorder'><div class='vertical-center'><img style='vertical-align:center; align:center' src='img/fixation2_sml.jpg'></div><div class='arrayDiv1'><div class='tc'><img class='introPic' src='trustrating_stim/white_mw003.bmp'><br><font color='red'><strong>Keep</strong></font></div></div></div>","null","ARRAY","1","trustrating_stim/white_mw003.bmp","0","Match","e","1500","","","","",""
"html-keyboard-response","57","166768","0.0-7.0-3.4","63ee5e103b44d07673cc8bd6","bdp_wmem","Sat Apr 08 2023 09:36:00 GMT-0700 (Pacific Daylight Time)","552648","Match,No Match","","null","","","","","","<div class='trialBorder'><div class='vertical-center'><img src='img/fixation2_sml.jpg'</img></div></div>","null","DELAY","","","","","","","","","","",""
"html-keyboard-response","58","167640","0.0-7.0-4.4","63ee5e103b44d07673cc8bd6","bdp_wmem","Sat Apr 08 2023 09:36:00 GMT-0700 (Pacific Daylight Time)","552648","Match,No Match","","872","","","","","","<div class='trialBorder'><div class='targDiv'><div class='tc'><img class='introPic' src='trustrating_stim/white_mw003.bmp'><br><font color='red'><strong>Keep</strong></font></div></div><div class='respDiv'><div class='respDivL'>Match<br>(e)</div><div class='respDivR'>No Match<br>(i)</div></div></div>","e","TARGET","1","trustrating_stim/white_mw003.bmp","0","Match","e","1500","trustrating_stim/white_mw003.bmp","red","Keep","REAL","1"
"html-keyboard-response","59","168142","0.0-7.0-5.4","63ee5e103b44d07673cc8bd6","bdp_wmem","Sat Apr 08 2023 09:36:00 GMT-0700 (Pacific Daylight Time)","552648","Match,No Match","","null","","","","","","<div class='trialBorder'><div class='vertical-center'><img src='img/correct.jpg'></div><div class='respDiv'><div class='respDivL'><font style='color:orange'>Match<br>(e)</font></div><div class='respDivR'>No Match<br>(i)</div></div></div>","null","FEEDBACK","","","","","","","","","","",""
"html-keyboard-response","60","168643","0.0-7.0-1.5","63ee5e103b44d07673cc8bd6","bdp_wmem","Sat Apr 08 2023 09:36:00 GMT-0700 (Pacific Daylight Time)","552648","Match,No Match","","null","","","","","","<div class='trialBorder'><div class='vertical-center'><img src='img/fixation2_sml.jpg'</img></div></div>","null","FIX","","","","","","","","","","",""
"html-keyboard-response","61","170145","0.0-7.0-2.5","63ee5e103b44d07673cc8bd6","bdp_wmem","Sat Apr 08 2023 09:36:00 GMT-0700 (Pacific Daylight Time)","552648","Match,No Match","","null","","","","","","<div class='trialBorder'><div class='vertical-center'><img style='vertical-align:center; align:center' src='img/fixation2_sml.jpg'></div><div class='arrayDiv1'><div class='tc'><img class='introPic' src='trustrating_stim/white_mw091.bmp'><br><font color='red'><strong>Keep</strong></font></div></div></div>","null","ARRAY","1","trustrating_stim/white_mw091.bmp","0","noMatchOutcome","i","1500","","","","",""
"html-keyboard-response","62","174146","0.0-7.0-3.5","63ee5e103b44d07673cc8bd6","bdp_wmem","Sat Apr 08 2023 09:36:00 GMT-0700 (Pacific Daylight Time)","552648","Match,No Match","","null","","","","","","<div class='trialBorder'><div class='vertical-center'><img src='img/fixation2_sml.jpg'</img></div></div>","null","DELAY","","","","","","","","","","",""
"html-keyboard-response","63","174853","0.0-7.0-4.5","63ee5e103b44d07673cc8bd6","bdp_wmem","Sat Apr 08 2023 09:36:00 GMT-0700 (Pacific Daylight Time)","552648","Match,No Match","","705","","","","","","<div class='trialBorder'><div class='targDiv'><div class='tc'><img class='introPic' src='trustrating_stim/white_mw091.bmp'><br><font color='green'><strong>Share</strong></font></div></div><div class='respDiv'><div class='respDivL'>Match<br>(e)</div><div class='respDivR'>No Match<br>(i)</div></div></div>","i","TARGET","1","trustrating_stim/white_mw091.bmp","0","noMatchOutcome","i","1500","trustrating_stim/white_mw091.bmp","green","Share","REAL","1"
"html-keyboard-response","64","175354","0.0-7.0-5.5","63ee5e103b44d07673cc8bd6","bdp_wmem","Sat Apr 08 2023 09:36:00 GMT-0700 (Pacific Daylight Time)","552648","Match,No Match","","null","","","","","","<div class='trialBorder'><div class='vertical-center'><img src='img/correct.jpg'></div><div class='respDiv'><div class='respDivL'>Match<br>(e)</div><div class='respDivR'><font style='color:orange'>No Match<br>(i)</font></div></div></div>","null","FEEDBACK","","","","","","","","","","",""
"html-keyboard-response","65","175855","0.0-7.0-1.6","63ee5e103b44d07673cc8bd6","bdp_wmem","Sat Apr 08 2023 09:36:00 GMT-0700 (Pacific Daylight Time)","552648","Match,No Match","","null","","","","","","<div class='trialBorder'><div class='vertical-center'><img src='img/fixation2_sml.jpg'</img></div></div>","null","FIX","","","","","","","","","","",""
"html-keyboard-response","66","177357","0.0-7.0-2.6","63ee5e103b44d07673cc8bd6","bdp_wmem","Sat Apr 08 2023 09:36:00 GMT-0700 (Pacific Daylight Time)","552648","Match,No Match","","null","","","","","","<div class='trialBorder'><div class='vertical-center'><img style='vertical-align:center; align:center' src='img/fixation2_sml.jpg'></div><div class='arrayDiv1'><div class='tc'><img class='introPic' src='trustrating_stim/white_mw038.bmp'><br><font color='green'><strong>Share</strong></font></div></div></div>","null","ARRAY","1","trustrating_stim/white_mw038.bmp","1","Match","e","1500","","","","",""
"html-keyboard-response","67","181359","0.0-7.0-3.6","63ee5e103b44d07673cc8bd6","bdp_wmem","Sat Apr 08 2023 09:36:00 GMT-0700 (Pacific Daylight Time)","552648","Match,No Match","","null","","","","","","<div class='trialBorder'><div class='vertical-center'><img src='img/fixation2_sml.jpg'</img></div></div>","null","DELAY","","","","","","","","","","",""
"html-keyboard-response","68","182426","0.0-7.0-4.6","63ee5e103b44d07673cc8bd6","bdp_wmem","Sat Apr 08 2023 09:36:00 GMT-0700 (Pacific Daylight Time)","552648","Match,No Match","","1067","","","","","","<div class='trialBorder'><div class='targDiv'><div class='tc'><img class='introPic' src='trustrating_stim/white_mw038.bmp'><br><font color='green'><strong>Share</strong></font></div></div><div class='respDiv'><div class='respDivL'>Match<br>(e)</div><div class='respDivR'>No Match<br>(i)</div></div></div>","e","TARGET","1","trustrating_stim/white_mw038.bmp","1","Match","e","1500","trustrating_stim/white_mw038.bmp","green","Share","REAL","1"
"html-keyboard-response","69","182927","0.0-7.0-5.6","63ee5e103b44d07673cc8bd6","bdp_wmem","Sat Apr 08 2023 09:36:00 GMT-0700 (Pacific Daylight Time)","552648","Match,No Match","","null","","","","","","<div class='trialBorder'><div class='vertical-center'><img src='img/correct.jpg'></div><div class='respDiv'><div class='respDivL'><font style='color:orange'>Match<br>(e)</font></div><div class='respDivR'>No Match<br>(i)</div></div></div>","null","FEEDBACK","","","","","","","","","","",""
"html-keyboard-response","70","183429","0.0-7.0-1.7","63ee5e103b44d07673cc8bd6","bdp_wmem","Sat Apr 08 2023 09:36:00 GMT-0700 (Pacific Daylight Time)","552648","Match,No Match","","null","","","","","","<div class='trialBorder'><div class='vertical-center'><img src='img/fixation2_sml.jpg'</img></div></div>","null","FIX","","","","","","","","","","",""
"html-keyboard-response","71","186430","0.0-7.0-2.7","63ee5e103b44d07673cc8bd6","bdp_wmem","Sat Apr 08 2023 09:36:00 GMT-0700 (Pacific Daylight Time)","552648","Match,No Match","","null","","","","","","<div class='trialBorder'><div class='vertical-center'><img style='vertical-align:center; align:center' src='img/fixation2_sml.jpg'></div><div class='arrayDiv2'><div class='tl'><img class='introPic' src='trustrating_stim/white_mw040.bmp'><br><font color='red'><strong>Keep</strong></font></div><div class='tr'><img class='introPic' src='trustrating_stim/white_mw042.bmp'><br><font color='green'><strong>Share</strong></font></div></div></div>","null","ARRAY","2","trustrating_stim/white_mw040.bmp,trustrating_stim/white_mw042.bmp","0,1","noMatchOutcome","i","3000","","","","",""
"html-keyboard-response","72","190432","0.0-7.0-3.7","63ee5e103b44d07673cc8bd6","bdp_wmem","Sat Apr 08 2023 09:36:00 GMT-0700 (Pacific Daylight Time)","552648","Match,No Match","","null","","","","","","<div class='trialBorder'><div class='vertical-center'><img src='img/fixation2_sml.jpg'</img></div></div>","null","DELAY","","","","","","","","","","",""
"html-keyboard-response","73","192291","0.0-7.0-4.7","63ee5e103b44d07673cc8bd6","bdp_wmem","Sat Apr 08 2023 09:36:00 GMT-0700 (Pacific Daylight Time)","552648","Match,No Match","","1857","","","","","","<div class='trialBorder'><div class='targDiv'><div class='tc'><img class='introPic' src='trustrating_stim/white_mw042.bmp'><br><font color='red'><strong>Keep</strong></font></div></div><div class='respDiv'><div class='respDivL'>Match<br>(e)</div><div class='respDivR'>No Match<br>(i)</div></div></div>","i","TARGET","2","trustrating_stim/white_mw040.bmp,trustrating_stim/white_mw042.bmp","0,1","noMatchOutcome","i","3000","trustrating_stim/white_mw042.bmp","red","Keep","REAL","1"
"html-keyboard-response","74","192792","0.0-7.0-5.7","63ee5e103b44d07673cc8bd6","bdp_wmem","Sat Apr 08 2023 09:36:00 GMT-0700 (Pacific Daylight Time)","552648","Match,No Match","","null","","","","","","<div class='trialBorder'><div class='vertical-center'><img src='img/correct.jpg'></div><div class='respDiv'><div class='respDivL'>Match<br>(e)</div><div class='respDivR'><font style='color:orange'>No Match<br>(i)</font></div></div></div>","null","FEEDBACK","","","","","","","","","","",""
"html-keyboard-response","75","193293","0.0-7.0-1.8","63ee5e103b44d07673cc8bd6","bdp_wmem","Sat Apr 08 2023 09:36:00 GMT-0700 (Pacific Daylight Time)","552648","Match,No Match","","null","","","","","","<div class='trialBorder'><div class='vertical-center'><img src='img/fixation2_sml.jpg'</img></div></div>","null","FIX","","","","","","","","","","",""
"html-keyboard-response","76","194795","0.0-7.0-2.8","63ee5e103b44d07673cc8bd6","bdp_wmem","Sat Apr 08 2023 09:36:00 GMT-0700 (Pacific Daylight Time)","552648","Match,No Match","","null","","","","","","<div class='trialBorder'><div class='vertical-center'><img style='vertical-align:center; align:center' src='img/fixation2_sml.jpg'></div><div class='arrayDiv1'><div class='tc'><img class='introPic' src='trustrating_stim/white_mw092.bmp'><br><font color='green'><strong>Share</strong></font></div></div></div>","null","ARRAY","1","trustrating_stim/white_mw092.bmp","1","noMatchFace","i","1500","","","","",""
"html-keyboard-response","77","198798","0.0-7.0-3.8","63ee5e103b44d07673cc8bd6","bdp_wmem","Sat Apr 08 2023 09:36:00 GMT-0700 (Pacific Daylight Time)","552648","Match,No Match","","null","","","","","","<div class='trialBorder'><div class='vertical-center'><img src='img/fixation2_sml.jpg'</img></div></div>","null","DELAY","","","","","","","","","","",""
"html-keyboard-response","78","199496","0.0-7.0-4.8","63ee5e103b44d07673cc8bd6","bdp_wmem","Sat Apr 08 2023 09:36:00 GMT-0700 (Pacific Daylight Time)","552648","Match,No Match","","697","","","","","","<div class='trialBorder'><div class='targDiv'><div class='tc'><img class='introPic' src='trustrating_stim/white_mw078.bmp'><br><font color='green'><strong>Share</strong></font></div></div><div class='respDiv'><div class='respDivL'>Match<br>(e)</div><div class='respDivR'>No Match<br>(i)</div></div></div>","i","TARGET","1","trustrating_stim/white_mw092.bmp","1","noMatchFace","i","1500","trustrating_stim/white_mw078.bmp","green","Share","REAL","1"
"html-keyboard-response","79","199998","0.0-7.0-5.8","63ee5e103b44d07673cc8bd6","bdp_wmem","Sat Apr 08 2023 09:36:00 GMT-0700 (Pacific Daylight Time)","552648","Match,No Match","","null","","","","","","<div class='trialBorder'><div class='vertical-center'><img src='img/correct.jpg'></div><div class='respDiv'><div class='respDivL'>Match<br>(e)</div><div class='respDivR'><font style='color:orange'>No Match<br>(i)</font></div></div></div>","null","FEEDBACK","","","","","","","","","","",""
"html-keyboard-response","80","200499","0.0-7.0-1.9","63ee5e103b44d07673cc8bd6","bdp_wmem","Sat Apr 08 2023 09:36:00 GMT-0700 (Pacific Daylight Time)","552648","Match,No Match","","null","","","","","","<div class='trialBorder'><div class='vertical-center'><img src='img/fixation2_sml.jpg'</img></div></div>","null","FIX","","","","","","","","","","",""
"html-keyboard-response","81","205002","0.0-7.0-2.9","63ee5e103b44d07673cc8bd6","bdp_wmem","Sat Apr 08 2023 09:36:00 GMT-0700 (Pacific Daylight Time)","552648","Match,No Match","","null","","","","","","<div class='trialBorder'><div class='vertical-center'><img style='vertical-align:center; align:center' src='img/fixation2_sml.jpg'></div><div class='arrayDiv3'><div class='tl'><img class='introPic' src='trustrating_stim/white_mw013.bmp'><br><font color='red'><strong>Keep</strong></font></div><div class='tc'><img class='introPic' src='trustrating_stim/white_mw092.bmp'><br><font color='green'><strong>Share</strong></font></div><div class='tr'><img class='introPic' src='trustrating_stim/white_mw010.bmp'><br><font color='red'><strong>Keep</strong></font></div></div></div>","null","ARRAY","3","trustrating_stim/white_mw013.bmp,trustrating_stim/white_mw092.bmp,trustrating_stim/white_mw010.bmp","0,1,0","Match","e","4500","","","","",""
"html-keyboard-response","82","209003","0.0-7.0-3.9","63ee5e103b44d07673cc8bd6","bdp_wmem","Sat Apr 08 2023 09:36:00 GMT-0700 (Pacific Daylight Time)","552648","Match,No Match","","null","","","","","","<div class='trialBorder'><div class='vertical-center'><img src='img/fixation2_sml.jpg'</img></div></div>","null","DELAY","","","","","","","","","","",""
"html-keyboard-response","83","210199","0.0-7.0-4.9","63ee5e103b44d07673cc8bd6","bdp_wmem","Sat Apr 08 2023 09:36:00 GMT-0700 (Pacific Daylight Time)","552648","Match,No Match","","1195","","","","","","<div class='trialBorder'><div class='targDiv'><div class='tc'><img class='introPic' src='trustrating_stim/white_mw010.bmp'><br><font color='red'><strong>Keep</strong></font></div></div><div class='respDiv'><div class='respDivL'>Match<br>(e)</div><div class='respDivR'>No Match<br>(i)</div></div></div>","i","TARGET","3","trustrating_stim/white_mw013.bmp,trustrating_stim/white_mw092.bmp,trustrating_stim/white_mw010.bmp","0,1,0","Match","e","4500","trustrating_stim/white_mw010.bmp","red","Keep","REAL","0"
"html-keyboard-response","84","210700","0.0-7.0-5.9","63ee5e103b44d07673cc8bd6","bdp_wmem","Sat Apr 08 2023 09:36:00 GMT-0700 (Pacific Daylight Time)","552648","Match,No Match","","null","","","","","","<div class='trialBorder'><div class='vertical-center'><img src='img/error.jpg'></div><div class='respDiv'><div class='respDivL'>Match<br>(e)</div><div class='respDivR'><font style='color:orange'>No Match<br>(i)</font></div></div></div>","null","FEEDBACK","","","","","","","","","","",""
"html-keyboard-response","85","211202","0.0-7.0-1.10","63ee5e103b44d07673cc8bd6","bdp_wmem","Sat Apr 08 2023 09:36:00 GMT-0700 (Pacific Daylight Time)","552648","Match,No Match","","null","","","","","","<div class='trialBorder'><div class='vertical-center'><img src='img/fixation2_sml.jpg'</img></div></div>","null","FIX","","","","","","","","","","",""
"html-keyboard-response","86","212702","0.0-7.0-2.10","63ee5e103b44d07673cc8bd6","bdp_wmem","Sat Apr 08 2023 09:36:00 GMT-0700 (Pacific Daylight Time)","552648","Match,No Match","","null","","","","","","<div class='trialBorder'><div class='vertical-center'><img style='vertical-align:center; align:center' src='img/fixation2_sml.jpg'></div><div class='arrayDiv1'><div class='tc'><img class='introPic' src='trustrating_stim/white_mw003.bmp'><br><font color='red'><strong>Keep</strong></font></div></div></div>","null","ARRAY","1","trustrating_stim/white_mw003.bmp","0","Match","e","1500","","","","",""
"html-keyboard-response","87","216703","0.0-7.0-3.10","63ee5e103b44d07673cc8bd6","bdp_wmem","Sat Apr 08 2023 09:36:00 GMT-0700 (Pacific Daylight Time)","552648","Match,No Match","","null","","","","","","<div class='trialBorder'><div class='vertical-center'><img src='img/fixation2_sml.jpg'</img></div></div>","null","DELAY","","","","","","","","","","",""
"html-keyboard-response","88","217779","0.0-7.0-4.10","63ee5e103b44d07673cc8bd6","bdp_wmem","Sat Apr 08 2023 09:36:00 GMT-0700 (Pacific Daylight Time)","552648","Match,No Match","","1075","","","","","","<div class='trialBorder'><div class='targDiv'><div class='tc'><img class='introPic' src='trustrating_stim/white_mw003.bmp'><br><font color='red'><strong>Keep</strong></font></div></div><div class='respDiv'><div class='respDivL'>Match<br>(e)</div><div class='respDivR'>No Match<br>(i)</div></div></div>","e","TARGET","1","trustrating_stim/white_mw003.bmp","0","Match","e","1500","trustrating_stim/white_mw003.bmp","red","Keep","REAL","1"
"html-keyboard-response","89","218280","0.0-7.0-5.10","63ee5e103b44d07673cc8bd6","bdp_wmem","Sat Apr 08 2023 09:36:00 GMT-0700 (Pacific Daylight Time)","552648","Match,No Match","","null","","","","","","<div class='trialBorder'><div class='vertical-center'><img src='img/correct.jpg'></div><div class='respDiv'><div class='respDivL'><font style='color:orange'>Match<br>(e)</font></div><div class='respDivR'>No Match<br>(i)</div></div></div>","null","FEEDBACK","","","","","","","","","","",""
"html-keyboard-response","90","218782","0.0-7.0-1.11","63ee5e103b44d07673cc8bd6","bdp_wmem","Sat Apr 08 2023 09:36:00 GMT-0700 (Pacific Daylight Time)","552648","Match,No Match","","null","","","","","","<div class='trialBorder'><div class='vertical-center'><img src='img/fixation2_sml.jpg'</img></div></div>","null","FIX","","","","","","","","","","",""
"html-keyboard-response","91","221787","0.0-7.0-2.11","63ee5e103b44d07673cc8bd6","bdp_wmem","Sat Apr 08 2023 09:36:00 GMT-0700 (Pacific Daylight Time)","552648","Match,No Match","","null","","","","","","<div class='trialBorder'><div class='vertical-center'><img style='vertical-align:center; align:center' src='img/fixation2_sml.jpg'></div><div class='arrayDiv2'><div class='tl'><img class='introPic' src='trustrating_stim/white_mw012.bmp'><br><font color='green'><strong>Share</strong></font></div><div class='tr'><img class='introPic' src='trustrating_stim/white_mw092.bmp'><br><font color='red'><strong>Keep</strong></font></div></div></div>","null","ARRAY","2","trustrating_stim/white_mw012.bmp,trustrating_stim/white_mw092.bmp","1,0","noMatchOutcome","i","3000","","","","",""
"html-keyboard-response","92","225789","0.0-7.0-3.11","63ee5e103b44d07673cc8bd6","bdp_wmem","Sat Apr 08 2023 09:36:00 GMT-0700 (Pacific Daylight Time)","552648","Match,No Match","","null","","","","","","<div class='trialBorder'><div class='vertical-center'><img src='img/fixation2_sml.jpg'</img></div></div>","null","DELAY","","","","","","","","","","",""
"html-keyboard-response","93","226665","0.0-7.0-4.11","63ee5e103b44d07673cc8bd6","bdp_wmem","Sat Apr 08 2023 09:36:00 GMT-0700 (Pacific Daylight Time)","552648","Match,No Match","","875","","","","","","<div class='trialBorder'><div class='targDiv'><div class='tc'><img class='introPic' src='trustrating_stim/white_mw092.bmp'><br><font color='green'><strong>Share</strong></font></div></div><div class='respDiv'><div class='respDivL'>Match<br>(e)</div><div class='respDivR'>No Match<br>(i)</div></div></div>","i","TARGET","2","trustrating_stim/white_mw012.bmp,trustrating_stim/white_mw092.bmp","1,0","noMatchOutcome","i","3000","trustrating_stim/white_mw092.bmp","green","Share","REAL","1"
"html-keyboard-response","94","227166","0.0-7.0-5.11","63ee5e103b44d07673cc8bd6","bdp_wmem","Sat Apr 08 2023 09:36:00 GMT-0700 (Pacific Daylight Time)","552648","Match,No Match","","null","","","","","","<div class='trialBorder'><div class='vertical-center'><img src='img/correct.jpg'></div><div class='respDiv'><div class='respDivL'>Match<br>(e)</div><div class='respDivR'><font style='color:orange'>No Match<br>(i)</font></div></div></div>","null","FEEDBACK","","","","","","","","","","",""
"html-keyboard-response","95","227669","0.0-7.0-1.12","63ee5e103b44d07673cc8bd6","bdp_wmem","Sat Apr 08 2023 09:36:00 GMT-0700 (Pacific Daylight Time)","552648","Match,No Match","","null","","","","","","<div class='trialBorder'><div class='vertical-center'><img src='img/fixation2_sml.jpg'</img></div></div>","null","FIX","","","","","","","","","","",""
"html-keyboard-response","96","232171","0.0-7.0-2.12","63ee5e103b44d07673cc8bd6","bdp_wmem","Sat Apr 08 2023 09:36:00 GMT-0700 (Pacific Daylight Time)","552648","Match,No Match","","null","","","","","","<div class='trialBorder'><div class='vertical-center'><img style='vertical-align:center; align:center' src='img/fixation2_sml.jpg'></div><div class='arrayDiv3'><div class='tl'><img class='introPic' src='trustrating_stim/white_mw085.bmp'><br><font color='red'><strong>Keep</strong></font></div><div class='tc'><img class='introPic' src='trustrating_stim/white_mw078.bmp'><br><font color='green'><strong>Share</strong></font></div><div class='tr'><img class='introPic' src='trustrating_stim/white_mw070.bmp'><br><font color='green'><strong>Share</strong></font></div></div></div>","null","ARRAY","3","trustrating_stim/white_mw085.bmp,trustrating_stim/white_mw078.bmp,trustrating_stim/white_mw070.bmp","0,1,1","noMatchOutcome","i","4500","","","","",""
"html-keyboard-response","97","236173","0.0-7.0-3.12","63ee5e103b44d07673cc8bd6","bdp_wmem","Sat Apr 08 2023 09:36:00 GMT-0700 (Pacific Daylight Time)","552648","Match,No Match","","null","","","","","","<div class='trialBorder'><div class='vertical-center'><img src='img/fixation2_sml.jpg'</img></div></div>","null","DELAY","","","","","","","","","","",""
"html-keyboard-response","98","237791","0.0-7.0-4.12","63ee5e103b44d07673cc8bd6","bdp_wmem","Sat Apr 08 2023 09:36:00 GMT-0700 (Pacific Daylight Time)","552648","Match,No Match","","1617","","","","","","<div class='trialBorder'><div class='targDiv'><div class='tc'><img class='introPic' src='trustrating_stim/white_mw085.bmp'><br><font color='green'><strong>Share</strong></font></div></div><div class='respDiv'><div class='respDivL'>Match<br>(e)</div><div class='respDivR'>No Match<br>(i)</div></div></div>","i","TARGET","3","trustrating_stim/white_mw085.bmp,trustrating_stim/white_mw078.bmp,trustrating_stim/white_mw070.bmp","0,1,1","noMatchOutcome","i","4500","trustrating_stim/white_mw085.bmp","green","Share","REAL","1"
"html-keyboard-response","99","238292","0.0-7.0-5.12","63ee5e103b44d07673cc8bd6","bdp_wmem","Sat Apr 08 2023 09:36:00 GMT-0700 (Pacific Daylight Time)","552648","Match,No Match","","null","","","","","","<div class='trialBorder'><div class='vertical-center'><img src='img/correct.jpg'></div><div class='respDiv'><div class='respDivL'>Match<br>(e)</div><div class='respDivR'><font style='color:orange'>No Match<br>(i)</font></div></div></div>","null","FEEDBACK","","","","","","","","","","",""
"html-keyboard-response","100","238794","0.0-7.0-1.13","63ee5e103b44d07673cc8bd6","bdp_wmem","Sat Apr 08 2023 09:36:00 GMT-0700 (Pacific Daylight Time)","552648","Match,No Match","","null","","","","","","<div class='trialBorder'><div class='vertical-center'><img src='img/fixation2_sml.jpg'</img></div></div>","null","FIX","","","","","","","","","","",""
"html-keyboard-response","101","241796","0.0-7.0-2.13","63ee5e103b44d07673cc8bd6","bdp_wmem","Sat Apr 08 2023 09:36:00 GMT-0700 (Pacific Daylight Time)","552648","Match,No Match","","null","","","","","","<div class='trialBorder'><div class='vertical-center'><img style='vertical-align:center; align:center' src='img/fixation2_sml.jpg'></div><div class='arrayDiv2'><div class='tl'><img class='introPic' src='trustrating_stim/white_mw012.bmp'><br><font color='green'><strong>Share</strong></font></div><div class='tr'><img class='introPic' src='trustrating_stim/white_mw091.bmp'><br><font color='red'><strong>Keep</strong></font></div></div></div>","null","ARRAY","2","trustrating_stim/white_mw012.bmp,trustrating_stim/white_mw091.bmp","1,0","Match","e","3000","","","","",""
"html-keyboard-response","102","245798","0.0-7.0-3.13","63ee5e103b44d07673cc8bd6","bdp_wmem","Sat Apr 08 2023 09:36:00 GMT-0700 (Pacific Daylight Time)","552648","Match,No Match","","null","","","","","","<div class='trialBorder'><div class='vertical-center'><img src='img/fixation2_sml.jpg'</img></div></div>","null","DELAY","","","","","","","","","","",""
"html-keyboard-response","103","247656","0.0-7.0-4.13","63ee5e103b44d07673cc8bd6","bdp_wmem","Sat Apr 08 2023 09:36:00 GMT-0700 (Pacific Daylight Time)","552648","Match,No Match","","1856","","","","","","<div class='trialBorder'><div class='targDiv'><div class='tc'><img class='introPic' src='trustrating_stim/white_mw091.bmp'><br><font color='red'><strong>Keep</strong></font></div></div><div class='respDiv'><div class='respDivL'>Match<br>(e)</div><div class='respDivR'>No Match<br>(i)</div></div></div>","e","TARGET","2","trustrating_stim/white_mw012.bmp,trustrating_stim/white_mw091.bmp","1,0","Match","e","3000","trustrating_stim/white_mw091.bmp","red","Keep","REAL","1"
"html-keyboard-response","104","248157","0.0-7.0-5.13","63ee5e103b44d07673cc8bd6","bdp_wmem","Sat Apr 08 2023 09:36:00 GMT-0700 (Pacific Daylight Time)","552648","Match,No Match","","null","","","","","","<div class='trialBorder'><div class='vertical-center'><img src='img/correct.jpg'></div><div class='respDiv'><div class='respDivL'><font style='color:orange'>Match<br>(e)</font></div><div class='respDivR'>No Match<br>(i)</div></div></div>","null","FEEDBACK","","","","","","","","","","",""
"html-keyboard-response","105","248658","0.0-7.0-1.14","63ee5e103b44d07673cc8bd6","bdp_wmem","Sat Apr 08 2023 09:36:00 GMT-0700 (Pacific Daylight Time)","552648","Match,No Match","","null","","","","","","<div class='trialBorder'><div class='vertical-center'><img src='img/fixation2_sml.jpg'</img></div></div>","null","FIX","","","","","","","","","","",""
"html-keyboard-response","106","250160","0.0-7.0-2.14","63ee5e103b44d07673cc8bd6","bdp_wmem","Sat Apr 08 2023 09:36:00 GMT-0700 (Pacific Daylight Time)","552648","Match,No Match","","null","","","","","","<div class='trialBorder'><div class='vertical-center'><img style='vertical-align:center; align:center' src='img/fixation2_sml.jpg'></div><div class='arrayDiv1'><div class='tc'><img class='introPic' src='trustrating_stim/white_mw013.bmp'><br><font color='red'><strong>Keep</strong></font></div></div></div>","null","ARRAY","1","trustrating_stim/white_mw013.bmp","0","noMatchOutcome","i","1500","","","","",""
"html-keyboard-response","107","254161","0.0-7.0-3.14","63ee5e103b44d07673cc8bd6","bdp_wmem","Sat Apr 08 2023 09:36:00 GMT-0700 (Pacific Daylight Time)","552648","Match,No Match","","null","","","","","","<div class='trialBorder'><div class='vertical-center'><img src='img/fixation2_sml.jpg'</img></div></div>","null","DELAY","","","","","","","","","","",""
"html-keyboard-response","108","254737","0.0-7.0-4.14","63ee5e103b44d07673cc8bd6","bdp_wmem","Sat Apr 08 2023 09:36:00 GMT-0700 (Pacific Daylight Time)","552648","Match,No Match","","574","","","","","","<div class='trialBorder'><div class='targDiv'><div class='tc'><img class='introPic' src='trustrating_stim/white_mw013.bmp'><br><font color='green'><strong>Share</strong></font></div></div><div class='respDiv'><div class='respDivL'>Match<br>(e)</div><div class='respDivR'>No Match<br>(i)</div></div></div>","i","TARGET","1","trustrating_stim/white_mw013.bmp","0","noMatchOutcome","i","1500","trustrating_stim/white_mw013.bmp","green","Share","REAL","1"
"html-keyboard-response","109","255238","0.0-7.0-5.14","63ee5e103b44d07673cc8bd6","bdp_wmem","Sat Apr 08 2023 09:36:00 GMT-0700 (Pacific Daylight Time)","552648","Match,No Match","","null","","","","","","<div class='trialBorder'><div class='vertical-center'><img src='img/correct.jpg'></div><div class='respDiv'><div class='respDivL'>Match<br>(e)</div><div class='respDivR'><font style='color:orange'>No Match<br>(i)</font></div></div></div>","null","FEEDBACK","","","","","","","","","","",""
"html-keyboard-response","110","255739","0.0-7.0-1.15","63ee5e103b44d07673cc8bd6","bdp_wmem","Sat Apr 08 2023 09:36:00 GMT-0700 (Pacific Daylight Time)","552648","Match,No Match","","null","","","","","","<div class='trialBorder'><div class='vertical-center'><img src='img/fixation2_sml.jpg'</img></div></div>","null","FIX","","","","","","","","","","",""
"html-keyboard-response","111","258741","0.0-7.0-2.15","63ee5e103b44d07673cc8bd6","bdp_wmem","Sat Apr 08 2023 09:36:00 GMT-0700 (Pacific Daylight Time)","552648","Match,No Match","","null","","","","","","<div class='trialBorder'><div class='vertical-center'><img style='vertical-align:center; align:center' src='img/fixation2_sml.jpg'></div><div class='arrayDiv2'><div class='tl'><img class='introPic' src='trustrating_stim/white_mw040.bmp'><br><font color='red'><strong>Keep</strong></font></div><div class='tr'><img class='introPic' src='trustrating_stim/white_mw013.bmp'><br><font color='green'><strong>Share</strong></font></div></div></div>","null","ARRAY","2","trustrating_stim/white_mw040.bmp,trustrating_stim/white_mw013.bmp","0,1","Match","e","3000","","","","",""
"html-keyboard-response","112","262742","0.0-7.0-3.15","63ee5e103b44d07673cc8bd6","bdp_wmem","Sat Apr 08 2023 09:36:00 GMT-0700 (Pacific Daylight Time)","552648","Match,No Match","","null","","","","","","<div class='trialBorder'><div class='vertical-center'><img src='img/fixation2_sml.jpg'</img></div></div>","null","DELAY","","","","","","","","","","",""
"html-keyboard-response","113","264361","0.0-7.0-4.15","63ee5e103b44d07673cc8bd6","bdp_wmem","Sat Apr 08 2023 09:36:00 GMT-0700 (Pacific Daylight Time)","552648","Match,No Match","","1618","","","","","","<div class='trialBorder'><div class='targDiv'><div class='tc'><img class='introPic' src='trustrating_stim/white_mw013.bmp'><br><font color='green'><strong>Share</strong></font></div></div><div class='respDiv'><div class='respDivL'>Match<br>(e)</div><div class='respDivR'>No Match<br>(i)</div></div></div>","e","TARGET","2","trustrating_stim/white_mw040.bmp,trustrating_stim/white_mw013.bmp","0,1","Match","e","3000","trustrating_stim/white_mw013.bmp","green","Share","REAL","1"
"html-keyboard-response","114","264862","0.0-7.0-5.15","63ee5e103b44d07673cc8bd6","bdp_wmem","Sat Apr 08 2023 09:36:00 GMT-0700 (Pacific Daylight Time)","552648","Match,No Match","","null","","","","","","<div class='trialBorder'><div class='vertical-center'><img src='img/correct.jpg'></div><div class='respDiv'><div class='respDivL'><font style='color:orange'>Match<br>(e)</font></div><div class='respDivR'>No Match<br>(i)</div></div></div>","null","FEEDBACK","","","","","","","","","","",""
"html-keyboard-response","115","265364","0.0-7.0-1.16","63ee5e103b44d07673cc8bd6","bdp_wmem","Sat Apr 08 2023 09:36:00 GMT-0700 (Pacific Daylight Time)","552648","Match,No Match","","null","","","","","","<div class='trialBorder'><div class='vertical-center'><img src='img/fixation2_sml.jpg'</img></div></div>","null","FIX","","","","","","","","","","",""
"html-keyboard-response","116","266865","0.0-7.0-2.16","63ee5e103b44d07673cc8bd6","bdp_wmem","Sat Apr 08 2023 09:36:00 GMT-0700 (Pacific Daylight Time)","552648","Match,No Match","","null","","","","","","<div class='trialBorder'><div class='vertical-center'><img style='vertical-align:center; align:center' src='img/fixation2_sml.jpg'></div><div class='arrayDiv1'><div class='tc'><img class='introPic' src='trustrating_stim/white_mw040.bmp'><br><font color='green'><strong>Share</strong></font></div></div></div>","null","ARRAY","1","trustrating_stim/white_mw040.bmp","1","Match","e","1500","","","","",""
"html-keyboard-response","117","270867","0.0-7.0-3.16","63ee5e103b44d07673cc8bd6","bdp_wmem","Sat Apr 08 2023 09:36:00 GMT-0700 (Pacific Daylight Time)","552648","Match,No Match","","null","","","","","","<div class='trialBorder'><div class='vertical-center'><img src='img/fixation2_sml.jpg'</img></div></div>","null","DELAY","","","","","","","","","","",""
"html-keyboard-response","118","272073","0.0-7.0-4.16","63ee5e103b44d07673cc8bd6","bdp_wmem","Sat Apr 08 2023 09:36:00 GMT-0700 (Pacific Daylight Time)","552648","Match,No Match","","1205","","","","","","<div class='trialBorder'><div class='targDiv'><div class='tc'><img class='introPic' src='trustrating_stim/white_mw040.bmp'><br><font color='green'><strong>Share</strong></font></div></div><div class='respDiv'><div class='respDivL'>Match<br>(e)</div><div class='respDivR'>No Match<br>(i)</div></div></div>","e","TARGET","1","trustrating_stim/white_mw040.bmp","1","Match","e","1500","trustrating_stim/white_mw040.bmp","green","Share","REAL","1"
"html-keyboard-response","119","272574","0.0-7.0-5.16","63ee5e103b44d07673cc8bd6","bdp_wmem","Sat Apr 08 2023 09:36:00 GMT-0700 (Pacific Daylight Time)","552648","Match,No Match","","null","","","","","","<div class='trialBorder'><div class='vertical-center'><img src='img/correct.jpg'></div><div class='respDiv'><div class='respDivL'><font style='color:orange'>Match<br>(e)</font></div><div class='respDivR'>No Match<br>(i)</div></div></div>","null","FEEDBACK","","","","","","","","","","",""
"html-keyboard-response","120","273077","0.0-7.0-1.17","63ee5e103b44d07673cc8bd6","bdp_wmem","Sat Apr 08 2023 09:36:00 GMT-0700 (Pacific Daylight Time)","552648","Match,No Match","","null","","","","","","<div class='trialBorder'><div class='vertical-center'><img src='img/fixation2_sml.jpg'</img></div></div>","null","FIX","","","","","","","","","","",""
"html-keyboard-response","121","276079","0.0-7.0-2.17","63ee5e103b44d07673cc8bd6","bdp_wmem","Sat Apr 08 2023 09:36:00 GMT-0700 (Pacific Daylight Time)","552648","Match,No Match","","null","","","","","","<div class='trialBorder'><div class='vertical-center'><img style='vertical-align:center; align:center' src='img/fixation2_sml.jpg'></div><div class='arrayDiv2'><div class='tl'><img class='introPic' src='trustrating_stim/white_mw038.bmp'><br><font color='red'><strong>Keep</strong></font></div><div class='tr'><img class='introPic' src='trustrating_stim/white_mw042.bmp'><br><font color='green'><strong>Share</strong></font></div></div></div>","null","ARRAY","2","trustrating_stim/white_mw038.bmp,trustrating_stim/white_mw042.bmp","0,1","Match","e","3000","","","","",""
"html-keyboard-response","122","280080","0.0-7.0-3.17","63ee5e103b44d07673cc8bd6","bdp_wmem","Sat Apr 08 2023 09:36:00 GMT-0700 (Pacific Daylight Time)","552648","Match,No Match","","null","","","","","","<div class='trialBorder'><div class='vertical-center'><img src='img/fixation2_sml.jpg'</img></div></div>","null","DELAY","","","","","","","","","","",""
"html-keyboard-response","123","280628","0.0-7.0-4.17","63ee5e103b44d07673cc8bd6","bdp_wmem","Sat Apr 08 2023 09:36:00 GMT-0700 (Pacific Daylight Time)","552648","Match,No Match","","547","","","","","","<div class='trialBorder'><div class='targDiv'><div class='tc'><img class='introPic' src='trustrating_stim/white_mw038.bmp'><br><font color='red'><strong>Keep</strong></font></div></div><div class='respDiv'><div class='respDivL'>Match<br>(e)</div><div class='respDivR'>No Match<br>(i)</div></div></div>","e","TARGET","2","trustrating_stim/white_mw038.bmp,trustrating_stim/white_mw042.bmp","0,1","Match","e","3000","trustrating_stim/white_mw038.bmp","red","Keep","REAL","1"
"html-keyboard-response","124","281129","0.0-7.0-5.17","63ee5e103b44d07673cc8bd6","bdp_wmem","Sat Apr 08 2023 09:36:00 GMT-0700 (Pacific Daylight Time)","552648","Match,No Match","","null","","","","","","<div class='trialBorder'><div class='vertical-center'><img src='img/correct.jpg'></div><div class='respDiv'><div class='respDivL'><font style='color:orange'>Match<br>(e)</font></div><div class='respDivR'>No Match<br>(i)</div></div></div>","null","FEEDBACK","","","","","","","","","","",""
"html-keyboard-response","125","281630","0.0-7.0-1.18","63ee5e103b44d07673cc8bd6","bdp_wmem","Sat Apr 08 2023 09:36:00 GMT-0700 (Pacific Daylight Time)","552648","Match,No Match","","null","","","","","","<div class='trialBorder'><div class='vertical-center'><img src='img/fixation2_sml.jpg'</img></div></div>","null","FIX","","","","","","","","","","",""
"html-keyboard-response","126","283133","0.0-7.0-2.18","63ee5e103b44d07673cc8bd6","bdp_wmem","Sat Apr 08 2023 09:36:00 GMT-0700 (Pacific Daylight Time)","552648","Match,No Match","","null","","","","","","<div class='trialBorder'><div class='vertical-center'><img style='vertical-align:center; align:center' src='img/fixation2_sml.jpg'></div><div class='arrayDiv1'><div class='tc'><img class='introPic' src='trustrating_stim/white_mw040.bmp'><br><font color='green'><strong>Share</strong></font></div></div></div>","null","ARRAY","1","trustrating_stim/white_mw040.bmp","1","Match","e","1500","","","","",""
"html-keyboard-response","127","287134","0.0-7.0-3.18","63ee5e103b44d07673cc8bd6","bdp_wmem","Sat Apr 08 2023 09:36:00 GMT-0700 (Pacific Daylight Time)","552648","Match,No Match","","null","","","","","","<div class='trialBorder'><div class='vertical-center'><img src='img/fixation2_sml.jpg'</img></div></div>","null","DELAY","","","","","","","","","","",""
"html-keyboard-response","128","287780","0.0-7.0-4.18","63ee5e103b44d07673cc8bd6","bdp_wmem","Sat Apr 08 2023 09:36:00 GMT-0700 (Pacific Daylight Time)","552648","Match,No Match","","645","","","","","","<div class='trialBorder'><div class='targDiv'><div class='tc'><img class='introPic' src='trustrating_stim/white_mw040.bmp'><br><font color='green'><strong>Share</strong></font></div></div><div class='respDiv'><div class='respDivL'>Match<br>(e)</div><div class='respDivR'>No Match<br>(i)</div></div></div>","e","TARGET","1","trustrating_stim/white_mw040.bmp","1","Match","e","1500","trustrating_stim/white_mw040.bmp","green","Share","REAL","1"
"html-keyboard-response","129","288281","0.0-7.0-5.18","63ee5e103b44d07673cc8bd6","bdp_wmem","Sat Apr 08 2023 09:36:00 GMT-0700 (Pacific Daylight Time)","552648","Match,No Match","","null","","","","","","<div class='trialBorder'><div class='vertical-center'><img src='img/correct.jpg'></div><div class='respDiv'><div class='respDivL'><font style='color:orange'>Match<br>(e)</font></div><div class='respDivR'>No Match<br>(i)</div></div></div>","null","FEEDBACK","","","","","","","","","","",""
"html-keyboard-response","130","288782","0.0-7.0-1.19","63ee5e103b44d07673cc8bd6","bdp_wmem","Sat Apr 08 2023 09:36:00 GMT-0700 (Pacific Daylight Time)","552648","Match,No Match","","null","","","","","","<div class='trialBorder'><div class='vertical-center'><img src='img/fixation2_sml.jpg'</img></div></div>","null","FIX","","","","","","","","","","",""
"html-keyboard-response","131","291785","0.0-7.0-2.19","63ee5e103b44d07673cc8bd6","bdp_wmem","Sat Apr 08 2023 09:36:00 GMT-0700 (Pacific Daylight Time)","552648","Match,No Match","","null","","","","","","<div class='trialBorder'><div class='vertical-center'><img style='vertical-align:center; align:center' src='img/fixation2_sml.jpg'></div><div class='arrayDiv2'><div class='tl'><img class='introPic' src='trustrating_stim/white_mw078.bmp'><br><font color='red'><strong>Keep</strong></font></div><div class='tr'><img class='introPic' src='trustrating_stim/white_mw042.bmp'><br><font color='green'><strong>Share</strong></font></div></div></div>","null","ARRAY","2","trustrating_stim/white_mw078.bmp,trustrating_stim/white_mw042.bmp","0,1","Match","e","3000","","","","",""
"html-keyboard-response","132","295786","0.0-7.0-3.19","63ee5e103b44d07673cc8bd6","bdp_wmem","Sat Apr 08 2023 09:36:00 GMT-0700 (Pacific Daylight Time)","552648","Match,No Match","","null","","","","","","<div class='trialBorder'><div class='vertical-center'><img src='img/fixation2_sml.jpg'</img></div></div>","null","DELAY","","","","","","","","","","",""
"html-keyboard-response","133","296804","0.0-7.0-4.19","63ee5e103b44d07673cc8bd6","bdp_wmem","Sat Apr 08 2023 09:36:00 GMT-0700 (Pacific Daylight Time)","552648","Match,No Match","","1016","","","","","","<div class='trialBorder'><div class='targDiv'><div class='tc'><img class='introPic' src='trustrating_stim/white_mw078.bmp'><br><font color='red'><strong>Keep</strong></font></div></div><div class='respDiv'><div class='respDivL'>Match<br>(e)</div><div class='respDivR'>No Match<br>(i)</div></div></div>","e","TARGET","2","trustrating_stim/white_mw078.bmp,trustrating_stim/white_mw042.bmp","0,1","Match","e","3000","trustrating_stim/white_mw078.bmp","red","Keep","REAL","1"
"html-keyboard-response","134","297305","0.0-7.0-5.19","63ee5e103b44d07673cc8bd6","bdp_wmem","Sat Apr 08 2023 09:36:00 GMT-0700 (Pacific Daylight Time)","552648","Match,No Match","","null","","","","","","<div class='trialBorder'><div class='vertical-center'><img src='img/correct.jpg'></div><div class='respDiv'><div class='respDivL'><font style='color:orange'>Match<br>(e)</font></div><div class='respDivR'>No Match<br>(i)</div></div></div>","null","FEEDBACK","","","","","","","","","","",""
"html-keyboard-response","135","297807","0.0-7.0-1.20","63ee5e103b44d07673cc8bd6","bdp_wmem","Sat Apr 08 2023 09:36:00 GMT-0700 (Pacific Daylight Time)","552648","Match,No Match","","null","","","","","","<div class='trialBorder'><div class='vertical-center'><img src='img/fixation2_sml.jpg'</img></div></div>","null","FIX","","","","","","","","","","",""
"html-keyboard-response","136","299309","0.0-7.0-2.20","63ee5e103b44d07673cc8bd6","bdp_wmem","Sat Apr 08 2023 09:36:00 GMT-0700 (Pacific Daylight Time)","552648","Match,No Match","","null","","","","","","<div class='trialBorder'><div class='vertical-center'><img style='vertical-align:center; align:center' src='img/fixation2_sml.jpg'></div><div class='arrayDiv1'><div class='tc'><img class='introPic' src='trustrating_stim/white_mw091.bmp'><br><font color='red'><strong>Keep</strong></font></div></div></div>","null","ARRAY","1","trustrating_stim/white_mw091.bmp","0","noMatchOutcome","i","1500","","","","",""
"html-keyboard-response","137","303311","0.0-7.0-3.20","63ee5e103b44d07673cc8bd6","bdp_wmem","Sat Apr 08 2023 09:36:00 GMT-0700 (Pacific Daylight Time)","552648","Match,No Match","","null","","","","","","<div class='trialBorder'><div class='vertical-center'><img src='img/fixation2_sml.jpg'</img></div></div>","null","DELAY","","","","","","","","","","",""
"html-keyboard-response","138","304193","0.0-7.0-4.20","63ee5e103b44d07673cc8bd6","bdp_wmem","Sat Apr 08 2023 09:36:00 GMT-0700 (Pacific Daylight Time)","552648","Match,No Match","","881","","","","","","<div class='trialBorder'><div class='targDiv'><div class='tc'><img class='introPic' src='trustrating_stim/white_mw091.bmp'><br><font color='green'><strong>Share</strong></font></div></div><div class='respDiv'><div class='respDivL'>Match<br>(e)</div><div class='respDivR'>No Match<br>(i)</div></div></div>","i","TARGET","1","trustrating_stim/white_mw091.bmp","0","noMatchOutcome","i","1500","trustrating_stim/white_mw091.bmp","green","Share","REAL","1"
"html-keyboard-response","139","304695","0.0-7.0-5.20","63ee5e103b44d07673cc8bd6","bdp_wmem","Sat Apr 08 2023 09:36:00 GMT-0700 (Pacific Daylight Time)","552648","Match,No Match","","null","","","","","","<div class='trialBorder'><div class='vertical-center'><img src='img/correct.jpg'></div><div class='respDiv'><div class='respDivL'>Match<br>(e)</div><div class='respDivR'><font style='color:orange'>No Match<br>(i)</font></div></div></div>","null","FEEDBACK","","","","","","","","","","",""
"html-keyboard-response","140","305197","0.0-7.0-1.21","63ee5e103b44d07673cc8bd6","bdp_wmem","Sat Apr 08 2023 09:36:00 GMT-0700 (Pacific Daylight Time)","552648","Match,No Match","","null","","","","","","<div class='trialBorder'><div class='vertical-center'><img src='img/fixation2_sml.jpg'</img></div></div>","null","FIX","","","","","","","","","","",""
"html-keyboard-response","141","309699","0.0-7.0-2.21","63ee5e103b44d07673cc8bd6","bdp_wmem","Sat Apr 08 2023 09:36:00 GMT-0700 (Pacific Daylight Time)","552648","Match,No Match","","null","","","","","","<div class='trialBorder'><div class='vertical-center'><img style='vertical-align:center; align:center' src='img/fixation2_sml.jpg'></div><div class='arrayDiv3'><div class='tl'><img class='introPic' src='trustrating_stim/white_mw091.bmp'><br><font color='red'><strong>Keep</strong></font></div><div class='tc'><img class='introPic' src='trustrating_stim/white_mw010.bmp'><br><font color='green'><strong>Share</strong></font></div><div class='tr'><img class='introPic' src='trustrating_stim/white_mw085.bmp'><br><font color='green'><strong>Share</strong></font></div></div></div>","null","ARRAY","3","trustrating_stim/white_mw091.bmp,trustrating_stim/white_mw010.bmp,trustrating_stim/white_mw085.bmp","0,1,1","noMatchFace","i","4500","","","","",""
"html-keyboard-response","142","313700","0.0-7.0-3.21","63ee5e103b44d07673cc8bd6","bdp_wmem","Sat Apr 08 2023 09:36:00 GMT-0700 (Pacific Daylight Time)","552648","Match,No Match","","null","","","","","","<div class='trialBorder'><div class='vertical-center'><img src='img/fixation2_sml.jpg'</img></div></div>","null","DELAY","","","","","","","","","","",""
"html-keyboard-response","143","314937","0.0-7.0-4.21","63ee5e103b44d07673cc8bd6","bdp_wmem","Sat Apr 08 2023 09:36:00 GMT-0700 (Pacific Daylight Time)","552648","Match,No Match","","1236","","","","","","<div class='trialBorder'><div class='targDiv'><div class='tc'><img class='introPic' src='trustrating_stim/white_mw078.bmp'><br><font color='red'><strong>Keep</strong></font></div></div><div class='respDiv'><div class='respDivL'>Match<br>(e)</div><div class='respDivR'>No Match<br>(i)</div></div></div>","i","TARGET","3","trustrating_stim/white_mw091.bmp,trustrating_stim/white_mw010.bmp,trustrating_stim/white_mw085.bmp","0,1,1","noMatchFace","i","4500","trustrating_stim/white_mw078.bmp","red","Keep","REAL","1"
"html-keyboard-response","144","315440","0.0-7.0-5.21","63ee5e103b44d07673cc8bd6","bdp_wmem","Sat Apr 08 2023 09:36:00 GMT-0700 (Pacific Daylight Time)","552648","Match,No Match","","null","","","","","","<div class='trialBorder'><div class='vertical-center'><img src='img/correct.jpg'></div><div class='respDiv'><div class='respDivL'>Match<br>(e)</div><div class='respDivR'><font style='color:orange'>No Match<br>(i)</font></div></div></div>","null","FEEDBACK","","","","","","","","","","",""
"html-keyboard-response","145","315942","0.0-7.0-1.22","63ee5e103b44d07673cc8bd6","bdp_wmem","Sat Apr 08 2023 09:36:00 GMT-0700 (Pacific Daylight Time)","552648","Match,No Match","","null","","","","","","<div class='trialBorder'><div class='vertical-center'><img src='img/fixation2_sml.jpg'</img></div></div>","null","FIX","","","","","","","","","","",""
"html-keyboard-response","146","320444","0.0-7.0-2.22","63ee5e103b44d07673cc8bd6","bdp_wmem","Sat Apr 08 2023 09:36:00 GMT-0700 (Pacific Daylight Time)","552648","Match,No Match","","null","","","","","","<div class='trialBorder'><div class='vertical-center'><img style='vertical-align:center; align:center' src='img/fixation2_sml.jpg'></div><div class='arrayDiv3'><div class='tl'><img class='introPic' src='trustrating_stim/white_mw013.bmp'><br><font color='green'><strong>Share</strong></font></div><div class='tc'><img class='introPic' src='trustrating_stim/white_mw085.bmp'><br><font color='red'><strong>Keep</strong></font></div><div class='tr'><img class='introPic' src='trustrating_stim/white_mw091.bmp'><br><font color='green'><strong>Share</strong></font></div></div></div>","null","ARRAY","3","trustrating_stim/white_mw013.bmp,trustrating_stim/white_mw085.bmp,trustrating_stim/white_mw091.bmp","1,0,1","noMatchFace","i","4500","","","","",""
"html-keyboard-response","147","324445","0.0-7.0-3.22","63ee5e103b44d07673cc8bd6","bdp_wmem","Sat Apr 08 2023 09:36:00 GMT-0700 (Pacific Daylight Time)","552648","Match,No Match","","null","","","","","","<div class='trialBorder'><div class='vertical-center'><img src='img/fixation2_sml.jpg'</img></div></div>","null","DELAY","","","","","","","","","","",""
"html-keyboard-response","148","325267","0.0-7.0-4.22","63ee5e103b44d07673cc8bd6","bdp_wmem","Sat Apr 08 2023 09:36:00 GMT-0700 (Pacific Daylight Time)","552648","Match,No Match","","820","","","","","","<div class='trialBorder'><div class='targDiv'><div class='tc'><img class='introPic' src='trustrating_stim/white_mw092.bmp'><br><font color='green'><strong>Share</strong></font></div></div><div class='respDiv'><div class='respDivL'>Match<br>(e)</div><div class='respDivR'>No Match<br>(i)</div></div></div>","i","TARGET","3","trustrating_stim/white_mw013.bmp,trustrating_stim/white_mw085.bmp,trustrating_stim/white_mw091.bmp","1,0,1","noMatchFace","i","4500","trustrating_stim/white_mw092.bmp","green","Share","REAL","1"
"html-keyboard-response","149","325768","0.0-7.0-5.22","63ee5e103b44d07673cc8bd6","bdp_wmem","Sat Apr 08 2023 09:36:00 GMT-0700 (Pacific Daylight Time)","552648","Match,No Match","","null","","","","","","<div class='trialBorder'><div class='vertical-center'><img src='img/correct.jpg'></div><div class='respDiv'><div class='respDivL'>Match<br>(e)</div><div class='respDivR'><font style='color:orange'>No Match<br>(i)</font></div></div></div>","null","FEEDBACK","","","","","","","","","","",""
"html-keyboard-response","150","326268","0.0-7.0-1.23","63ee5e103b44d07673cc8bd6","bdp_wmem","Sat Apr 08 2023 09:36:00 GMT-0700 (Pacific Daylight Time)","552648","Match,No Match","","null","","","","","","<div class='trialBorder'><div class='vertical-center'><img src='img/fixation2_sml.jpg'</img></div></div>","null","FIX","","","","","","","","","","",""
"html-keyboard-response","151","330770","0.0-7.0-2.23","63ee5e103b44d07673cc8bd6","bdp_wmem","Sat Apr 08 2023 09:36:00 GMT-0700 (Pacific Daylight Time)","552648","Match,No Match","","null","","","","","","<div class='trialBorder'><div class='vertical-center'><img style='vertical-align:center; align:center' src='img/fixation2_sml.jpg'></div><div class='arrayDiv3'><div class='tl'><img class='introPic' src='trustrating_stim/white_mw091.bmp'><br><font color='red'><strong>Keep</strong></font></div><div class='tc'><img class='introPic' src='trustrating_stim/white_mw040.bmp'><br><font color='green'><strong>Share</strong></font></div><div class='tr'><img class='introPic' src='trustrating_stim/white_mw038.bmp'><br><font color='red'><strong>Keep</strong></font></div></div></div>","null","ARRAY","3","trustrating_stim/white_mw091.bmp,trustrating_stim/white_mw040.bmp,trustrating_stim/white_mw038.bmp","0,1,0","noMatchFace","i","4500","","","","",""
"html-keyboard-response","152","334772","0.0-7.0-3.23","63ee5e103b44d07673cc8bd6","bdp_wmem","Sat Apr 08 2023 09:36:00 GMT-0700 (Pacific Daylight Time)","552648","Match,No Match","","null","","","","","","<div class='trialBorder'><div class='vertical-center'><img src='img/fixation2_sml.jpg'</img></div></div>","null","DELAY","","","","","","","","","","",""
"html-keyboard-response","153","335673","0.0-7.0-4.23","63ee5e103b44d07673cc8bd6","bdp_wmem","Sat Apr 08 2023 09:36:00 GMT-0700 (Pacific Daylight Time)","552648","Match,No Match","","900","","","","","","<div class='trialBorder'><div class='targDiv'><div class='tc'><img class='introPic' src='trustrating_stim/white_mw013.bmp'><br><font color='red'><strong>Keep</strong></font></div></div><div class='respDiv'><div class='respDivL'>Match<br>(e)</div><div class='respDivR'>No Match<br>(i)</div></div></div>","i","TARGET","3","trustrating_stim/white_mw091.bmp,trustrating_stim/white_mw040.bmp,trustrating_stim/white_mw038.bmp","0,1,0","noMatchFace","i","4500","trustrating_stim/white_mw013.bmp","red","Keep","REAL","1"
"html-keyboard-response","154","336174","0.0-7.0-5.23","63ee5e103b44d07673cc8bd6","bdp_wmem","Sat Apr 08 2023 09:36:00 GMT-0700 (Pacific Daylight Time)","552648","Match,No Match","","null","","","","","","<div class='trialBorder'><div class='vertical-center'><img src='img/correct.jpg'></div><div class='respDiv'><div class='respDivL'>Match<br>(e)</div><div class='respDivR'><font style='color:orange'>No Match<br>(i)</font></div></div></div>","null","FEEDBACK","","","","","","","","","","",""
"html-keyboard-response","155","336675","0.0-7.0-1.24","63ee5e103b44d07673cc8bd6","bdp_wmem","Sat Apr 08 2023 09:36:00 GMT-0700 (Pacific Daylight Time)","552648","Match,No Match","","null","","","","","","<div class='trialBorder'><div class='vertical-center'><img src='img/fixation2_sml.jpg'</img></div></div>","null","FIX","","","","","","","","","","",""
"html-keyboard-response","156","341177","0.0-7.0-2.24","63ee5e103b44d07673cc8bd6","bdp_wmem","Sat Apr 08 2023 09:36:00 GMT-0700 (Pacific Daylight Time)","552648","Match,No Match","","null","","","","","","<div class='trialBorder'><div class='vertical-center'><img style='vertical-align:center; align:center' src='img/fixation2_sml.jpg'></div><div class='arrayDiv3'><div class='tl'><img class='introPic' src='trustrating_stim/white_mw038.bmp'><br><font color='green'><strong>Share</strong></font></div><div class='tc'><img class='introPic' src='trustrating_stim/white_mw085.bmp'><br><font color='red'><strong>Keep</strong></font></div><div class='tr'><img class='introPic' src='trustrating_stim/white_mw092.bmp'><br><font color='green'><strong>Share</strong></font></div></div></div>","null","ARRAY","3","trustrating_stim/white_mw038.bmp,trustrating_stim/white_mw085.bmp,trustrating_stim/white_mw092.bmp","1,0,1","noMatchOutcome","i","4500","","","","",""
"html-keyboard-response","157","345178","0.0-7.0-3.24","63ee5e103b44d07673cc8bd6","bdp_wmem","Sat Apr 08 2023 09:36:00 GMT-0700 (Pacific Daylight Time)","552648","Match,No Match","","null","","","","","","<div class='trialBorder'><div class='vertical-center'><img src='img/fixation2_sml.jpg'</img></div></div>","null","DELAY","","","","","","","","","","",""
"html-keyboard-response","158","345949","0.0-7.0-4.24","63ee5e103b44d07673cc8bd6","bdp_wmem","Sat Apr 08 2023 09:36:00 GMT-0700 (Pacific Daylight Time)","552648","Match,No Match","","770","","","","","","<div class='trialBorder'><div class='targDiv'><div class='tc'><img class='introPic' src='trustrating_stim/white_mw038.bmp'><br><font color='red'><strong>Keep</strong></font></div></div><div class='respDiv'><div class='respDivL'>Match<br>(e)</div><div class='respDivR'>No Match<br>(i)</div></div></div>","i","TARGET","3","trustrating_stim/white_mw038.bmp,trustrating_stim/white_mw085.bmp,trustrating_stim/white_mw092.bmp","1,0,1","noMatchOutcome","i","4500","trustrating_stim/white_mw038.bmp","red","Keep","REAL","1"
"html-keyboard-response","159","346450","0.0-7.0-5.24","63ee5e103b44d07673cc8bd6","bdp_wmem","Sat Apr 08 2023 09:36:00 GMT-0700 (Pacific Daylight Time)","552648","Match,No Match","","null","","","","","","<div class='trialBorder'><div class='vertical-center'><img src='img/correct.jpg'></div><div class='respDiv'><div class='respDivL'>Match<br>(e)</div><div class='respDivR'><font style='color:orange'>No Match<br>(i)</font></div></div></div>","null","FEEDBACK","","","","","","","","","","",""
"html-keyboard-response","160","346952","0.0-7.0-1.25","63ee5e103b44d07673cc8bd6","bdp_wmem","Sat Apr 08 2023 09:36:00 GMT-0700 (Pacific Daylight Time)","552648","Match,No Match","","null","","","","","","<div class='trialBorder'><div class='vertical-center'><img src='img/fixation2_sml.jpg'</img></div></div>","null","FIX","","","","","","","","","","",""
"html-keyboard-response","161","351455","0.0-7.0-2.25","63ee5e103b44d07673cc8bd6","bdp_wmem","Sat Apr 08 2023 09:36:00 GMT-0700 (Pacific Daylight Time)","552648","Match,No Match","","null","","","","","","<div class='trialBorder'><div class='vertical-center'><img style='vertical-align:center; align:center' src='img/fixation2_sml.jpg'></div><div class='arrayDiv3'><div class='tl'><img class='introPic' src='trustrating_stim/white_mw085.bmp'><br><font color='green'><strong>Share</strong></font></div><div class='tc'><img class='introPic' src='trustrating_stim/white_mw070.bmp'><br><font color='red'><strong>Keep</strong></font></div><div class='tr'><img class='introPic' src='trustrating_stim/white_mw012.bmp'><br><font color='green'><strong>Share</strong></font></div></div></div>","null","ARRAY","3","trustrating_stim/white_mw085.bmp,trustrating_stim/white_mw070.bmp,trustrating_stim/white_mw012.bmp","1,0,1","Match","e","4500","","","","",""
"html-keyboard-response","162","355456","0.0-7.0-3.25","63ee5e103b44d07673cc8bd6","bdp_wmem","Sat Apr 08 2023 09:36:00 GMT-0700 (Pacific Daylight Time)","552648","Match,No Match","","null","","","","","","<div class='trialBorder'><div class='vertical-center'><img src='img/fixation2_sml.jpg'</img></div></div>","null","DELAY","","","","","","","","","","",""
"html-keyboard-response","163","356893","0.0-7.0-4.25","63ee5e103b44d07673cc8bd6","bdp_wmem","Sat Apr 08 2023 09:36:00 GMT-0700 (Pacific Daylight Time)","552648","Match,No Match","","1436","","","","","","<div class='trialBorder'><div class='targDiv'><div class='tc'><img class='introPic' src='trustrating_stim/white_mw012.bmp'><br><font color='green'><strong>Share</strong></font></div></div><div class='respDiv'><div class='respDivL'>Match<br>(e)</div><div class='respDivR'>No Match<br>(i)</div></div></div>","i","TARGET","3","trustrating_stim/white_mw085.bmp,trustrating_stim/white_mw070.bmp,trustrating_stim/white_mw012.bmp","1,0,1","Match","e","4500","trustrating_stim/white_mw012.bmp","green","Share","REAL","0"
"html-keyboard-response","164","357395","0.0-7.0-5.25","63ee5e103b44d07673cc8bd6","bdp_wmem","Sat Apr 08 2023 09:36:00 GMT-0700 (Pacific Daylight Time)","552648","Match,No Match","","null","","","","","","<div class='trialBorder'><div class='vertical-center'><img src='img/error.jpg'></div><div class='respDiv'><div class='respDivL'>Match<br>(e)</div><div class='respDivR'><font style='color:orange'>No Match<br>(i)</font></div></div></div>","null","FEEDBACK","","","","","","","","","","",""
"html-keyboard-response","165","357896","0.0-7.0-1.26","63ee5e103b44d07673cc8bd6","bdp_wmem","Sat Apr 08 2023 09:36:00 GMT-0700 (Pacific Daylight Time)","552648","Match,No Match","","null","","","","","","<div class='trialBorder'><div class='vertical-center'><img src='img/fixation2_sml.jpg'</img></div></div>","null","FIX","","","","","","","","","","",""
"html-keyboard-response","166","360898","0.0-7.0-2.26","63ee5e103b44d07673cc8bd6","bdp_wmem","Sat Apr 08 2023 09:36:00 GMT-0700 (Pacific Daylight Time)","552648","Match,No Match","","null","","","","","","<div class='trialBorder'><div class='vertical-center'><img style='vertical-align:center; align:center' src='img/fixation2_sml.jpg'></div><div class='arrayDiv2'><div class='tl'><img class='introPic' src='trustrating_stim/white_mw010.bmp'><br><font color='green'><strong>Share</strong></font></div><div class='tr'><img class='introPic' src='trustrating_stim/white_mw092.bmp'><br><font color='red'><strong>Keep</strong></font></div></div></div>","null","ARRAY","2","trustrating_stim/white_mw010.bmp,trustrating_stim/white_mw092.bmp","1,0","noMatchFace","i","3000","","","","",""
"html-keyboard-response","167","364899","0.0-7.0-3.26","63ee5e103b44d07673cc8bd6","bdp_wmem","Sat Apr 08 2023 09:36:00 GMT-0700 (Pacific Daylight Time)","552648","Match,No Match","","null","","","","","","<div class='trialBorder'><div class='vertical-center'><img src='img/fixation2_sml.jpg'</img></div></div>","null","DELAY","","","","","","","","","","",""
"html-keyboard-response","168","365790","0.0-7.0-4.26","63ee5e103b44d07673cc8bd6","bdp_wmem","Sat Apr 08 2023 09:36:00 GMT-0700 (Pacific Daylight Time)","552648","Match,No Match","","890","","","","","","<div class='trialBorder'><div class='targDiv'><div class='tc'><img class='introPic' src='trustrating_stim/white_mw038.bmp'><br><font color='green'><strong>Share</strong></font></div></div><div class='respDiv'><div class='respDivL'>Match<br>(e)</div><div class='respDivR'>No Match<br>(i)</div></div></div>","i","TARGET","2","trustrating_stim/white_mw010.bmp,trustrating_stim/white_mw092.bmp","1,0","noMatchFace","i","3000","trustrating_stim/white_mw038.bmp","green","Share","REAL","1"
"html-keyboard-response","169","366306","0.0-7.0-5.26","63ee5e103b44d07673cc8bd6","bdp_wmem","Sat Apr 08 2023 09:36:00 GMT-0700 (Pacific Daylight Time)","552648","Match,No Match","","null","","","","","","<div class='trialBorder'><div class='vertical-center'><img src='img/correct.jpg'></div><div class='respDiv'><div class='respDivL'>Match<br>(e)</div><div class='respDivR'><font style='color:orange'>No Match<br>(i)</font></div></div></div>","null","FEEDBACK","","","","","","","","","","",""
"html-keyboard-response","170","366808","0.0-7.0-1.27","63ee5e103b44d07673cc8bd6","bdp_wmem","Sat Apr 08 2023 09:36:00 GMT-0700 (Pacific Daylight Time)","552648","Match,No Match","","null","","","","","","<div class='trialBorder'><div class='vertical-center'><img src='img/fixation2_sml.jpg'</img></div></div>","null","FIX","","","","","","","","","","",""
"html-keyboard-response","171","368309","0.0-7.0-2.27","63ee5e103b44d07673cc8bd6","bdp_wmem","Sat Apr 08 2023 09:36:00 GMT-0700 (Pacific Daylight Time)","552648","Match,No Match","","null","","","","","","<div class='trialBorder'><div class='vertical-center'><img style='vertical-align:center; align:center' src='img/fixation2_sml.jpg'></div><div class='arrayDiv1'><div class='tc'><img class='introPic' src='trustrating_stim/white_mw012.bmp'><br><font color='green'><strong>Share</strong></font></div></div></div>","null","ARRAY","1","trustrating_stim/white_mw012.bmp","1","Match","e","1500","","","","",""
"html-keyboard-response","172","372311","0.0-7.0-3.27","63ee5e103b44d07673cc8bd6","bdp_wmem","Sat Apr 08 2023 09:36:00 GMT-0700 (Pacific Daylight Time)","552648","Match,No Match","","null","","","","","","<div class='trialBorder'><div class='vertical-center'><img src='img/fixation2_sml.jpg'</img></div></div>","null","DELAY","","","","","","","","","","",""
"html-keyboard-response","173","372973","0.0-7.0-4.27","63ee5e103b44d07673cc8bd6","bdp_wmem","Sat Apr 08 2023 09:36:00 GMT-0700 (Pacific Daylight Time)","552648","Match,No Match","","662","","","","","","<div class='trialBorder'><div class='targDiv'><div class='tc'><img class='introPic' src='trustrating_stim/white_mw012.bmp'><br><font color='green'><strong>Share</strong></font></div></div><div class='respDiv'><div class='respDivL'>Match<br>(e)</div><div class='respDivR'>No Match<br>(i)</div></div></div>","e","TARGET","1","trustrating_stim/white_mw012.bmp","1","Match","e","1500","trustrating_stim/white_mw012.bmp","green","Share","REAL","1"
"html-keyboard-response","174","373476","0.0-7.0-5.27","63ee5e103b44d07673cc8bd6","bdp_wmem","Sat Apr 08 2023 09:36:00 GMT-0700 (Pacific Daylight Time)","552648","Match,No Match","","null","","","","","","<div class='trialBorder'><div class='vertical-center'><img src='img/correct.jpg'></div><div class='respDiv'><div class='respDivL'><font style='color:orange'>Match<br>(e)</font></div><div class='respDivR'>No Match<br>(i)</div></div></div>","null","FEEDBACK","","","","","","","","","","",""
"html-keyboard-response","175","373977","0.0-7.0-1.28","63ee5e103b44d07673cc8bd6","bdp_wmem","Sat Apr 08 2023 09:36:00 GMT-0700 (Pacific Daylight Time)","552648","Match,No Match","","null","","","","","","<div class='trialBorder'><div class='vertical-center'><img src='img/fixation2_sml.jpg'</img></div></div>","null","FIX","","","","","","","","","","",""
"html-keyboard-response","176","375479","0.0-7.0-2.28","63ee5e103b44d07673cc8bd6","bdp_wmem","Sat Apr 08 2023 09:36:00 GMT-0700 (Pacific Daylight Time)","552648","Match,No Match","","null","","","","","","<div class='trialBorder'><div class='vertical-center'><img style='vertical-align:center; align:center' src='img/fixation2_sml.jpg'></div><div class='arrayDiv1'><div class='tc'><img class='introPic' src='trustrating_stim/white_mw010.bmp'><br><font color='green'><strong>Share</strong></font></div></div></div>","null","ARRAY","1","trustrating_stim/white_mw010.bmp","1","noMatchFace","i","1500","","","","",""
"html-keyboard-response","177","379481","0.0-7.0-3.28","63ee5e103b44d07673cc8bd6","bdp_wmem","Sat Apr 08 2023 09:36:00 GMT-0700 (Pacific Daylight Time)","552648","Match,No Match","","null","","","","","","<div class='trialBorder'><div class='vertical-center'><img src='img/fixation2_sml.jpg'</img></div></div>","null","DELAY","","","","","","","","","","",""
"html-keyboard-response","178","380287","0.0-7.0-4.28","63ee5e103b44d07673cc8bd6","bdp_wmem","Sat Apr 08 2023 09:36:00 GMT-0700 (Pacific Daylight Time)","552648","Match,No Match","","806","","","","","","<div class='trialBorder'><div class='targDiv'><div class='tc'><img class='introPic' src='trustrating_stim/white_mw003.bmp'><br><font color='green'><strong>Share</strong></font></div></div><div class='respDiv'><div class='respDivL'>Match<br>(e)</div><div class='respDivR'>No Match<br>(i)</div></div></div>","i","TARGET","1","trustrating_stim/white_mw010.bmp","1","noMatchFace","i","1500","trustrating_stim/white_mw003.bmp","green","Share","REAL","1"
"html-keyboard-response","179","380789","0.0-7.0-5.28","63ee5e103b44d07673cc8bd6","bdp_wmem","Sat Apr 08 2023 09:36:00 GMT-0700 (Pacific Daylight Time)","552648","Match,No Match","","null","","","","","","<div class='trialBorder'><div class='vertical-center'><img src='img/correct.jpg'></div><div class='respDiv'><div class='respDivL'>Match<br>(e)</div><div class='respDivR'><font style='color:orange'>No Match<br>(i)</font></div></div></div>","null","FEEDBACK","","","","","","","","","","",""
"html-keyboard-response","180","381290","0.0-7.0-1.29","63ee5e103b44d07673cc8bd6","bdp_wmem","Sat Apr 08 2023 09:36:00 GMT-0700 (Pacific Daylight Time)","552648","Match,No Match","","null","","","","","","<div class='trialBorder'><div class='vertical-center'><img src='img/fixation2_sml.jpg'</img></div></div>","null","FIX","","","","","","","","","","",""
"html-keyboard-response","181","384292","0.0-7.0-2.29","63ee5e103b44d07673cc8bd6","bdp_wmem","Sat Apr 08 2023 09:36:00 GMT-0700 (Pacific Daylight Time)","552648","Match,No Match","","null","","","","","","<div class='trialBorder'><div class='vertical-center'><img style='vertical-align:center; align:center' src='img/fixation2_sml.jpg'></div><div class='arrayDiv2'><div class='tl'><img class='introPic' src='trustrating_stim/white_mw012.bmp'><br><font color='red'><strong>Keep</strong></font></div><div class='tr'><img class='introPic' src='trustrating_stim/white_mw003.bmp'><br><font color='green'><strong>Share</strong></font></div></div></div>","null","ARRAY","2","trustrating_stim/white_mw012.bmp,trustrating_stim/white_mw003.bmp","0,1","Match","e","3000","","","","",""
"html-keyboard-response","182","388294","0.0-7.0-3.29","63ee5e103b44d07673cc8bd6","bdp_wmem","Sat Apr 08 2023 09:36:00 GMT-0700 (Pacific Daylight Time)","552648","Match,No Match","","null","","","","","","<div class='trialBorder'><div class='vertical-center'><img src='img/fixation2_sml.jpg'</img></div></div>","null","DELAY","","","","","","","","","","",""
"html-keyboard-response","183","388775","0.0-7.0-4.29","63ee5e103b44d07673cc8bd6","bdp_wmem","Sat Apr 08 2023 09:36:00 GMT-0700 (Pacific Daylight Time)","552648","Match,No Match","","480","","","","","","<div class='trialBorder'><div class='targDiv'><div class='tc'><img class='introPic' src='trustrating_stim/white_mw012.bmp'><br><font color='red'><strong>Keep</strong></font></div></div><div class='respDiv'><div class='respDivL'>Match<br>(e)</div><div class='respDivR'>No Match<br>(i)</div></div></div>","e","TARGET","2","trustrating_stim/white_mw012.bmp,trustrating_stim/white_mw003.bmp","0,1","Match","e","3000","trustrating_stim/white_mw012.bmp","red","Keep","REAL","1"
"html-keyboard-response","184","389276","0.0-7.0-5.29","63ee5e103b44d07673cc8bd6","bdp_wmem","Sat Apr 08 2023 09:36:00 GMT-0700 (Pacific Daylight Time)","552648","Match,No Match","","null","","","","","","<div class='trialBorder'><div class='vertical-center'><img src='img/correct.jpg'></div><div class='respDiv'><div class='respDivL'><font style='color:orange'>Match<br>(e)</font></div><div class='respDivR'>No Match<br>(i)</div></div></div>","null","FEEDBACK","","","","","","","","","","",""
"html-keyboard-response","185","389777","0.0-7.0-1.30","63ee5e103b44d07673cc8bd6","bdp_wmem","Sat Apr 08 2023 09:36:00 GMT-0700 (Pacific Daylight Time)","552648","Match,No Match","","null","","","","","","<div class='trialBorder'><div class='vertical-center'><img src='img/fixation2_sml.jpg'</img></div></div>","null","FIX","","","","","","","","","","",""
"html-keyboard-response","186","394278","0.0-7.0-2.30","63ee5e103b44d07673cc8bd6","bdp_wmem","Sat Apr 08 2023 09:36:00 GMT-0700 (Pacific Daylight Time)","552648","Match,No Match","","null","","","","","","<div class='trialBorder'><div class='vertical-center'><img style='vertical-align:center; align:center' src='img/fixation2_sml.jpg'></div><div class='arrayDiv3'><div class='tl'><img class='introPic' src='trustrating_stim/white_mw003.bmp'><br><font color='red'><strong>Keep</strong></font></div><div class='tc'><img class='introPic' src='trustrating_stim/white_mw012.bmp'><br><font color='green'><strong>Share</strong></font></div><div class='tr'><img class='introPic' src='trustrating_stim/white_mw085.bmp'><br><font color='red'><strong>Keep</strong></font></div></div></div>","null","ARRAY","3","trustrating_stim/white_mw003.bmp,trustrating_stim/white_mw012.bmp,trustrating_stim/white_mw085.bmp","0,1,0","Match","e","4500","","","","",""
"html-keyboard-response","187","398280","0.0-7.0-3.30","63ee5e103b44d07673cc8bd6","bdp_wmem","Sat Apr 08 2023 09:36:00 GMT-0700 (Pacific Daylight Time)","552648","Match,No Match","","null","","","","","","<div class='trialBorder'><div class='vertical-center'><img src='img/fixation2_sml.jpg'</img></div></div>","null","DELAY","","","","","","","","","","",""
