"trial_type","trial_index","time_elapsed","internal_node_id","subject_id","task","startTime","totalTime","labels","view_history","rt","event","trial","time","trialtype","success","stimulus","key_press","stimType","arraySize","arrayFaces","arrayOutcomes","matchType","corrResp","arrayDur","targFace","targCol","targOutcome","trialType","corr"
"pavlovia","0","3","0.0-0.0","63daf5a89c63648ec34664fb","bdp_wmem","Tue Mar 14 2023 21:26:11 GMT-0400 (Eastern Daylight Time)","666169","Match,No Match","","","","","","","","","","","","","","","","","","","","",""
"instructions","1","3406","0.0-1.0","63daf5a89c63648ec34664fb","bdp_wmem","Tue Mar 14 2023 21:26:11 GMT-0400 (Eastern Daylight Time)","666169","Match,No Match","[{""page_index"":0,""viewing_time"":3403}]","3403","","","","","","","","","","","","","","","","","","",""
"","","","","63daf5a89c63648ec34664fb","bdp_wmem","Tue Mar 14 2023 21:26:11 GMT-0400 (Eastern Daylight Time)","666169","Match,No Match","","","fullscreenenter","2","5426","fullscreenenter","","","","","","","","","","","","","","",""
"fullscreen","2","6415","0.0-2.0","63daf5a89c63648ec34664fb","bdp_wmem","Tue Mar 14 2023 21:26:11 GMT-0400 (Eastern Daylight Time)","666169","Match,No Match","","","","","","","true","","","","","","","","","","","","","",""
"instructions","3","138197","0.0-4.0","63daf5a89c63648ec34664fb","bdp_wmem","Tue Mar 14 2023 21:26:11 GMT-0400 (Eastern Daylight Time)","666169","Match,No Match","[{""page_index"":0,""viewing_time"":43070},{""page_index"":1,""viewing_time"":46212},{""page_index"":2,""viewing_time"":26352},{""page_index"":3,""viewing_time"":8617},{""page_index"":4,""viewing_time"":7530}]","131781","","","","","","","","","","","","","","","","","","",""
"html-keyboard-response","4","138708","0.0-5.0-1.0","63daf5a89c63648ec34664fb","bdp_wmem","Tue Mar 14 2023 21:26:11 GMT-0400 (Eastern Daylight Time)","666169","Match,No Match","","null","","","","","","<div class='trialBorder'><div class='vertical-center'><img src='img/fixation2_sml.jpg'</img></div></div>","null","FIX","","","","","","","","","","",""
"html-keyboard-response","5","140210","0.0-5.0-2.0","63daf5a89c63648ec34664fb","bdp_wmem","Tue Mar 14 2023 21:26:11 GMT-0400 (Eastern Daylight Time)","666169","Match,No Match","","null","","","","","","<div class='trialBorder'><div class='vertical-center'><img style='vertical-align:center; align:center' src='img/fixation2_sml.jpg'></div><div class='arrayDiv1'><div class='tc'><img class='introPic' src='trustrating_stim/white_mw003.bmp'><br><font color='green'><strong>Share</strong></font></div></div></div>","null","ARRAY","1","trustrating_stim/white_mw003.bmp","1","noMatchFace","i","1500","","","","",""
"html-keyboard-response","6","144221","0.0-5.0-3.0","63daf5a89c63648ec34664fb","bdp_wmem","Tue Mar 14 2023 21:26:11 GMT-0400 (Eastern Daylight Time)","666169","Match,No Match","","null","","","","","","<div class='trialBorder'><div class='vertical-center'><img src='img/fixation2_sml.jpg'</img></div></div>","null","DELAY","","","","","","","","","","",""
"html-keyboard-response","7","145681","0.0-5.0-4.0","63daf5a89c63648ec34664fb","bdp_wmem","Tue Mar 14 2023 21:26:11 GMT-0400 (Eastern Daylight Time)","666169","Match,No Match","","1458","","","","","","<div class='trialBorder'><div class='targDiv'><div class='tc'><img class='introPic' src='trustrating_stim/white_mw010.bmp'><br><font color='green'><strong>Share</strong></font></div></div><div class='respDiv'><div class='respDivL'>Match<br>(e)</div><div class='respDivR'>No Match<br>(i)</div></div></div>","i","TARGET","1","trustrating_stim/white_mw003.bmp","1","noMatchFace","i","1500","trustrating_stim/white_mw010.bmp","green","Share","PRACTICE","1"
"html-keyboard-response","8","146186","0.0-5.0-5.0","63daf5a89c63648ec34664fb","bdp_wmem","Tue Mar 14 2023 21:26:11 GMT-0400 (Eastern Daylight Time)","666169","Match,No Match","","null","","","","","","<div class='trialBorder'><div class='vertical-center'><img src='img/correct.jpg'></div><div class='respDiv'><div class='respDivL'>Match<br>(e)</div><div class='respDivR'><font style='color:orange'>No Match<br>(i)</font></div></div></div>","null","FEEDBACK","","","","","","","","","","",""
"html-keyboard-response","9","146689","0.0-5.0-1.1","63daf5a89c63648ec34664fb","bdp_wmem","Tue Mar 14 2023 21:26:11 GMT-0400 (Eastern Daylight Time)","666169","Match,No Match","","null","","","","","","<div class='trialBorder'><div class='vertical-center'><img src='img/fixation2_sml.jpg'</img></div></div>","null","FIX","","","","","","","","","","",""
"html-keyboard-response","10","151198","0.0-5.0-2.1","63daf5a89c63648ec34664fb","bdp_wmem","Tue Mar 14 2023 21:26:11 GMT-0400 (Eastern Daylight Time)","666169","Match,No Match","","null","","","","","","<div class='trialBorder'><div class='vertical-center'><img style='vertical-align:center; align:center' src='img/fixation2_sml.jpg'></div><div class='arrayDiv3'><div class='tl'><img class='introPic' src='trustrating_stim/white_mw042.bmp'><br><font color='red'><strong>Keep</strong></font></div><div class='tc'><img class='introPic' src='trustrating_stim/white_mw085.bmp'><br><font color='green'><strong>Share</strong></font></div><div class='tr'><img class='introPic' src='trustrating_stim/white_mw091.bmp'><br><font color='red'><strong>Keep</strong></font></div></div></div>","null","ARRAY","3","trustrating_stim/white_mw042.bmp,trustrating_stim/white_mw085.bmp,trustrating_stim/white_mw091.bmp","0,1,0","noMatchOutcome","i","4500","","","","",""
"html-keyboard-response","11","155203","0.0-5.0-3.1","63daf5a89c63648ec34664fb","bdp_wmem","Tue Mar 14 2023 21:26:11 GMT-0400 (Eastern Daylight Time)","666169","Match,No Match","","null","","","","","","<div class='trialBorder'><div class='vertical-center'><img src='img/fixation2_sml.jpg'</img></div></div>","null","DELAY","","","","","","","","","","",""
"html-keyboard-response","12","157599","0.0-5.0-4.1","63daf5a89c63648ec34664fb","bdp_wmem","Tue Mar 14 2023 21:26:11 GMT-0400 (Eastern Daylight Time)","666169","Match,No Match","","2394","","","","","","<div class='trialBorder'><div class='targDiv'><div class='tc'><img class='introPic' src='trustrating_stim/white_mw042.bmp'><br><font color='green'><strong>Share</strong></font></div></div><div class='respDiv'><div class='respDivL'>Match<br>(e)</div><div class='respDivR'>No Match<br>(i)</div></div></div>","e","TARGET","3","trustrating_stim/white_mw042.bmp,trustrating_stim/white_mw085.bmp,trustrating_stim/white_mw091.bmp","0,1,0","noMatchOutcome","i","4500","trustrating_stim/white_mw042.bmp","green","Share","PRACTICE","0"
"html-keyboard-response","13","158108","0.0-5.0-5.1","63daf5a89c63648ec34664fb","bdp_wmem","Tue Mar 14 2023 21:26:11 GMT-0400 (Eastern Daylight Time)","666169","Match,No Match","","null","","","","","","<div class='trialBorder'><div class='vertical-center'><img src='img/error.jpg'></div><div class='respDiv'><div class='respDivL'><font style='color:orange'>Match<br>(e)</font></div><div class='respDivR'>No Match<br>(i)</div></div></div>","null","FEEDBACK","","","","","","","","","","",""
"html-keyboard-response","14","158611","0.0-5.0-1.2","63daf5a89c63648ec34664fb","bdp_wmem","Tue Mar 14 2023 21:26:11 GMT-0400 (Eastern Daylight Time)","666169","Match,No Match","","null","","","","","","<div class='trialBorder'><div class='vertical-center'><img src='img/fixation2_sml.jpg'</img></div></div>","null","FIX","","","","","","","","","","",""
"html-keyboard-response","15","160114","0.0-5.0-2.2","63daf5a89c63648ec34664fb","bdp_wmem","Tue Mar 14 2023 21:26:11 GMT-0400 (Eastern Daylight Time)","666169","Match,No Match","","null","","","","","","<div class='trialBorder'><div class='vertical-center'><img style='vertical-align:center; align:center' src='img/fixation2_sml.jpg'></div><div class='arrayDiv1'><div class='tc'><img class='introPic' src='trustrating_stim/white_mw012.bmp'><br><font color='red'><strong>Keep</strong></font></div></div></div>","null","ARRAY","1","trustrating_stim/white_mw012.bmp","0","Match","e","1500","","","","",""
"html-keyboard-response","16","164125","0.0-5.0-3.2","63daf5a89c63648ec34664fb","bdp_wmem","Tue Mar 14 2023 21:26:11 GMT-0400 (Eastern Daylight Time)","666169","Match,No Match","","null","","","","","","<div class='trialBorder'><div class='vertical-center'><img src='img/fixation2_sml.jpg'</img></div></div>","null","DELAY","","","","","","","","","","",""
"html-keyboard-response","17","166757","0.0-5.0-4.2","63daf5a89c63648ec34664fb","bdp_wmem","Tue Mar 14 2023 21:26:11 GMT-0400 (Eastern Daylight Time)","666169","Match,No Match","","2631","","","","","","<div class='trialBorder'><div class='targDiv'><div class='tc'><img class='introPic' src='trustrating_stim/white_mw012.bmp'><br><font color='red'><strong>Keep</strong></font></div></div><div class='respDiv'><div class='respDivL'>Match<br>(e)</div><div class='respDivR'>No Match<br>(i)</div></div></div>","e","TARGET","1","trustrating_stim/white_mw012.bmp","0","Match","e","1500","trustrating_stim/white_mw012.bmp","red","Keep","PRACTICE","1"
"html-keyboard-response","18","167266","0.0-5.0-5.2","63daf5a89c63648ec34664fb","bdp_wmem","Tue Mar 14 2023 21:26:11 GMT-0400 (Eastern Daylight Time)","666169","Match,No Match","","null","","","","","","<div class='trialBorder'><div class='vertical-center'><img src='img/correct.jpg'></div><div class='respDiv'><div class='respDivL'><font style='color:orange'>Match<br>(e)</font></div><div class='respDivR'>No Match<br>(i)</div></div></div>","null","FEEDBACK","","","","","","","","","","",""
"html-keyboard-response","19","167771","0.0-5.0-1.3","63daf5a89c63648ec34664fb","bdp_wmem","Tue Mar 14 2023 21:26:11 GMT-0400 (Eastern Daylight Time)","666169","Match,No Match","","null","","","","","","<div class='trialBorder'><div class='vertical-center'><img src='img/fixation2_sml.jpg'</img></div></div>","null","FIX","","","","","","","","","","",""
"html-keyboard-response","20","170778","0.0-5.0-2.3","63daf5a89c63648ec34664fb","bdp_wmem","Tue Mar 14 2023 21:26:11 GMT-0400 (Eastern Daylight Time)","666169","Match,No Match","","null","","","","","","<div class='trialBorder'><div class='vertical-center'><img style='vertical-align:center; align:center' src='img/fixation2_sml.jpg'></div><div class='arrayDiv2'><div class='tl'><img class='introPic' src='trustrating_stim/white_mw092.bmp'><br><font color='green'><strong>Share</strong></font></div><div class='tr'><img class='introPic' src='trustrating_stim/white_mw038.bmp'><br><font color='red'><strong>Keep</strong></font></div></div></div>","null","ARRAY","2","trustrating_stim/white_mw092.bmp,trustrating_stim/white_mw038.bmp","1,0","noMatchOutcome","i","3000","","","","",""
"html-keyboard-response","21","174789","0.0-5.0-3.3","63daf5a89c63648ec34664fb","bdp_wmem","Tue Mar 14 2023 21:26:11 GMT-0400 (Eastern Daylight Time)","666169","Match,No Match","","null","","","","","","<div class='trialBorder'><div class='vertical-center'><img src='img/fixation2_sml.jpg'</img></div></div>","null","DELAY","","","","","","","","","","",""
"html-keyboard-response","22","176721","0.0-5.0-4.3","63daf5a89c63648ec34664fb","bdp_wmem","Tue Mar 14 2023 21:26:11 GMT-0400 (Eastern Daylight Time)","666169","Match,No Match","","1931","","","","","","<div class='trialBorder'><div class='targDiv'><div class='tc'><img class='introPic' src='trustrating_stim/white_mw038.bmp'><br><font color='green'><strong>Share</strong></font></div></div><div class='respDiv'><div class='respDivL'>Match<br>(e)</div><div class='respDivR'>No Match<br>(i)</div></div></div>","i","TARGET","2","trustrating_stim/white_mw092.bmp,trustrating_stim/white_mw038.bmp","1,0","noMatchOutcome","i","3000","trustrating_stim/white_mw038.bmp","green","Share","PRACTICE","1"
"html-keyboard-response","23","177225","0.0-5.0-5.3","63daf5a89c63648ec34664fb","bdp_wmem","Tue Mar 14 2023 21:26:11 GMT-0400 (Eastern Daylight Time)","666169","Match,No Match","","null","","","","","","<div class='trialBorder'><div class='vertical-center'><img src='img/correct.jpg'></div><div class='respDiv'><div class='respDivL'>Match<br>(e)</div><div class='respDivR'><font style='color:orange'>No Match<br>(i)</font></div></div></div>","null","FEEDBACK","","","","","","","","","","",""
"html-keyboard-response","24","177732","0.0-5.0-1.4","63daf5a89c63648ec34664fb","bdp_wmem","Tue Mar 14 2023 21:26:11 GMT-0400 (Eastern Daylight Time)","666169","Match,No Match","","null","","","","","","<div class='trialBorder'><div class='vertical-center'><img src='img/fixation2_sml.jpg'</img></div></div>","null","FIX","","","","","","","","","","",""
"html-keyboard-response","25","180739","0.0-5.0-2.4","63daf5a89c63648ec34664fb","bdp_wmem","Tue Mar 14 2023 21:26:11 GMT-0400 (Eastern Daylight Time)","666169","Match,No Match","","null","","","","","","<div class='trialBorder'><div class='vertical-center'><img style='vertical-align:center; align:center' src='img/fixation2_sml.jpg'></div><div class='arrayDiv2'><div class='tl'><img class='introPic' src='trustrating_stim/white_mw091.bmp'><br><font color='green'><strong>Share</strong></font></div><div class='tr'><img class='introPic' src='trustrating_stim/white_mw040.bmp'><br><font color='red'><strong>Keep</strong></font></div></div></div>","null","ARRAY","2","trustrating_stim/white_mw091.bmp,trustrating_stim/white_mw040.bmp","1,0","Match","e","3000","","","","",""
"html-keyboard-response","26","184745","0.0-5.0-3.4","63daf5a89c63648ec34664fb","bdp_wmem","Tue Mar 14 2023 21:26:11 GMT-0400 (Eastern Daylight Time)","666169","Match,No Match","","null","","","","","","<div class='trialBorder'><div class='vertical-center'><img src='img/fixation2_sml.jpg'</img></div></div>","null","DELAY","","","","","","","","","","",""
"html-keyboard-response","27","186239","0.0-5.0-4.4","63daf5a89c63648ec34664fb","bdp_wmem","Tue Mar 14 2023 21:26:11 GMT-0400 (Eastern Daylight Time)","666169","Match,No Match","","1493","","","","","","<div class='trialBorder'><div class='targDiv'><div class='tc'><img class='introPic' src='trustrating_stim/white_mw091.bmp'><br><font color='green'><strong>Share</strong></font></div></div><div class='respDiv'><div class='respDivL'>Match<br>(e)</div><div class='respDivR'>No Match<br>(i)</div></div></div>","e","TARGET","2","trustrating_stim/white_mw091.bmp,trustrating_stim/white_mw040.bmp","1,0","Match","e","3000","trustrating_stim/white_mw091.bmp","green","Share","PRACTICE","1"
"html-keyboard-response","28","186746","0.0-5.0-5.4","63daf5a89c63648ec34664fb","bdp_wmem","Tue Mar 14 2023 21:26:11 GMT-0400 (Eastern Daylight Time)","666169","Match,No Match","","null","","","","","","<div class='trialBorder'><div class='vertical-center'><img src='img/correct.jpg'></div><div class='respDiv'><div class='respDivL'><font style='color:orange'>Match<br>(e)</font></div><div class='respDivR'>No Match<br>(i)</div></div></div>","null","FEEDBACK","","","","","","","","","","",""
"html-keyboard-response","29","187252","0.0-5.0-1.5","63daf5a89c63648ec34664fb","bdp_wmem","Tue Mar 14 2023 21:26:11 GMT-0400 (Eastern Daylight Time)","666169","Match,No Match","","null","","","","","","<div class='trialBorder'><div class='vertical-center'><img src='img/fixation2_sml.jpg'</img></div></div>","null","FIX","","","","","","","","","","",""
"html-keyboard-response","30","191765","0.0-5.0-2.5","63daf5a89c63648ec34664fb","bdp_wmem","Tue Mar 14 2023 21:26:11 GMT-0400 (Eastern Daylight Time)","666169","Match,No Match","","null","","","","","","<div class='trialBorder'><div class='vertical-center'><img style='vertical-align:center; align:center' src='img/fixation2_sml.jpg'></div><div class='arrayDiv3'><div class='tl'><img class='introPic' src='trustrating_stim/white_mw012.bmp'><br><font color='red'><strong>Keep</strong></font></div><div class='tc'><img class='introPic' src='trustrating_stim/white_mw038.bmp'><br><font color='red'><strong>Keep</strong></font></div><div class='tr'><img class='introPic' src='trustrating_stim/white_mw040.bmp'><br><font color='green'><strong>Share</strong></font></div></div></div>","null","ARRAY","3","trustrating_stim/white_mw012.bmp,trustrating_stim/white_mw038.bmp,trustrating_stim/white_mw040.bmp","0,0,1","Match","e","4500","","","","",""
"html-keyboard-response","31","195772","0.0-5.0-3.5","63daf5a89c63648ec34664fb","bdp_wmem","Tue Mar 14 2023 21:26:11 GMT-0400 (Eastern Daylight Time)","666169","Match,No Match","","null","","","","","","<div class='trialBorder'><div class='vertical-center'><img src='img/fixation2_sml.jpg'</img></div></div>","null","DELAY","","","","","","","","","","",""
"html-keyboard-response","32","198037","0.0-5.0-4.5","63daf5a89c63648ec34664fb","bdp_wmem","Tue Mar 14 2023 21:26:11 GMT-0400 (Eastern Daylight Time)","666169","Match,No Match","","2263","","","","","","<div class='trialBorder'><div class='targDiv'><div class='tc'><img class='introPic' src='trustrating_stim/white_mw012.bmp'><br><font color='red'><strong>Keep</strong></font></div></div><div class='respDiv'><div class='respDivL'>Match<br>(e)</div><div class='respDivR'>No Match<br>(i)</div></div></div>","e","TARGET","3","trustrating_stim/white_mw012.bmp,trustrating_stim/white_mw038.bmp,trustrating_stim/white_mw040.bmp","0,0,1","Match","e","4500","trustrating_stim/white_mw012.bmp","red","Keep","PRACTICE","1"
"html-keyboard-response","33","198548","0.0-5.0-5.5","63daf5a89c63648ec34664fb","bdp_wmem","Tue Mar 14 2023 21:26:11 GMT-0400 (Eastern Daylight Time)","666169","Match,No Match","","null","","","","","","<div class='trialBorder'><div class='vertical-center'><img src='img/correct.jpg'></div><div class='respDiv'><div class='respDivL'><font style='color:orange'>Match<br>(e)</font></div><div class='respDivR'>No Match<br>(i)</div></div></div>","null","FEEDBACK","","","","","","","","","","",""
"instructions","34","207473","0.0-6.0","63daf5a89c63648ec34664fb","bdp_wmem","Tue Mar 14 2023 21:26:11 GMT-0400 (Eastern Daylight Time)","666169","Match,No Match","[{""page_index"":0,""viewing_time"":8925}]","8925","","","","","","","","","","","","","","","","","","",""
"html-keyboard-response","35","207981","0.0-7.0-1.0","63daf5a89c63648ec34664fb","bdp_wmem","Tue Mar 14 2023 21:26:11 GMT-0400 (Eastern Daylight Time)","666169","Match,No Match","","null","","","","","","<div class='trialBorder'><div class='vertical-center'><img src='img/fixation2_sml.jpg'</img></div></div>","null","FIX","","","","","","","","","","",""
"html-keyboard-response","36","209490","0.0-7.0-2.0","63daf5a89c63648ec34664fb","bdp_wmem","Tue Mar 14 2023 21:26:11 GMT-0400 (Eastern Daylight Time)","666169","Match,No Match","","null","","","","","","<div class='trialBorder'><div class='vertical-center'><img style='vertical-align:center; align:center' src='img/fixation2_sml.jpg'></div><div class='arrayDiv1'><div class='tc'><img class='introPic' src='trustrating_stim/white_mw013.bmp'><br><font color='green'><strong>Share</strong></font></div></div></div>","null","ARRAY","1","trustrating_stim/white_mw013.bmp","1","Match","e","1500","","","","",""
"html-keyboard-response","37","213500","0.0-7.0-3.0","63daf5a89c63648ec34664fb","bdp_wmem","Tue Mar 14 2023 21:26:11 GMT-0400 (Eastern Daylight Time)","666169","Match,No Match","","null","","","","","","<div class='trialBorder'><div class='vertical-center'><img src='img/fixation2_sml.jpg'</img></div></div>","null","DELAY","","","","","","","","","","",""
"html-keyboard-response","38","214250","0.0-7.0-4.0","63daf5a89c63648ec34664fb","bdp_wmem","Tue Mar 14 2023 21:26:11 GMT-0400 (Eastern Daylight Time)","666169","Match,No Match","","749","","","","","","<div class='trialBorder'><div class='targDiv'><div class='tc'><img class='introPic' src='trustrating_stim/white_mw013.bmp'><br><font color='green'><strong>Share</strong></font></div></div><div class='respDiv'><div class='respDivL'>Match<br>(e)</div><div class='respDivR'>No Match<br>(i)</div></div></div>","e","TARGET","1","trustrating_stim/white_mw013.bmp","1","Match","e","1500","trustrating_stim/white_mw013.bmp","green","Share","REAL","1"
"html-keyboard-response","39","214755","0.0-7.0-5.0","63daf5a89c63648ec34664fb","bdp_wmem","Tue Mar 14 2023 21:26:11 GMT-0400 (Eastern Daylight Time)","666169","Match,No Match","","null","","","","","","<div class='trialBorder'><div class='vertical-center'><img src='img/correct.jpg'></div><div class='respDiv'><div class='respDivL'><font style='color:orange'>Match<br>(e)</font></div><div class='respDivR'>No Match<br>(i)</div></div></div>","null","FEEDBACK","","","","","","","","","","",""
"html-keyboard-response","40","215266","0.0-7.0-1.1","63daf5a89c63648ec34664fb","bdp_wmem","Tue Mar 14 2023 21:26:11 GMT-0400 (Eastern Daylight Time)","666169","Match,No Match","","null","","","","","","<div class='trialBorder'><div class='vertical-center'><img src='img/fixation2_sml.jpg'</img></div></div>","null","FIX","","","","","","","","","","",""
"html-keyboard-response","41","216769","0.0-7.0-2.1","63daf5a89c63648ec34664fb","bdp_wmem","Tue Mar 14 2023 21:26:11 GMT-0400 (Eastern Daylight Time)","666169","Match,No Match","","null","","","","","","<div class='trialBorder'><div class='vertical-center'><img style='vertical-align:center; align:center' src='img/fixation2_sml.jpg'></div><div class='arrayDiv1'><div class='tc'><img class='introPic' src='trustrating_stim/white_mw013.bmp'><br><font color='green'><strong>Share</strong></font></div></div></div>","null","ARRAY","1","trustrating_stim/white_mw013.bmp","1","Match","e","1500","","","","",""
"html-keyboard-response","42","220780","0.0-7.0-3.1","63daf5a89c63648ec34664fb","bdp_wmem","Tue Mar 14 2023 21:26:11 GMT-0400 (Eastern Daylight Time)","666169","Match,No Match","","null","","","","","","<div class='trialBorder'><div class='vertical-center'><img src='img/fixation2_sml.jpg'</img></div></div>","null","DELAY","","","","","","","","","","",""
"html-keyboard-response","43","221501","0.0-7.0-4.1","63daf5a89c63648ec34664fb","bdp_wmem","Tue Mar 14 2023 21:26:11 GMT-0400 (Eastern Daylight Time)","666169","Match,No Match","","720","","","","","","<div class='trialBorder'><div class='targDiv'><div class='tc'><img class='introPic' src='trustrating_stim/white_mw013.bmp'><br><font color='green'><strong>Share</strong></font></div></div><div class='respDiv'><div class='respDivL'>Match<br>(e)</div><div class='respDivR'>No Match<br>(i)</div></div></div>","e","TARGET","1","trustrating_stim/white_mw013.bmp","1","Match","e","1500","trustrating_stim/white_mw013.bmp","green","Share","REAL","1"
"html-keyboard-response","44","222011","0.0-7.0-5.1","63daf5a89c63648ec34664fb","bdp_wmem","Tue Mar 14 2023 21:26:11 GMT-0400 (Eastern Daylight Time)","666169","Match,No Match","","null","","","","","","<div class='trialBorder'><div class='vertical-center'><img src='img/correct.jpg'></div><div class='respDiv'><div class='respDivL'><font style='color:orange'>Match<br>(e)</font></div><div class='respDivR'>No Match<br>(i)</div></div></div>","null","FEEDBACK","","","","","","","","","","",""
"html-keyboard-response","45","222523","0.0-7.0-1.2","63daf5a89c63648ec34664fb","bdp_wmem","Tue Mar 14 2023 21:26:11 GMT-0400 (Eastern Daylight Time)","666169","Match,No Match","","null","","","","","","<div class='trialBorder'><div class='vertical-center'><img src='img/fixation2_sml.jpg'</img></div></div>","null","FIX","","","","","","","","","","",""
"html-keyboard-response","46","225529","0.0-7.0-2.2","63daf5a89c63648ec34664fb","bdp_wmem","Tue Mar 14 2023 21:26:11 GMT-0400 (Eastern Daylight Time)","666169","Match,No Match","","null","","","","","","<div class='trialBorder'><div class='vertical-center'><img style='vertical-align:center; align:center' src='img/fixation2_sml.jpg'></div><div class='arrayDiv2'><div class='tl'><img class='introPic' src='trustrating_stim/white_mw012.bmp'><br><font color='green'><strong>Share</strong></font></div><div class='tr'><img class='introPic' src='trustrating_stim/white_mw091.bmp'><br><font color='red'><strong>Keep</strong></font></div></div></div>","null","ARRAY","2","trustrating_stim/white_mw012.bmp,trustrating_stim/white_mw091.bmp","1,0","Match","e","3000","","","","",""
"html-keyboard-response","47","229540","0.0-7.0-3.2","63daf5a89c63648ec34664fb","bdp_wmem","Tue Mar 14 2023 21:26:11 GMT-0400 (Eastern Daylight Time)","666169","Match,No Match","","null","","","","","","<div class='trialBorder'><div class='vertical-center'><img src='img/fixation2_sml.jpg'</img></div></div>","null","DELAY","","","","","","","","","","",""
"html-keyboard-response","48","230719","0.0-7.0-4.2","63daf5a89c63648ec34664fb","bdp_wmem","Tue Mar 14 2023 21:26:11 GMT-0400 (Eastern Daylight Time)","666169","Match,No Match","","1177","","","","","","<div class='trialBorder'><div class='targDiv'><div class='tc'><img class='introPic' src='trustrating_stim/white_mw012.bmp'><br><font color='green'><strong>Share</strong></font></div></div><div class='respDiv'><div class='respDivL'>Match<br>(e)</div><div class='respDivR'>No Match<br>(i)</div></div></div>","e","TARGET","2","trustrating_stim/white_mw012.bmp,trustrating_stim/white_mw091.bmp","1,0","Match","e","3000","trustrating_stim/white_mw012.bmp","green","Share","REAL","1"
"html-keyboard-response","49","231220","0.0-7.0-5.2","63daf5a89c63648ec34664fb","bdp_wmem","Tue Mar 14 2023 21:26:11 GMT-0400 (Eastern Daylight Time)","666169","Match,No Match","","null","","","","","","<div class='trialBorder'><div class='vertical-center'><img src='img/correct.jpg'></div><div class='respDiv'><div class='respDivL'><font style='color:orange'>Match<br>(e)</font></div><div class='respDivR'>No Match<br>(i)</div></div></div>","null","FEEDBACK","","","","","","","","","","",""
"html-keyboard-response","50","231730","0.0-7.0-1.3","63daf5a89c63648ec34664fb","bdp_wmem","Tue Mar 14 2023 21:26:11 GMT-0400 (Eastern Daylight Time)","666169","Match,No Match","","null","","","","","","<div class='trialBorder'><div class='vertical-center'><img src='img/fixation2_sml.jpg'</img></div></div>","null","FIX","","","","","","","","","","",""
"html-keyboard-response","51","236244","0.0-7.0-2.3","63daf5a89c63648ec34664fb","bdp_wmem","Tue Mar 14 2023 21:26:11 GMT-0400 (Eastern Daylight Time)","666169","Match,No Match","","null","","","","","","<div class='trialBorder'><div class='vertical-center'><img style='vertical-align:center; align:center' src='img/fixation2_sml.jpg'></div><div class='arrayDiv3'><div class='tl'><img class='introPic' src='trustrating_stim/white_mw085.bmp'><br><font color='green'><strong>Share</strong></font></div><div class='tc'><img class='introPic' src='trustrating_stim/white_mw078.bmp'><br><font color='red'><strong>Keep</strong></font></div><div class='tr'><img class='introPic' src='trustrating_stim/white_mw012.bmp'><br><font color='green'><strong>Share</strong></font></div></div></div>","null","ARRAY","3","trustrating_stim/white_mw085.bmp,trustrating_stim/white_mw078.bmp,trustrating_stim/white_mw012.bmp","1,0,1","Match","e","4500","","","","",""
"html-keyboard-response","52","240250","0.0-7.0-3.3","63daf5a89c63648ec34664fb","bdp_wmem","Tue Mar 14 2023 21:26:11 GMT-0400 (Eastern Daylight Time)","666169","Match,No Match","","null","","","","","","<div class='trialBorder'><div class='vertical-center'><img src='img/fixation2_sml.jpg'</img></div></div>","null","DELAY","","","","","","","","","","",""
"html-keyboard-response","53","241792","0.0-7.0-4.3","63daf5a89c63648ec34664fb","bdp_wmem","Tue Mar 14 2023 21:26:11 GMT-0400 (Eastern Daylight Time)","666169","Match,No Match","","1541","","","","","","<div class='trialBorder'><div class='targDiv'><div class='tc'><img class='introPic' src='trustrating_stim/white_mw085.bmp'><br><font color='green'><strong>Share</strong></font></div></div><div class='respDiv'><div class='respDivL'>Match<br>(e)</div><div class='respDivR'>No Match<br>(i)</div></div></div>","i","TARGET","3","trustrating_stim/white_mw085.bmp,trustrating_stim/white_mw078.bmp,trustrating_stim/white_mw012.bmp","1,0,1","Match","e","4500","trustrating_stim/white_mw085.bmp","green","Share","REAL","0"
"html-keyboard-response","54","242299","0.0-7.0-5.3","63daf5a89c63648ec34664fb","bdp_wmem","Tue Mar 14 2023 21:26:11 GMT-0400 (Eastern Daylight Time)","666169","Match,No Match","","null","","","","","","<div class='trialBorder'><div class='vertical-center'><img src='img/error.jpg'></div><div class='respDiv'><div class='respDivL'>Match<br>(e)</div><div class='respDivR'><font style='color:orange'>No Match<br>(i)</font></div></div></div>","null","FEEDBACK","","","","","","","","","","",""
"html-keyboard-response","55","242810","0.0-7.0-1.4","63daf5a89c63648ec34664fb","bdp_wmem","Tue Mar 14 2023 21:26:11 GMT-0400 (Eastern Daylight Time)","666169","Match,No Match","","null","","","","","","<div class='trialBorder'><div class='vertical-center'><img src='img/fixation2_sml.jpg'</img></div></div>","null","FIX","","","","","","","","","","",""
"html-keyboard-response","56","245817","0.0-7.0-2.4","63daf5a89c63648ec34664fb","bdp_wmem","Tue Mar 14 2023 21:26:11 GMT-0400 (Eastern Daylight Time)","666169","Match,No Match","","null","","","","","","<div class='trialBorder'><div class='vertical-center'><img style='vertical-align:center; align:center' src='img/fixation2_sml.jpg'></div><div class='arrayDiv2'><div class='tl'><img class='introPic' src='trustrating_stim/white_mw085.bmp'><br><font color='red'><strong>Keep</strong></font></div><div class='tr'><img class='introPic' src='trustrating_stim/white_mw012.bmp'><br><font color='green'><strong>Share</strong></font></div></div></div>","null","ARRAY","2","trustrating_stim/white_mw085.bmp,trustrating_stim/white_mw012.bmp","0,1","noMatchFace","i","3000","","","","",""
"html-keyboard-response","57","249827","0.0-7.0-3.4","63daf5a89c63648ec34664fb","bdp_wmem","Tue Mar 14 2023 21:26:11 GMT-0400 (Eastern Daylight Time)","666169","Match,No Match","","null","","","","","","<div class='trialBorder'><div class='vertical-center'><img src='img/fixation2_sml.jpg'</img></div></div>","null","DELAY","","","","","","","","","","",""
"html-keyboard-response","58","251269","0.0-7.0-4.4","63daf5a89c63648ec34664fb","bdp_wmem","Tue Mar 14 2023 21:26:11 GMT-0400 (Eastern Daylight Time)","666169","Match,No Match","","1440","","","","","","<div class='trialBorder'><div class='targDiv'><div class='tc'><img class='introPic' src='trustrating_stim/white_mw003.bmp'><br><font color='red'><strong>Keep</strong></font></div></div><div class='respDiv'><div class='respDivL'>Match<br>(e)</div><div class='respDivR'>No Match<br>(i)</div></div></div>","e","TARGET","2","trustrating_stim/white_mw085.bmp,trustrating_stim/white_mw012.bmp","0,1","noMatchFace","i","3000","trustrating_stim/white_mw003.bmp","red","Keep","REAL","0"
"html-keyboard-response","59","251778","0.0-7.0-5.4","63daf5a89c63648ec34664fb","bdp_wmem","Tue Mar 14 2023 21:26:11 GMT-0400 (Eastern Daylight Time)","666169","Match,No Match","","null","","","","","","<div class='trialBorder'><div class='vertical-center'><img src='img/error.jpg'></div><div class='respDiv'><div class='respDivL'><font style='color:orange'>Match<br>(e)</font></div><div class='respDivR'>No Match<br>(i)</div></div></div>","null","FEEDBACK","","","","","","","","","","",""
"html-keyboard-response","60","252289","0.0-7.0-1.5","63daf5a89c63648ec34664fb","bdp_wmem","Tue Mar 14 2023 21:26:11 GMT-0400 (Eastern Daylight Time)","666169","Match,No Match","","null","","","","","","<div class='trialBorder'><div class='vertical-center'><img src='img/fixation2_sml.jpg'</img></div></div>","null","FIX","","","","","","","","","","",""
"html-keyboard-response","61","255296","0.0-7.0-2.5","63daf5a89c63648ec34664fb","bdp_wmem","Tue Mar 14 2023 21:26:11 GMT-0400 (Eastern Daylight Time)","666169","Match,No Match","","null","","","","","","<div class='trialBorder'><div class='vertical-center'><img style='vertical-align:center; align:center' src='img/fixation2_sml.jpg'></div><div class='arrayDiv2'><div class='tl'><img class='introPic' src='trustrating_stim/white_mw038.bmp'><br><font color='red'><strong>Keep</strong></font></div><div class='tr'><img class='introPic' src='trustrating_stim/white_mw085.bmp'><br><font color='green'><strong>Share</strong></font></div></div></div>","null","ARRAY","2","trustrating_stim/white_mw038.bmp,trustrating_stim/white_mw085.bmp","0,1","Match","e","3000","","","","",""
"html-keyboard-response","62","259307","0.0-7.0-3.5","63daf5a89c63648ec34664fb","bdp_wmem","Tue Mar 14 2023 21:26:11 GMT-0400 (Eastern Daylight Time)","666169","Match,No Match","","null","","","","","","<div class='trialBorder'><div class='vertical-center'><img src='img/fixation2_sml.jpg'</img></div></div>","null","DELAY","","","","","","","","","","",""
"html-keyboard-response","63","262114","0.0-7.0-4.5","63daf5a89c63648ec34664fb","bdp_wmem","Tue Mar 14 2023 21:26:11 GMT-0400 (Eastern Daylight Time)","666169","Match,No Match","","2806","","","","","","<div class='trialBorder'><div class='targDiv'><div class='tc'><img class='introPic' src='trustrating_stim/white_mw085.bmp'><br><font color='green'><strong>Share</strong></font></div></div><div class='respDiv'><div class='respDivL'>Match<br>(e)</div><div class='respDivR'>No Match<br>(i)</div></div></div>","i","TARGET","2","trustrating_stim/white_mw038.bmp,trustrating_stim/white_mw085.bmp","0,1","Match","e","3000","trustrating_stim/white_mw085.bmp","green","Share","REAL","0"
"html-keyboard-response","64","262618","0.0-7.0-5.5","63daf5a89c63648ec34664fb","bdp_wmem","Tue Mar 14 2023 21:26:11 GMT-0400 (Eastern Daylight Time)","666169","Match,No Match","","null","","","","","","<div class='trialBorder'><div class='vertical-center'><img src='img/error.jpg'></div><div class='respDiv'><div class='respDivL'>Match<br>(e)</div><div class='respDivR'><font style='color:orange'>No Match<br>(i)</font></div></div></div>","null","FEEDBACK","","","","","","","","","","",""
"html-keyboard-response","65","263123","0.0-7.0-1.6","63daf5a89c63648ec34664fb","bdp_wmem","Tue Mar 14 2023 21:26:11 GMT-0400 (Eastern Daylight Time)","666169","Match,No Match","","null","","","","","","<div class='trialBorder'><div class='vertical-center'><img src='img/fixation2_sml.jpg'</img></div></div>","null","FIX","","","","","","","","","","",""
"html-keyboard-response","66","266128","0.0-7.0-2.6","63daf5a89c63648ec34664fb","bdp_wmem","Tue Mar 14 2023 21:26:11 GMT-0400 (Eastern Daylight Time)","666169","Match,No Match","","null","","","","","","<div class='trialBorder'><div class='vertical-center'><img style='vertical-align:center; align:center' src='img/fixation2_sml.jpg'></div><div class='arrayDiv2'><div class='tl'><img class='introPic' src='trustrating_stim/white_mw085.bmp'><br><font color='green'><strong>Share</strong></font></div><div class='tr'><img class='introPic' src='trustrating_stim/white_mw092.bmp'><br><font color='red'><strong>Keep</strong></font></div></div></div>","null","ARRAY","2","trustrating_stim/white_mw085.bmp,trustrating_stim/white_mw092.bmp","1,0","Match","e","3000","","","","",""
"html-keyboard-response","67","270139","0.0-7.0-3.6","63daf5a89c63648ec34664fb","bdp_wmem","Tue Mar 14 2023 21:26:11 GMT-0400 (Eastern Daylight Time)","666169","Match,No Match","","null","","","","","","<div class='trialBorder'><div class='vertical-center'><img src='img/fixation2_sml.jpg'</img></div></div>","null","DELAY","","","","","","","","","","",""
"html-keyboard-response","68","272164","0.0-7.0-4.6","63daf5a89c63648ec34664fb","bdp_wmem","Tue Mar 14 2023 21:26:11 GMT-0400 (Eastern Daylight Time)","666169","Match,No Match","","2023","","","","","","<div class='trialBorder'><div class='targDiv'><div class='tc'><img class='introPic' src='trustrating_stim/white_mw085.bmp'><br><font color='green'><strong>Share</strong></font></div></div><div class='respDiv'><div class='respDivL'>Match<br>(e)</div><div class='respDivR'>No Match<br>(i)</div></div></div>","e","TARGET","2","trustrating_stim/white_mw085.bmp,trustrating_stim/white_mw092.bmp","1,0","Match","e","3000","trustrating_stim/white_mw085.bmp","green","Share","REAL","1"
"html-keyboard-response","69","272670","0.0-7.0-5.6","63daf5a89c63648ec34664fb","bdp_wmem","Tue Mar 14 2023 21:26:11 GMT-0400 (Eastern Daylight Time)","666169","Match,No Match","","null","","","","","","<div class='trialBorder'><div class='vertical-center'><img src='img/correct.jpg'></div><div class='respDiv'><div class='respDivL'><font style='color:orange'>Match<br>(e)</font></div><div class='respDivR'>No Match<br>(i)</div></div></div>","null","FEEDBACK","","","","","","","","","","",""
"html-keyboard-response","70","273175","0.0-7.0-1.7","63daf5a89c63648ec34664fb","bdp_wmem","Tue Mar 14 2023 21:26:11 GMT-0400 (Eastern Daylight Time)","666169","Match,No Match","","null","","","","","","<div class='trialBorder'><div class='vertical-center'><img src='img/fixation2_sml.jpg'</img></div></div>","null","FIX","","","","","","","","","","",""
"html-keyboard-response","71","276187","0.0-7.0-2.7","63daf5a89c63648ec34664fb","bdp_wmem","Tue Mar 14 2023 21:26:11 GMT-0400 (Eastern Daylight Time)","666169","Match,No Match","","null","","","","","","<div class='trialBorder'><div class='vertical-center'><img style='vertical-align:center; align:center' src='img/fixation2_sml.jpg'></div><div class='arrayDiv2'><div class='tl'><img class='introPic' src='trustrating_stim/white_mw078.bmp'><br><font color='red'><strong>Keep</strong></font></div><div class='tr'><img class='introPic' src='trustrating_stim/white_mw042.bmp'><br><font color='green'><strong>Share</strong></font></div></div></div>","null","ARRAY","2","trustrating_stim/white_mw078.bmp,trustrating_stim/white_mw042.bmp","0,1","noMatchOutcome","i","3000","","","","",""
"html-keyboard-response","72","280193","0.0-7.0-3.7","63daf5a89c63648ec34664fb","bdp_wmem","Tue Mar 14 2023 21:26:11 GMT-0400 (Eastern Daylight Time)","666169","Match,No Match","","null","","","","","","<div class='trialBorder'><div class='vertical-center'><img src='img/fixation2_sml.jpg'</img></div></div>","null","DELAY","","","","","","","","","","",""
"html-keyboard-response","73","283016","0.0-7.0-4.7","63daf5a89c63648ec34664fb","bdp_wmem","Tue Mar 14 2023 21:26:11 GMT-0400 (Eastern Daylight Time)","666169","Match,No Match","","2822","","","","","","<div class='trialBorder'><div class='targDiv'><div class='tc'><img class='introPic' src='trustrating_stim/white_mw042.bmp'><br><font color='red'><strong>Keep</strong></font></div></div><div class='respDiv'><div class='respDivL'>Match<br>(e)</div><div class='respDivR'>No Match<br>(i)</div></div></div>","e","TARGET","2","trustrating_stim/white_mw078.bmp,trustrating_stim/white_mw042.bmp","0,1","noMatchOutcome","i","3000","trustrating_stim/white_mw042.bmp","red","Keep","REAL","0"
"html-keyboard-response","74","283523","0.0-7.0-5.7","63daf5a89c63648ec34664fb","bdp_wmem","Tue Mar 14 2023 21:26:11 GMT-0400 (Eastern Daylight Time)","666169","Match,No Match","","null","","","","","","<div class='trialBorder'><div class='vertical-center'><img src='img/error.jpg'></div><div class='respDiv'><div class='respDivL'><font style='color:orange'>Match<br>(e)</font></div><div class='respDivR'>No Match<br>(i)</div></div></div>","null","FEEDBACK","","","","","","","","","","",""
"html-keyboard-response","75","284024","0.0-7.0-1.8","63daf5a89c63648ec34664fb","bdp_wmem","Tue Mar 14 2023 21:26:11 GMT-0400 (Eastern Daylight Time)","666169","Match,No Match","","null","","","","","","<div class='trialBorder'><div class='vertical-center'><img src='img/fixation2_sml.jpg'</img></div></div>","null","FIX","","","","","","","","","","",""
"html-keyboard-response","76","288529","0.0-7.0-2.8","63daf5a89c63648ec34664fb","bdp_wmem","Tue Mar 14 2023 21:26:11 GMT-0400 (Eastern Daylight Time)","666169","Match,No Match","","null","","","","","","<div class='trialBorder'><div class='vertical-center'><img style='vertical-align:center; align:center' src='img/fixation2_sml.jpg'></div><div class='arrayDiv3'><div class='tl'><img class='introPic' src='trustrating_stim/white_mw078.bmp'><br><font color='green'><strong>Share</strong></font></div><div class='tc'><img class='introPic' src='trustrating_stim/white_mw013.bmp'><br><font color='red'><strong>Keep</strong></font></div><div class='tr'><img class='introPic' src='trustrating_stim/white_mw091.bmp'><br><font color='red'><strong>Keep</strong></font></div></div></div>","null","ARRAY","3","trustrating_stim/white_mw078.bmp,trustrating_stim/white_mw013.bmp,trustrating_stim/white_mw091.bmp","1,0,0","noMatchOutcome","i","4500","","","","",""
"html-keyboard-response","77","292534","0.0-7.0-3.8","63daf5a89c63648ec34664fb","bdp_wmem","Tue Mar 14 2023 21:26:11 GMT-0400 (Eastern Daylight Time)","666169","Match,No Match","","null","","","","","","<div class='trialBorder'><div class='vertical-center'><img src='img/fixation2_sml.jpg'</img></div></div>","null","DELAY","","","","","","","","","","",""
"html-keyboard-response","78","294242","0.0-7.0-4.8","63daf5a89c63648ec34664fb","bdp_wmem","Tue Mar 14 2023 21:26:11 GMT-0400 (Eastern Daylight Time)","666169","Match,No Match","","1707","","","","","","<div class='trialBorder'><div class='targDiv'><div class='tc'><img class='introPic' src='trustrating_stim/white_mw091.bmp'><br><font color='green'><strong>Share</strong></font></div></div><div class='respDiv'><div class='respDivL'>Match<br>(e)</div><div class='respDivR'>No Match<br>(i)</div></div></div>","i","TARGET","3","trustrating_stim/white_mw078.bmp,trustrating_stim/white_mw013.bmp,trustrating_stim/white_mw091.bmp","1,0,0","noMatchOutcome","i","4500","trustrating_stim/white_mw091.bmp","green","Share","REAL","1"
"html-keyboard-response","79","294751","0.0-7.0-5.8","63daf5a89c63648ec34664fb","bdp_wmem","Tue Mar 14 2023 21:26:11 GMT-0400 (Eastern Daylight Time)","666169","Match,No Match","","null","","","","","","<div class='trialBorder'><div class='vertical-center'><img src='img/correct.jpg'></div><div class='respDiv'><div class='respDivL'>Match<br>(e)</div><div class='respDivR'><font style='color:orange'>No Match<br>(i)</font></div></div></div>","null","FEEDBACK","","","","","","","","","","",""
"html-keyboard-response","80","295257","0.0-7.0-1.9","63daf5a89c63648ec34664fb","bdp_wmem","Tue Mar 14 2023 21:26:11 GMT-0400 (Eastern Daylight Time)","666169","Match,No Match","","null","","","","","","<div class='trialBorder'><div class='vertical-center'><img src='img/fixation2_sml.jpg'</img></div></div>","null","FIX","","","","","","","","","","",""
"html-keyboard-response","81","299767","0.0-7.0-2.9","63daf5a89c63648ec34664fb","bdp_wmem","Tue Mar 14 2023 21:26:11 GMT-0400 (Eastern Daylight Time)","666169","Match,No Match","","null","","","","","","<div class='trialBorder'><div class='vertical-center'><img style='vertical-align:center; align:center' src='img/fixation2_sml.jpg'></div><div class='arrayDiv3'><div class='tl'><img class='introPic' src='trustrating_stim/white_mw038.bmp'><br><font color='green'><strong>Share</strong></font></div><div class='tc'><img class='introPic' src='trustrating_stim/white_mw010.bmp'><br><font color='red'><strong>Keep</strong></font></div><div class='tr'><img class='introPic' src='trustrating_stim/white_mw085.bmp'><br><font color='green'><strong>Share</strong></font></div></div></div>","null","ARRAY","3","trustrating_stim/white_mw038.bmp,trustrating_stim/white_mw010.bmp,trustrating_stim/white_mw085.bmp","1,0,1","noMatchOutcome","i","4500","","","","",""
"html-keyboard-response","82","303778","0.0-7.0-3.9","63daf5a89c63648ec34664fb","bdp_wmem","Tue Mar 14 2023 21:26:11 GMT-0400 (Eastern Daylight Time)","666169","Match,No Match","","null","","","","","","<div class='trialBorder'><div class='vertical-center'><img src='img/fixation2_sml.jpg'</img></div></div>","null","DELAY","","","","","","","","","","",""
"html-keyboard-response","83","305881","0.0-7.0-4.9","63daf5a89c63648ec34664fb","bdp_wmem","Tue Mar 14 2023 21:26:11 GMT-0400 (Eastern Daylight Time)","666169","Match,No Match","","2102","","","","","","<div class='trialBorder'><div class='targDiv'><div class='tc'><img class='introPic' src='trustrating_stim/white_mw038.bmp'><br><font color='red'><strong>Keep</strong></font></div></div><div class='respDiv'><div class='respDivL'>Match<br>(e)</div><div class='respDivR'>No Match<br>(i)</div></div></div>","e","TARGET","3","trustrating_stim/white_mw038.bmp,trustrating_stim/white_mw010.bmp,trustrating_stim/white_mw085.bmp","1,0,1","noMatchOutcome","i","4500","trustrating_stim/white_mw038.bmp","red","Keep","REAL","0"
"html-keyboard-response","84","306384","0.0-7.0-5.9","63daf5a89c63648ec34664fb","bdp_wmem","Tue Mar 14 2023 21:26:11 GMT-0400 (Eastern Daylight Time)","666169","Match,No Match","","null","","","","","","<div class='trialBorder'><div class='vertical-center'><img src='img/error.jpg'></div><div class='respDiv'><div class='respDivL'><font style='color:orange'>Match<br>(e)</font></div><div class='respDivR'>No Match<br>(i)</div></div></div>","null","FEEDBACK","","","","","","","","","","",""
"html-keyboard-response","85","306889","0.0-7.0-1.10","63daf5a89c63648ec34664fb","bdp_wmem","Tue Mar 14 2023 21:26:11 GMT-0400 (Eastern Daylight Time)","666169","Match,No Match","","null","","","","","","<div class='trialBorder'><div class='vertical-center'><img src='img/fixation2_sml.jpg'</img></div></div>","null","FIX","","","","","","","","","","",""
"html-keyboard-response","86","309896","0.0-7.0-2.10","63daf5a89c63648ec34664fb","bdp_wmem","Tue Mar 14 2023 21:26:11 GMT-0400 (Eastern Daylight Time)","666169","Match,No Match","","null","","","","","","<div class='trialBorder'><div class='vertical-center'><img style='vertical-align:center; align:center' src='img/fixation2_sml.jpg'></div><div class='arrayDiv2'><div class='tl'><img class='introPic' src='trustrating_stim/white_mw012.bmp'><br><font color='green'><strong>Share</strong></font></div><div class='tr'><img class='introPic' src='trustrating_stim/white_mw038.bmp'><br><font color='red'><strong>Keep</strong></font></div></div></div>","null","ARRAY","2","trustrating_stim/white_mw012.bmp,trustrating_stim/white_mw038.bmp","1,0","noMatchOutcome","i","3000","","","","",""
"html-keyboard-response","87","313901","0.0-7.0-3.10","63daf5a89c63648ec34664fb","bdp_wmem","Tue Mar 14 2023 21:26:11 GMT-0400 (Eastern Daylight Time)","666169","Match,No Match","","null","","","","","","<div class='trialBorder'><div class='vertical-center'><img src='img/fixation2_sml.jpg'</img></div></div>","null","DELAY","","","","","","","","","","",""
"html-keyboard-response","88","315413","0.0-7.0-4.10","63daf5a89c63648ec34664fb","bdp_wmem","Tue Mar 14 2023 21:26:11 GMT-0400 (Eastern Daylight Time)","666169","Match,No Match","","1511","","","","","","<div class='trialBorder'><div class='targDiv'><div class='tc'><img class='introPic' src='trustrating_stim/white_mw012.bmp'><br><font color='red'><strong>Keep</strong></font></div></div><div class='respDiv'><div class='respDivL'>Match<br>(e)</div><div class='respDivR'>No Match<br>(i)</div></div></div>","i","TARGET","2","trustrating_stim/white_mw012.bmp,trustrating_stim/white_mw038.bmp","1,0","noMatchOutcome","i","3000","trustrating_stim/white_mw012.bmp","red","Keep","REAL","1"
"html-keyboard-response","89","315922","0.0-7.0-5.10","63daf5a89c63648ec34664fb","bdp_wmem","Tue Mar 14 2023 21:26:11 GMT-0400 (Eastern Daylight Time)","666169","Match,No Match","","null","","","","","","<div class='trialBorder'><div class='vertical-center'><img src='img/correct.jpg'></div><div class='respDiv'><div class='respDivL'>Match<br>(e)</div><div class='respDivR'><font style='color:orange'>No Match<br>(i)</font></div></div></div>","null","FEEDBACK","","","","","","","","","","",""
"html-keyboard-response","90","316433","0.0-7.0-1.11","63daf5a89c63648ec34664fb","bdp_wmem","Tue Mar 14 2023 21:26:11 GMT-0400 (Eastern Daylight Time)","666169","Match,No Match","","null","","","","","","<div class='trialBorder'><div class='vertical-center'><img src='img/fixation2_sml.jpg'</img></div></div>","null","FIX","","","","","","","","","","",""
"html-keyboard-response","91","319440","0.0-7.0-2.11","63daf5a89c63648ec34664fb","bdp_wmem","Tue Mar 14 2023 21:26:11 GMT-0400 (Eastern Daylight Time)","666169","Match,No Match","","null","","","","","","<div class='trialBorder'><div class='vertical-center'><img style='vertical-align:center; align:center' src='img/fixation2_sml.jpg'></div><div class='arrayDiv2'><div class='tl'><img class='introPic' src='trustrating_stim/white_mw042.bmp'><br><font color='red'><strong>Keep</strong></font></div><div class='tr'><img class='introPic' src='trustrating_stim/white_mw091.bmp'><br><font color='green'><strong>Share</strong></font></div></div></div>","null","ARRAY","2","trustrating_stim/white_mw042.bmp,trustrating_stim/white_mw091.bmp","0,1","noMatchFace","i","3000","","","","",""
"html-keyboard-response","92","323450","0.0-7.0-3.11","63daf5a89c63648ec34664fb","bdp_wmem","Tue Mar 14 2023 21:26:11 GMT-0400 (Eastern Daylight Time)","666169","Match,No Match","","null","","","","","","<div class='trialBorder'><div class='vertical-center'><img src='img/fixation2_sml.jpg'</img></div></div>","null","DELAY","","","","","","","","","","",""
"html-keyboard-response","93","326861","0.0-7.0-4.11","63daf5a89c63648ec34664fb","bdp_wmem","Tue Mar 14 2023 21:26:11 GMT-0400 (Eastern Daylight Time)","666169","Match,No Match","","3410","","","","","","<div class='trialBorder'><div class='targDiv'><div class='tc'><img class='introPic' src='trustrating_stim/white_mw013.bmp'><br><font color='green'><strong>Share</strong></font></div></div><div class='respDiv'><div class='respDivL'>Match<br>(e)</div><div class='respDivR'>No Match<br>(i)</div></div></div>","e","TARGET","2","trustrating_stim/white_mw042.bmp,trustrating_stim/white_mw091.bmp","0,1","noMatchFace","i","3000","trustrating_stim/white_mw013.bmp","green","Share","REAL","0"
"html-keyboard-response","94","327369","0.0-7.0-5.11","63daf5a89c63648ec34664fb","bdp_wmem","Tue Mar 14 2023 21:26:11 GMT-0400 (Eastern Daylight Time)","666169","Match,No Match","","null","","","","","","<div class='trialBorder'><div class='vertical-center'><img src='img/error.jpg'></div><div class='respDiv'><div class='respDivL'><font style='color:orange'>Match<br>(e)</font></div><div class='respDivR'>No Match<br>(i)</div></div></div>","null","FEEDBACK","","","","","","","","","","",""
"html-keyboard-response","95","327872","0.0-7.0-1.12","63daf5a89c63648ec34664fb","bdp_wmem","Tue Mar 14 2023 21:26:11 GMT-0400 (Eastern Daylight Time)","666169","Match,No Match","","null","","","","","","<div class='trialBorder'><div class='vertical-center'><img src='img/fixation2_sml.jpg'</img></div></div>","null","FIX","","","","","","","","","","",""
"html-keyboard-response","96","329383","0.0-7.0-2.12","63daf5a89c63648ec34664fb","bdp_wmem","Tue Mar 14 2023 21:26:11 GMT-0400 (Eastern Daylight Time)","666169","Match,No Match","","null","","","","","","<div class='trialBorder'><div class='vertical-center'><img style='vertical-align:center; align:center' src='img/fixation2_sml.jpg'></div><div class='arrayDiv1'><div class='tc'><img class='introPic' src='trustrating_stim/white_mw078.bmp'><br><font color='green'><strong>Share</strong></font></div></div></div>","null","ARRAY","1","trustrating_stim/white_mw078.bmp","1","Match","e","1500","","","","",""
"html-keyboard-response","97","333393","0.0-7.0-3.12","63daf5a89c63648ec34664fb","bdp_wmem","Tue Mar 14 2023 21:26:11 GMT-0400 (Eastern Daylight Time)","666169","Match,No Match","","null","","","","","","<div class='trialBorder'><div class='vertical-center'><img src='img/fixation2_sml.jpg'</img></div></div>","null","DELAY","","","","","","","","","","",""
"html-keyboard-response","98","334705","0.0-7.0-4.12","63daf5a89c63648ec34664fb","bdp_wmem","Tue Mar 14 2023 21:26:11 GMT-0400 (Eastern Daylight Time)","666169","Match,No Match","","1311","","","","","","<div class='trialBorder'><div class='targDiv'><div class='tc'><img class='introPic' src='trustrating_stim/white_mw078.bmp'><br><font color='green'><strong>Share</strong></font></div></div><div class='respDiv'><div class='respDivL'>Match<br>(e)</div><div class='respDivR'>No Match<br>(i)</div></div></div>","e","TARGET","1","trustrating_stim/white_mw078.bmp","1","Match","e","1500","trustrating_stim/white_mw078.bmp","green","Share","REAL","1"
"html-keyboard-response","99","335217","0.0-7.0-5.12","63daf5a89c63648ec34664fb","bdp_wmem","Tue Mar 14 2023 21:26:11 GMT-0400 (Eastern Daylight Time)","666169","Match,No Match","","null","","","","","","<div class='trialBorder'><div class='vertical-center'><img src='img/correct.jpg'></div><div class='respDiv'><div class='respDivL'><font style='color:orange'>Match<br>(e)</font></div><div class='respDivR'>No Match<br>(i)</div></div></div>","null","FEEDBACK","","","","","","","","","","",""
"html-keyboard-response","100","335728","0.0-7.0-1.13","63daf5a89c63648ec34664fb","bdp_wmem","Tue Mar 14 2023 21:26:11 GMT-0400 (Eastern Daylight Time)","666169","Match,No Match","","null","","","","","","<div class='trialBorder'><div class='vertical-center'><img src='img/fixation2_sml.jpg'</img></div></div>","null","FIX","","","","","","","","","","",""
"html-keyboard-response","101","337237","0.0-7.0-2.13","63daf5a89c63648ec34664fb","bdp_wmem","Tue Mar 14 2023 21:26:11 GMT-0400 (Eastern Daylight Time)","666169","Match,No Match","","null","","","","","","<div class='trialBorder'><div class='vertical-center'><img style='vertical-align:center; align:center' src='img/fixation2_sml.jpg'></div><div class='arrayDiv1'><div class='tc'><img class='introPic' src='trustrating_stim/white_mw012.bmp'><br><font color='green'><strong>Share</strong></font></div></div></div>","null","ARRAY","1","trustrating_stim/white_mw012.bmp","1","noMatchOutcome","i","1500","","","","",""
"html-keyboard-response","102","341248","0.0-7.0-3.13","63daf5a89c63648ec34664fb","bdp_wmem","Tue Mar 14 2023 21:26:11 GMT-0400 (Eastern Daylight Time)","666169","Match,No Match","","null","","","","","","<div class='trialBorder'><div class='vertical-center'><img src='img/fixation2_sml.jpg'</img></div></div>","null","DELAY","","","","","","","","","","",""
"html-keyboard-response","103","342121","0.0-7.0-4.13","63daf5a89c63648ec34664fb","bdp_wmem","Tue Mar 14 2023 21:26:11 GMT-0400 (Eastern Daylight Time)","666169","Match,No Match","","872","","","","","","<div class='trialBorder'><div class='targDiv'><div class='tc'><img class='introPic' src='trustrating_stim/white_mw012.bmp'><br><font color='red'><strong>Keep</strong></font></div></div><div class='respDiv'><div class='respDivL'>Match<br>(e)</div><div class='respDivR'>No Match<br>(i)</div></div></div>","i","TARGET","1","trustrating_stim/white_mw012.bmp","1","noMatchOutcome","i","1500","trustrating_stim/white_mw012.bmp","red","Keep","REAL","1"
"html-keyboard-response","104","342630","0.0-7.0-5.13","63daf5a89c63648ec34664fb","bdp_wmem","Tue Mar 14 2023 21:26:11 GMT-0400 (Eastern Daylight Time)","666169","Match,No Match","","null","","","","","","<div class='trialBorder'><div class='vertical-center'><img src='img/correct.jpg'></div><div class='respDiv'><div class='respDivL'>Match<br>(e)</div><div class='respDivR'><font style='color:orange'>No Match<br>(i)</font></div></div></div>","null","FEEDBACK","","","","","","","","","","",""
"html-keyboard-response","105","343135","0.0-7.0-1.14","63daf5a89c63648ec34664fb","bdp_wmem","Tue Mar 14 2023 21:26:11 GMT-0400 (Eastern Daylight Time)","666169","Match,No Match","","null","","","","","","<div class='trialBorder'><div class='vertical-center'><img src='img/fixation2_sml.jpg'</img></div></div>","null","FIX","","","","","","","","","","",""
"html-keyboard-response","106","346142","0.0-7.0-2.14","63daf5a89c63648ec34664fb","bdp_wmem","Tue Mar 14 2023 21:26:11 GMT-0400 (Eastern Daylight Time)","666169","Match,No Match","","null","","","","","","<div class='trialBorder'><div class='vertical-center'><img style='vertical-align:center; align:center' src='img/fixation2_sml.jpg'></div><div class='arrayDiv2'><div class='tl'><img class='introPic' src='trustrating_stim/white_mw040.bmp'><br><font color='red'><strong>Keep</strong></font></div><div class='tr'><img class='introPic' src='trustrating_stim/white_mw091.bmp'><br><font color='green'><strong>Share</strong></font></div></div></div>","null","ARRAY","2","trustrating_stim/white_mw040.bmp,trustrating_stim/white_mw091.bmp","0,1","noMatchOutcome","i","3000","","","","",""
"html-keyboard-response","107","350153","0.0-7.0-3.14","63daf5a89c63648ec34664fb","bdp_wmem","Tue Mar 14 2023 21:26:11 GMT-0400 (Eastern Daylight Time)","666169","Match,No Match","","null","","","","","","<div class='trialBorder'><div class='vertical-center'><img src='img/fixation2_sml.jpg'</img></div></div>","null","DELAY","","","","","","","","","","",""
"html-keyboard-response","108","351374","0.0-7.0-4.14","63daf5a89c63648ec34664fb","bdp_wmem","Tue Mar 14 2023 21:26:11 GMT-0400 (Eastern Daylight Time)","666169","Match,No Match","","1220","","","","","","<div class='trialBorder'><div class='targDiv'><div class='tc'><img class='introPic' src='trustrating_stim/white_mw091.bmp'><br><font color='red'><strong>Keep</strong></font></div></div><div class='respDiv'><div class='respDivL'>Match<br>(e)</div><div class='respDivR'>No Match<br>(i)</div></div></div>","i","TARGET","2","trustrating_stim/white_mw040.bmp,trustrating_stim/white_mw091.bmp","0,1","noMatchOutcome","i","3000","trustrating_stim/white_mw091.bmp","red","Keep","REAL","1"
"html-keyboard-response","109","351877","0.0-7.0-5.14","63daf5a89c63648ec34664fb","bdp_wmem","Tue Mar 14 2023 21:26:11 GMT-0400 (Eastern Daylight Time)","666169","Match,No Match","","null","","","","","","<div class='trialBorder'><div class='vertical-center'><img src='img/correct.jpg'></div><div class='respDiv'><div class='respDivL'>Match<br>(e)</div><div class='respDivR'><font style='color:orange'>No Match<br>(i)</font></div></div></div>","null","FEEDBACK","","","","","","","","","","",""
"html-keyboard-response","110","352382","0.0-7.0-1.15","63daf5a89c63648ec34664fb","bdp_wmem","Tue Mar 14 2023 21:26:11 GMT-0400 (Eastern Daylight Time)","666169","Match,No Match","","null","","","","","","<div class='trialBorder'><div class='vertical-center'><img src='img/fixation2_sml.jpg'</img></div></div>","null","FIX","","","","","","","","","","",""
"html-keyboard-response","111","356886","0.0-7.0-2.15","63daf5a89c63648ec34664fb","bdp_wmem","Tue Mar 14 2023 21:26:11 GMT-0400 (Eastern Daylight Time)","666169","Match,No Match","","null","","","","","","<div class='trialBorder'><div class='vertical-center'><img style='vertical-align:center; align:center' src='img/fixation2_sml.jpg'></div><div class='arrayDiv3'><div class='tl'><img class='introPic' src='trustrating_stim/white_mw013.bmp'><br><font color='red'><strong>Keep</strong></font></div><div class='tc'><img class='introPic' src='trustrating_stim/white_mw010.bmp'><br><font color='green'><strong>Share</strong></font></div><div class='tr'><img class='introPic' src='trustrating_stim/white_mw040.bmp'><br><font color='green'><strong>Share</strong></font></div></div></div>","null","ARRAY","3","trustrating_stim/white_mw013.bmp,trustrating_stim/white_mw010.bmp,trustrating_stim/white_mw040.bmp","0,1,1","noMatchOutcome","i","4500","","","","",""
"html-keyboard-response","112","360897","0.0-7.0-3.15","63daf5a89c63648ec34664fb","bdp_wmem","Tue Mar 14 2023 21:26:11 GMT-0400 (Eastern Daylight Time)","666169","Match,No Match","","null","","","","","","<div class='trialBorder'><div class='vertical-center'><img src='img/fixation2_sml.jpg'</img></div></div>","null","DELAY","","","","","","","","","","",""
"html-keyboard-response","113","362767","0.0-7.0-4.15","63daf5a89c63648ec34664fb","bdp_wmem","Tue Mar 14 2023 21:26:11 GMT-0400 (Eastern Daylight Time)","666169","Match,No Match","","1869","","","","","","<div class='trialBorder'><div class='targDiv'><div class='tc'><img class='introPic' src='trustrating_stim/white_mw013.bmp'><br><font color='green'><strong>Share</strong></font></div></div><div class='respDiv'><div class='respDivL'>Match<br>(e)</div><div class='respDivR'>No Match<br>(i)</div></div></div>","i","TARGET","3","trustrating_stim/white_mw013.bmp,trustrating_stim/white_mw010.bmp,trustrating_stim/white_mw040.bmp","0,1,1","noMatchOutcome","i","4500","trustrating_stim/white_mw013.bmp","green","Share","REAL","1"
"html-keyboard-response","114","363272","0.0-7.0-5.15","63daf5a89c63648ec34664fb","bdp_wmem","Tue Mar 14 2023 21:26:11 GMT-0400 (Eastern Daylight Time)","666169","Match,No Match","","null","","","","","","<div class='trialBorder'><div class='vertical-center'><img src='img/correct.jpg'></div><div class='respDiv'><div class='respDivL'>Match<br>(e)</div><div class='respDivR'><font style='color:orange'>No Match<br>(i)</font></div></div></div>","null","FEEDBACK","","","","","","","","","","",""
"html-keyboard-response","115","363785","0.0-7.0-1.16","63daf5a89c63648ec34664fb","bdp_wmem","Tue Mar 14 2023 21:26:11 GMT-0400 (Eastern Daylight Time)","666169","Match,No Match","","null","","","","","","<div class='trialBorder'><div class='vertical-center'><img src='img/fixation2_sml.jpg'</img></div></div>","null","FIX","","","","","","","","","","",""
"html-keyboard-response","116","368293","0.0-7.0-2.16","63daf5a89c63648ec34664fb","bdp_wmem","Tue Mar 14 2023 21:26:11 GMT-0400 (Eastern Daylight Time)","666169","Match,No Match","","null","","","","","","<div class='trialBorder'><div class='vertical-center'><img style='vertical-align:center; align:center' src='img/fixation2_sml.jpg'></div><div class='arrayDiv3'><div class='tl'><img class='introPic' src='trustrating_stim/white_mw070.bmp'><br><font color='green'><strong>Share</strong></font></div><div class='tc'><img class='introPic' src='trustrating_stim/white_mw013.bmp'><br><font color='red'><strong>Keep</strong></font></div><div class='tr'><img class='introPic' src='trustrating_stim/white_mw003.bmp'><br><font color='green'><strong>Share</strong></font></div></div></div>","null","ARRAY","3","trustrating_stim/white_mw070.bmp,trustrating_stim/white_mw013.bmp,trustrating_stim/white_mw003.bmp","1,0,1","noMatchFace","i","4500","","","","",""
"html-keyboard-response","117","372304","0.0-7.0-3.16","63daf5a89c63648ec34664fb","bdp_wmem","Tue Mar 14 2023 21:26:11 GMT-0400 (Eastern Daylight Time)","666169","Match,No Match","","null","","","","","","<div class='trialBorder'><div class='vertical-center'><img src='img/fixation2_sml.jpg'</img></div></div>","null","DELAY","","","","","","","","","","",""
"html-keyboard-response","118","373710","0.0-7.0-4.16","63daf5a89c63648ec34664fb","bdp_wmem","Tue Mar 14 2023 21:26:11 GMT-0400 (Eastern Daylight Time)","666169","Match,No Match","","1405","","","","","","<div class='trialBorder'><div class='targDiv'><div class='tc'><img class='introPic' src='trustrating_stim/white_mw092.bmp'><br><font color='red'><strong>Keep</strong></font></div></div><div class='respDiv'><div class='respDivL'>Match<br>(e)</div><div class='respDivR'>No Match<br>(i)</div></div></div>","i","TARGET","3","trustrating_stim/white_mw070.bmp,trustrating_stim/white_mw013.bmp,trustrating_stim/white_mw003.bmp","1,0,1","noMatchFace","i","4500","trustrating_stim/white_mw092.bmp","red","Keep","REAL","1"
"html-keyboard-response","119","374214","0.0-7.0-5.16","63daf5a89c63648ec34664fb","bdp_wmem","Tue Mar 14 2023 21:26:11 GMT-0400 (Eastern Daylight Time)","666169","Match,No Match","","null","","","","","","<div class='trialBorder'><div class='vertical-center'><img src='img/correct.jpg'></div><div class='respDiv'><div class='respDivL'>Match<br>(e)</div><div class='respDivR'><font style='color:orange'>No Match<br>(i)</font></div></div></div>","null","FEEDBACK","","","","","","","","","","",""
"html-keyboard-response","120","374719","0.0-7.0-1.17","63daf5a89c63648ec34664fb","bdp_wmem","Tue Mar 14 2023 21:26:11 GMT-0400 (Eastern Daylight Time)","666169","Match,No Match","","null","","","","","","<div class='trialBorder'><div class='vertical-center'><img src='img/fixation2_sml.jpg'</img></div></div>","null","FIX","","","","","","","","","","",""
"html-keyboard-response","121","379229","0.0-7.0-2.17","63daf5a89c63648ec34664fb","bdp_wmem","Tue Mar 14 2023 21:26:11 GMT-0400 (Eastern Daylight Time)","666169","Match,No Match","","null","","","","","","<div class='trialBorder'><div class='vertical-center'><img style='vertical-align:center; align:center' src='img/fixation2_sml.jpg'></div><div class='arrayDiv3'><div class='tl'><img class='introPic' src='trustrating_stim/white_mw070.bmp'><br><font color='red'><strong>Keep</strong></font></div><div class='tc'><img class='introPic' src='trustrating_stim/white_mw013.bmp'><br><font color='green'><strong>Share</strong></font></div><div class='tr'><img class='introPic' src='trustrating_stim/white_mw091.bmp'><br><font color='red'><strong>Keep</strong></font></div></div></div>","null","ARRAY","3","trustrating_stim/white_mw070.bmp,trustrating_stim/white_mw013.bmp,trustrating_stim/white_mw091.bmp","0,1,0","Match","e","4500","","","","",""
"html-keyboard-response","122","383239","0.0-7.0-3.17","63daf5a89c63648ec34664fb","bdp_wmem","Tue Mar 14 2023 21:26:11 GMT-0400 (Eastern Daylight Time)","666169","Match,No Match","","null","","","","","","<div class='trialBorder'><div class='vertical-center'><img src='img/fixation2_sml.jpg'</img></div></div>","null","DELAY","","","","","","","","","","",""
"html-keyboard-response","123","385182","0.0-7.0-4.17","63daf5a89c63648ec34664fb","bdp_wmem","Tue Mar 14 2023 21:26:11 GMT-0400 (Eastern Daylight Time)","666169","Match,No Match","","1942","","","","","","<div class='trialBorder'><div class='targDiv'><div class='tc'><img class='introPic' src='trustrating_stim/white_mw091.bmp'><br><font color='red'><strong>Keep</strong></font></div></div><div class='respDiv'><div class='respDivL'>Match<br>(e)</div><div class='respDivR'>No Match<br>(i)</div></div></div>","e","TARGET","3","trustrating_stim/white_mw070.bmp,trustrating_stim/white_mw013.bmp,trustrating_stim/white_mw091.bmp","0,1,0","Match","e","4500","trustrating_stim/white_mw091.bmp","red","Keep","REAL","1"
"html-keyboard-response","124","385688","0.0-7.0-5.17","63daf5a89c63648ec34664fb","bdp_wmem","Tue Mar 14 2023 21:26:11 GMT-0400 (Eastern Daylight Time)","666169","Match,No Match","","null","","","","","","<div class='trialBorder'><div class='vertical-center'><img src='img/correct.jpg'></div><div class='respDiv'><div class='respDivL'><font style='color:orange'>Match<br>(e)</font></div><div class='respDivR'>No Match<br>(i)</div></div></div>","null","FEEDBACK","","","","","","","","","","",""
"html-keyboard-response","125","386200","0.0-7.0-1.18","63daf5a89c63648ec34664fb","bdp_wmem","Tue Mar 14 2023 21:26:11 GMT-0400 (Eastern Daylight Time)","666169","Match,No Match","","null","","","","","","<div class='trialBorder'><div class='vertical-center'><img src='img/fixation2_sml.jpg'</img></div></div>","null","FIX","","","","","","","","","","",""
"html-keyboard-response","126","387710","0.0-7.0-2.18","63daf5a89c63648ec34664fb","bdp_wmem","Tue Mar 14 2023 21:26:11 GMT-0400 (Eastern Daylight Time)","666169","Match,No Match","","null","","","","","","<div class='trialBorder'><div class='vertical-center'><img style='vertical-align:center; align:center' src='img/fixation2_sml.jpg'></div><div class='arrayDiv1'><div class='tc'><img class='introPic' src='trustrating_stim/white_mw038.bmp'><br><font color='red'><strong>Keep</strong></font></div></div></div>","null","ARRAY","1","trustrating_stim/white_mw038.bmp","0","noMatchFace","i","1500","","","","",""
"html-keyboard-response","127","391716","0.0-7.0-3.18","63daf5a89c63648ec34664fb","bdp_wmem","Tue Mar 14 2023 21:26:11 GMT-0400 (Eastern Daylight Time)","666169","Match,No Match","","null","","","","","","<div class='trialBorder'><div class='vertical-center'><img src='img/fixation2_sml.jpg'</img></div></div>","null","DELAY","","","","","","","","","","",""
"html-keyboard-response","128","393432","0.0-7.0-4.18","63daf5a89c63648ec34664fb","bdp_wmem","Tue Mar 14 2023 21:26:11 GMT-0400 (Eastern Daylight Time)","666169","Match,No Match","","1715","","","","","","<div class='trialBorder'><div class='targDiv'><div class='tc'><img class='introPic' src='trustrating_stim/white_mw078.bmp'><br><font color='red'><strong>Keep</strong></font></div></div><div class='respDiv'><div class='respDivL'>Match<br>(e)</div><div class='respDivR'>No Match<br>(i)</div></div></div>","i","TARGET","1","trustrating_stim/white_mw038.bmp","0","noMatchFace","i","1500","trustrating_stim/white_mw078.bmp","red","Keep","REAL","1"
"html-keyboard-response","129","393944","0.0-7.0-5.18","63daf5a89c63648ec34664fb","bdp_wmem","Tue Mar 14 2023 21:26:11 GMT-0400 (Eastern Daylight Time)","666169","Match,No Match","","null","","","","","","<div class='trialBorder'><div class='vertical-center'><img src='img/correct.jpg'></div><div class='respDiv'><div class='respDivL'>Match<br>(e)</div><div class='respDivR'><font style='color:orange'>No Match<br>(i)</font></div></div></div>","null","FEEDBACK","","","","","","","","","","",""
"html-keyboard-response","130","394455","0.0-7.0-1.19","63daf5a89c63648ec34664fb","bdp_wmem","Tue Mar 14 2023 21:26:11 GMT-0400 (Eastern Daylight Time)","666169","Match,No Match","","null","","","","","","<div class='trialBorder'><div class='vertical-center'><img src='img/fixation2_sml.jpg'</img></div></div>","null","FIX","","","","","","","","","","",""
"html-keyboard-response","131","395965","0.0-7.0-2.19","63daf5a89c63648ec34664fb","bdp_wmem","Tue Mar 14 2023 21:26:11 GMT-0400 (Eastern Daylight Time)","666169","Match,No Match","","null","","","","","","<div class='trialBorder'><div class='vertical-center'><img style='vertical-align:center; align:center' src='img/fixation2_sml.jpg'></div><div class='arrayDiv1'><div class='tc'><img class='introPic' src='trustrating_stim/white_mw038.bmp'><br><font color='green'><strong>Share</strong></font></div></div></div>","null","ARRAY","1","trustrating_stim/white_mw038.bmp","1","noMatchOutcome","i","1500","","","","",""
"html-keyboard-response","132","399976","0.0-7.0-3.19","63daf5a89c63648ec34664fb","bdp_wmem","Tue Mar 14 2023 21:26:11 GMT-0400 (Eastern Daylight Time)","666169","Match,No Match","","null","","","","","","<div class='trialBorder'><div class='vertical-center'><img src='img/fixation2_sml.jpg'</img></div></div>","null","DELAY","","","","","","","","","","",""
"html-keyboard-response","133","401045","0.0-7.0-4.19","63daf5a89c63648ec34664fb","bdp_wmem","Tue Mar 14 2023 21:26:11 GMT-0400 (Eastern Daylight Time)","666169","Match,No Match","","1068","","","","","","<div class='trialBorder'><div class='targDiv'><div class='tc'><img class='introPic' src='trustrating_stim/white_mw038.bmp'><br><font color='red'><strong>Keep</strong></font></div></div><div class='respDiv'><div class='respDivL'>Match<br>(e)</div><div class='respDivR'>No Match<br>(i)</div></div></div>","i","TARGET","1","trustrating_stim/white_mw038.bmp","1","noMatchOutcome","i","1500","trustrating_stim/white_mw038.bmp","red","Keep","REAL","1"
"html-keyboard-response","134","401549","0.0-7.0-5.19","63daf5a89c63648ec34664fb","bdp_wmem","Tue Mar 14 2023 21:26:11 GMT-0400 (Eastern Daylight Time)","666169","Match,No Match","","null","","","","","","<div class='trialBorder'><div class='vertical-center'><img src='img/correct.jpg'></div><div class='respDiv'><div class='respDivL'>Match<br>(e)</div><div class='respDivR'><font style='color:orange'>No Match<br>(i)</font></div></div></div>","null","FEEDBACK","","","","","","","","","","",""
"html-keyboard-response","135","402054","0.0-7.0-1.20","63daf5a89c63648ec34664fb","bdp_wmem","Tue Mar 14 2023 21:26:11 GMT-0400 (Eastern Daylight Time)","666169","Match,No Match","","null","","","","","","<div class='trialBorder'><div class='vertical-center'><img src='img/fixation2_sml.jpg'</img></div></div>","null","FIX","","","","","","","","","","",""
"html-keyboard-response","136","403567","0.0-7.0-2.20","63daf5a89c63648ec34664fb","bdp_wmem","Tue Mar 14 2023 21:26:11 GMT-0400 (Eastern Daylight Time)","666169","Match,No Match","","null","","","","","","<div class='trialBorder'><div class='vertical-center'><img style='vertical-align:center; align:center' src='img/fixation2_sml.jpg'></div><div class='arrayDiv1'><div class='tc'><img class='introPic' src='trustrating_stim/white_mw091.bmp'><br><font color='red'><strong>Keep</strong></font></div></div></div>","null","ARRAY","1","trustrating_stim/white_mw091.bmp","0","noMatchFace","i","1500","","","","",""
"html-keyboard-response","137","407574","0.0-7.0-3.20","63daf5a89c63648ec34664fb","bdp_wmem","Tue Mar 14 2023 21:26:11 GMT-0400 (Eastern Daylight Time)","666169","Match,No Match","","null","","","","","","<div class='trialBorder'><div class='vertical-center'><img src='img/fixation2_sml.jpg'</img></div></div>","null","DELAY","","","","","","","","","","",""
"html-keyboard-response","138","409247","0.0-7.0-4.20","63daf5a89c63648ec34664fb","bdp_wmem","Tue Mar 14 2023 21:26:11 GMT-0400 (Eastern Daylight Time)","666169","Match,No Match","","1672","","","","","","<div class='trialBorder'><div class='targDiv'><div class='tc'><img class='introPic' src='trustrating_stim/white_mw040.bmp'><br><font color='red'><strong>Keep</strong></font></div></div><div class='respDiv'><div class='respDivL'>Match<br>(e)</div><div class='respDivR'>No Match<br>(i)</div></div></div>","i","TARGET","1","trustrating_stim/white_mw091.bmp","0","noMatchFace","i","1500","trustrating_stim/white_mw040.bmp","red","Keep","REAL","1"
"html-keyboard-response","139","409757","0.0-7.0-5.20","63daf5a89c63648ec34664fb","bdp_wmem","Tue Mar 14 2023 21:26:11 GMT-0400 (Eastern Daylight Time)","666169","Match,No Match","","null","","","","","","<div class='trialBorder'><div class='vertical-center'><img src='img/correct.jpg'></div><div class='respDiv'><div class='respDivL'>Match<br>(e)</div><div class='respDivR'><font style='color:orange'>No Match<br>(i)</font></div></div></div>","null","FEEDBACK","","","","","","","","","","",""
"html-keyboard-response","140","410262","0.0-7.0-1.21","63daf5a89c63648ec34664fb","bdp_wmem","Tue Mar 14 2023 21:26:11 GMT-0400 (Eastern Daylight Time)","666169","Match,No Match","","null","","","","","","<div class='trialBorder'><div class='vertical-center'><img src='img/fixation2_sml.jpg'</img></div></div>","null","FIX","","","","","","","","","","",""
"html-keyboard-response","141","414772","0.0-7.0-2.21","63daf5a89c63648ec34664fb","bdp_wmem","Tue Mar 14 2023 21:26:11 GMT-0400 (Eastern Daylight Time)","666169","Match,No Match","","null","","","","","","<div class='trialBorder'><div class='vertical-center'><img style='vertical-align:center; align:center' src='img/fixation2_sml.jpg'></div><div class='arrayDiv3'><div class='tl'><img class='introPic' src='trustrating_stim/white_mw092.bmp'><br><font color='red'><strong>Keep</strong></font></div><div class='tc'><img class='introPic' src='trustrating_stim/white_mw038.bmp'><br><font color='green'><strong>Share</strong></font></div><div class='tr'><img class='introPic' src='trustrating_stim/white_mw042.bmp'><br><font color='green'><strong>Share</strong></font></div></div></div>","null","ARRAY","3","trustrating_stim/white_mw092.bmp,trustrating_stim/white_mw038.bmp,trustrating_stim/white_mw042.bmp","0,1,1","Match","e","4500","","","","",""
"html-keyboard-response","142","418782","0.0-7.0-3.21","63daf5a89c63648ec34664fb","bdp_wmem","Tue Mar 14 2023 21:26:11 GMT-0400 (Eastern Daylight Time)","666169","Match,No Match","","null","","","","","","<div class='trialBorder'><div class='vertical-center'><img src='img/fixation2_sml.jpg'</img></div></div>","null","DELAY","","","","","","","","","","",""
"html-keyboard-response","143","420598","0.0-7.0-4.21","63daf5a89c63648ec34664fb","bdp_wmem","Tue Mar 14 2023 21:26:11 GMT-0400 (Eastern Daylight Time)","666169","Match,No Match","","1815","","","","","","<div class='trialBorder'><div class='targDiv'><div class='tc'><img class='introPic' src='trustrating_stim/white_mw042.bmp'><br><font color='green'><strong>Share</strong></font></div></div><div class='respDiv'><div class='respDivL'>Match<br>(e)</div><div class='respDivR'>No Match<br>(i)</div></div></div>","i","TARGET","3","trustrating_stim/white_mw092.bmp,trustrating_stim/white_mw038.bmp,trustrating_stim/white_mw042.bmp","0,1,1","Match","e","4500","trustrating_stim/white_mw042.bmp","green","Share","REAL","0"
"html-keyboard-response","144","421100","0.0-7.0-5.21","63daf5a89c63648ec34664fb","bdp_wmem","Tue Mar 14 2023 21:26:11 GMT-0400 (Eastern Daylight Time)","666169","Match,No Match","","null","","","","","","<div class='trialBorder'><div class='vertical-center'><img src='img/error.jpg'></div><div class='respDiv'><div class='respDivL'>Match<br>(e)</div><div class='respDivR'><font style='color:orange'>No Match<br>(i)</font></div></div></div>","null","FEEDBACK","","","","","","","","","","",""
"html-keyboard-response","145","421605","0.0-7.0-1.22","63daf5a89c63648ec34664fb","bdp_wmem","Tue Mar 14 2023 21:26:11 GMT-0400 (Eastern Daylight Time)","666169","Match,No Match","","null","","","","","","<div class='trialBorder'><div class='vertical-center'><img src='img/fixation2_sml.jpg'</img></div></div>","null","FIX","","","","","","","","","","",""
"html-keyboard-response","146","426119","0.0-7.0-2.22","63daf5a89c63648ec34664fb","bdp_wmem","Tue Mar 14 2023 21:26:11 GMT-0400 (Eastern Daylight Time)","666169","Match,No Match","","null","","","","","","<div class='trialBorder'><div class='vertical-center'><img style='vertical-align:center; align:center' src='img/fixation2_sml.jpg'></div><div class='arrayDiv3'><div class='tl'><img class='introPic' src='trustrating_stim/white_mw085.bmp'><br><font color='green'><strong>Share</strong></font></div><div class='tc'><img class='introPic' src='trustrating_stim/white_mw012.bmp'><br><font color='green'><strong>Share</strong></font></div><div class='tr'><img class='introPic' src='trustrating_stim/white_mw091.bmp'><br><font color='red'><strong>Keep</strong></font></div></div></div>","null","ARRAY","3","trustrating_stim/white_mw085.bmp,trustrating_stim/white_mw012.bmp,trustrating_stim/white_mw091.bmp","1,1,0","noMatchOutcome","i","4500","","","","",""
"html-keyboard-response","147","430126","0.0-7.0-3.22","63daf5a89c63648ec34664fb","bdp_wmem","Tue Mar 14 2023 21:26:11 GMT-0400 (Eastern Daylight Time)","666169","Match,No Match","","null","","","","","","<div class='trialBorder'><div class='vertical-center'><img src='img/fixation2_sml.jpg'</img></div></div>","null","DELAY","","","","","","","","","","",""
"html-keyboard-response","148","431672","0.0-7.0-4.22","63daf5a89c63648ec34664fb","bdp_wmem","Tue Mar 14 2023 21:26:11 GMT-0400 (Eastern Daylight Time)","666169","Match,No Match","","1545","","","","","","<div class='trialBorder'><div class='targDiv'><div class='tc'><img class='introPic' src='trustrating_stim/white_mw012.bmp'><br><font color='red'><strong>Keep</strong></font></div></div><div class='respDiv'><div class='respDivL'>Match<br>(e)</div><div class='respDivR'>No Match<br>(i)</div></div></div>","i","TARGET","3","trustrating_stim/white_mw085.bmp,trustrating_stim/white_mw012.bmp,trustrating_stim/white_mw091.bmp","1,1,0","noMatchOutcome","i","4500","trustrating_stim/white_mw012.bmp","red","Keep","REAL","1"
"html-keyboard-response","149","432181","0.0-7.0-5.22","63daf5a89c63648ec34664fb","bdp_wmem","Tue Mar 14 2023 21:26:11 GMT-0400 (Eastern Daylight Time)","666169","Match,No Match","","null","","","","","","<div class='trialBorder'><div class='vertical-center'><img src='img/correct.jpg'></div><div class='respDiv'><div class='respDivL'>Match<br>(e)</div><div class='respDivR'><font style='color:orange'>No Match<br>(i)</font></div></div></div>","null","FEEDBACK","","","","","","","","","","",""
"html-keyboard-response","150","432686","0.0-7.0-1.23","63daf5a89c63648ec34664fb","bdp_wmem","Tue Mar 14 2023 21:26:11 GMT-0400 (Eastern Daylight Time)","666169","Match,No Match","","null","","","","","","<div class='trialBorder'><div class='vertical-center'><img src='img/fixation2_sml.jpg'</img></div></div>","null","FIX","","","","","","","","","","",""
"html-keyboard-response","151","437196","0.0-7.0-2.23","63daf5a89c63648ec34664fb","bdp_wmem","Tue Mar 14 2023 21:26:11 GMT-0400 (Eastern Daylight Time)","666169","Match,No Match","","null","","","","","","<div class='trialBorder'><div class='vertical-center'><img style='vertical-align:center; align:center' src='img/fixation2_sml.jpg'></div><div class='arrayDiv3'><div class='tl'><img class='introPic' src='trustrating_stim/white_mw070.bmp'><br><font color='red'><strong>Keep</strong></font></div><div class='tc'><img class='introPic' src='trustrating_stim/white_mw078.bmp'><br><font color='green'><strong>Share</strong></font></div><div class='tr'><img class='introPic' src='trustrating_stim/white_mw003.bmp'><br><font color='red'><strong>Keep</strong></font></div></div></div>","null","ARRAY","3","trustrating_stim/white_mw070.bmp,trustrating_stim/white_mw078.bmp,trustrating_stim/white_mw003.bmp","0,1,0","Match","e","4500","","","","",""
"html-keyboard-response","152","441207","0.0-7.0-3.23","63daf5a89c63648ec34664fb","bdp_wmem","Tue Mar 14 2023 21:26:11 GMT-0400 (Eastern Daylight Time)","666169","Match,No Match","","null","","","","","","<div class='trialBorder'><div class='vertical-center'><img src='img/fixation2_sml.jpg'</img></div></div>","null","DELAY","","","","","","","","","","",""
"html-keyboard-response","153","443001","0.0-7.0-4.23","63daf5a89c63648ec34664fb","bdp_wmem","Tue Mar 14 2023 21:26:11 GMT-0400 (Eastern Daylight Time)","666169","Match,No Match","","1793","","","","","","<div class='trialBorder'><div class='targDiv'><div class='tc'><img class='introPic' src='trustrating_stim/white_mw070.bmp'><br><font color='red'><strong>Keep</strong></font></div></div><div class='respDiv'><div class='respDivL'>Match<br>(e)</div><div class='respDivR'>No Match<br>(i)</div></div></div>","i","TARGET","3","trustrating_stim/white_mw070.bmp,trustrating_stim/white_mw078.bmp,trustrating_stim/white_mw003.bmp","0,1,0","Match","e","4500","trustrating_stim/white_mw070.bmp","red","Keep","REAL","0"
"html-keyboard-response","154","443506","0.0-7.0-5.23","63daf5a89c63648ec34664fb","bdp_wmem","Tue Mar 14 2023 21:26:11 GMT-0400 (Eastern Daylight Time)","666169","Match,No Match","","null","","","","","","<div class='trialBorder'><div class='vertical-center'><img src='img/error.jpg'></div><div class='respDiv'><div class='respDivL'>Match<br>(e)</div><div class='respDivR'><font style='color:orange'>No Match<br>(i)</font></div></div></div>","null","FEEDBACK","","","","","","","","","","",""
"html-keyboard-response","155","444011","0.0-7.0-1.24","63daf5a89c63648ec34664fb","bdp_wmem","Tue Mar 14 2023 21:26:11 GMT-0400 (Eastern Daylight Time)","666169","Match,No Match","","null","","","","","","<div class='trialBorder'><div class='vertical-center'><img src='img/fixation2_sml.jpg'</img></div></div>","null","FIX","","","","","","","","","","",""
"html-keyboard-response","156","447020","0.0-7.0-2.24","63daf5a89c63648ec34664fb","bdp_wmem","Tue Mar 14 2023 21:26:11 GMT-0400 (Eastern Daylight Time)","666169","Match,No Match","","null","","","","","","<div class='trialBorder'><div class='vertical-center'><img style='vertical-align:center; align:center' src='img/fixation2_sml.jpg'></div><div class='arrayDiv2'><div class='tl'><img class='introPic' src='trustrating_stim/white_mw012.bmp'><br><font color='green'><strong>Share</strong></font></div><div class='tr'><img class='introPic' src='trustrating_stim/white_mw091.bmp'><br><font color='red'><strong>Keep</strong></font></div></div></div>","null","ARRAY","2","trustrating_stim/white_mw012.bmp,trustrating_stim/white_mw091.bmp","1,0","Match","e","3000","","","","",""
"html-keyboard-response","157","451029","0.0-7.0-3.24","63daf5a89c63648ec34664fb","bdp_wmem","Tue Mar 14 2023 21:26:11 GMT-0400 (Eastern Daylight Time)","666169","Match,No Match","","null","","","","","","<div class='trialBorder'><div class='vertical-center'><img src='img/fixation2_sml.jpg'</img></div></div>","null","DELAY","","","","","","","","","","",""
"html-keyboard-response","158","452349","0.0-7.0-4.24","63daf5a89c63648ec34664fb","bdp_wmem","Tue Mar 14 2023 21:26:11 GMT-0400 (Eastern Daylight Time)","666169","Match,No Match","","1318","","","","","","<div class='trialBorder'><div class='targDiv'><div class='tc'><img class='introPic' src='trustrating_stim/white_mw091.bmp'><br><font color='red'><strong>Keep</strong></font></div></div><div class='respDiv'><div class='respDivL'>Match<br>(e)</div><div class='respDivR'>No Match<br>(i)</div></div></div>","e","TARGET","2","trustrating_stim/white_mw012.bmp,trustrating_stim/white_mw091.bmp","1,0","Match","e","3000","trustrating_stim/white_mw091.bmp","red","Keep","REAL","1"
"html-keyboard-response","159","452854","0.0-7.0-5.24","63daf5a89c63648ec34664fb","bdp_wmem","Tue Mar 14 2023 21:26:11 GMT-0400 (Eastern Daylight Time)","666169","Match,No Match","","null","","","","","","<div class='trialBorder'><div class='vertical-center'><img src='img/correct.jpg'></div><div class='respDiv'><div class='respDivL'><font style='color:orange'>Match<br>(e)</font></div><div class='respDivR'>No Match<br>(i)</div></div></div>","null","FEEDBACK","","","","","","","","","","",""
"html-keyboard-response","160","453363","0.0-7.0-1.25","63daf5a89c63648ec34664fb","bdp_wmem","Tue Mar 14 2023 21:26:11 GMT-0400 (Eastern Daylight Time)","666169","Match,No Match","","null","","","","","","<div class='trialBorder'><div class='vertical-center'><img src='img/fixation2_sml.jpg'</img></div></div>","null","FIX","","","","","","","","","","",""
"html-keyboard-response","161","454866","0.0-7.0-2.25","63daf5a89c63648ec34664fb","bdp_wmem","Tue Mar 14 2023 21:26:11 GMT-0400 (Eastern Daylight Time)","666169","Match,No Match","","null","","","","","","<div class='trialBorder'><div class='vertical-center'><img style='vertical-align:center; align:center' src='img/fixation2_sml.jpg'></div><div class='arrayDiv1'><div class='tc'><img class='introPic' src='trustrating_stim/white_mw040.bmp'><br><font color='red'><strong>Keep</strong></font></div></div></div>","null","ARRAY","1","trustrating_stim/white_mw040.bmp","0","Match","e","1500","","","","",""
"html-keyboard-response","162","458878","0.0-7.0-3.25","63daf5a89c63648ec34664fb","bdp_wmem","Tue Mar 14 2023 21:26:11 GMT-0400 (Eastern Daylight Time)","666169","Match,No Match","","null","","","","","","<div class='trialBorder'><div class='vertical-center'><img src='img/fixation2_sml.jpg'</img></div></div>","null","DELAY","","","","","","","","","","",""
"html-keyboard-response","163","460093","0.0-7.0-4.25","63daf5a89c63648ec34664fb","bdp_wmem","Tue Mar 14 2023 21:26:11 GMT-0400 (Eastern Daylight Time)","666169","Match,No Match","","1215","","","","","","<div class='trialBorder'><div class='targDiv'><div class='tc'><img class='introPic' src='trustrating_stim/white_mw040.bmp'><br><font color='red'><strong>Keep</strong></font></div></div><div class='respDiv'><div class='respDivL'>Match<br>(e)</div><div class='respDivR'>No Match<br>(i)</div></div></div>","e","TARGET","1","trustrating_stim/white_mw040.bmp","0","Match","e","1500","trustrating_stim/white_mw040.bmp","red","Keep","REAL","1"
"html-keyboard-response","164","460598","0.0-7.0-5.25","63daf5a89c63648ec34664fb","bdp_wmem","Tue Mar 14 2023 21:26:11 GMT-0400 (Eastern Daylight Time)","666169","Match,No Match","","null","","","","","","<div class='trialBorder'><div class='vertical-center'><img src='img/correct.jpg'></div><div class='respDiv'><div class='respDivL'><font style='color:orange'>Match<br>(e)</font></div><div class='respDivR'>No Match<br>(i)</div></div></div>","null","FEEDBACK","","","","","","","","","","",""
"html-keyboard-response","165","461107","0.0-7.0-1.26","63daf5a89c63648ec34664fb","bdp_wmem","Tue Mar 14 2023 21:26:11 GMT-0400 (Eastern Daylight Time)","666169","Match,No Match","","null","","","","","","<div class='trialBorder'><div class='vertical-center'><img src='img/fixation2_sml.jpg'</img></div></div>","null","FIX","","","","","","","","","","",""
"html-keyboard-response","166","462612","0.0-7.0-2.26","63daf5a89c63648ec34664fb","bdp_wmem","Tue Mar 14 2023 21:26:11 GMT-0400 (Eastern Daylight Time)","666169","Match,No Match","","null","","","","","","<div class='trialBorder'><div class='vertical-center'><img style='vertical-align:center; align:center' src='img/fixation2_sml.jpg'></div><div class='arrayDiv1'><div class='tc'><img class='introPic' src='trustrating_stim/white_mw092.bmp'><br><font color='green'><strong>Share</strong></font></div></div></div>","null","ARRAY","1","trustrating_stim/white_mw092.bmp","1","noMatchFace","i","1500","","","","",""
"html-keyboard-response","167","466621","0.0-7.0-3.26","63daf5a89c63648ec34664fb","bdp_wmem","Tue Mar 14 2023 21:26:11 GMT-0400 (Eastern Daylight Time)","666169","Match,No Match","","null","","","","","","<div class='trialBorder'><div class='vertical-center'><img src='img/fixation2_sml.jpg'</img></div></div>","null","DELAY","","","","","","","","","","",""
"html-keyboard-response","168","467385","0.0-7.0-4.26","63daf5a89c63648ec34664fb","bdp_wmem","Tue Mar 14 2023 21:26:11 GMT-0400 (Eastern Daylight Time)","666169","Match,No Match","","763","","","","","","<div class='trialBorder'><div class='targDiv'><div class='tc'><img class='introPic' src='trustrating_stim/white_mw003.bmp'><br><font color='green'><strong>Share</strong></font></div></div><div class='respDiv'><div class='respDivL'>Match<br>(e)</div><div class='respDivR'>No Match<br>(i)</div></div></div>","i","TARGET","1","trustrating_stim/white_mw092.bmp","1","noMatchFace","i","1500","trustrating_stim/white_mw003.bmp","green","Share","REAL","1"
"html-keyboard-response","169","467893","0.0-7.0-5.26","63daf5a89c63648ec34664fb","bdp_wmem","Tue Mar 14 2023 21:26:11 GMT-0400 (Eastern Daylight Time)","666169","Match,No Match","","null","","","","","","<div class='trialBorder'><div class='vertical-center'><img src='img/correct.jpg'></div><div class='respDiv'><div class='respDivL'>Match<br>(e)</div><div class='respDivR'><font style='color:orange'>No Match<br>(i)</font></div></div></div>","null","FEEDBACK","","","","","","","","","","",""
"html-keyboard-response","170","468403","0.0-7.0-1.27","63daf5a89c63648ec34664fb","bdp_wmem","Tue Mar 14 2023 21:26:11 GMT-0400 (Eastern Daylight Time)","666169","Match,No Match","","null","","","","","","<div class='trialBorder'><div class='vertical-center'><img src='img/fixation2_sml.jpg'</img></div></div>","null","FIX","","","","","","","","","","",""
"html-keyboard-response","171","471410","0.0-7.0-2.27","63daf5a89c63648ec34664fb","bdp_wmem","Tue Mar 14 2023 21:26:11 GMT-0400 (Eastern Daylight Time)","666169","Match,No Match","","null","","","","","","<div class='trialBorder'><div class='vertical-center'><img style='vertical-align:center; align:center' src='img/fixation2_sml.jpg'></div><div class='arrayDiv2'><div class='tl'><img class='introPic' src='trustrating_stim/white_mw042.bmp'><br><font color='green'><strong>Share</strong></font></div><div class='tr'><img class='introPic' src='trustrating_stim/white_mw010.bmp'><br><font color='red'><strong>Keep</strong></font></div></div></div>","null","ARRAY","2","trustrating_stim/white_mw042.bmp,trustrating_stim/white_mw010.bmp","1,0","Match","e","3000","","","","",""
"html-keyboard-response","172","475421","0.0-7.0-3.27","63daf5a89c63648ec34664fb","bdp_wmem","Tue Mar 14 2023 21:26:11 GMT-0400 (Eastern Daylight Time)","666169","Match,No Match","","null","","","","","","<div class='trialBorder'><div class='vertical-center'><img src='img/fixation2_sml.jpg'</img></div></div>","null","DELAY","","","","","","","","","","",""
"html-keyboard-response","173","476724","0.0-7.0-4.27","63daf5a89c63648ec34664fb","bdp_wmem","Tue Mar 14 2023 21:26:11 GMT-0400 (Eastern Daylight Time)","666169","Match,No Match","","1302","","","","","","<div class='trialBorder'><div class='targDiv'><div class='tc'><img class='introPic' src='trustrating_stim/white_mw010.bmp'><br><font color='red'><strong>Keep</strong></font></div></div><div class='respDiv'><div class='respDivL'>Match<br>(e)</div><div class='respDivR'>No Match<br>(i)</div></div></div>","e","TARGET","2","trustrating_stim/white_mw042.bmp,trustrating_stim/white_mw010.bmp","1,0","Match","e","3000","trustrating_stim/white_mw010.bmp","red","Keep","REAL","1"
"html-keyboard-response","174","477227","0.0-7.0-5.27","63daf5a89c63648ec34664fb","bdp_wmem","Tue Mar 14 2023 21:26:11 GMT-0400 (Eastern Daylight Time)","666169","Match,No Match","","null","","","","","","<div class='trialBorder'><div class='vertical-center'><img src='img/correct.jpg'></div><div class='respDiv'><div class='respDivL'><font style='color:orange'>Match<br>(e)</font></div><div class='respDivR'>No Match<br>(i)</div></div></div>","null","FEEDBACK","","","","","","","","","","",""
"html-keyboard-response","175","477732","0.0-7.0-1.28","63daf5a89c63648ec34664fb","bdp_wmem","Tue Mar 14 2023 21:26:11 GMT-0400 (Eastern Daylight Time)","666169","Match,No Match","","null","","","","","","<div class='trialBorder'><div class='vertical-center'><img src='img/fixation2_sml.jpg'</img></div></div>","null","FIX","","","","","","","","","","",""
"html-keyboard-response","176","480739","0.0-7.0-2.28","63daf5a89c63648ec34664fb","bdp_wmem","Tue Mar 14 2023 21:26:11 GMT-0400 (Eastern Daylight Time)","666169","Match,No Match","","null","","","","","","<div class='trialBorder'><div class='vertical-center'><img style='vertical-align:center; align:center' src='img/fixation2_sml.jpg'></div><div class='arrayDiv2'><div class='tl'><img class='introPic' src='trustrating_stim/white_mw042.bmp'><br><font color='red'><strong>Keep</strong></font></div><div class='tr'><img class='introPic' src='trustrating_stim/white_mw038.bmp'><br><font color='green'><strong>Share</strong></font></div></div></div>","null","ARRAY","2","trustrating_stim/white_mw042.bmp,trustrating_stim/white_mw038.bmp","0,1","Match","e","3000","","","","",""
"html-keyboard-response","177","484750","0.0-7.0-3.28","63daf5a89c63648ec34664fb","bdp_wmem","Tue Mar 14 2023 21:26:11 GMT-0400 (Eastern Daylight Time)","666169","Match,No Match","","null","","","","","","<div class='trialBorder'><div class='vertical-center'><img src='img/fixation2_sml.jpg'</img></div></div>","null","DELAY","","","","","","","","","","",""
"html-keyboard-response","178","485926","0.0-7.0-4.28","63daf5a89c63648ec34664fb","bdp_wmem","Tue Mar 14 2023 21:26:11 GMT-0400 (Eastern Daylight Time)","666169","Match,No Match","","1174","","","","","","<div class='trialBorder'><div class='targDiv'><div class='tc'><img class='introPic' src='trustrating_stim/white_mw038.bmp'><br><font color='green'><strong>Share</strong></font></div></div><div class='respDiv'><div class='respDivL'>Match<br>(e)</div><div class='respDivR'>No Match<br>(i)</div></div></div>","e","TARGET","2","trustrating_stim/white_mw042.bmp,trustrating_stim/white_mw038.bmp","0,1","Match","e","3000","trustrating_stim/white_mw038.bmp","green","Share","REAL","1"
"html-keyboard-response","179","486433","0.0-7.0-5.28","63daf5a89c63648ec34664fb","bdp_wmem","Tue Mar 14 2023 21:26:11 GMT-0400 (Eastern Daylight Time)","666169","Match,No Match","","null","","","","","","<div class='trialBorder'><div class='vertical-center'><img src='img/correct.jpg'></div><div class='respDiv'><div class='respDivL'><font style='color:orange'>Match<br>(e)</font></div><div class='respDivR'>No Match<br>(i)</div></div></div>","null","FEEDBACK","","","","","","","","","","",""
"html-keyboard-response","180","486940","0.0-7.0-1.29","63daf5a89c63648ec34664fb","bdp_wmem","Tue Mar 14 2023 21:26:11 GMT-0400 (Eastern Daylight Time)","666169","Match,No Match","","null","","","","","","<div class='trialBorder'><div class='vertical-center'><img src='img/fixation2_sml.jpg'</img></div></div>","null","FIX","","","","","","","","","","",""
"html-keyboard-response","181","491453","0.0-7.0-2.29","63daf5a89c63648ec34664fb","bdp_wmem","Tue Mar 14 2023 21:26:11 GMT-0400 (Eastern Daylight Time)","666169","Match,No Match","","null","","","","","","<div class='trialBorder'><div class='vertical-center'><img style='vertical-align:center; align:center' src='img/fixation2_sml.jpg'></div><div class='arrayDiv3'><div class='tl'><img class='introPic' src='trustrating_stim/white_mw013.bmp'><br><font color='red'><strong>Keep</strong></font></div><div class='tc'><img class='introPic' src='trustrating_stim/white_mw070.bmp'><br><font color='red'><strong>Keep</strong></font></div><div class='tr'><img class='introPic' src='trustrating_stim/white_mw003.bmp'><br><font color='green'><strong>Share</strong></font></div></div></div>","null","ARRAY","3","trustrating_stim/white_mw013.bmp,trustrating_stim/white_mw070.bmp,trustrating_stim/white_mw003.bmp","0,0,1","noMatchFace","i","4500","","","","",""
"html-keyboard-response","182","495460","0.0-7.0-3.29","63daf5a89c63648ec34664fb","bdp_wmem","Tue Mar 14 2023 21:26:11 GMT-0400 (Eastern Daylight Time)","666169","Match,No Match","","null","","","","","","<div class='trialBorder'><div class='vertical-center'><img src='img/fixation2_sml.jpg'</img></div></div>","null","DELAY","","","","","","","","","","",""
"html-keyboard-response","183","497468","0.0-7.0-4.29","63daf5a89c63648ec34664fb","bdp_wmem","Tue Mar 14 2023 21:26:11 GMT-0400 (Eastern Daylight Time)","666169","Match,No Match","","2007","","","","","","<div class='trialBorder'><div class='targDiv'><div class='tc'><img class='introPic' src='trustrating_stim/white_mw010.bmp'><br><font color='red'><strong>Keep</strong></font></div></div><div class='respDiv'><div class='respDivL'>Match<br>(e)</div><div class='respDivR'>No Match<br>(i)</div></div></div>","e","TARGET","3","trustrating_stim/white_mw013.bmp,trustrating_stim/white_mw070.bmp,trustrating_stim/white_mw003.bmp","0,0,1","noMatchFace","i","4500","trustrating_stim/white_mw010.bmp","red","Keep","REAL","0"
"html-keyboard-response","184","497979","0.0-7.0-5.29","63daf5a89c63648ec34664fb","bdp_wmem","Tue Mar 14 2023 21:26:11 GMT-0400 (Eastern Daylight Time)","666169","Match,No Match","","null","","","","","","<div class='trialBorder'><div class='vertical-center'><img src='img/error.jpg'></div><div class='respDiv'><div class='respDivL'><font style='color:orange'>Match<br>(e)</font></div><div class='respDivR'>No Match<br>(i)</div></div></div>","null","FEEDBACK","","","","","","","","","","",""
"html-keyboard-response","185","498481","0.0-7.0-1.30","63daf5a89c63648ec34664fb","bdp_wmem","Tue Mar 14 2023 21:26:11 GMT-0400 (Eastern Daylight Time)","666169","Match,No Match","","null","","","","","","<div class='trialBorder'><div class='vertical-center'><img src='img/fixation2_sml.jpg'</img></div></div>","null","FIX","","","","","","","","","","",""
"html-keyboard-response","186","502989","0.0-7.0-2.30","63daf5a89c63648ec34664fb","bdp_wmem","Tue Mar 14 2023 21:26:11 GMT-0400 (Eastern Daylight Time)","666169","Match,No Match","","null","","","","","","<div class='trialBorder'><div class='vertical-center'><img style='vertical-align:center; align:center' src='img/fixation2_sml.jpg'></div><div class='arrayDiv3'><div class='tl'><img class='introPic' src='trustrating_stim/white_mw012.bmp'><br><font color='green'><strong>Share</strong></font></div><div class='tc'><img class='introPic' src='trustrating_stim/white_mw013.bmp'><br><font color='green'><strong>Share</strong></font></div><div class='tr'><img class='introPic' src='trustrating_stim/white_mw070.bmp'><br><font color='red'><strong>Keep</strong></font></div></div></div>","null","ARRAY","3","trustrating_stim/white_mw012.bmp,trustrating_stim/white_mw013.bmp,trustrating_stim/white_mw070.bmp","1,1,0","Match","e","4500","","","","",""
"html-keyboard-response","187","506996","0.0-7.0-3.30","63daf5a89c63648ec34664fb","bdp_wmem","Tue Mar 14 2023 21:26:11 GMT-0400 (Eastern Daylight Time)","666169","Match,No Match","","null","","","","","","<div class='trialBorder'><div class='vertical-center'><img src='img/fixation2_sml.jpg'</img></div></div>","null","DELAY","","","","","","","","","","",""
