"trial_type","trial_index","time_elapsed","internal_node_id","subject_id","task","startTime","totalTime","labels","view_history","rt","event","trial","time","trialtype","success","stimulus","key_press","stimType","arraySize","arrayFaces","arrayOutcomes","matchType","corrResp","arrayDur","targFace","targCol","targOutcome","trialType","corr"
"pavlovia","0","5","0.0-0.0","63153455849b153d56dd81db","bdp_wmem","Tue Mar 14 2023 16:51:10 GMT-0700 (Pacific Daylight Time)","1083780","Match,No Match","","","","","","","","","","","","","","","","","","","","",""
"instructions","1","6311","0.0-1.0","63153455849b153d56dd81db","bdp_wmem","Tue Mar 14 2023 16:51:10 GMT-0700 (Pacific Daylight Time)","1083780","Match,No Match","[{""page_index"":0,""viewing_time"":6305}]","6305","","","","","","","","","","","","","","","","","","",""
"","","","","63153455849b153d56dd81db","bdp_wmem","Tue Mar 14 2023 16:51:10 GMT-0700 (Pacific Daylight Time)","1083780","Match,No Match","","","fullscreenenter","2","108993","fullscreenenter","","","","","","","","","","","","","","",""
"fullscreen","2","109971","0.0-2.0","63153455849b153d56dd81db","bdp_wmem","Tue Mar 14 2023 16:51:10 GMT-0700 (Pacific Daylight Time)","1083780","Match,No Match","","","","","","","true","","","","","","","","","","","","","",""
"instructions","3","469423","0.0-4.0","63153455849b153d56dd81db","bdp_wmem","Tue Mar 14 2023 16:51:10 GMT-0700 (Pacific Daylight Time)","1083780","Match,No Match","[{""page_index"":0,""viewing_time"":78380},{""page_index"":1,""viewing_time"":138846},{""page_index"":2,""viewing_time"":7895},{""page_index"":3,""viewing_time"":6449},{""page_index"":4,""viewing_time"":127879}]","359449","","","","","","","","","","","","","","","","","","",""
"html-keyboard-response","4","469934","0.0-5.0-1.0","63153455849b153d56dd81db","bdp_wmem","Tue Mar 14 2023 16:51:10 GMT-0700 (Pacific Daylight Time)","1083780","Match,No Match","","null","","","","","","<div class='trialBorder'><div class='vertical-center'><img src='img/fixation2_sml.jpg'</img></div></div>","null","FIX","","","","","","","","","","",""
"html-keyboard-response","5","472940","0.0-5.0-2.0","63153455849b153d56dd81db","bdp_wmem","Tue Mar 14 2023 16:51:10 GMT-0700 (Pacific Daylight Time)","1083780","Match,No Match","","null","","","","","","<div class='trialBorder'><div class='vertical-center'><img style='vertical-align:center; align:center' src='img/fixation2_sml.jpg'></div><div class='arrayDiv2'><div class='tl'><img class='introPic' src='trustrating_stim/white_mw078.bmp'><br><font color='green'><strong>Share</strong></font></div><div class='tr'><img class='introPic' src='trustrating_stim/white_mw040.bmp'><br><font color='red'><strong>Keep</strong></font></div></div></div>","null","ARRAY","2","trustrating_stim/white_mw078.bmp,trustrating_stim/white_mw040.bmp","1,0","noMatchOutcome","i","3000","","","","",""
"html-keyboard-response","6","476949","0.0-5.0-3.0","63153455849b153d56dd81db","bdp_wmem","Tue Mar 14 2023 16:51:10 GMT-0700 (Pacific Daylight Time)","1083780","Match,No Match","","null","","","","","","<div class='trialBorder'><div class='vertical-center'><img src='img/fixation2_sml.jpg'</img></div></div>","null","DELAY","","","","","","","","","","",""
"html-keyboard-response","7","484719","0.0-5.0-4.0","63153455849b153d56dd81db","bdp_wmem","Tue Mar 14 2023 16:51:10 GMT-0700 (Pacific Daylight Time)","1083780","Match,No Match","","7766","","","","","","<div class='trialBorder'><div class='targDiv'><div class='tc'><img class='introPic' src='trustrating_stim/white_mw040.bmp'><br><font color='green'><strong>Share</strong></font></div></div><div class='respDiv'><div class='respDivL'>Match<br>(e)</div><div class='respDivR'>No Match<br>(i)</div></div></div>","i","TARGET","2","trustrating_stim/white_mw078.bmp,trustrating_stim/white_mw040.bmp","1,0","noMatchOutcome","i","3000","trustrating_stim/white_mw040.bmp","green","Share","PRACTICE","1"
"html-keyboard-response","8","485228","0.0-5.0-5.0","63153455849b153d56dd81db","bdp_wmem","Tue Mar 14 2023 16:51:10 GMT-0700 (Pacific Daylight Time)","1083780","Match,No Match","","null","","","","","","<div class='trialBorder'><div class='vertical-center'><img src='img/correct.jpg'></div><div class='respDiv'><div class='respDivL'>Match<br>(e)</div><div class='respDivR'><font style='color:orange'>No Match<br>(i)</font></div></div></div>","null","FEEDBACK","","","","","","","","","","",""
"html-keyboard-response","9","485732","0.0-5.0-1.1","63153455849b153d56dd81db","bdp_wmem","Tue Mar 14 2023 16:51:10 GMT-0700 (Pacific Daylight Time)","1083780","Match,No Match","","null","","","","","","<div class='trialBorder'><div class='vertical-center'><img src='img/fixation2_sml.jpg'</img></div></div>","null","FIX","","","","","","","","","","",""
"html-keyboard-response","10","488743","0.0-5.0-2.1","63153455849b153d56dd81db","bdp_wmem","Tue Mar 14 2023 16:51:10 GMT-0700 (Pacific Daylight Time)","1083780","Match,No Match","","null","","","","","","<div class='trialBorder'><div class='vertical-center'><img style='vertical-align:center; align:center' src='img/fixation2_sml.jpg'></div><div class='arrayDiv2'><div class='tl'><img class='introPic' src='trustrating_stim/white_mw092.bmp'><br><font color='green'><strong>Share</strong></font></div><div class='tr'><img class='introPic' src='trustrating_stim/white_mw091.bmp'><br><font color='red'><strong>Keep</strong></font></div></div></div>","null","ARRAY","2","trustrating_stim/white_mw092.bmp,trustrating_stim/white_mw091.bmp","1,0","Match","e","3000","","","","",""
"html-keyboard-response","11","492748","0.0-5.0-3.1","63153455849b153d56dd81db","bdp_wmem","Tue Mar 14 2023 16:51:10 GMT-0700 (Pacific Daylight Time)","1083780","Match,No Match","","null","","","","","","<div class='trialBorder'><div class='vertical-center'><img src='img/fixation2_sml.jpg'</img></div></div>","null","DELAY","","","","","","","","","","",""
"html-keyboard-response","12","496431","0.0-5.0-4.1","63153455849b153d56dd81db","bdp_wmem","Tue Mar 14 2023 16:51:10 GMT-0700 (Pacific Daylight Time)","1083780","Match,No Match","","3679","","","","","","<div class='trialBorder'><div class='targDiv'><div class='tc'><img class='introPic' src='trustrating_stim/white_mw092.bmp'><br><font color='green'><strong>Share</strong></font></div></div><div class='respDiv'><div class='respDivL'>Match<br>(e)</div><div class='respDivR'>No Match<br>(i)</div></div></div>","e","TARGET","2","trustrating_stim/white_mw092.bmp,trustrating_stim/white_mw091.bmp","1,0","Match","e","3000","trustrating_stim/white_mw092.bmp","green","Share","PRACTICE","1"
"html-keyboard-response","13","496940","0.0-5.0-5.1","63153455849b153d56dd81db","bdp_wmem","Tue Mar 14 2023 16:51:10 GMT-0700 (Pacific Daylight Time)","1083780","Match,No Match","","null","","","","","","<div class='trialBorder'><div class='vertical-center'><img src='img/correct.jpg'></div><div class='respDiv'><div class='respDivL'><font style='color:orange'>Match<br>(e)</font></div><div class='respDivR'>No Match<br>(i)</div></div></div>","null","FEEDBACK","","","","","","","","","","",""
"html-keyboard-response","14","497443","0.0-5.0-1.2","63153455849b153d56dd81db","bdp_wmem","Tue Mar 14 2023 16:51:10 GMT-0700 (Pacific Daylight Time)","1083780","Match,No Match","","null","","","","","","<div class='trialBorder'><div class='vertical-center'><img src='img/fixation2_sml.jpg'</img></div></div>","null","FIX","","","","","","","","","","",""
"html-keyboard-response","15","498947","0.0-5.0-2.2","63153455849b153d56dd81db","bdp_wmem","Tue Mar 14 2023 16:51:10 GMT-0700 (Pacific Daylight Time)","1083780","Match,No Match","","null","","","","","","<div class='trialBorder'><div class='vertical-center'><img style='vertical-align:center; align:center' src='img/fixation2_sml.jpg'></div><div class='arrayDiv1'><div class='tc'><img class='introPic' src='trustrating_stim/white_mw012.bmp'><br><font color='red'><strong>Keep</strong></font></div></div></div>","null","ARRAY","1","trustrating_stim/white_mw012.bmp","0","noMatchFace","i","1500","","","","",""
"html-keyboard-response","16","502957","0.0-5.0-3.2","63153455849b153d56dd81db","bdp_wmem","Tue Mar 14 2023 16:51:10 GMT-0700 (Pacific Daylight Time)","1083780","Match,No Match","","null","","","","","","<div class='trialBorder'><div class='vertical-center'><img src='img/fixation2_sml.jpg'</img></div></div>","null","DELAY","","","","","","","","","","",""
"html-keyboard-response","17","506597","0.0-5.0-4.2","63153455849b153d56dd81db","bdp_wmem","Tue Mar 14 2023 16:51:10 GMT-0700 (Pacific Daylight Time)","1083780","Match,No Match","","3637","","","","","","<div class='trialBorder'><div class='targDiv'><div class='tc'><img class='introPic' src='trustrating_stim/white_mw078.bmp'><br><font color='red'><strong>Keep</strong></font></div></div><div class='respDiv'><div class='respDivL'>Match<br>(e)</div><div class='respDivR'>No Match<br>(i)</div></div></div>","e","TARGET","1","trustrating_stim/white_mw012.bmp","0","noMatchFace","i","1500","trustrating_stim/white_mw078.bmp","red","Keep","PRACTICE","0"
"html-keyboard-response","18","507100","0.0-5.0-5.2","63153455849b153d56dd81db","bdp_wmem","Tue Mar 14 2023 16:51:10 GMT-0700 (Pacific Daylight Time)","1083780","Match,No Match","","null","","","","","","<div class='trialBorder'><div class='vertical-center'><img src='img/error.jpg'></div><div class='respDiv'><div class='respDivL'><font style='color:orange'>Match<br>(e)</font></div><div class='respDivR'>No Match<br>(i)</div></div></div>","null","FEEDBACK","","","","","","","","","","",""
"html-keyboard-response","19","507614","0.0-5.0-1.3","63153455849b153d56dd81db","bdp_wmem","Tue Mar 14 2023 16:51:10 GMT-0700 (Pacific Daylight Time)","1083780","Match,No Match","","null","","","","","","<div class='trialBorder'><div class='vertical-center'><img src='img/fixation2_sml.jpg'</img></div></div>","null","FIX","","","","","","","","","","",""
"html-keyboard-response","20","509129","0.0-5.0-2.3","63153455849b153d56dd81db","bdp_wmem","Tue Mar 14 2023 16:51:10 GMT-0700 (Pacific Daylight Time)","1083780","Match,No Match","","null","","","","","","<div class='trialBorder'><div class='vertical-center'><img style='vertical-align:center; align:center' src='img/fixation2_sml.jpg'></div><div class='arrayDiv1'><div class='tc'><img class='introPic' src='trustrating_stim/white_mw085.bmp'><br><font color='green'><strong>Share</strong></font></div></div></div>","null","ARRAY","1","trustrating_stim/white_mw085.bmp","1","Match","e","1500","","","","",""
"html-keyboard-response","21","513133","0.0-5.0-3.3","63153455849b153d56dd81db","bdp_wmem","Tue Mar 14 2023 16:51:10 GMT-0700 (Pacific Daylight Time)","1083780","Match,No Match","","null","","","","","","<div class='trialBorder'><div class='vertical-center'><img src='img/fixation2_sml.jpg'</img></div></div>","null","DELAY","","","","","","","","","","",""
"html-keyboard-response","22","514814","0.0-5.0-4.3","63153455849b153d56dd81db","bdp_wmem","Tue Mar 14 2023 16:51:10 GMT-0700 (Pacific Daylight Time)","1083780","Match,No Match","","1677","","","","","","<div class='trialBorder'><div class='targDiv'><div class='tc'><img class='introPic' src='trustrating_stim/white_mw085.bmp'><br><font color='green'><strong>Share</strong></font></div></div><div class='respDiv'><div class='respDivL'>Match<br>(e)</div><div class='respDivR'>No Match<br>(i)</div></div></div>","i","TARGET","1","trustrating_stim/white_mw085.bmp","1","Match","e","1500","trustrating_stim/white_mw085.bmp","green","Share","PRACTICE","0"
"html-keyboard-response","23","515316","0.0-5.0-5.3","63153455849b153d56dd81db","bdp_wmem","Tue Mar 14 2023 16:51:10 GMT-0700 (Pacific Daylight Time)","1083780","Match,No Match","","null","","","","","","<div class='trialBorder'><div class='vertical-center'><img src='img/error.jpg'></div><div class='respDiv'><div class='respDivL'>Match<br>(e)</div><div class='respDivR'><font style='color:orange'>No Match<br>(i)</font></div></div></div>","null","FEEDBACK","","","","","","","","","","",""
"html-keyboard-response","24","515820","0.0-5.0-1.4","63153455849b153d56dd81db","bdp_wmem","Tue Mar 14 2023 16:51:10 GMT-0700 (Pacific Daylight Time)","1083780","Match,No Match","","null","","","","","","<div class='trialBorder'><div class='vertical-center'><img src='img/fixation2_sml.jpg'</img></div></div>","null","FIX","","","","","","","","","","",""
"html-keyboard-response","25","520325","0.0-5.0-2.4","63153455849b153d56dd81db","bdp_wmem","Tue Mar 14 2023 16:51:10 GMT-0700 (Pacific Daylight Time)","1083780","Match,No Match","","null","","","","","","<div class='trialBorder'><div class='vertical-center'><img style='vertical-align:center; align:center' src='img/fixation2_sml.jpg'></div><div class='arrayDiv3'><div class='tl'><img class='introPic' src='trustrating_stim/white_mw078.bmp'><br><font color='red'><strong>Keep</strong></font></div><div class='tc'><img class='introPic' src='trustrating_stim/white_mw040.bmp'><br><font color='green'><strong>Share</strong></font></div><div class='tr'><img class='introPic' src='trustrating_stim/white_mw012.bmp'><br><font color='green'><strong>Share</strong></font></div></div></div>","null","ARRAY","3","trustrating_stim/white_mw078.bmp,trustrating_stim/white_mw040.bmp,trustrating_stim/white_mw012.bmp","0,1,1","Match","e","4500","","","","",""
"html-keyboard-response","26","524331","0.0-5.0-3.4","63153455849b153d56dd81db","bdp_wmem","Tue Mar 14 2023 16:51:10 GMT-0700 (Pacific Daylight Time)","1083780","Match,No Match","","null","","","","","","<div class='trialBorder'><div class='vertical-center'><img src='img/fixation2_sml.jpg'</img></div></div>","null","DELAY","","","","","","","","","","",""
"html-keyboard-response","27","526127","0.0-5.0-4.4","63153455849b153d56dd81db","bdp_wmem","Tue Mar 14 2023 16:51:10 GMT-0700 (Pacific Daylight Time)","1083780","Match,No Match","","1791","","","","","","<div class='trialBorder'><div class='targDiv'><div class='tc'><img class='introPic' src='trustrating_stim/white_mw012.bmp'><br><font color='green'><strong>Share</strong></font></div></div><div class='respDiv'><div class='respDivL'>Match<br>(e)</div><div class='respDivR'>No Match<br>(i)</div></div></div>","e","TARGET","3","trustrating_stim/white_mw078.bmp,trustrating_stim/white_mw040.bmp,trustrating_stim/white_mw012.bmp","0,1,1","Match","e","4500","trustrating_stim/white_mw012.bmp","green","Share","PRACTICE","1"
"html-keyboard-response","28","526636","0.0-5.0-5.4","63153455849b153d56dd81db","bdp_wmem","Tue Mar 14 2023 16:51:10 GMT-0700 (Pacific Daylight Time)","1083780","Match,No Match","","null","","","","","","<div class='trialBorder'><div class='vertical-center'><img src='img/correct.jpg'></div><div class='respDiv'><div class='respDivL'><font style='color:orange'>Match<br>(e)</font></div><div class='respDivR'>No Match<br>(i)</div></div></div>","null","FEEDBACK","","","","","","","","","","",""
"html-keyboard-response","29","527140","0.0-5.0-1.5","63153455849b153d56dd81db","bdp_wmem","Tue Mar 14 2023 16:51:10 GMT-0700 (Pacific Daylight Time)","1083780","Match,No Match","","null","","","","","","<div class='trialBorder'><div class='vertical-center'><img src='img/fixation2_sml.jpg'</img></div></div>","null","FIX","","","","","","","","","","",""
"html-keyboard-response","30","531645","0.0-5.0-2.5","63153455849b153d56dd81db","bdp_wmem","Tue Mar 14 2023 16:51:10 GMT-0700 (Pacific Daylight Time)","1083780","Match,No Match","","null","","","","","","<div class='trialBorder'><div class='vertical-center'><img style='vertical-align:center; align:center' src='img/fixation2_sml.jpg'></div><div class='arrayDiv3'><div class='tl'><img class='introPic' src='trustrating_stim/white_mw038.bmp'><br><font color='green'><strong>Share</strong></font></div><div class='tc'><img class='introPic' src='trustrating_stim/white_mw078.bmp'><br><font color='red'><strong>Keep</strong></font></div><div class='tr'><img class='introPic' src='trustrating_stim/white_mw012.bmp'><br><font color='red'><strong>Keep</strong></font></div></div></div>","null","ARRAY","3","trustrating_stim/white_mw038.bmp,trustrating_stim/white_mw078.bmp,trustrating_stim/white_mw012.bmp","1,0,0","noMatchOutcome","i","4500","","","","",""
"html-keyboard-response","31","535652","0.0-5.0-3.5","63153455849b153d56dd81db","bdp_wmem","Tue Mar 14 2023 16:51:10 GMT-0700 (Pacific Daylight Time)","1083780","Match,No Match","","null","","","","","","<div class='trialBorder'><div class='vertical-center'><img src='img/fixation2_sml.jpg'</img></div></div>","null","DELAY","","","","","","","","","","",""
"html-keyboard-response","32","536280","0.0-5.0-4.5","63153455849b153d56dd81db","bdp_wmem","Tue Mar 14 2023 16:51:10 GMT-0700 (Pacific Daylight Time)","1083780","Match,No Match","","624","","","","","","<div class='trialBorder'><div class='targDiv'><div class='tc'><img class='introPic' src='trustrating_stim/white_mw012.bmp'><br><font color='green'><strong>Share</strong></font></div></div><div class='respDiv'><div class='respDivL'>Match<br>(e)</div><div class='respDivR'>No Match<br>(i)</div></div></div>","e","TARGET","3","trustrating_stim/white_mw038.bmp,trustrating_stim/white_mw078.bmp,trustrating_stim/white_mw012.bmp","1,0,0","noMatchOutcome","i","4500","trustrating_stim/white_mw012.bmp","green","Share","PRACTICE","0"
"html-keyboard-response","33","536789","0.0-5.0-5.5","63153455849b153d56dd81db","bdp_wmem","Tue Mar 14 2023 16:51:10 GMT-0700 (Pacific Daylight Time)","1083780","Match,No Match","","null","","","","","","<div class='trialBorder'><div class='vertical-center'><img src='img/error.jpg'></div><div class='respDiv'><div class='respDivL'><font style='color:orange'>Match<br>(e)</font></div><div class='respDivR'>No Match<br>(i)</div></div></div>","null","FEEDBACK","","","","","","","","","","",""
"instructions","34","610138","0.0-6.0","63153455849b153d56dd81db","bdp_wmem","Tue Mar 14 2023 16:51:10 GMT-0700 (Pacific Daylight Time)","1083780","Match,No Match","[{""page_index"":0,""viewing_time"":73348}]","73348","","","","","","","","","","","","","","","","","","",""
"html-keyboard-response","35","610644","0.0-7.0-1.0","63153455849b153d56dd81db","bdp_wmem","Tue Mar 14 2023 16:51:10 GMT-0700 (Pacific Daylight Time)","1083780","Match,No Match","","null","","","","","","<div class='trialBorder'><div class='vertical-center'><img src='img/fixation2_sml.jpg'</img></div></div>","null","FIX","","","","","","","","","","",""
"html-keyboard-response","36","615156","0.0-7.0-2.0","63153455849b153d56dd81db","bdp_wmem","Tue Mar 14 2023 16:51:10 GMT-0700 (Pacific Daylight Time)","1083780","Match,No Match","","null","","","","","","<div class='trialBorder'><div class='vertical-center'><img style='vertical-align:center; align:center' src='img/fixation2_sml.jpg'></div><div class='arrayDiv3'><div class='tl'><img class='introPic' src='trustrating_stim/white_mw091.bmp'><br><font color='green'><strong>Share</strong></font></div><div class='tc'><img class='introPic' src='trustrating_stim/white_mw040.bmp'><br><font color='red'><strong>Keep</strong></font></div><div class='tr'><img class='introPic' src='trustrating_stim/white_mw042.bmp'><br><font color='green'><strong>Share</strong></font></div></div></div>","null","ARRAY","3","trustrating_stim/white_mw091.bmp,trustrating_stim/white_mw040.bmp,trustrating_stim/white_mw042.bmp","1,0,1","Match","e","4500","","","","",""
"html-keyboard-response","37","619164","0.0-7.0-3.0","63153455849b153d56dd81db","bdp_wmem","Tue Mar 14 2023 16:51:10 GMT-0700 (Pacific Daylight Time)","1083780","Match,No Match","","null","","","","","","<div class='trialBorder'><div class='vertical-center'><img src='img/fixation2_sml.jpg'</img></div></div>","null","DELAY","","","","","","","","","","",""
"html-keyboard-response","38","621707","0.0-7.0-4.0","63153455849b153d56dd81db","bdp_wmem","Tue Mar 14 2023 16:51:10 GMT-0700 (Pacific Daylight Time)","1083780","Match,No Match","","2539","","","","","","<div class='trialBorder'><div class='targDiv'><div class='tc'><img class='introPic' src='trustrating_stim/white_mw040.bmp'><br><font color='red'><strong>Keep</strong></font></div></div><div class='respDiv'><div class='respDivL'>Match<br>(e)</div><div class='respDivR'>No Match<br>(i)</div></div></div>","e","TARGET","3","trustrating_stim/white_mw091.bmp,trustrating_stim/white_mw040.bmp,trustrating_stim/white_mw042.bmp","1,0,1","Match","e","4500","trustrating_stim/white_mw040.bmp","red","Keep","REAL","1"
"html-keyboard-response","39","622211","0.0-7.0-5.0","63153455849b153d56dd81db","bdp_wmem","Tue Mar 14 2023 16:51:10 GMT-0700 (Pacific Daylight Time)","1083780","Match,No Match","","null","","","","","","<div class='trialBorder'><div class='vertical-center'><img src='img/correct.jpg'></div><div class='respDiv'><div class='respDivL'><font style='color:orange'>Match<br>(e)</font></div><div class='respDivR'>No Match<br>(i)</div></div></div>","null","FEEDBACK","","","","","","","","","","",""
"html-keyboard-response","40","622716","0.0-7.0-1.1","63153455849b153d56dd81db","bdp_wmem","Tue Mar 14 2023 16:51:10 GMT-0700 (Pacific Daylight Time)","1083780","Match,No Match","","null","","","","","","<div class='trialBorder'><div class='vertical-center'><img src='img/fixation2_sml.jpg'</img></div></div>","null","FIX","","","","","","","","","","",""
"html-keyboard-response","41","624227","0.0-7.0-2.1","63153455849b153d56dd81db","bdp_wmem","Tue Mar 14 2023 16:51:10 GMT-0700 (Pacific Daylight Time)","1083780","Match,No Match","","null","","","","","","<div class='trialBorder'><div class='vertical-center'><img style='vertical-align:center; align:center' src='img/fixation2_sml.jpg'></div><div class='arrayDiv1'><div class='tc'><img class='introPic' src='trustrating_stim/white_mw078.bmp'><br><font color='green'><strong>Share</strong></font></div></div></div>","null","ARRAY","1","trustrating_stim/white_mw078.bmp","1","noMatchFace","i","1500","","","","",""
"html-keyboard-response","42","628236","0.0-7.0-3.1","63153455849b153d56dd81db","bdp_wmem","Tue Mar 14 2023 16:51:10 GMT-0700 (Pacific Daylight Time)","1083780","Match,No Match","","null","","","","","","<div class='trialBorder'><div class='vertical-center'><img src='img/fixation2_sml.jpg'</img></div></div>","null","DELAY","","","","","","","","","","",""
"html-keyboard-response","43","630402","0.0-7.0-4.1","63153455849b153d56dd81db","bdp_wmem","Tue Mar 14 2023 16:51:10 GMT-0700 (Pacific Daylight Time)","1083780","Match,No Match","","2163","","","","","","<div class='trialBorder'><div class='targDiv'><div class='tc'><img class='introPic' src='trustrating_stim/white_mw003.bmp'><br><font color='green'><strong>Share</strong></font></div></div><div class='respDiv'><div class='respDivL'>Match<br>(e)</div><div class='respDivR'>No Match<br>(i)</div></div></div>","e","TARGET","1","trustrating_stim/white_mw078.bmp","1","noMatchFace","i","1500","trustrating_stim/white_mw003.bmp","green","Share","REAL","0"
"html-keyboard-response","44","630907","0.0-7.0-5.1","63153455849b153d56dd81db","bdp_wmem","Tue Mar 14 2023 16:51:10 GMT-0700 (Pacific Daylight Time)","1083780","Match,No Match","","null","","","","","","<div class='trialBorder'><div class='vertical-center'><img src='img/error.jpg'></div><div class='respDiv'><div class='respDivL'><font style='color:orange'>Match<br>(e)</font></div><div class='respDivR'>No Match<br>(i)</div></div></div>","null","FEEDBACK","","","","","","","","","","",""
"html-keyboard-response","45","631411","0.0-7.0-1.2","63153455849b153d56dd81db","bdp_wmem","Tue Mar 14 2023 16:51:10 GMT-0700 (Pacific Daylight Time)","1083780","Match,No Match","","null","","","","","","<div class='trialBorder'><div class='vertical-center'><img src='img/fixation2_sml.jpg'</img></div></div>","null","FIX","","","","","","","","","","",""
"html-keyboard-response","46","634419","0.0-7.0-2.2","63153455849b153d56dd81db","bdp_wmem","Tue Mar 14 2023 16:51:10 GMT-0700 (Pacific Daylight Time)","1083780","Match,No Match","","null","","","","","","<div class='trialBorder'><div class='vertical-center'><img style='vertical-align:center; align:center' src='img/fixation2_sml.jpg'></div><div class='arrayDiv2'><div class='tl'><img class='introPic' src='trustrating_stim/white_mw078.bmp'><br><font color='green'><strong>Share</strong></font></div><div class='tr'><img class='introPic' src='trustrating_stim/white_mw042.bmp'><br><font color='red'><strong>Keep</strong></font></div></div></div>","null","ARRAY","2","trustrating_stim/white_mw078.bmp,trustrating_stim/white_mw042.bmp","1,0","noMatchFace","i","3000","","","","",""
"html-keyboard-response","47","638427","0.0-7.0-3.2","63153455849b153d56dd81db","bdp_wmem","Tue Mar 14 2023 16:51:10 GMT-0700 (Pacific Daylight Time)","1083780","Match,No Match","","null","","","","","","<div class='trialBorder'><div class='vertical-center'><img src='img/fixation2_sml.jpg'</img></div></div>","null","DELAY","","","","","","","","","","",""
"html-keyboard-response","48","638995","0.0-7.0-4.2","63153455849b153d56dd81db","bdp_wmem","Tue Mar 14 2023 16:51:10 GMT-0700 (Pacific Daylight Time)","1083780","Match,No Match","","564","","","","","","<div class='trialBorder'><div class='targDiv'><div class='tc'><img class='introPic' src='trustrating_stim/white_mw092.bmp'><br><font color='red'><strong>Keep</strong></font></div></div><div class='respDiv'><div class='respDivL'>Match<br>(e)</div><div class='respDivR'>No Match<br>(i)</div></div></div>","i","TARGET","2","trustrating_stim/white_mw078.bmp,trustrating_stim/white_mw042.bmp","1,0","noMatchFace","i","3000","trustrating_stim/white_mw092.bmp","red","Keep","REAL","1"
"html-keyboard-response","49","639500","0.0-7.0-5.2","63153455849b153d56dd81db","bdp_wmem","Tue Mar 14 2023 16:51:10 GMT-0700 (Pacific Daylight Time)","1083780","Match,No Match","","null","","","","","","<div class='trialBorder'><div class='vertical-center'><img src='img/correct.jpg'></div><div class='respDiv'><div class='respDivL'>Match<br>(e)</div><div class='respDivR'><font style='color:orange'>No Match<br>(i)</font></div></div></div>","null","FEEDBACK","","","","","","","","","","",""
"html-keyboard-response","50","640004","0.0-7.0-1.3","63153455849b153d56dd81db","bdp_wmem","Tue Mar 14 2023 16:51:10 GMT-0700 (Pacific Daylight Time)","1083780","Match,No Match","","null","","","","","","<div class='trialBorder'><div class='vertical-center'><img src='img/fixation2_sml.jpg'</img></div></div>","null","FIX","","","","","","","","","","",""
"html-keyboard-response","51","643011","0.0-7.0-2.3","63153455849b153d56dd81db","bdp_wmem","Tue Mar 14 2023 16:51:10 GMT-0700 (Pacific Daylight Time)","1083780","Match,No Match","","null","","","","","","<div class='trialBorder'><div class='vertical-center'><img style='vertical-align:center; align:center' src='img/fixation2_sml.jpg'></div><div class='arrayDiv2'><div class='tl'><img class='introPic' src='trustrating_stim/white_mw038.bmp'><br><font color='red'><strong>Keep</strong></font></div><div class='tr'><img class='introPic' src='trustrating_stim/white_mw078.bmp'><br><font color='green'><strong>Share</strong></font></div></div></div>","null","ARRAY","2","trustrating_stim/white_mw038.bmp,trustrating_stim/white_mw078.bmp","0,1","Match","e","3000","","","","",""
"html-keyboard-response","52","647020","0.0-7.0-3.3","63153455849b153d56dd81db","bdp_wmem","Tue Mar 14 2023 16:51:10 GMT-0700 (Pacific Daylight Time)","1083780","Match,No Match","","null","","","","","","<div class='trialBorder'><div class='vertical-center'><img src='img/fixation2_sml.jpg'</img></div></div>","null","DELAY","","","","","","","","","","",""
"html-keyboard-response","53","647610","0.0-7.0-4.3","63153455849b153d56dd81db","bdp_wmem","Tue Mar 14 2023 16:51:10 GMT-0700 (Pacific Daylight Time)","1083780","Match,No Match","","586","","","","","","<div class='trialBorder'><div class='targDiv'><div class='tc'><img class='introPic' src='trustrating_stim/white_mw078.bmp'><br><font color='green'><strong>Share</strong></font></div></div><div class='respDiv'><div class='respDivL'>Match<br>(e)</div><div class='respDivR'>No Match<br>(i)</div></div></div>","e","TARGET","2","trustrating_stim/white_mw038.bmp,trustrating_stim/white_mw078.bmp","0,1","Match","e","3000","trustrating_stim/white_mw078.bmp","green","Share","REAL","1"
"html-keyboard-response","54","648116","0.0-7.0-5.3","63153455849b153d56dd81db","bdp_wmem","Tue Mar 14 2023 16:51:10 GMT-0700 (Pacific Daylight Time)","1083780","Match,No Match","","null","","","","","","<div class='trialBorder'><div class='vertical-center'><img src='img/correct.jpg'></div><div class='respDiv'><div class='respDivL'><font style='color:orange'>Match<br>(e)</font></div><div class='respDivR'>No Match<br>(i)</div></div></div>","null","FEEDBACK","","","","","","","","","","",""
"html-keyboard-response","55","648619","0.0-7.0-1.4","63153455849b153d56dd81db","bdp_wmem","Tue Mar 14 2023 16:51:10 GMT-0700 (Pacific Daylight Time)","1083780","Match,No Match","","null","","","","","","<div class='trialBorder'><div class='vertical-center'><img src='img/fixation2_sml.jpg'</img></div></div>","null","FIX","","","","","","","","","","",""
"html-keyboard-response","56","653125","0.0-7.0-2.4","63153455849b153d56dd81db","bdp_wmem","Tue Mar 14 2023 16:51:10 GMT-0700 (Pacific Daylight Time)","1083780","Match,No Match","","null","","","","","","<div class='trialBorder'><div class='vertical-center'><img style='vertical-align:center; align:center' src='img/fixation2_sml.jpg'></div><div class='arrayDiv3'><div class='tl'><img class='introPic' src='trustrating_stim/white_mw013.bmp'><br><font color='red'><strong>Keep</strong></font></div><div class='tc'><img class='introPic' src='trustrating_stim/white_mw078.bmp'><br><font color='green'><strong>Share</strong></font></div><div class='tr'><img class='introPic' src='trustrating_stim/white_mw092.bmp'><br><font color='red'><strong>Keep</strong></font></div></div></div>","null","ARRAY","3","trustrating_stim/white_mw013.bmp,trustrating_stim/white_mw078.bmp,trustrating_stim/white_mw092.bmp","0,1,0","Match","e","4500","","","","",""
"html-keyboard-response","57","657132","0.0-7.0-3.4","63153455849b153d56dd81db","bdp_wmem","Tue Mar 14 2023 16:51:10 GMT-0700 (Pacific Daylight Time)","1083780","Match,No Match","","null","","","","","","<div class='trialBorder'><div class='vertical-center'><img src='img/fixation2_sml.jpg'</img></div></div>","null","DELAY","","","","","","","","","","",""
"html-keyboard-response","58","657594","0.0-7.0-4.4","63153455849b153d56dd81db","bdp_wmem","Tue Mar 14 2023 16:51:10 GMT-0700 (Pacific Daylight Time)","1083780","Match,No Match","","459","","","","","","<div class='trialBorder'><div class='targDiv'><div class='tc'><img class='introPic' src='trustrating_stim/white_mw078.bmp'><br><font color='green'><strong>Share</strong></font></div></div><div class='respDiv'><div class='respDivL'>Match<br>(e)</div><div class='respDivR'>No Match<br>(i)</div></div></div>","i","TARGET","3","trustrating_stim/white_mw013.bmp,trustrating_stim/white_mw078.bmp,trustrating_stim/white_mw092.bmp","0,1,0","Match","e","4500","trustrating_stim/white_mw078.bmp","green","Share","REAL","0"
"html-keyboard-response","59","658100","0.0-7.0-5.4","63153455849b153d56dd81db","bdp_wmem","Tue Mar 14 2023 16:51:10 GMT-0700 (Pacific Daylight Time)","1083780","Match,No Match","","null","","","","","","<div class='trialBorder'><div class='vertical-center'><img src='img/error.jpg'></div><div class='respDiv'><div class='respDivL'>Match<br>(e)</div><div class='respDivR'><font style='color:orange'>No Match<br>(i)</font></div></div></div>","null","FEEDBACK","","","","","","","","","","",""
"html-keyboard-response","60","658603","0.0-7.0-1.5","63153455849b153d56dd81db","bdp_wmem","Tue Mar 14 2023 16:51:10 GMT-0700 (Pacific Daylight Time)","1083780","Match,No Match","","null","","","","","","<div class='trialBorder'><div class='vertical-center'><img src='img/fixation2_sml.jpg'</img></div></div>","null","FIX","","","","","","","","","","",""
"html-keyboard-response","61","663107","0.0-7.0-2.5","63153455849b153d56dd81db","bdp_wmem","Tue Mar 14 2023 16:51:10 GMT-0700 (Pacific Daylight Time)","1083780","Match,No Match","","null","","","","","","<div class='trialBorder'><div class='vertical-center'><img style='vertical-align:center; align:center' src='img/fixation2_sml.jpg'></div><div class='arrayDiv3'><div class='tl'><img class='introPic' src='trustrating_stim/white_mw013.bmp'><br><font color='red'><strong>Keep</strong></font></div><div class='tc'><img class='introPic' src='trustrating_stim/white_mw040.bmp'><br><font color='green'><strong>Share</strong></font></div><div class='tr'><img class='introPic' src='trustrating_stim/white_mw038.bmp'><br><font color='green'><strong>Share</strong></font></div></div></div>","null","ARRAY","3","trustrating_stim/white_mw013.bmp,trustrating_stim/white_mw040.bmp,trustrating_stim/white_mw038.bmp","0,1,1","noMatchOutcome","i","4500","","","","",""
"html-keyboard-response","62","667115","0.0-7.0-3.5","63153455849b153d56dd81db","bdp_wmem","Tue Mar 14 2023 16:51:10 GMT-0700 (Pacific Daylight Time)","1083780","Match,No Match","","null","","","","","","<div class='trialBorder'><div class='vertical-center'><img src='img/fixation2_sml.jpg'</img></div></div>","null","DELAY","","","","","","","","","","",""
"html-keyboard-response","63","669354","0.0-7.0-4.5","63153455849b153d56dd81db","bdp_wmem","Tue Mar 14 2023 16:51:10 GMT-0700 (Pacific Daylight Time)","1083780","Match,No Match","","2235","","","","","","<div class='trialBorder'><div class='targDiv'><div class='tc'><img class='introPic' src='trustrating_stim/white_mw038.bmp'><br><font color='red'><strong>Keep</strong></font></div></div><div class='respDiv'><div class='respDivL'>Match<br>(e)</div><div class='respDivR'>No Match<br>(i)</div></div></div>","e","TARGET","3","trustrating_stim/white_mw013.bmp,trustrating_stim/white_mw040.bmp,trustrating_stim/white_mw038.bmp","0,1,1","noMatchOutcome","i","4500","trustrating_stim/white_mw038.bmp","red","Keep","REAL","0"
"html-keyboard-response","64","669859","0.0-7.0-5.5","63153455849b153d56dd81db","bdp_wmem","Tue Mar 14 2023 16:51:10 GMT-0700 (Pacific Daylight Time)","1083780","Match,No Match","","null","","","","","","<div class='trialBorder'><div class='vertical-center'><img src='img/error.jpg'></div><div class='respDiv'><div class='respDivL'><font style='color:orange'>Match<br>(e)</font></div><div class='respDivR'>No Match<br>(i)</div></div></div>","null","FEEDBACK","","","","","","","","","","",""
"html-keyboard-response","65","670364","0.0-7.0-1.6","63153455849b153d56dd81db","bdp_wmem","Tue Mar 14 2023 16:51:10 GMT-0700 (Pacific Daylight Time)","1083780","Match,No Match","","null","","","","","","<div class='trialBorder'><div class='vertical-center'><img src='img/fixation2_sml.jpg'</img></div></div>","null","FIX","","","","","","","","","","",""
"html-keyboard-response","66","671867","0.0-7.0-2.6","63153455849b153d56dd81db","bdp_wmem","Tue Mar 14 2023 16:51:10 GMT-0700 (Pacific Daylight Time)","1083780","Match,No Match","","null","","","","","","<div class='trialBorder'><div class='vertical-center'><img style='vertical-align:center; align:center' src='img/fixation2_sml.jpg'></div><div class='arrayDiv1'><div class='tc'><img class='introPic' src='trustrating_stim/white_mw040.bmp'><br><font color='red'><strong>Keep</strong></font></div></div></div>","null","ARRAY","1","trustrating_stim/white_mw040.bmp","0","noMatchOutcome","i","1500","","","","",""
"html-keyboard-response","67","675876","0.0-7.0-3.6","63153455849b153d56dd81db","bdp_wmem","Tue Mar 14 2023 16:51:10 GMT-0700 (Pacific Daylight Time)","1083780","Match,No Match","","null","","","","","","<div class='trialBorder'><div class='vertical-center'><img src='img/fixation2_sml.jpg'</img></div></div>","null","DELAY","","","","","","","","","","",""
"html-keyboard-response","68","677819","0.0-7.0-4.6","63153455849b153d56dd81db","bdp_wmem","Tue Mar 14 2023 16:51:10 GMT-0700 (Pacific Daylight Time)","1083780","Match,No Match","","1938","","","","","","<div class='trialBorder'><div class='targDiv'><div class='tc'><img class='introPic' src='trustrating_stim/white_mw040.bmp'><br><font color='green'><strong>Share</strong></font></div></div><div class='respDiv'><div class='respDivL'>Match<br>(e)</div><div class='respDivR'>No Match<br>(i)</div></div></div>","i","TARGET","1","trustrating_stim/white_mw040.bmp","0","noMatchOutcome","i","1500","trustrating_stim/white_mw040.bmp","green","Share","REAL","1"
"html-keyboard-response","69","678325","0.0-7.0-5.6","63153455849b153d56dd81db","bdp_wmem","Tue Mar 14 2023 16:51:10 GMT-0700 (Pacific Daylight Time)","1083780","Match,No Match","","null","","","","","","<div class='trialBorder'><div class='vertical-center'><img src='img/correct.jpg'></div><div class='respDiv'><div class='respDivL'>Match<br>(e)</div><div class='respDivR'><font style='color:orange'>No Match<br>(i)</font></div></div></div>","null","FEEDBACK","","","","","","","","","","",""
"html-keyboard-response","70","678828","0.0-7.0-1.7","63153455849b153d56dd81db","bdp_wmem","Tue Mar 14 2023 16:51:10 GMT-0700 (Pacific Daylight Time)","1083780","Match,No Match","","null","","","","","","<div class='trialBorder'><div class='vertical-center'><img src='img/fixation2_sml.jpg'</img></div></div>","null","FIX","","","","","","","","","","",""
"html-keyboard-response","71","683340","0.0-7.0-2.7","63153455849b153d56dd81db","bdp_wmem","Tue Mar 14 2023 16:51:10 GMT-0700 (Pacific Daylight Time)","1083780","Match,No Match","","null","","","","","","<div class='trialBorder'><div class='vertical-center'><img style='vertical-align:center; align:center' src='img/fixation2_sml.jpg'></div><div class='arrayDiv3'><div class='tl'><img class='introPic' src='trustrating_stim/white_mw010.bmp'><br><font color='green'><strong>Share</strong></font></div><div class='tc'><img class='introPic' src='trustrating_stim/white_mw038.bmp'><br><font color='green'><strong>Share</strong></font></div><div class='tr'><img class='introPic' src='trustrating_stim/white_mw003.bmp'><br><font color='red'><strong>Keep</strong></font></div></div></div>","null","ARRAY","3","trustrating_stim/white_mw010.bmp,trustrating_stim/white_mw038.bmp,trustrating_stim/white_mw003.bmp","1,1,0","Match","e","4500","","","","",""
"html-keyboard-response","72","687348","0.0-7.0-3.7","63153455849b153d56dd81db","bdp_wmem","Tue Mar 14 2023 16:51:10 GMT-0700 (Pacific Daylight Time)","1083780","Match,No Match","","null","","","","","","<div class='trialBorder'><div class='vertical-center'><img src='img/fixation2_sml.jpg'</img></div></div>","null","DELAY","","","","","","","","","","",""
"html-keyboard-response","73","690283","0.0-7.0-4.7","63153455849b153d56dd81db","bdp_wmem","Tue Mar 14 2023 16:51:10 GMT-0700 (Pacific Daylight Time)","1083780","Match,No Match","","2931","","","","","","<div class='trialBorder'><div class='targDiv'><div class='tc'><img class='introPic' src='trustrating_stim/white_mw003.bmp'><br><font color='red'><strong>Keep</strong></font></div></div><div class='respDiv'><div class='respDivL'>Match<br>(e)</div><div class='respDivR'>No Match<br>(i)</div></div></div>","i","TARGET","3","trustrating_stim/white_mw010.bmp,trustrating_stim/white_mw038.bmp,trustrating_stim/white_mw003.bmp","1,1,0","Match","e","4500","trustrating_stim/white_mw003.bmp","red","Keep","REAL","0"
"html-keyboard-response","74","690789","0.0-7.0-5.7","63153455849b153d56dd81db","bdp_wmem","Tue Mar 14 2023 16:51:10 GMT-0700 (Pacific Daylight Time)","1083780","Match,No Match","","null","","","","","","<div class='trialBorder'><div class='vertical-center'><img src='img/error.jpg'></div><div class='respDiv'><div class='respDivL'>Match<br>(e)</div><div class='respDivR'><font style='color:orange'>No Match<br>(i)</font></div></div></div>","null","FEEDBACK","","","","","","","","","","",""
"html-keyboard-response","75","691291","0.0-7.0-1.8","63153455849b153d56dd81db","bdp_wmem","Tue Mar 14 2023 16:51:10 GMT-0700 (Pacific Daylight Time)","1083780","Match,No Match","","null","","","","","","<div class='trialBorder'><div class='vertical-center'><img src='img/fixation2_sml.jpg'</img></div></div>","null","FIX","","","","","","","","","","",""
"html-keyboard-response","76","695796","0.0-7.0-2.8","63153455849b153d56dd81db","bdp_wmem","Tue Mar 14 2023 16:51:10 GMT-0700 (Pacific Daylight Time)","1083780","Match,No Match","","null","","","","","","<div class='trialBorder'><div class='vertical-center'><img style='vertical-align:center; align:center' src='img/fixation2_sml.jpg'></div><div class='arrayDiv3'><div class='tl'><img class='introPic' src='trustrating_stim/white_mw078.bmp'><br><font color='green'><strong>Share</strong></font></div><div class='tc'><img class='introPic' src='trustrating_stim/white_mw070.bmp'><br><font color='red'><strong>Keep</strong></font></div><div class='tr'><img class='introPic' src='trustrating_stim/white_mw042.bmp'><br><font color='red'><strong>Keep</strong></font></div></div></div>","null","ARRAY","3","trustrating_stim/white_mw078.bmp,trustrating_stim/white_mw070.bmp,trustrating_stim/white_mw042.bmp","1,0,0","noMatchOutcome","i","4500","","","","",""
"html-keyboard-response","77","699803","0.0-7.0-3.8","63153455849b153d56dd81db","bdp_wmem","Tue Mar 14 2023 16:51:10 GMT-0700 (Pacific Daylight Time)","1083780","Match,No Match","","null","","","","","","<div class='trialBorder'><div class='vertical-center'><img src='img/fixation2_sml.jpg'</img></div></div>","null","DELAY","","","","","","","","","","",""
"html-keyboard-response","78","700483","0.0-7.0-4.8","63153455849b153d56dd81db","bdp_wmem","Tue Mar 14 2023 16:51:10 GMT-0700 (Pacific Daylight Time)","1083780","Match,No Match","","675","","","","","","<div class='trialBorder'><div class='targDiv'><div class='tc'><img class='introPic' src='trustrating_stim/white_mw078.bmp'><br><font color='red'><strong>Keep</strong></font></div></div><div class='respDiv'><div class='respDivL'>Match<br>(e)</div><div class='respDivR'>No Match<br>(i)</div></div></div>","i","TARGET","3","trustrating_stim/white_mw078.bmp,trustrating_stim/white_mw070.bmp,trustrating_stim/white_mw042.bmp","1,0,0","noMatchOutcome","i","4500","trustrating_stim/white_mw078.bmp","red","Keep","REAL","1"
"html-keyboard-response","79","700987","0.0-7.0-5.8","63153455849b153d56dd81db","bdp_wmem","Tue Mar 14 2023 16:51:10 GMT-0700 (Pacific Daylight Time)","1083780","Match,No Match","","null","","","","","","<div class='trialBorder'><div class='vertical-center'><img src='img/correct.jpg'></div><div class='respDiv'><div class='respDivL'>Match<br>(e)</div><div class='respDivR'><font style='color:orange'>No Match<br>(i)</font></div></div></div>","null","FEEDBACK","","","","","","","","","","",""
"html-keyboard-response","80","701491","0.0-7.0-1.9","63153455849b153d56dd81db","bdp_wmem","Tue Mar 14 2023 16:51:10 GMT-0700 (Pacific Daylight Time)","1083780","Match,No Match","","null","","","","","","<div class='trialBorder'><div class='vertical-center'><img src='img/fixation2_sml.jpg'</img></div></div>","null","FIX","","","","","","","","","","",""
"html-keyboard-response","81","704500","0.0-7.0-2.9","63153455849b153d56dd81db","bdp_wmem","Tue Mar 14 2023 16:51:10 GMT-0700 (Pacific Daylight Time)","1083780","Match,No Match","","null","","","","","","<div class='trialBorder'><div class='vertical-center'><img style='vertical-align:center; align:center' src='img/fixation2_sml.jpg'></div><div class='arrayDiv2'><div class='tl'><img class='introPic' src='trustrating_stim/white_mw003.bmp'><br><font color='green'><strong>Share</strong></font></div><div class='tr'><img class='introPic' src='trustrating_stim/white_mw040.bmp'><br><font color='red'><strong>Keep</strong></font></div></div></div>","null","ARRAY","2","trustrating_stim/white_mw003.bmp,trustrating_stim/white_mw040.bmp","1,0","Match","e","3000","","","","",""
"html-keyboard-response","82","708506","0.0-7.0-3.9","63153455849b153d56dd81db","bdp_wmem","Tue Mar 14 2023 16:51:10 GMT-0700 (Pacific Daylight Time)","1083780","Match,No Match","","null","","","","","","<div class='trialBorder'><div class='vertical-center'><img src='img/fixation2_sml.jpg'</img></div></div>","null","DELAY","","","","","","","","","","",""
"html-keyboard-response","83","709578","0.0-7.0-4.9","63153455849b153d56dd81db","bdp_wmem","Tue Mar 14 2023 16:51:10 GMT-0700 (Pacific Daylight Time)","1083780","Match,No Match","","1068","","","","","","<div class='trialBorder'><div class='targDiv'><div class='tc'><img class='introPic' src='trustrating_stim/white_mw003.bmp'><br><font color='green'><strong>Share</strong></font></div></div><div class='respDiv'><div class='respDivL'>Match<br>(e)</div><div class='respDivR'>No Match<br>(i)</div></div></div>","e","TARGET","2","trustrating_stim/white_mw003.bmp,trustrating_stim/white_mw040.bmp","1,0","Match","e","3000","trustrating_stim/white_mw003.bmp","green","Share","REAL","1"
"html-keyboard-response","84","710084","0.0-7.0-5.9","63153455849b153d56dd81db","bdp_wmem","Tue Mar 14 2023 16:51:10 GMT-0700 (Pacific Daylight Time)","1083780","Match,No Match","","null","","","","","","<div class='trialBorder'><div class='vertical-center'><img src='img/correct.jpg'></div><div class='respDiv'><div class='respDivL'><font style='color:orange'>Match<br>(e)</font></div><div class='respDivR'>No Match<br>(i)</div></div></div>","null","FEEDBACK","","","","","","","","","","",""
"html-keyboard-response","85","710587","0.0-7.0-1.10","63153455849b153d56dd81db","bdp_wmem","Tue Mar 14 2023 16:51:10 GMT-0700 (Pacific Daylight Time)","1083780","Match,No Match","","null","","","","","","<div class='trialBorder'><div class='vertical-center'><img src='img/fixation2_sml.jpg'</img></div></div>","null","FIX","","","","","","","","","","",""
"html-keyboard-response","86","715092","0.0-7.0-2.10","63153455849b153d56dd81db","bdp_wmem","Tue Mar 14 2023 16:51:10 GMT-0700 (Pacific Daylight Time)","1083780","Match,No Match","","null","","","","","","<div class='trialBorder'><div class='vertical-center'><img style='vertical-align:center; align:center' src='img/fixation2_sml.jpg'></div><div class='arrayDiv3'><div class='tl'><img class='introPic' src='trustrating_stim/white_mw092.bmp'><br><font color='green'><strong>Share</strong></font></div><div class='tc'><img class='introPic' src='trustrating_stim/white_mw010.bmp'><br><font color='red'><strong>Keep</strong></font></div><div class='tr'><img class='introPic' src='trustrating_stim/white_mw003.bmp'><br><font color='green'><strong>Share</strong></font></div></div></div>","null","ARRAY","3","trustrating_stim/white_mw092.bmp,trustrating_stim/white_mw010.bmp,trustrating_stim/white_mw003.bmp","1,0,1","noMatchOutcome","i","4500","","","","",""
"html-keyboard-response","87","719100","0.0-7.0-3.10","63153455849b153d56dd81db","bdp_wmem","Tue Mar 14 2023 16:51:10 GMT-0700 (Pacific Daylight Time)","1083780","Match,No Match","","null","","","","","","<div class='trialBorder'><div class='vertical-center'><img src='img/fixation2_sml.jpg'</img></div></div>","null","DELAY","","","","","","","","","","",""
"html-keyboard-response","88","720250","0.0-7.0-4.10","63153455849b153d56dd81db","bdp_wmem","Tue Mar 14 2023 16:51:10 GMT-0700 (Pacific Daylight Time)","1083780","Match,No Match","","1147","","","","","","<div class='trialBorder'><div class='targDiv'><div class='tc'><img class='introPic' src='trustrating_stim/white_mw092.bmp'><br><font color='red'><strong>Keep</strong></font></div></div><div class='respDiv'><div class='respDivL'>Match<br>(e)</div><div class='respDivR'>No Match<br>(i)</div></div></div>","i","TARGET","3","trustrating_stim/white_mw092.bmp,trustrating_stim/white_mw010.bmp,trustrating_stim/white_mw003.bmp","1,0,1","noMatchOutcome","i","4500","trustrating_stim/white_mw092.bmp","red","Keep","REAL","1"
"html-keyboard-response","89","720756","0.0-7.0-5.10","63153455849b153d56dd81db","bdp_wmem","Tue Mar 14 2023 16:51:10 GMT-0700 (Pacific Daylight Time)","1083780","Match,No Match","","null","","","","","","<div class='trialBorder'><div class='vertical-center'><img src='img/correct.jpg'></div><div class='respDiv'><div class='respDivL'>Match<br>(e)</div><div class='respDivR'><font style='color:orange'>No Match<br>(i)</font></div></div></div>","null","FEEDBACK","","","","","","","","","","",""
"html-keyboard-response","90","721260","0.0-7.0-1.11","63153455849b153d56dd81db","bdp_wmem","Tue Mar 14 2023 16:51:10 GMT-0700 (Pacific Daylight Time)","1083780","Match,No Match","","null","","","","","","<div class='trialBorder'><div class='vertical-center'><img src='img/fixation2_sml.jpg'</img></div></div>","null","FIX","","","","","","","","","","",""
"html-keyboard-response","91","725765","0.0-7.0-2.11","63153455849b153d56dd81db","bdp_wmem","Tue Mar 14 2023 16:51:10 GMT-0700 (Pacific Daylight Time)","1083780","Match,No Match","","null","","","","","","<div class='trialBorder'><div class='vertical-center'><img style='vertical-align:center; align:center' src='img/fixation2_sml.jpg'></div><div class='arrayDiv3'><div class='tl'><img class='introPic' src='trustrating_stim/white_mw012.bmp'><br><font color='red'><strong>Keep</strong></font></div><div class='tc'><img class='introPic' src='trustrating_stim/white_mw042.bmp'><br><font color='green'><strong>Share</strong></font></div><div class='tr'><img class='introPic' src='trustrating_stim/white_mw070.bmp'><br><font color='red'><strong>Keep</strong></font></div></div></div>","null","ARRAY","3","trustrating_stim/white_mw012.bmp,trustrating_stim/white_mw042.bmp,trustrating_stim/white_mw070.bmp","0,1,0","noMatchOutcome","i","4500","","","","",""
"html-keyboard-response","92","729771","0.0-7.0-3.11","63153455849b153d56dd81db","bdp_wmem","Tue Mar 14 2023 16:51:10 GMT-0700 (Pacific Daylight Time)","1083780","Match,No Match","","null","","","","","","<div class='trialBorder'><div class='vertical-center'><img src='img/fixation2_sml.jpg'</img></div></div>","null","DELAY","","","","","","","","","","",""
"html-keyboard-response","93","730315","0.0-7.0-4.11","63153455849b153d56dd81db","bdp_wmem","Tue Mar 14 2023 16:51:10 GMT-0700 (Pacific Daylight Time)","1083780","Match,No Match","","539","","","","","","<div class='trialBorder'><div class='targDiv'><div class='tc'><img class='introPic' src='trustrating_stim/white_mw042.bmp'><br><font color='red'><strong>Keep</strong></font></div></div><div class='respDiv'><div class='respDivL'>Match<br>(e)</div><div class='respDivR'>No Match<br>(i)</div></div></div>","i","TARGET","3","trustrating_stim/white_mw012.bmp,trustrating_stim/white_mw042.bmp,trustrating_stim/white_mw070.bmp","0,1,0","noMatchOutcome","i","4500","trustrating_stim/white_mw042.bmp","red","Keep","REAL","1"
"html-keyboard-response","94","730820","0.0-7.0-5.11","63153455849b153d56dd81db","bdp_wmem","Tue Mar 14 2023 16:51:10 GMT-0700 (Pacific Daylight Time)","1083780","Match,No Match","","null","","","","","","<div class='trialBorder'><div class='vertical-center'><img src='img/correct.jpg'></div><div class='respDiv'><div class='respDivL'>Match<br>(e)</div><div class='respDivR'><font style='color:orange'>No Match<br>(i)</font></div></div></div>","null","FEEDBACK","","","","","","","","","","",""
"html-keyboard-response","95","731324","0.0-7.0-1.12","63153455849b153d56dd81db","bdp_wmem","Tue Mar 14 2023 16:51:10 GMT-0700 (Pacific Daylight Time)","1083780","Match,No Match","","null","","","","","","<div class='trialBorder'><div class='vertical-center'><img src='img/fixation2_sml.jpg'</img></div></div>","null","FIX","","","","","","","","","","",""
"html-keyboard-response","96","732828","0.0-7.0-2.12","63153455849b153d56dd81db","bdp_wmem","Tue Mar 14 2023 16:51:10 GMT-0700 (Pacific Daylight Time)","1083780","Match,No Match","","null","","","","","","<div class='trialBorder'><div class='vertical-center'><img style='vertical-align:center; align:center' src='img/fixation2_sml.jpg'></div><div class='arrayDiv1'><div class='tc'><img class='introPic' src='trustrating_stim/white_mw040.bmp'><br><font color='green'><strong>Share</strong></font></div></div></div>","null","ARRAY","1","trustrating_stim/white_mw040.bmp","1","Match","e","1500","","","","",""
"html-keyboard-response","97","736836","0.0-7.0-3.12","63153455849b153d56dd81db","bdp_wmem","Tue Mar 14 2023 16:51:10 GMT-0700 (Pacific Daylight Time)","1083780","Match,No Match","","null","","","","","","<div class='trialBorder'><div class='vertical-center'><img src='img/fixation2_sml.jpg'</img></div></div>","null","DELAY","","","","","","","","","","",""
"html-keyboard-response","98","737483","0.0-7.0-4.12","63153455849b153d56dd81db","bdp_wmem","Tue Mar 14 2023 16:51:10 GMT-0700 (Pacific Daylight Time)","1083780","Match,No Match","","644","","","","","","<div class='trialBorder'><div class='targDiv'><div class='tc'><img class='introPic' src='trustrating_stim/white_mw040.bmp'><br><font color='green'><strong>Share</strong></font></div></div><div class='respDiv'><div class='respDivL'>Match<br>(e)</div><div class='respDivR'>No Match<br>(i)</div></div></div>","i","TARGET","1","trustrating_stim/white_mw040.bmp","1","Match","e","1500","trustrating_stim/white_mw040.bmp","green","Share","REAL","0"
"html-keyboard-response","99","737989","0.0-7.0-5.12","63153455849b153d56dd81db","bdp_wmem","Tue Mar 14 2023 16:51:10 GMT-0700 (Pacific Daylight Time)","1083780","Match,No Match","","null","","","","","","<div class='trialBorder'><div class='vertical-center'><img src='img/error.jpg'></div><div class='respDiv'><div class='respDivL'>Match<br>(e)</div><div class='respDivR'><font style='color:orange'>No Match<br>(i)</font></div></div></div>","null","FEEDBACK","","","","","","","","","","",""
"html-keyboard-response","100","738492","0.0-7.0-1.13","63153455849b153d56dd81db","bdp_wmem","Tue Mar 14 2023 16:51:10 GMT-0700 (Pacific Daylight Time)","1083780","Match,No Match","","null","","","","","","<div class='trialBorder'><div class='vertical-center'><img src='img/fixation2_sml.jpg'</img></div></div>","null","FIX","","","","","","","","","","",""
"html-keyboard-response","101","739997","0.0-7.0-2.13","63153455849b153d56dd81db","bdp_wmem","Tue Mar 14 2023 16:51:10 GMT-0700 (Pacific Daylight Time)","1083780","Match,No Match","","null","","","","","","<div class='trialBorder'><div class='vertical-center'><img style='vertical-align:center; align:center' src='img/fixation2_sml.jpg'></div><div class='arrayDiv1'><div class='tc'><img class='introPic' src='trustrating_stim/white_mw038.bmp'><br><font color='green'><strong>Share</strong></font></div></div></div>","null","ARRAY","1","trustrating_stim/white_mw038.bmp","1","noMatchOutcome","i","1500","","","","",""
"html-keyboard-response","102","744004","0.0-7.0-3.13","63153455849b153d56dd81db","bdp_wmem","Tue Mar 14 2023 16:51:10 GMT-0700 (Pacific Daylight Time)","1083780","Match,No Match","","null","","","","","","<div class='trialBorder'><div class='vertical-center'><img src='img/fixation2_sml.jpg'</img></div></div>","null","DELAY","","","","","","","","","","",""
"html-keyboard-response","103","746305","0.0-7.0-4.13","63153455849b153d56dd81db","bdp_wmem","Tue Mar 14 2023 16:51:10 GMT-0700 (Pacific Daylight Time)","1083780","Match,No Match","","2298","","","","","","<div class='trialBorder'><div class='targDiv'><div class='tc'><img class='introPic' src='trustrating_stim/white_mw038.bmp'><br><font color='red'><strong>Keep</strong></font></div></div><div class='respDiv'><div class='respDivL'>Match<br>(e)</div><div class='respDivR'>No Match<br>(i)</div></div></div>","e","TARGET","1","trustrating_stim/white_mw038.bmp","1","noMatchOutcome","i","1500","trustrating_stim/white_mw038.bmp","red","Keep","REAL","0"
"html-keyboard-response","104","746812","0.0-7.0-5.13","63153455849b153d56dd81db","bdp_wmem","Tue Mar 14 2023 16:51:10 GMT-0700 (Pacific Daylight Time)","1083780","Match,No Match","","null","","","","","","<div class='trialBorder'><div class='vertical-center'><img src='img/error.jpg'></div><div class='respDiv'><div class='respDivL'><font style='color:orange'>Match<br>(e)</font></div><div class='respDivR'>No Match<br>(i)</div></div></div>","null","FEEDBACK","","","","","","","","","","",""
"html-keyboard-response","105","747316","0.0-7.0-1.14","63153455849b153d56dd81db","bdp_wmem","Tue Mar 14 2023 16:51:10 GMT-0700 (Pacific Daylight Time)","1083780","Match,No Match","","null","","","","","","<div class='trialBorder'><div class='vertical-center'><img src='img/fixation2_sml.jpg'</img></div></div>","null","FIX","","","","","","","","","","",""
"html-keyboard-response","106","751829","0.0-7.0-2.14","63153455849b153d56dd81db","bdp_wmem","Tue Mar 14 2023 16:51:10 GMT-0700 (Pacific Daylight Time)","1083780","Match,No Match","","null","","","","","","<div class='trialBorder'><div class='vertical-center'><img style='vertical-align:center; align:center' src='img/fixation2_sml.jpg'></div><div class='arrayDiv3'><div class='tl'><img class='introPic' src='trustrating_stim/white_mw010.bmp'><br><font color='green'><strong>Share</strong></font></div><div class='tc'><img class='introPic' src='trustrating_stim/white_mw038.bmp'><br><font color='red'><strong>Keep</strong></font></div><div class='tr'><img class='introPic' src='trustrating_stim/white_mw092.bmp'><br><font color='red'><strong>Keep</strong></font></div></div></div>","null","ARRAY","3","trustrating_stim/white_mw010.bmp,trustrating_stim/white_mw038.bmp,trustrating_stim/white_mw092.bmp","1,0,0","Match","e","4500","","","","",""
"html-keyboard-response","107","755836","0.0-7.0-3.14","63153455849b153d56dd81db","bdp_wmem","Tue Mar 14 2023 16:51:10 GMT-0700 (Pacific Daylight Time)","1083780","Match,No Match","","null","","","","","","<div class='trialBorder'><div class='vertical-center'><img src='img/fixation2_sml.jpg'</img></div></div>","null","DELAY","","","","","","","","","","",""
"html-keyboard-response","108","756441","0.0-7.0-4.14","63153455849b153d56dd81db","bdp_wmem","Tue Mar 14 2023 16:51:10 GMT-0700 (Pacific Daylight Time)","1083780","Match,No Match","","601","","","","","","<div class='trialBorder'><div class='targDiv'><div class='tc'><img class='introPic' src='trustrating_stim/white_mw010.bmp'><br><font color='green'><strong>Share</strong></font></div></div><div class='respDiv'><div class='respDivL'>Match<br>(e)</div><div class='respDivR'>No Match<br>(i)</div></div></div>","i","TARGET","3","trustrating_stim/white_mw010.bmp,trustrating_stim/white_mw038.bmp,trustrating_stim/white_mw092.bmp","1,0,0","Match","e","4500","trustrating_stim/white_mw010.bmp","green","Share","REAL","0"
"html-keyboard-response","109","756948","0.0-7.0-5.14","63153455849b153d56dd81db","bdp_wmem","Tue Mar 14 2023 16:51:10 GMT-0700 (Pacific Daylight Time)","1083780","Match,No Match","","null","","","","","","<div class='trialBorder'><div class='vertical-center'><img src='img/error.jpg'></div><div class='respDiv'><div class='respDivL'>Match<br>(e)</div><div class='respDivR'><font style='color:orange'>No Match<br>(i)</font></div></div></div>","null","FEEDBACK","","","","","","","","","","",""
"html-keyboard-response","110","757452","0.0-7.0-1.15","63153455849b153d56dd81db","bdp_wmem","Tue Mar 14 2023 16:51:10 GMT-0700 (Pacific Daylight Time)","1083780","Match,No Match","","null","","","","","","<div class='trialBorder'><div class='vertical-center'><img src='img/fixation2_sml.jpg'</img></div></div>","null","FIX","","","","","","","","","","",""
"html-keyboard-response","111","758957","0.0-7.0-2.15","63153455849b153d56dd81db","bdp_wmem","Tue Mar 14 2023 16:51:10 GMT-0700 (Pacific Daylight Time)","1083780","Match,No Match","","null","","","","","","<div class='trialBorder'><div class='vertical-center'><img style='vertical-align:center; align:center' src='img/fixation2_sml.jpg'></div><div class='arrayDiv1'><div class='tc'><img class='introPic' src='trustrating_stim/white_mw085.bmp'><br><font color='red'><strong>Keep</strong></font></div></div></div>","null","ARRAY","1","trustrating_stim/white_mw085.bmp","0","Match","e","1500","","","","",""
"html-keyboard-response","112","762965","0.0-7.0-3.15","63153455849b153d56dd81db","bdp_wmem","Tue Mar 14 2023 16:51:10 GMT-0700 (Pacific Daylight Time)","1083780","Match,No Match","","null","","","","","","<div class='trialBorder'><div class='vertical-center'><img src='img/fixation2_sml.jpg'</img></div></div>","null","DELAY","","","","","","","","","","",""
"html-keyboard-response","113","763585","0.0-7.0-4.15","63153455849b153d56dd81db","bdp_wmem","Tue Mar 14 2023 16:51:10 GMT-0700 (Pacific Daylight Time)","1083780","Match,No Match","","616","","","","","","<div class='trialBorder'><div class='targDiv'><div class='tc'><img class='introPic' src='trustrating_stim/white_mw085.bmp'><br><font color='red'><strong>Keep</strong></font></div></div><div class='respDiv'><div class='respDivL'>Match<br>(e)</div><div class='respDivR'>No Match<br>(i)</div></div></div>","e","TARGET","1","trustrating_stim/white_mw085.bmp","0","Match","e","1500","trustrating_stim/white_mw085.bmp","red","Keep","REAL","1"
"html-keyboard-response","114","764092","0.0-7.0-5.15","63153455849b153d56dd81db","bdp_wmem","Tue Mar 14 2023 16:51:10 GMT-0700 (Pacific Daylight Time)","1083780","Match,No Match","","null","","","","","","<div class='trialBorder'><div class='vertical-center'><img src='img/correct.jpg'></div><div class='respDiv'><div class='respDivL'><font style='color:orange'>Match<br>(e)</font></div><div class='respDivR'>No Match<br>(i)</div></div></div>","null","FEEDBACK","","","","","","","","","","",""
"html-keyboard-response","115","764596","0.0-7.0-1.16","63153455849b153d56dd81db","bdp_wmem","Tue Mar 14 2023 16:51:10 GMT-0700 (Pacific Daylight Time)","1083780","Match,No Match","","null","","","","","","<div class='trialBorder'><div class='vertical-center'><img src='img/fixation2_sml.jpg'</img></div></div>","null","FIX","","","","","","","","","","",""
"html-keyboard-response","116","767605","0.0-7.0-2.16","63153455849b153d56dd81db","bdp_wmem","Tue Mar 14 2023 16:51:10 GMT-0700 (Pacific Daylight Time)","1083780","Match,No Match","","null","","","","","","<div class='trialBorder'><div class='vertical-center'><img style='vertical-align:center; align:center' src='img/fixation2_sml.jpg'></div><div class='arrayDiv2'><div class='tl'><img class='introPic' src='trustrating_stim/white_mw092.bmp'><br><font color='green'><strong>Share</strong></font></div><div class='tr'><img class='introPic' src='trustrating_stim/white_mw038.bmp'><br><font color='red'><strong>Keep</strong></font></div></div></div>","null","ARRAY","2","trustrating_stim/white_mw092.bmp,trustrating_stim/white_mw038.bmp","1,0","noMatchOutcome","i","3000","","","","",""
"html-keyboard-response","117","771612","0.0-7.0-3.16","63153455849b153d56dd81db","bdp_wmem","Tue Mar 14 2023 16:51:10 GMT-0700 (Pacific Daylight Time)","1083780","Match,No Match","","null","","","","","","<div class='trialBorder'><div class='vertical-center'><img src='img/fixation2_sml.jpg'</img></div></div>","null","DELAY","","","","","","","","","","",""
"html-keyboard-response","118","777642","0.0-7.0-4.16","63153455849b153d56dd81db","bdp_wmem","Tue Mar 14 2023 16:51:10 GMT-0700 (Pacific Daylight Time)","1083780","Match,No Match","","6026","","","","","","<div class='trialBorder'><div class='targDiv'><div class='tc'><img class='introPic' src='trustrating_stim/white_mw038.bmp'><br><font color='green'><strong>Share</strong></font></div></div><div class='respDiv'><div class='respDivL'>Match<br>(e)</div><div class='respDivR'>No Match<br>(i)</div></div></div>","i","TARGET","2","trustrating_stim/white_mw092.bmp,trustrating_stim/white_mw038.bmp","1,0","noMatchOutcome","i","3000","trustrating_stim/white_mw038.bmp","green","Share","REAL","1"
"html-keyboard-response","119","778148","0.0-7.0-5.16","63153455849b153d56dd81db","bdp_wmem","Tue Mar 14 2023 16:51:10 GMT-0700 (Pacific Daylight Time)","1083780","Match,No Match","","null","","","","","","<div class='trialBorder'><div class='vertical-center'><img src='img/correct.jpg'></div><div class='respDiv'><div class='respDivL'>Match<br>(e)</div><div class='respDivR'><font style='color:orange'>No Match<br>(i)</font></div></div></div>","null","FEEDBACK","","","","","","","","","","",""
"html-keyboard-response","120","778652","0.0-7.0-1.17","63153455849b153d56dd81db","bdp_wmem","Tue Mar 14 2023 16:51:10 GMT-0700 (Pacific Daylight Time)","1083780","Match,No Match","","null","","","","","","<div class='trialBorder'><div class='vertical-center'><img src='img/fixation2_sml.jpg'</img></div></div>","null","FIX","","","","","","","","","","",""
"html-keyboard-response","121","780164","0.0-7.0-2.17","63153455849b153d56dd81db","bdp_wmem","Tue Mar 14 2023 16:51:10 GMT-0700 (Pacific Daylight Time)","1083780","Match,No Match","","null","","","","","","<div class='trialBorder'><div class='vertical-center'><img style='vertical-align:center; align:center' src='img/fixation2_sml.jpg'></div><div class='arrayDiv1'><div class='tc'><img class='introPic' src='trustrating_stim/white_mw012.bmp'><br><font color='red'><strong>Keep</strong></font></div></div></div>","null","ARRAY","1","trustrating_stim/white_mw012.bmp","0","Match","e","1500","","","","",""
"html-keyboard-response","122","784172","0.0-7.0-3.17","63153455849b153d56dd81db","bdp_wmem","Tue Mar 14 2023 16:51:10 GMT-0700 (Pacific Daylight Time)","1083780","Match,No Match","","null","","","","","","<div class='trialBorder'><div class='vertical-center'><img src='img/fixation2_sml.jpg'</img></div></div>","null","DELAY","","","","","","","","","","",""
"html-keyboard-response","123","787426","0.0-7.0-4.17","63153455849b153d56dd81db","bdp_wmem","Tue Mar 14 2023 16:51:10 GMT-0700 (Pacific Daylight Time)","1083780","Match,No Match","","3250","","","","","","<div class='trialBorder'><div class='targDiv'><div class='tc'><img class='introPic' src='trustrating_stim/white_mw012.bmp'><br><font color='red'><strong>Keep</strong></font></div></div><div class='respDiv'><div class='respDivL'>Match<br>(e)</div><div class='respDivR'>No Match<br>(i)</div></div></div>","e","TARGET","1","trustrating_stim/white_mw012.bmp","0","Match","e","1500","trustrating_stim/white_mw012.bmp","red","Keep","REAL","1"
"html-keyboard-response","124","787932","0.0-7.0-5.17","63153455849b153d56dd81db","bdp_wmem","Tue Mar 14 2023 16:51:10 GMT-0700 (Pacific Daylight Time)","1083780","Match,No Match","","null","","","","","","<div class='trialBorder'><div class='vertical-center'><img src='img/correct.jpg'></div><div class='respDiv'><div class='respDivL'><font style='color:orange'>Match<br>(e)</font></div><div class='respDivR'>No Match<br>(i)</div></div></div>","null","FEEDBACK","","","","","","","","","","",""
"html-keyboard-response","125","788444","0.0-7.0-1.18","63153455849b153d56dd81db","bdp_wmem","Tue Mar 14 2023 16:51:10 GMT-0700 (Pacific Daylight Time)","1083780","Match,No Match","","null","","","","","","<div class='trialBorder'><div class='vertical-center'><img src='img/fixation2_sml.jpg'</img></div></div>","null","FIX","","","","","","","","","","",""
"html-keyboard-response","126","791452","0.0-7.0-2.18","63153455849b153d56dd81db","bdp_wmem","Tue Mar 14 2023 16:51:10 GMT-0700 (Pacific Daylight Time)","1083780","Match,No Match","","null","","","","","","<div class='trialBorder'><div class='vertical-center'><img style='vertical-align:center; align:center' src='img/fixation2_sml.jpg'></div><div class='arrayDiv2'><div class='tl'><img class='introPic' src='trustrating_stim/white_mw042.bmp'><br><font color='red'><strong>Keep</strong></font></div><div class='tr'><img class='introPic' src='trustrating_stim/white_mw091.bmp'><br><font color='green'><strong>Share</strong></font></div></div></div>","null","ARRAY","2","trustrating_stim/white_mw042.bmp,trustrating_stim/white_mw091.bmp","0,1","Match","e","3000","","","","",""
"html-keyboard-response","127","795460","0.0-7.0-3.18","63153455849b153d56dd81db","bdp_wmem","Tue Mar 14 2023 16:51:10 GMT-0700 (Pacific Daylight Time)","1083780","Match,No Match","","null","","","","","","<div class='trialBorder'><div class='vertical-center'><img src='img/fixation2_sml.jpg'</img></div></div>","null","DELAY","","","","","","","","","","",""
"html-keyboard-response","128","796129","0.0-7.0-4.18","63153455849b153d56dd81db","bdp_wmem","Tue Mar 14 2023 16:51:10 GMT-0700 (Pacific Daylight Time)","1083780","Match,No Match","","666","","","","","","<div class='trialBorder'><div class='targDiv'><div class='tc'><img class='introPic' src='trustrating_stim/white_mw042.bmp'><br><font color='red'><strong>Keep</strong></font></div></div><div class='respDiv'><div class='respDivL'>Match<br>(e)</div><div class='respDivR'>No Match<br>(i)</div></div></div>","i","TARGET","2","trustrating_stim/white_mw042.bmp,trustrating_stim/white_mw091.bmp","0,1","Match","e","3000","trustrating_stim/white_mw042.bmp","red","Keep","REAL","0"
"html-keyboard-response","129","796636","0.0-7.0-5.18","63153455849b153d56dd81db","bdp_wmem","Tue Mar 14 2023 16:51:10 GMT-0700 (Pacific Daylight Time)","1083780","Match,No Match","","null","","","","","","<div class='trialBorder'><div class='vertical-center'><img src='img/error.jpg'></div><div class='respDiv'><div class='respDivL'>Match<br>(e)</div><div class='respDivR'><font style='color:orange'>No Match<br>(i)</font></div></div></div>","null","FEEDBACK","","","","","","","","","","",""
"html-keyboard-response","130","797140","0.0-7.0-1.19","63153455849b153d56dd81db","bdp_wmem","Tue Mar 14 2023 16:51:10 GMT-0700 (Pacific Daylight Time)","1083780","Match,No Match","","null","","","","","","<div class='trialBorder'><div class='vertical-center'><img src='img/fixation2_sml.jpg'</img></div></div>","null","FIX","","","","","","","","","","",""
"html-keyboard-response","131","800148","0.0-7.0-2.19","63153455849b153d56dd81db","bdp_wmem","Tue Mar 14 2023 16:51:10 GMT-0700 (Pacific Daylight Time)","1083780","Match,No Match","","null","","","","","","<div class='trialBorder'><div class='vertical-center'><img style='vertical-align:center; align:center' src='img/fixation2_sml.jpg'></div><div class='arrayDiv2'><div class='tl'><img class='introPic' src='trustrating_stim/white_mw013.bmp'><br><font color='green'><strong>Share</strong></font></div><div class='tr'><img class='introPic' src='trustrating_stim/white_mw010.bmp'><br><font color='red'><strong>Keep</strong></font></div></div></div>","null","ARRAY","2","trustrating_stim/white_mw013.bmp,trustrating_stim/white_mw010.bmp","1,0","Match","e","3000","","","","",""
"html-keyboard-response","132","804156","0.0-7.0-3.19","63153455849b153d56dd81db","bdp_wmem","Tue Mar 14 2023 16:51:10 GMT-0700 (Pacific Daylight Time)","1083780","Match,No Match","","null","","","","","","<div class='trialBorder'><div class='vertical-center'><img src='img/fixation2_sml.jpg'</img></div></div>","null","DELAY","","","","","","","","","","",""
"html-keyboard-response","133","807945","0.0-7.0-4.19","63153455849b153d56dd81db","bdp_wmem","Tue Mar 14 2023 16:51:10 GMT-0700 (Pacific Daylight Time)","1083780","Match,No Match","","3785","","","","","","<div class='trialBorder'><div class='targDiv'><div class='tc'><img class='introPic' src='trustrating_stim/white_mw010.bmp'><br><font color='red'><strong>Keep</strong></font></div></div><div class='respDiv'><div class='respDivL'>Match<br>(e)</div><div class='respDivR'>No Match<br>(i)</div></div></div>","e","TARGET","2","trustrating_stim/white_mw013.bmp,trustrating_stim/white_mw010.bmp","1,0","Match","e","3000","trustrating_stim/white_mw010.bmp","red","Keep","REAL","1"
"html-keyboard-response","134","808452","0.0-7.0-5.19","63153455849b153d56dd81db","bdp_wmem","Tue Mar 14 2023 16:51:10 GMT-0700 (Pacific Daylight Time)","1083780","Match,No Match","","null","","","","","","<div class='trialBorder'><div class='vertical-center'><img src='img/correct.jpg'></div><div class='respDiv'><div class='respDivL'><font style='color:orange'>Match<br>(e)</font></div><div class='respDivR'>No Match<br>(i)</div></div></div>","null","FEEDBACK","","","","","","","","","","",""
"html-keyboard-response","135","808957","0.0-7.0-1.20","63153455849b153d56dd81db","bdp_wmem","Tue Mar 14 2023 16:51:10 GMT-0700 (Pacific Daylight Time)","1083780","Match,No Match","","null","","","","","","<div class='trialBorder'><div class='vertical-center'><img src='img/fixation2_sml.jpg'</img></div></div>","null","FIX","","","","","","","","","","",""
"html-keyboard-response","136","810468","0.0-7.0-2.20","63153455849b153d56dd81db","bdp_wmem","Tue Mar 14 2023 16:51:10 GMT-0700 (Pacific Daylight Time)","1083780","Match,No Match","","null","","","","","","<div class='trialBorder'><div class='vertical-center'><img style='vertical-align:center; align:center' src='img/fixation2_sml.jpg'></div><div class='arrayDiv1'><div class='tc'><img class='introPic' src='trustrating_stim/white_mw040.bmp'><br><font color='green'><strong>Share</strong></font></div></div></div>","null","ARRAY","1","trustrating_stim/white_mw040.bmp","1","Match","e","1500","","","","",""
"html-keyboard-response","137","814476","0.0-7.0-3.20","63153455849b153d56dd81db","bdp_wmem","Tue Mar 14 2023 16:51:10 GMT-0700 (Pacific Daylight Time)","1083780","Match,No Match","","null","","","","","","<div class='trialBorder'><div class='vertical-center'><img src='img/fixation2_sml.jpg'</img></div></div>","null","DELAY","","","","","","","","","","",""
"html-keyboard-response","138","815025","0.0-7.0-4.20","63153455849b153d56dd81db","bdp_wmem","Tue Mar 14 2023 16:51:10 GMT-0700 (Pacific Daylight Time)","1083780","Match,No Match","","546","","","","","","<div class='trialBorder'><div class='targDiv'><div class='tc'><img class='introPic' src='trustrating_stim/white_mw040.bmp'><br><font color='green'><strong>Share</strong></font></div></div><div class='respDiv'><div class='respDivL'>Match<br>(e)</div><div class='respDivR'>No Match<br>(i)</div></div></div>","i","TARGET","1","trustrating_stim/white_mw040.bmp","1","Match","e","1500","trustrating_stim/white_mw040.bmp","green","Share","REAL","0"
"html-keyboard-response","139","815533","0.0-7.0-5.20","63153455849b153d56dd81db","bdp_wmem","Tue Mar 14 2023 16:51:10 GMT-0700 (Pacific Daylight Time)","1083780","Match,No Match","","null","","","","","","<div class='trialBorder'><div class='vertical-center'><img src='img/error.jpg'></div><div class='respDiv'><div class='respDivL'>Match<br>(e)</div><div class='respDivR'><font style='color:orange'>No Match<br>(i)</font></div></div></div>","null","FEEDBACK","","","","","","","","","","",""
"html-keyboard-response","140","816036","0.0-7.0-1.21","63153455849b153d56dd81db","bdp_wmem","Tue Mar 14 2023 16:51:10 GMT-0700 (Pacific Daylight Time)","1083780","Match,No Match","","null","","","","","","<div class='trialBorder'><div class='vertical-center'><img src='img/fixation2_sml.jpg'</img></div></div>","null","FIX","","","","","","","","","","",""
"html-keyboard-response","141","819044","0.0-7.0-2.21","63153455849b153d56dd81db","bdp_wmem","Tue Mar 14 2023 16:51:10 GMT-0700 (Pacific Daylight Time)","1083780","Match,No Match","","null","","","","","","<div class='trialBorder'><div class='vertical-center'><img style='vertical-align:center; align:center' src='img/fixation2_sml.jpg'></div><div class='arrayDiv2'><div class='tl'><img class='introPic' src='trustrating_stim/white_mw085.bmp'><br><font color='red'><strong>Keep</strong></font></div><div class='tr'><img class='introPic' src='trustrating_stim/white_mw013.bmp'><br><font color='green'><strong>Share</strong></font></div></div></div>","null","ARRAY","2","trustrating_stim/white_mw085.bmp,trustrating_stim/white_mw013.bmp","0,1","noMatchOutcome","i","3000","","","","",""
"html-keyboard-response","142","823052","0.0-7.0-3.21","63153455849b153d56dd81db","bdp_wmem","Tue Mar 14 2023 16:51:10 GMT-0700 (Pacific Daylight Time)","1083780","Match,No Match","","null","","","","","","<div class='trialBorder'><div class='vertical-center'><img src='img/fixation2_sml.jpg'</img></div></div>","null","DELAY","","","","","","","","","","",""
"html-keyboard-response","143","823273","0.0-7.0-4.21","63153455849b153d56dd81db","bdp_wmem","Tue Mar 14 2023 16:51:10 GMT-0700 (Pacific Daylight Time)","1083780","Match,No Match","","217","","","","","","<div class='trialBorder'><div class='targDiv'><div class='tc'><img class='introPic' src='trustrating_stim/white_mw085.bmp'><br><font color='green'><strong>Share</strong></font></div></div><div class='respDiv'><div class='respDivL'>Match<br>(e)</div><div class='respDivR'>No Match<br>(i)</div></div></div>","e","TARGET","2","trustrating_stim/white_mw085.bmp,trustrating_stim/white_mw013.bmp","0,1","noMatchOutcome","i","3000","trustrating_stim/white_mw085.bmp","green","Share","REAL","0"
"html-keyboard-response","144","823780","0.0-7.0-5.21","63153455849b153d56dd81db","bdp_wmem","Tue Mar 14 2023 16:51:10 GMT-0700 (Pacific Daylight Time)","1083780","Match,No Match","","null","","","","","","<div class='trialBorder'><div class='vertical-center'><img src='img/error.jpg'></div><div class='respDiv'><div class='respDivL'><font style='color:orange'>Match<br>(e)</font></div><div class='respDivR'>No Match<br>(i)</div></div></div>","null","FEEDBACK","","","","","","","","","","",""
"html-keyboard-response","145","824284","0.0-7.0-1.22","63153455849b153d56dd81db","bdp_wmem","Tue Mar 14 2023 16:51:10 GMT-0700 (Pacific Daylight Time)","1083780","Match,No Match","","null","","","","","","<div class='trialBorder'><div class='vertical-center'><img src='img/fixation2_sml.jpg'</img></div></div>","null","FIX","","","","","","","","","","",""
"html-keyboard-response","146","828796","0.0-7.0-2.22","63153455849b153d56dd81db","bdp_wmem","Tue Mar 14 2023 16:51:10 GMT-0700 (Pacific Daylight Time)","1083780","Match,No Match","","null","","","","","","<div class='trialBorder'><div class='vertical-center'><img style='vertical-align:center; align:center' src='img/fixation2_sml.jpg'></div><div class='arrayDiv3'><div class='tl'><img class='introPic' src='trustrating_stim/white_mw078.bmp'><br><font color='red'><strong>Keep</strong></font></div><div class='tc'><img class='introPic' src='trustrating_stim/white_mw038.bmp'><br><font color='red'><strong>Keep</strong></font></div><div class='tr'><img class='introPic' src='trustrating_stim/white_mw070.bmp'><br><font color='green'><strong>Share</strong></font></div></div></div>","null","ARRAY","3","trustrating_stim/white_mw078.bmp,trustrating_stim/white_mw038.bmp,trustrating_stim/white_mw070.bmp","0,0,1","noMatchFace","i","4500","","","","",""
"html-keyboard-response","147","832804","0.0-7.0-3.22","63153455849b153d56dd81db","bdp_wmem","Tue Mar 14 2023 16:51:10 GMT-0700 (Pacific Daylight Time)","1083780","Match,No Match","","null","","","","","","<div class='trialBorder'><div class='vertical-center'><img src='img/fixation2_sml.jpg'</img></div></div>","null","DELAY","","","","","","","","","","",""
"html-keyboard-response","148","833489","0.0-7.0-4.22","63153455849b153d56dd81db","bdp_wmem","Tue Mar 14 2023 16:51:10 GMT-0700 (Pacific Daylight Time)","1083780","Match,No Match","","681","","","","","","<div class='trialBorder'><div class='targDiv'><div class='tc'><img class='introPic' src='trustrating_stim/white_mw091.bmp'><br><font color='red'><strong>Keep</strong></font></div></div><div class='respDiv'><div class='respDivL'>Match<br>(e)</div><div class='respDivR'>No Match<br>(i)</div></div></div>","e","TARGET","3","trustrating_stim/white_mw078.bmp,trustrating_stim/white_mw038.bmp,trustrating_stim/white_mw070.bmp","0,0,1","noMatchFace","i","4500","trustrating_stim/white_mw091.bmp","red","Keep","REAL","0"
"html-keyboard-response","149","833996","0.0-7.0-5.22","63153455849b153d56dd81db","bdp_wmem","Tue Mar 14 2023 16:51:10 GMT-0700 (Pacific Daylight Time)","1083780","Match,No Match","","null","","","","","","<div class='trialBorder'><div class='vertical-center'><img src='img/error.jpg'></div><div class='respDiv'><div class='respDivL'><font style='color:orange'>Match<br>(e)</font></div><div class='respDivR'>No Match<br>(i)</div></div></div>","null","FEEDBACK","","","","","","","","","","",""
"html-keyboard-response","150","834499","0.0-7.0-1.23","63153455849b153d56dd81db","bdp_wmem","Tue Mar 14 2023 16:51:10 GMT-0700 (Pacific Daylight Time)","1083780","Match,No Match","","null","","","","","","<div class='trialBorder'><div class='vertical-center'><img src='img/fixation2_sml.jpg'</img></div></div>","null","FIX","","","","","","","","","","",""
"html-keyboard-response","151","837508","0.0-7.0-2.23","63153455849b153d56dd81db","bdp_wmem","Tue Mar 14 2023 16:51:10 GMT-0700 (Pacific Daylight Time)","1083780","Match,No Match","","null","","","","","","<div class='trialBorder'><div class='vertical-center'><img style='vertical-align:center; align:center' src='img/fixation2_sml.jpg'></div><div class='arrayDiv2'><div class='tl'><img class='introPic' src='trustrating_stim/white_mw013.bmp'><br><font color='red'><strong>Keep</strong></font></div><div class='tr'><img class='introPic' src='trustrating_stim/white_mw091.bmp'><br><font color='green'><strong>Share</strong></font></div></div></div>","null","ARRAY","2","trustrating_stim/white_mw013.bmp,trustrating_stim/white_mw091.bmp","0,1","noMatchFace","i","3000","","","","",""
"html-keyboard-response","152","841516","0.0-7.0-3.23","63153455849b153d56dd81db","bdp_wmem","Tue Mar 14 2023 16:51:10 GMT-0700 (Pacific Daylight Time)","1083780","Match,No Match","","null","","","","","","<div class='trialBorder'><div class='vertical-center'><img src='img/fixation2_sml.jpg'</img></div></div>","null","DELAY","","","","","","","","","","",""
"html-keyboard-response","153","842226","0.0-7.0-4.23","63153455849b153d56dd81db","bdp_wmem","Tue Mar 14 2023 16:51:10 GMT-0700 (Pacific Daylight Time)","1083780","Match,No Match","","706","","","","","","<div class='trialBorder'><div class='targDiv'><div class='tc'><img class='introPic' src='trustrating_stim/white_mw012.bmp'><br><font color='green'><strong>Share</strong></font></div></div><div class='respDiv'><div class='respDivL'>Match<br>(e)</div><div class='respDivR'>No Match<br>(i)</div></div></div>","i","TARGET","2","trustrating_stim/white_mw013.bmp,trustrating_stim/white_mw091.bmp","0,1","noMatchFace","i","3000","trustrating_stim/white_mw012.bmp","green","Share","REAL","1"
"html-keyboard-response","154","842732","0.0-7.0-5.23","63153455849b153d56dd81db","bdp_wmem","Tue Mar 14 2023 16:51:10 GMT-0700 (Pacific Daylight Time)","1083780","Match,No Match","","null","","","","","","<div class='trialBorder'><div class='vertical-center'><img src='img/correct.jpg'></div><div class='respDiv'><div class='respDivL'>Match<br>(e)</div><div class='respDivR'><font style='color:orange'>No Match<br>(i)</font></div></div></div>","null","FEEDBACK","","","","","","","","","","",""
"html-keyboard-response","155","843236","0.0-7.0-1.24","63153455849b153d56dd81db","bdp_wmem","Tue Mar 14 2023 16:51:10 GMT-0700 (Pacific Daylight Time)","1083780","Match,No Match","","null","","","","","","<div class='trialBorder'><div class='vertical-center'><img src='img/fixation2_sml.jpg'</img></div></div>","null","FIX","","","","","","","","","","",""
"html-keyboard-response","156","847740","0.0-7.0-2.24","63153455849b153d56dd81db","bdp_wmem","Tue Mar 14 2023 16:51:10 GMT-0700 (Pacific Daylight Time)","1083780","Match,No Match","","null","","","","","","<div class='trialBorder'><div class='vertical-center'><img style='vertical-align:center; align:center' src='img/fixation2_sml.jpg'></div><div class='arrayDiv3'><div class='tl'><img class='introPic' src='trustrating_stim/white_mw040.bmp'><br><font color='red'><strong>Keep</strong></font></div><div class='tc'><img class='introPic' src='trustrating_stim/white_mw091.bmp'><br><font color='green'><strong>Share</strong></font></div><div class='tr'><img class='introPic' src='trustrating_stim/white_mw070.bmp'><br><font color='red'><strong>Keep</strong></font></div></div></div>","null","ARRAY","3","trustrating_stim/white_mw040.bmp,trustrating_stim/white_mw091.bmp,trustrating_stim/white_mw070.bmp","0,1,0","noMatchFace","i","4500","","","","",""
"html-keyboard-response","157","851749","0.0-7.0-3.24","63153455849b153d56dd81db","bdp_wmem","Tue Mar 14 2023 16:51:10 GMT-0700 (Pacific Daylight Time)","1083780","Match,No Match","","null","","","","","","<div class='trialBorder'><div class='vertical-center'><img src='img/fixation2_sml.jpg'</img></div></div>","null","DELAY","","","","","","","","","","",""
"html-keyboard-response","158","856754","0.0-7.0-4.24","63153455849b153d56dd81db","bdp_wmem","Tue Mar 14 2023 16:51:10 GMT-0700 (Pacific Daylight Time)","1083780","Match,No Match","","5000","","","","","","<div class='trialBorder'><div class='targDiv'><div class='tc'><img class='introPic' src='trustrating_stim/white_mw038.bmp'><br><font color='red'><strong>Keep</strong></font></div></div><div class='respDiv'><div class='respDivL'>Match<br>(e)</div><div class='respDivR'>No Match<br>(i)</div></div></div>","i","TARGET","3","trustrating_stim/white_mw040.bmp,trustrating_stim/white_mw091.bmp,trustrating_stim/white_mw070.bmp","0,1,0","noMatchFace","i","4500","trustrating_stim/white_mw038.bmp","red","Keep","REAL","1"
"html-keyboard-response","159","857260","0.0-7.0-5.24","63153455849b153d56dd81db","bdp_wmem","Tue Mar 14 2023 16:51:10 GMT-0700 (Pacific Daylight Time)","1083780","Match,No Match","","null","","","","","","<div class='trialBorder'><div class='vertical-center'><img src='img/correct.jpg'></div><div class='respDiv'><div class='respDivL'>Match<br>(e)</div><div class='respDivR'><font style='color:orange'>No Match<br>(i)</font></div></div></div>","null","FEEDBACK","","","","","","","","","","",""
"html-keyboard-response","160","857764","0.0-7.0-1.25","63153455849b153d56dd81db","bdp_wmem","Tue Mar 14 2023 16:51:10 GMT-0700 (Pacific Daylight Time)","1083780","Match,No Match","","null","","","","","","<div class='trialBorder'><div class='vertical-center'><img src='img/fixation2_sml.jpg'</img></div></div>","null","FIX","","","","","","","","","","",""
"html-keyboard-response","161","859268","0.0-7.0-2.25","63153455849b153d56dd81db","bdp_wmem","Tue Mar 14 2023 16:51:10 GMT-0700 (Pacific Daylight Time)","1083780","Match,No Match","","null","","","","","","<div class='trialBorder'><div class='vertical-center'><img style='vertical-align:center; align:center' src='img/fixation2_sml.jpg'></div><div class='arrayDiv1'><div class='tc'><img class='introPic' src='trustrating_stim/white_mw013.bmp'><br><font color='red'><strong>Keep</strong></font></div></div></div>","null","ARRAY","1","trustrating_stim/white_mw013.bmp","0","Match","e","1500","","","","",""
"html-keyboard-response","162","863277","0.0-7.0-3.25","63153455849b153d56dd81db","bdp_wmem","Tue Mar 14 2023 16:51:10 GMT-0700 (Pacific Daylight Time)","1083780","Match,No Match","","null","","","","","","<div class='trialBorder'><div class='vertical-center'><img src='img/fixation2_sml.jpg'</img></div></div>","null","DELAY","","","","","","","","","","",""
"html-keyboard-response","163","870244","0.0-7.0-4.25","63153455849b153d56dd81db","bdp_wmem","Tue Mar 14 2023 16:51:10 GMT-0700 (Pacific Daylight Time)","1083780","Match,No Match","","6965","","","","","","<div class='trialBorder'><div class='targDiv'><div class='tc'><img class='introPic' src='trustrating_stim/white_mw013.bmp'><br><font color='red'><strong>Keep</strong></font></div></div><div class='respDiv'><div class='respDivL'>Match<br>(e)</div><div class='respDivR'>No Match<br>(i)</div></div></div>","e","TARGET","1","trustrating_stim/white_mw013.bmp","0","Match","e","1500","trustrating_stim/white_mw013.bmp","red","Keep","REAL","1"
"html-keyboard-response","164","870748","0.0-7.0-5.25","63153455849b153d56dd81db","bdp_wmem","Tue Mar 14 2023 16:51:10 GMT-0700 (Pacific Daylight Time)","1083780","Match,No Match","","null","","","","","","<div class='trialBorder'><div class='vertical-center'><img src='img/correct.jpg'></div><div class='respDiv'><div class='respDivL'><font style='color:orange'>Match<br>(e)</font></div><div class='respDivR'>No Match<br>(i)</div></div></div>","null","FEEDBACK","","","","","","","","","","",""
"html-keyboard-response","165","871252","0.0-7.0-1.26","63153455849b153d56dd81db","bdp_wmem","Tue Mar 14 2023 16:51:10 GMT-0700 (Pacific Daylight Time)","1083780","Match,No Match","","null","","","","","","<div class='trialBorder'><div class='vertical-center'><img src='img/fixation2_sml.jpg'</img></div></div>","null","FIX","","","","","","","","","","",""
"html-keyboard-response","166","874259","0.0-7.0-2.26","63153455849b153d56dd81db","bdp_wmem","Tue Mar 14 2023 16:51:10 GMT-0700 (Pacific Daylight Time)","1083780","Match,No Match","","null","","","","","","<div class='trialBorder'><div class='vertical-center'><img style='vertical-align:center; align:center' src='img/fixation2_sml.jpg'></div><div class='arrayDiv2'><div class='tl'><img class='introPic' src='trustrating_stim/white_mw012.bmp'><br><font color='red'><strong>Keep</strong></font></div><div class='tr'><img class='introPic' src='trustrating_stim/white_mw003.bmp'><br><font color='green'><strong>Share</strong></font></div></div></div>","null","ARRAY","2","trustrating_stim/white_mw012.bmp,trustrating_stim/white_mw003.bmp","0,1","Match","e","3000","","","","",""
"html-keyboard-response","167","878267","0.0-7.0-3.26","63153455849b153d56dd81db","bdp_wmem","Tue Mar 14 2023 16:51:10 GMT-0700 (Pacific Daylight Time)","1083780","Match,No Match","","null","","","","","","<div class='trialBorder'><div class='vertical-center'><img src='img/fixation2_sml.jpg'</img></div></div>","null","DELAY","","","","","","","","","","",""
"html-keyboard-response","168","879308","0.0-7.0-4.26","63153455849b153d56dd81db","bdp_wmem","Tue Mar 14 2023 16:51:10 GMT-0700 (Pacific Daylight Time)","1083780","Match,No Match","","1038","","","","","","<div class='trialBorder'><div class='targDiv'><div class='tc'><img class='introPic' src='trustrating_stim/white_mw012.bmp'><br><font color='red'><strong>Keep</strong></font></div></div><div class='respDiv'><div class='respDivL'>Match<br>(e)</div><div class='respDivR'>No Match<br>(i)</div></div></div>","i","TARGET","2","trustrating_stim/white_mw012.bmp,trustrating_stim/white_mw003.bmp","0,1","Match","e","3000","trustrating_stim/white_mw012.bmp","red","Keep","REAL","0"
"html-keyboard-response","169","879812","0.0-7.0-5.26","63153455849b153d56dd81db","bdp_wmem","Tue Mar 14 2023 16:51:10 GMT-0700 (Pacific Daylight Time)","1083780","Match,No Match","","null","","","","","","<div class='trialBorder'><div class='vertical-center'><img src='img/error.jpg'></div><div class='respDiv'><div class='respDivL'>Match<br>(e)</div><div class='respDivR'><font style='color:orange'>No Match<br>(i)</font></div></div></div>","null","FEEDBACK","","","","","","","","","","",""
"html-keyboard-response","170","880316","0.0-7.0-1.27","63153455849b153d56dd81db","bdp_wmem","Tue Mar 14 2023 16:51:10 GMT-0700 (Pacific Daylight Time)","1083780","Match,No Match","","null","","","","","","<div class='trialBorder'><div class='vertical-center'><img src='img/fixation2_sml.jpg'</img></div></div>","null","FIX","","","","","","","","","","",""
"html-keyboard-response","171","883324","0.0-7.0-2.27","63153455849b153d56dd81db","bdp_wmem","Tue Mar 14 2023 16:51:10 GMT-0700 (Pacific Daylight Time)","1083780","Match,No Match","","null","","","","","","<div class='trialBorder'><div class='vertical-center'><img style='vertical-align:center; align:center' src='img/fixation2_sml.jpg'></div><div class='arrayDiv2'><div class='tl'><img class='introPic' src='trustrating_stim/white_mw003.bmp'><br><font color='red'><strong>Keep</strong></font></div><div class='tr'><img class='introPic' src='trustrating_stim/white_mw013.bmp'><br><font color='green'><strong>Share</strong></font></div></div></div>","null","ARRAY","2","trustrating_stim/white_mw003.bmp,trustrating_stim/white_mw013.bmp","0,1","Match","e","3000","","","","",""
"html-keyboard-response","172","887333","0.0-7.0-3.27","63153455849b153d56dd81db","bdp_wmem","Tue Mar 14 2023 16:51:10 GMT-0700 (Pacific Daylight Time)","1083780","Match,No Match","","null","","","","","","<div class='trialBorder'><div class='vertical-center'><img src='img/fixation2_sml.jpg'</img></div></div>","null","DELAY","","","","","","","","","","",""
"html-keyboard-response","173","889028","0.0-7.0-4.27","63153455849b153d56dd81db","bdp_wmem","Tue Mar 14 2023 16:51:10 GMT-0700 (Pacific Daylight Time)","1083780","Match,No Match","","1692","","","","","","<div class='trialBorder'><div class='targDiv'><div class='tc'><img class='introPic' src='trustrating_stim/white_mw013.bmp'><br><font color='green'><strong>Share</strong></font></div></div><div class='respDiv'><div class='respDivL'>Match<br>(e)</div><div class='respDivR'>No Match<br>(i)</div></div></div>","i","TARGET","2","trustrating_stim/white_mw003.bmp,trustrating_stim/white_mw013.bmp","0,1","Match","e","3000","trustrating_stim/white_mw013.bmp","green","Share","REAL","0"
"html-keyboard-response","174","889532","0.0-7.0-5.27","63153455849b153d56dd81db","bdp_wmem","Tue Mar 14 2023 16:51:10 GMT-0700 (Pacific Daylight Time)","1083780","Match,No Match","","null","","","","","","<div class='trialBorder'><div class='vertical-center'><img src='img/error.jpg'></div><div class='respDiv'><div class='respDivL'>Match<br>(e)</div><div class='respDivR'><font style='color:orange'>No Match<br>(i)</font></div></div></div>","null","FEEDBACK","","","","","","","","","","",""
"html-keyboard-response","175","890036","0.0-7.0-1.28","63153455849b153d56dd81db","bdp_wmem","Tue Mar 14 2023 16:51:10 GMT-0700 (Pacific Daylight Time)","1083780","Match,No Match","","null","","","","","","<div class='trialBorder'><div class='vertical-center'><img src='img/fixation2_sml.jpg'</img></div></div>","null","FIX","","","","","","","","","","",""
"html-keyboard-response","176","893044","0.0-7.0-2.28","63153455849b153d56dd81db","bdp_wmem","Tue Mar 14 2023 16:51:10 GMT-0700 (Pacific Daylight Time)","1083780","Match,No Match","","null","","","","","","<div class='trialBorder'><div class='vertical-center'><img style='vertical-align:center; align:center' src='img/fixation2_sml.jpg'></div><div class='arrayDiv2'><div class='tl'><img class='introPic' src='trustrating_stim/white_mw010.bmp'><br><font color='green'><strong>Share</strong></font></div><div class='tr'><img class='introPic' src='trustrating_stim/white_mw042.bmp'><br><font color='red'><strong>Keep</strong></font></div></div></div>","null","ARRAY","2","trustrating_stim/white_mw010.bmp,trustrating_stim/white_mw042.bmp","1,0","Match","e","3000","","","","",""
"html-keyboard-response","177","897052","0.0-7.0-3.28","63153455849b153d56dd81db","bdp_wmem","Tue Mar 14 2023 16:51:10 GMT-0700 (Pacific Daylight Time)","1083780","Match,No Match","","null","","","","","","<div class='trialBorder'><div class='vertical-center'><img src='img/fixation2_sml.jpg'</img></div></div>","null","DELAY","","","","","","","","","","",""
"html-keyboard-response","178","899092","0.0-7.0-4.28","63153455849b153d56dd81db","bdp_wmem","Tue Mar 14 2023 16:51:10 GMT-0700 (Pacific Daylight Time)","1083780","Match,No Match","","2037","","","","","","<div class='trialBorder'><div class='targDiv'><div class='tc'><img class='introPic' src='trustrating_stim/white_mw010.bmp'><br><font color='green'><strong>Share</strong></font></div></div><div class='respDiv'><div class='respDivL'>Match<br>(e)</div><div class='respDivR'>No Match<br>(i)</div></div></div>","i","TARGET","2","trustrating_stim/white_mw010.bmp,trustrating_stim/white_mw042.bmp","1,0","Match","e","3000","trustrating_stim/white_mw010.bmp","green","Share","REAL","0"
"html-keyboard-response","179","899595","0.0-7.0-5.28","63153455849b153d56dd81db","bdp_wmem","Tue Mar 14 2023 16:51:10 GMT-0700 (Pacific Daylight Time)","1083780","Match,No Match","","null","","","","","","<div class='trialBorder'><div class='vertical-center'><img src='img/error.jpg'></div><div class='respDiv'><div class='respDivL'>Match<br>(e)</div><div class='respDivR'><font style='color:orange'>No Match<br>(i)</font></div></div></div>","null","FEEDBACK","","","","","","","","","","",""
"html-keyboard-response","180","900100","0.0-7.0-1.29","63153455849b153d56dd81db","bdp_wmem","Tue Mar 14 2023 16:51:10 GMT-0700 (Pacific Daylight Time)","1083780","Match,No Match","","null","","","","","","<div class='trialBorder'><div class='vertical-center'><img src='img/fixation2_sml.jpg'</img></div></div>","null","FIX","","","","","","","","","","",""
"html-keyboard-response","181","904612","0.0-7.0-2.29","63153455849b153d56dd81db","bdp_wmem","Tue Mar 14 2023 16:51:10 GMT-0700 (Pacific Daylight Time)","1083780","Match,No Match","","null","","","","","","<div class='trialBorder'><div class='vertical-center'><img style='vertical-align:center; align:center' src='img/fixation2_sml.jpg'></div><div class='arrayDiv3'><div class='tl'><img class='introPic' src='trustrating_stim/white_mw003.bmp'><br><font color='green'><strong>Share</strong></font></div><div class='tc'><img class='introPic' src='trustrating_stim/white_mw092.bmp'><br><font color='red'><strong>Keep</strong></font></div><div class='tr'><img class='introPic' src='trustrating_stim/white_mw085.bmp'><br><font color='red'><strong>Keep</strong></font></div></div></div>","null","ARRAY","3","trustrating_stim/white_mw003.bmp,trustrating_stim/white_mw092.bmp,trustrating_stim/white_mw085.bmp","1,0,0","Match","e","4500","","","","",""
"html-keyboard-response","182","908621","0.0-7.0-3.29","63153455849b153d56dd81db","bdp_wmem","Tue Mar 14 2023 16:51:10 GMT-0700 (Pacific Daylight Time)","1083780","Match,No Match","","null","","","","","","<div class='trialBorder'><div class='vertical-center'><img src='img/fixation2_sml.jpg'</img></div></div>","null","DELAY","","","","","","","","","","",""
"html-keyboard-response","183","909388","0.0-7.0-4.29","63153455849b153d56dd81db","bdp_wmem","Tue Mar 14 2023 16:51:10 GMT-0700 (Pacific Daylight Time)","1083780","Match,No Match","","763","","","","","","<div class='trialBorder'><div class='targDiv'><div class='tc'><img class='introPic' src='trustrating_stim/white_mw003.bmp'><br><font color='green'><strong>Share</strong></font></div></div><div class='respDiv'><div class='respDivL'>Match<br>(e)</div><div class='respDivR'>No Match<br>(i)</div></div></div>","e","TARGET","3","trustrating_stim/white_mw003.bmp,trustrating_stim/white_mw092.bmp,trustrating_stim/white_mw085.bmp","1,0,0","Match","e","4500","trustrating_stim/white_mw003.bmp","green","Share","REAL","1"
"html-keyboard-response","184","909892","0.0-7.0-5.29","63153455849b153d56dd81db","bdp_wmem","Tue Mar 14 2023 16:51:10 GMT-0700 (Pacific Daylight Time)","1083780","Match,No Match","","null","","","","","","<div class='trialBorder'><div class='vertical-center'><img src='img/correct.jpg'></div><div class='respDiv'><div class='respDivL'><font style='color:orange'>Match<br>(e)</font></div><div class='respDivR'>No Match<br>(i)</div></div></div>","null","FEEDBACK","","","","","","","","","","",""
"html-keyboard-response","185","910396","0.0-7.0-1.30","63153455849b153d56dd81db","bdp_wmem","Tue Mar 14 2023 16:51:10 GMT-0700 (Pacific Daylight Time)","1083780","Match,No Match","","null","","","","","","<div class='trialBorder'><div class='vertical-center'><img src='img/fixation2_sml.jpg'</img></div></div>","null","FIX","","","","","","","","","","",""
"html-keyboard-response","186","911900","0.0-7.0-2.30","63153455849b153d56dd81db","bdp_wmem","Tue Mar 14 2023 16:51:10 GMT-0700 (Pacific Daylight Time)","1083780","Match,No Match","","null","","","","","","<div class='trialBorder'><div class='vertical-center'><img style='vertical-align:center; align:center' src='img/fixation2_sml.jpg'></div><div class='arrayDiv1'><div class='tc'><img class='introPic' src='trustrating_stim/white_mw040.bmp'><br><font color='red'><strong>Keep</strong></font></div></div></div>","null","ARRAY","1","trustrating_stim/white_mw040.bmp","0","noMatchOutcome","i","1500","","","","",""
