"trial_type","trial_index","time_elapsed","internal_node_id","subject_id","task","startTime","totalTime","labels","view_history","rt","event","trial","time","trialtype","success","stimulus","key_press","stimType","arraySize","arrayFaces","arrayOutcomes","matchType","corrResp","arrayDur","targFace","targCol","targOutcome","trialType","corr"
"pavlovia","0","2","0.0-0.0","60cfdcfdf8a3c6c42dad17d3","bdp_wmem","Wed Mar 15 2023 13:51:06 GMT-0600 (Central Standard Time)","578754","Match,No Match","","","","","","","","","","","","","","","","","","","","",""
"instructions","1","1605","0.0-1.0","60cfdcfdf8a3c6c42dad17d3","bdp_wmem","Wed Mar 15 2023 13:51:06 GMT-0600 (Central Standard Time)","578754","Match,No Match","[{""page_index"":0,""viewing_time"":1603}]","1603","","","","","","","","","","","","","","","","","","",""
"","","","","60cfdcfdf8a3c6c42dad17d3","bdp_wmem","Wed Mar 15 2023 13:51:06 GMT-0600 (Central Standard Time)","578754","Match,No Match","","","fullscreenenter","2","3017","fullscreenenter","","","","","","","","","","","","","","",""
"fullscreen","2","4010","0.0-2.0","60cfdcfdf8a3c6c42dad17d3","bdp_wmem","Wed Mar 15 2023 13:51:06 GMT-0600 (Central Standard Time)","578754","Match,No Match","","","","","","","true","","","","","","","","","","","","","",""
"instructions","3","71460","0.0-4.0","60cfdcfdf8a3c6c42dad17d3","bdp_wmem","Wed Mar 15 2023 13:51:06 GMT-0600 (Central Standard Time)","578754","Match,No Match","[{""page_index"":0,""viewing_time"":16536},{""page_index"":1,""viewing_time"":28884},{""page_index"":2,""viewing_time"":9770},{""page_index"":3,""viewing_time"":7042},{""page_index"":4,""viewing_time"":5216}]","67448","","","","","","","","","","","","","","","","","","",""
"html-keyboard-response","4","71963","0.0-5.0-1.0","60cfdcfdf8a3c6c42dad17d3","bdp_wmem","Wed Mar 15 2023 13:51:06 GMT-0600 (Central Standard Time)","578754","Match,No Match","","null","","","","","","<div class='trialBorder'><div class='vertical-center'><img src='img/fixation2_sml.jpg'</img></div></div>","null","FIX","","","","","","","","","","",""
"html-keyboard-response","5","76466","0.0-5.0-2.0","60cfdcfdf8a3c6c42dad17d3","bdp_wmem","Wed Mar 15 2023 13:51:06 GMT-0600 (Central Standard Time)","578754","Match,No Match","","null","","","","","","<div class='trialBorder'><div class='vertical-center'><img style='vertical-align:center; align:center' src='img/fixation2_sml.jpg'></div><div class='arrayDiv3'><div class='tl'><img class='introPic' src='trustrating_stim/white_mw092.bmp'><br><font color='red'><strong>Keep</strong></font></div><div class='tc'><img class='introPic' src='trustrating_stim/white_mw042.bmp'><br><font color='green'><strong>Share</strong></font></div><div class='tr'><img class='introPic' src='trustrating_stim/white_mw091.bmp'><br><font color='green'><strong>Share</strong></font></div></div></div>","null","ARRAY","3","trustrating_stim/white_mw092.bmp,trustrating_stim/white_mw042.bmp,trustrating_stim/white_mw091.bmp","0,1,1","Match","e","4500","","","","",""
"html-keyboard-response","6","80467","0.0-5.0-3.0","60cfdcfdf8a3c6c42dad17d3","bdp_wmem","Wed Mar 15 2023 13:51:06 GMT-0600 (Central Standard Time)","578754","Match,No Match","","null","","","","","","<div class='trialBorder'><div class='vertical-center'><img src='img/fixation2_sml.jpg'</img></div></div>","null","DELAY","","","","","","","","","","",""
"html-keyboard-response","7","81900","0.0-5.0-4.0","60cfdcfdf8a3c6c42dad17d3","bdp_wmem","Wed Mar 15 2023 13:51:06 GMT-0600 (Central Standard Time)","578754","Match,No Match","","1432","","","","","","<div class='trialBorder'><div class='targDiv'><div class='tc'><img class='introPic' src='trustrating_stim/white_mw091.bmp'><br><font color='green'><strong>Share</strong></font></div></div><div class='respDiv'><div class='respDivL'>Match<br>(e)</div><div class='respDivR'>No Match<br>(i)</div></div></div>","e","TARGET","3","trustrating_stim/white_mw092.bmp,trustrating_stim/white_mw042.bmp,trustrating_stim/white_mw091.bmp","0,1,1","Match","e","4500","trustrating_stim/white_mw091.bmp","green","Share","PRACTICE","1"
"html-keyboard-response","8","82401","0.0-5.0-5.0","60cfdcfdf8a3c6c42dad17d3","bdp_wmem","Wed Mar 15 2023 13:51:06 GMT-0600 (Central Standard Time)","578754","Match,No Match","","null","","","","","","<div class='trialBorder'><div class='vertical-center'><img src='img/correct.jpg'></div><div class='respDiv'><div class='respDivL'><font style='color:orange'>Match<br>(e)</font></div><div class='respDivR'>No Match<br>(i)</div></div></div>","null","FEEDBACK","","","","","","","","","","",""
"html-keyboard-response","9","82903","0.0-5.0-1.1","60cfdcfdf8a3c6c42dad17d3","bdp_wmem","Wed Mar 15 2023 13:51:06 GMT-0600 (Central Standard Time)","578754","Match,No Match","","null","","","","","","<div class='trialBorder'><div class='vertical-center'><img src='img/fixation2_sml.jpg'</img></div></div>","null","FIX","","","","","","","","","","",""
"html-keyboard-response","10","84404","0.0-5.0-2.1","60cfdcfdf8a3c6c42dad17d3","bdp_wmem","Wed Mar 15 2023 13:51:06 GMT-0600 (Central Standard Time)","578754","Match,No Match","","null","","","","","","<div class='trialBorder'><div class='vertical-center'><img style='vertical-align:center; align:center' src='img/fixation2_sml.jpg'></div><div class='arrayDiv1'><div class='tc'><img class='introPic' src='trustrating_stim/white_mw003.bmp'><br><font color='green'><strong>Share</strong></font></div></div></div>","null","ARRAY","1","trustrating_stim/white_mw003.bmp","1","noMatchFace","i","1500","","","","",""
"html-keyboard-response","11","88405","0.0-5.0-3.1","60cfdcfdf8a3c6c42dad17d3","bdp_wmem","Wed Mar 15 2023 13:51:06 GMT-0600 (Central Standard Time)","578754","Match,No Match","","null","","","","","","<div class='trialBorder'><div class='vertical-center'><img src='img/fixation2_sml.jpg'</img></div></div>","null","DELAY","","","","","","","","","","",""
"html-keyboard-response","12","89460","0.0-5.0-4.1","60cfdcfdf8a3c6c42dad17d3","bdp_wmem","Wed Mar 15 2023 13:51:06 GMT-0600 (Central Standard Time)","578754","Match,No Match","","1054","","","","","","<div class='trialBorder'><div class='targDiv'><div class='tc'><img class='introPic' src='trustrating_stim/white_mw038.bmp'><br><font color='green'><strong>Share</strong></font></div></div><div class='respDiv'><div class='respDivL'>Match<br>(e)</div><div class='respDivR'>No Match<br>(i)</div></div></div>","i","TARGET","1","trustrating_stim/white_mw003.bmp","1","noMatchFace","i","1500","trustrating_stim/white_mw038.bmp","green","Share","PRACTICE","1"
"html-keyboard-response","13","89961","0.0-5.0-5.1","60cfdcfdf8a3c6c42dad17d3","bdp_wmem","Wed Mar 15 2023 13:51:06 GMT-0600 (Central Standard Time)","578754","Match,No Match","","null","","","","","","<div class='trialBorder'><div class='vertical-center'><img src='img/correct.jpg'></div><div class='respDiv'><div class='respDivL'>Match<br>(e)</div><div class='respDivR'><font style='color:orange'>No Match<br>(i)</font></div></div></div>","null","FEEDBACK","","","","","","","","","","",""
"html-keyboard-response","14","90462","0.0-5.0-1.2","60cfdcfdf8a3c6c42dad17d3","bdp_wmem","Wed Mar 15 2023 13:51:06 GMT-0600 (Central Standard Time)","578754","Match,No Match","","null","","","","","","<div class='trialBorder'><div class='vertical-center'><img src='img/fixation2_sml.jpg'</img></div></div>","null","FIX","","","","","","","","","","",""
"html-keyboard-response","15","94964","0.0-5.0-2.2","60cfdcfdf8a3c6c42dad17d3","bdp_wmem","Wed Mar 15 2023 13:51:06 GMT-0600 (Central Standard Time)","578754","Match,No Match","","null","","","","","","<div class='trialBorder'><div class='vertical-center'><img style='vertical-align:center; align:center' src='img/fixation2_sml.jpg'></div><div class='arrayDiv3'><div class='tl'><img class='introPic' src='trustrating_stim/white_mw085.bmp'><br><font color='green'><strong>Share</strong></font></div><div class='tc'><img class='introPic' src='trustrating_stim/white_mw010.bmp'><br><font color='green'><strong>Share</strong></font></div><div class='tr'><img class='introPic' src='trustrating_stim/white_mw091.bmp'><br><font color='red'><strong>Keep</strong></font></div></div></div>","null","ARRAY","3","trustrating_stim/white_mw085.bmp,trustrating_stim/white_mw010.bmp,trustrating_stim/white_mw091.bmp","1,1,0","noMatchOutcome","i","4500","","","","",""
"html-keyboard-response","16","98966","0.0-5.0-3.2","60cfdcfdf8a3c6c42dad17d3","bdp_wmem","Wed Mar 15 2023 13:51:06 GMT-0600 (Central Standard Time)","578754","Match,No Match","","null","","","","","","<div class='trialBorder'><div class='vertical-center'><img src='img/fixation2_sml.jpg'</img></div></div>","null","DELAY","","","","","","","","","","",""
"html-keyboard-response","17","99981","0.0-5.0-4.2","60cfdcfdf8a3c6c42dad17d3","bdp_wmem","Wed Mar 15 2023 13:51:06 GMT-0600 (Central Standard Time)","578754","Match,No Match","","1013","","","","","","<div class='trialBorder'><div class='targDiv'><div class='tc'><img class='introPic' src='trustrating_stim/white_mw085.bmp'><br><font color='red'><strong>Keep</strong></font></div></div><div class='respDiv'><div class='respDivL'>Match<br>(e)</div><div class='respDivR'>No Match<br>(i)</div></div></div>","e","TARGET","3","trustrating_stim/white_mw085.bmp,trustrating_stim/white_mw010.bmp,trustrating_stim/white_mw091.bmp","1,1,0","noMatchOutcome","i","4500","trustrating_stim/white_mw085.bmp","red","Keep","PRACTICE","0"
"html-keyboard-response","18","100482","0.0-5.0-5.2","60cfdcfdf8a3c6c42dad17d3","bdp_wmem","Wed Mar 15 2023 13:51:06 GMT-0600 (Central Standard Time)","578754","Match,No Match","","null","","","","","","<div class='trialBorder'><div class='vertical-center'><img src='img/error.jpg'></div><div class='respDiv'><div class='respDivL'><font style='color:orange'>Match<br>(e)</font></div><div class='respDivR'>No Match<br>(i)</div></div></div>","null","FEEDBACK","","","","","","","","","","",""
"html-keyboard-response","19","100984","0.0-5.0-1.3","60cfdcfdf8a3c6c42dad17d3","bdp_wmem","Wed Mar 15 2023 13:51:06 GMT-0600 (Central Standard Time)","578754","Match,No Match","","null","","","","","","<div class='trialBorder'><div class='vertical-center'><img src='img/fixation2_sml.jpg'</img></div></div>","null","FIX","","","","","","","","","","",""
"html-keyboard-response","20","103986","0.0-5.0-2.3","60cfdcfdf8a3c6c42dad17d3","bdp_wmem","Wed Mar 15 2023 13:51:06 GMT-0600 (Central Standard Time)","578754","Match,No Match","","null","","","","","","<div class='trialBorder'><div class='vertical-center'><img style='vertical-align:center; align:center' src='img/fixation2_sml.jpg'></div><div class='arrayDiv2'><div class='tl'><img class='introPic' src='trustrating_stim/white_mw013.bmp'><br><font color='green'><strong>Share</strong></font></div><div class='tr'><img class='introPic' src='trustrating_stim/white_mw091.bmp'><br><font color='red'><strong>Keep</strong></font></div></div></div>","null","ARRAY","2","trustrating_stim/white_mw013.bmp,trustrating_stim/white_mw091.bmp","1,0","Match","e","3000","","","","",""
"html-keyboard-response","21","107987","0.0-5.0-3.3","60cfdcfdf8a3c6c42dad17d3","bdp_wmem","Wed Mar 15 2023 13:51:06 GMT-0600 (Central Standard Time)","578754","Match,No Match","","null","","","","","","<div class='trialBorder'><div class='vertical-center'><img src='img/fixation2_sml.jpg'</img></div></div>","null","DELAY","","","","","","","","","","",""
"html-keyboard-response","22","109152","0.0-5.0-4.3","60cfdcfdf8a3c6c42dad17d3","bdp_wmem","Wed Mar 15 2023 13:51:06 GMT-0600 (Central Standard Time)","578754","Match,No Match","","1163","","","","","","<div class='trialBorder'><div class='targDiv'><div class='tc'><img class='introPic' src='trustrating_stim/white_mw091.bmp'><br><font color='red'><strong>Keep</strong></font></div></div><div class='respDiv'><div class='respDivL'>Match<br>(e)</div><div class='respDivR'>No Match<br>(i)</div></div></div>","e","TARGET","2","trustrating_stim/white_mw013.bmp,trustrating_stim/white_mw091.bmp","1,0","Match","e","3000","trustrating_stim/white_mw091.bmp","red","Keep","PRACTICE","1"
"html-keyboard-response","23","109653","0.0-5.0-5.3","60cfdcfdf8a3c6c42dad17d3","bdp_wmem","Wed Mar 15 2023 13:51:06 GMT-0600 (Central Standard Time)","578754","Match,No Match","","null","","","","","","<div class='trialBorder'><div class='vertical-center'><img src='img/correct.jpg'></div><div class='respDiv'><div class='respDivL'><font style='color:orange'>Match<br>(e)</font></div><div class='respDivR'>No Match<br>(i)</div></div></div>","null","FEEDBACK","","","","","","","","","","",""
"html-keyboard-response","24","110155","0.0-5.0-1.4","60cfdcfdf8a3c6c42dad17d3","bdp_wmem","Wed Mar 15 2023 13:51:06 GMT-0600 (Central Standard Time)","578754","Match,No Match","","null","","","","","","<div class='trialBorder'><div class='vertical-center'><img src='img/fixation2_sml.jpg'</img></div></div>","null","FIX","","","","","","","","","","",""
"html-keyboard-response","25","113157","0.0-5.0-2.4","60cfdcfdf8a3c6c42dad17d3","bdp_wmem","Wed Mar 15 2023 13:51:06 GMT-0600 (Central Standard Time)","578754","Match,No Match","","null","","","","","","<div class='trialBorder'><div class='vertical-center'><img style='vertical-align:center; align:center' src='img/fixation2_sml.jpg'></div><div class='arrayDiv2'><div class='tl'><img class='introPic' src='trustrating_stim/white_mw078.bmp'><br><font color='red'><strong>Keep</strong></font></div><div class='tr'><img class='introPic' src='trustrating_stim/white_mw085.bmp'><br><font color='green'><strong>Share</strong></font></div></div></div>","null","ARRAY","2","trustrating_stim/white_mw078.bmp,trustrating_stim/white_mw085.bmp","0,1","noMatchOutcome","i","3000","","","","",""
"html-keyboard-response","26","117158","0.0-5.0-3.4","60cfdcfdf8a3c6c42dad17d3","bdp_wmem","Wed Mar 15 2023 13:51:06 GMT-0600 (Central Standard Time)","578754","Match,No Match","","null","","","","","","<div class='trialBorder'><div class='vertical-center'><img src='img/fixation2_sml.jpg'</img></div></div>","null","DELAY","","","","","","","","","","",""
"html-keyboard-response","27","118284","0.0-5.0-4.4","60cfdcfdf8a3c6c42dad17d3","bdp_wmem","Wed Mar 15 2023 13:51:06 GMT-0600 (Central Standard Time)","578754","Match,No Match","","1125","","","","","","<div class='trialBorder'><div class='targDiv'><div class='tc'><img class='introPic' src='trustrating_stim/white_mw085.bmp'><br><font color='red'><strong>Keep</strong></font></div></div><div class='respDiv'><div class='respDivL'>Match<br>(e)</div><div class='respDivR'>No Match<br>(i)</div></div></div>","i","TARGET","2","trustrating_stim/white_mw078.bmp,trustrating_stim/white_mw085.bmp","0,1","noMatchOutcome","i","3000","trustrating_stim/white_mw085.bmp","red","Keep","PRACTICE","1"
"html-keyboard-response","28","118785","0.0-5.0-5.4","60cfdcfdf8a3c6c42dad17d3","bdp_wmem","Wed Mar 15 2023 13:51:06 GMT-0600 (Central Standard Time)","578754","Match,No Match","","null","","","","","","<div class='trialBorder'><div class='vertical-center'><img src='img/correct.jpg'></div><div class='respDiv'><div class='respDivL'>Match<br>(e)</div><div class='respDivR'><font style='color:orange'>No Match<br>(i)</font></div></div></div>","null","FEEDBACK","","","","","","","","","","",""
"html-keyboard-response","29","119287","0.0-5.0-1.5","60cfdcfdf8a3c6c42dad17d3","bdp_wmem","Wed Mar 15 2023 13:51:06 GMT-0600 (Central Standard Time)","578754","Match,No Match","","null","","","","","","<div class='trialBorder'><div class='vertical-center'><img src='img/fixation2_sml.jpg'</img></div></div>","null","FIX","","","","","","","","","","",""
"html-keyboard-response","30","120788","0.0-5.0-2.5","60cfdcfdf8a3c6c42dad17d3","bdp_wmem","Wed Mar 15 2023 13:51:06 GMT-0600 (Central Standard Time)","578754","Match,No Match","","null","","","","","","<div class='trialBorder'><div class='vertical-center'><img style='vertical-align:center; align:center' src='img/fixation2_sml.jpg'></div><div class='arrayDiv1'><div class='tc'><img class='introPic' src='trustrating_stim/white_mw085.bmp'><br><font color='green'><strong>Share</strong></font></div></div></div>","null","ARRAY","1","trustrating_stim/white_mw085.bmp","1","Match","e","1500","","","","",""
"html-keyboard-response","31","124790","0.0-5.0-3.5","60cfdcfdf8a3c6c42dad17d3","bdp_wmem","Wed Mar 15 2023 13:51:06 GMT-0600 (Central Standard Time)","578754","Match,No Match","","null","","","","","","<div class='trialBorder'><div class='vertical-center'><img src='img/fixation2_sml.jpg'</img></div></div>","null","DELAY","","","","","","","","","","",""
"html-keyboard-response","32","125598","0.0-5.0-4.5","60cfdcfdf8a3c6c42dad17d3","bdp_wmem","Wed Mar 15 2023 13:51:06 GMT-0600 (Central Standard Time)","578754","Match,No Match","","807","","","","","","<div class='trialBorder'><div class='targDiv'><div class='tc'><img class='introPic' src='trustrating_stim/white_mw085.bmp'><br><font color='green'><strong>Share</strong></font></div></div><div class='respDiv'><div class='respDivL'>Match<br>(e)</div><div class='respDivR'>No Match<br>(i)</div></div></div>","i","TARGET","1","trustrating_stim/white_mw085.bmp","1","Match","e","1500","trustrating_stim/white_mw085.bmp","green","Share","PRACTICE","0"
"html-keyboard-response","33","126100","0.0-5.0-5.5","60cfdcfdf8a3c6c42dad17d3","bdp_wmem","Wed Mar 15 2023 13:51:06 GMT-0600 (Central Standard Time)","578754","Match,No Match","","null","","","","","","<div class='trialBorder'><div class='vertical-center'><img src='img/error.jpg'></div><div class='respDiv'><div class='respDivL'>Match<br>(e)</div><div class='respDivR'><font style='color:orange'>No Match<br>(i)</font></div></div></div>","null","FEEDBACK","","","","","","","","","","",""
"instructions","34","128999","0.0-6.0","60cfdcfdf8a3c6c42dad17d3","bdp_wmem","Wed Mar 15 2023 13:51:06 GMT-0600 (Central Standard Time)","578754","Match,No Match","[{""page_index"":0,""viewing_time"":2898}]","2898","","","","","","","","","","","","","","","","","","",""
"html-keyboard-response","35","129501","0.0-7.0-1.0","60cfdcfdf8a3c6c42dad17d3","bdp_wmem","Wed Mar 15 2023 13:51:06 GMT-0600 (Central Standard Time)","578754","Match,No Match","","null","","","","","","<div class='trialBorder'><div class='vertical-center'><img src='img/fixation2_sml.jpg'</img></div></div>","null","FIX","","","","","","","","","","",""
"html-keyboard-response","36","134003","0.0-7.0-2.0","60cfdcfdf8a3c6c42dad17d3","bdp_wmem","Wed Mar 15 2023 13:51:06 GMT-0600 (Central Standard Time)","578754","Match,No Match","","null","","","","","","<div class='trialBorder'><div class='vertical-center'><img style='vertical-align:center; align:center' src='img/fixation2_sml.jpg'></div><div class='arrayDiv3'><div class='tl'><img class='introPic' src='trustrating_stim/white_mw085.bmp'><br><font color='red'><strong>Keep</strong></font></div><div class='tc'><img class='introPic' src='trustrating_stim/white_mw040.bmp'><br><font color='red'><strong>Keep</strong></font></div><div class='tr'><img class='introPic' src='trustrating_stim/white_mw091.bmp'><br><font color='green'><strong>Share</strong></font></div></div></div>","null","ARRAY","3","trustrating_stim/white_mw085.bmp,trustrating_stim/white_mw040.bmp,trustrating_stim/white_mw091.bmp","0,0,1","Match","e","4500","","","","",""
"html-keyboard-response","37","138004","0.0-7.0-3.0","60cfdcfdf8a3c6c42dad17d3","bdp_wmem","Wed Mar 15 2023 13:51:06 GMT-0600 (Central Standard Time)","578754","Match,No Match","","null","","","","","","<div class='trialBorder'><div class='vertical-center'><img src='img/fixation2_sml.jpg'</img></div></div>","null","DELAY","","","","","","","","","","",""
"html-keyboard-response","38","138946","0.0-7.0-4.0","60cfdcfdf8a3c6c42dad17d3","bdp_wmem","Wed Mar 15 2023 13:51:06 GMT-0600 (Central Standard Time)","578754","Match,No Match","","940","","","","","","<div class='trialBorder'><div class='targDiv'><div class='tc'><img class='introPic' src='trustrating_stim/white_mw040.bmp'><br><font color='red'><strong>Keep</strong></font></div></div><div class='respDiv'><div class='respDivL'>Match<br>(e)</div><div class='respDivR'>No Match<br>(i)</div></div></div>","e","TARGET","3","trustrating_stim/white_mw085.bmp,trustrating_stim/white_mw040.bmp,trustrating_stim/white_mw091.bmp","0,0,1","Match","e","4500","trustrating_stim/white_mw040.bmp","red","Keep","REAL","1"
"html-keyboard-response","39","139448","0.0-7.0-5.0","60cfdcfdf8a3c6c42dad17d3","bdp_wmem","Wed Mar 15 2023 13:51:06 GMT-0600 (Central Standard Time)","578754","Match,No Match","","null","","","","","","<div class='trialBorder'><div class='vertical-center'><img src='img/correct.jpg'></div><div class='respDiv'><div class='respDivL'><font style='color:orange'>Match<br>(e)</font></div><div class='respDivR'>No Match<br>(i)</div></div></div>","null","FEEDBACK","","","","","","","","","","",""
"html-keyboard-response","40","139949","0.0-7.0-1.1","60cfdcfdf8a3c6c42dad17d3","bdp_wmem","Wed Mar 15 2023 13:51:06 GMT-0600 (Central Standard Time)","578754","Match,No Match","","null","","","","","","<div class='trialBorder'><div class='vertical-center'><img src='img/fixation2_sml.jpg'</img></div></div>","null","FIX","","","","","","","","","","",""
"html-keyboard-response","41","142951","0.0-7.0-2.1","60cfdcfdf8a3c6c42dad17d3","bdp_wmem","Wed Mar 15 2023 13:51:06 GMT-0600 (Central Standard Time)","578754","Match,No Match","","null","","","","","","<div class='trialBorder'><div class='vertical-center'><img style='vertical-align:center; align:center' src='img/fixation2_sml.jpg'></div><div class='arrayDiv2'><div class='tl'><img class='introPic' src='trustrating_stim/white_mw040.bmp'><br><font color='green'><strong>Share</strong></font></div><div class='tr'><img class='introPic' src='trustrating_stim/white_mw003.bmp'><br><font color='red'><strong>Keep</strong></font></div></div></div>","null","ARRAY","2","trustrating_stim/white_mw040.bmp,trustrating_stim/white_mw003.bmp","1,0","Match","e","3000","","","","",""
"html-keyboard-response","42","146952","0.0-7.0-3.1","60cfdcfdf8a3c6c42dad17d3","bdp_wmem","Wed Mar 15 2023 13:51:06 GMT-0600 (Central Standard Time)","578754","Match,No Match","","null","","","","","","<div class='trialBorder'><div class='vertical-center'><img src='img/fixation2_sml.jpg'</img></div></div>","null","DELAY","","","","","","","","","","",""
"html-keyboard-response","43","147870","0.0-7.0-4.1","60cfdcfdf8a3c6c42dad17d3","bdp_wmem","Wed Mar 15 2023 13:51:06 GMT-0600 (Central Standard Time)","578754","Match,No Match","","916","","","","","","<div class='trialBorder'><div class='targDiv'><div class='tc'><img class='introPic' src='trustrating_stim/white_mw003.bmp'><br><font color='red'><strong>Keep</strong></font></div></div><div class='respDiv'><div class='respDivL'>Match<br>(e)</div><div class='respDivR'>No Match<br>(i)</div></div></div>","e","TARGET","2","trustrating_stim/white_mw040.bmp,trustrating_stim/white_mw003.bmp","1,0","Match","e","3000","trustrating_stim/white_mw003.bmp","red","Keep","REAL","1"
"html-keyboard-response","44","148372","0.0-7.0-5.1","60cfdcfdf8a3c6c42dad17d3","bdp_wmem","Wed Mar 15 2023 13:51:06 GMT-0600 (Central Standard Time)","578754","Match,No Match","","null","","","","","","<div class='trialBorder'><div class='vertical-center'><img src='img/correct.jpg'></div><div class='respDiv'><div class='respDivL'><font style='color:orange'>Match<br>(e)</font></div><div class='respDivR'>No Match<br>(i)</div></div></div>","null","FEEDBACK","","","","","","","","","","",""
"html-keyboard-response","45","148873","0.0-7.0-1.2","60cfdcfdf8a3c6c42dad17d3","bdp_wmem","Wed Mar 15 2023 13:51:06 GMT-0600 (Central Standard Time)","578754","Match,No Match","","null","","","","","","<div class='trialBorder'><div class='vertical-center'><img src='img/fixation2_sml.jpg'</img></div></div>","null","FIX","","","","","","","","","","",""
"html-keyboard-response","46","153374","0.0-7.0-2.2","60cfdcfdf8a3c6c42dad17d3","bdp_wmem","Wed Mar 15 2023 13:51:06 GMT-0600 (Central Standard Time)","578754","Match,No Match","","null","","","","","","<div class='trialBorder'><div class='vertical-center'><img style='vertical-align:center; align:center' src='img/fixation2_sml.jpg'></div><div class='arrayDiv3'><div class='tl'><img class='introPic' src='trustrating_stim/white_mw010.bmp'><br><font color='green'><strong>Share</strong></font></div><div class='tc'><img class='introPic' src='trustrating_stim/white_mw042.bmp'><br><font color='green'><strong>Share</strong></font></div><div class='tr'><img class='introPic' src='trustrating_stim/white_mw078.bmp'><br><font color='red'><strong>Keep</strong></font></div></div></div>","null","ARRAY","3","trustrating_stim/white_mw010.bmp,trustrating_stim/white_mw042.bmp,trustrating_stim/white_mw078.bmp","1,1,0","noMatchFace","i","4500","","","","",""
"html-keyboard-response","47","157376","0.0-7.0-3.2","60cfdcfdf8a3c6c42dad17d3","bdp_wmem","Wed Mar 15 2023 13:51:06 GMT-0600 (Central Standard Time)","578754","Match,No Match","","null","","","","","","<div class='trialBorder'><div class='vertical-center'><img src='img/fixation2_sml.jpg'</img></div></div>","null","DELAY","","","","","","","","","","",""
"html-keyboard-response","48","158798","0.0-7.0-4.2","60cfdcfdf8a3c6c42dad17d3","bdp_wmem","Wed Mar 15 2023 13:51:06 GMT-0600 (Central Standard Time)","578754","Match,No Match","","1421","","","","","","<div class='trialBorder'><div class='targDiv'><div class='tc'><img class='introPic' src='trustrating_stim/white_mw013.bmp'><br><font color='red'><strong>Keep</strong></font></div></div><div class='respDiv'><div class='respDivL'>Match<br>(e)</div><div class='respDivR'>No Match<br>(i)</div></div></div>","i","TARGET","3","trustrating_stim/white_mw010.bmp,trustrating_stim/white_mw042.bmp,trustrating_stim/white_mw078.bmp","1,1,0","noMatchFace","i","4500","trustrating_stim/white_mw013.bmp","red","Keep","REAL","1"
"html-keyboard-response","49","159299","0.0-7.0-5.2","60cfdcfdf8a3c6c42dad17d3","bdp_wmem","Wed Mar 15 2023 13:51:06 GMT-0600 (Central Standard Time)","578754","Match,No Match","","null","","","","","","<div class='trialBorder'><div class='vertical-center'><img src='img/correct.jpg'></div><div class='respDiv'><div class='respDivL'>Match<br>(e)</div><div class='respDivR'><font style='color:orange'>No Match<br>(i)</font></div></div></div>","null","FEEDBACK","","","","","","","","","","",""
"html-keyboard-response","50","159800","0.0-7.0-1.3","60cfdcfdf8a3c6c42dad17d3","bdp_wmem","Wed Mar 15 2023 13:51:06 GMT-0600 (Central Standard Time)","578754","Match,No Match","","null","","","","","","<div class='trialBorder'><div class='vertical-center'><img src='img/fixation2_sml.jpg'</img></div></div>","null","FIX","","","","","","","","","","",""
"html-keyboard-response","51","161302","0.0-7.0-2.3","60cfdcfdf8a3c6c42dad17d3","bdp_wmem","Wed Mar 15 2023 13:51:06 GMT-0600 (Central Standard Time)","578754","Match,No Match","","null","","","","","","<div class='trialBorder'><div class='vertical-center'><img style='vertical-align:center; align:center' src='img/fixation2_sml.jpg'></div><div class='arrayDiv1'><div class='tc'><img class='introPic' src='trustrating_stim/white_mw042.bmp'><br><font color='green'><strong>Share</strong></font></div></div></div>","null","ARRAY","1","trustrating_stim/white_mw042.bmp","1","Match","e","1500","","","","",""
"html-keyboard-response","52","165303","0.0-7.0-3.3","60cfdcfdf8a3c6c42dad17d3","bdp_wmem","Wed Mar 15 2023 13:51:06 GMT-0600 (Central Standard Time)","578754","Match,No Match","","null","","","","","","<div class='trialBorder'><div class='vertical-center'><img src='img/fixation2_sml.jpg'</img></div></div>","null","DELAY","","","","","","","","","","",""
"html-keyboard-response","53","166085","0.0-7.0-4.3","60cfdcfdf8a3c6c42dad17d3","bdp_wmem","Wed Mar 15 2023 13:51:06 GMT-0600 (Central Standard Time)","578754","Match,No Match","","782","","","","","","<div class='trialBorder'><div class='targDiv'><div class='tc'><img class='introPic' src='trustrating_stim/white_mw042.bmp'><br><font color='green'><strong>Share</strong></font></div></div><div class='respDiv'><div class='respDivL'>Match<br>(e)</div><div class='respDivR'>No Match<br>(i)</div></div></div>","e","TARGET","1","trustrating_stim/white_mw042.bmp","1","Match","e","1500","trustrating_stim/white_mw042.bmp","green","Share","REAL","1"
"html-keyboard-response","54","166588","0.0-7.0-5.3","60cfdcfdf8a3c6c42dad17d3","bdp_wmem","Wed Mar 15 2023 13:51:06 GMT-0600 (Central Standard Time)","578754","Match,No Match","","null","","","","","","<div class='trialBorder'><div class='vertical-center'><img src='img/correct.jpg'></div><div class='respDiv'><div class='respDivL'><font style='color:orange'>Match<br>(e)</font></div><div class='respDivR'>No Match<br>(i)</div></div></div>","null","FEEDBACK","","","","","","","","","","",""
"html-keyboard-response","55","167090","0.0-7.0-1.4","60cfdcfdf8a3c6c42dad17d3","bdp_wmem","Wed Mar 15 2023 13:51:06 GMT-0600 (Central Standard Time)","578754","Match,No Match","","null","","","","","","<div class='trialBorder'><div class='vertical-center'><img src='img/fixation2_sml.jpg'</img></div></div>","null","FIX","","","","","","","","","","",""
"html-keyboard-response","56","171592","0.0-7.0-2.4","60cfdcfdf8a3c6c42dad17d3","bdp_wmem","Wed Mar 15 2023 13:51:06 GMT-0600 (Central Standard Time)","578754","Match,No Match","","null","","","","","","<div class='trialBorder'><div class='vertical-center'><img style='vertical-align:center; align:center' src='img/fixation2_sml.jpg'></div><div class='arrayDiv3'><div class='tl'><img class='introPic' src='trustrating_stim/white_mw085.bmp'><br><font color='red'><strong>Keep</strong></font></div><div class='tc'><img class='introPic' src='trustrating_stim/white_mw012.bmp'><br><font color='red'><strong>Keep</strong></font></div><div class='tr'><img class='introPic' src='trustrating_stim/white_mw013.bmp'><br><font color='green'><strong>Share</strong></font></div></div></div>","null","ARRAY","3","trustrating_stim/white_mw085.bmp,trustrating_stim/white_mw012.bmp,trustrating_stim/white_mw013.bmp","0,0,1","Match","e","4500","","","","",""
"html-keyboard-response","57","175594","0.0-7.0-3.4","60cfdcfdf8a3c6c42dad17d3","bdp_wmem","Wed Mar 15 2023 13:51:06 GMT-0600 (Central Standard Time)","578754","Match,No Match","","null","","","","","","<div class='trialBorder'><div class='vertical-center'><img src='img/fixation2_sml.jpg'</img></div></div>","null","DELAY","","","","","","","","","","",""
"html-keyboard-response","58","176981","0.0-7.0-4.4","60cfdcfdf8a3c6c42dad17d3","bdp_wmem","Wed Mar 15 2023 13:51:06 GMT-0600 (Central Standard Time)","578754","Match,No Match","","1386","","","","","","<div class='trialBorder'><div class='targDiv'><div class='tc'><img class='introPic' src='trustrating_stim/white_mw012.bmp'><br><font color='red'><strong>Keep</strong></font></div></div><div class='respDiv'><div class='respDivL'>Match<br>(e)</div><div class='respDivR'>No Match<br>(i)</div></div></div>","e","TARGET","3","trustrating_stim/white_mw085.bmp,trustrating_stim/white_mw012.bmp,trustrating_stim/white_mw013.bmp","0,0,1","Match","e","4500","trustrating_stim/white_mw012.bmp","red","Keep","REAL","1"
"html-keyboard-response","59","177483","0.0-7.0-5.4","60cfdcfdf8a3c6c42dad17d3","bdp_wmem","Wed Mar 15 2023 13:51:06 GMT-0600 (Central Standard Time)","578754","Match,No Match","","null","","","","","","<div class='trialBorder'><div class='vertical-center'><img src='img/correct.jpg'></div><div class='respDiv'><div class='respDivL'><font style='color:orange'>Match<br>(e)</font></div><div class='respDivR'>No Match<br>(i)</div></div></div>","null","FEEDBACK","","","","","","","","","","",""
"html-keyboard-response","60","177984","0.0-7.0-1.5","60cfdcfdf8a3c6c42dad17d3","bdp_wmem","Wed Mar 15 2023 13:51:06 GMT-0600 (Central Standard Time)","578754","Match,No Match","","null","","","","","","<div class='trialBorder'><div class='vertical-center'><img src='img/fixation2_sml.jpg'</img></div></div>","null","FIX","","","","","","","","","","",""
"html-keyboard-response","61","179486","0.0-7.0-2.5","60cfdcfdf8a3c6c42dad17d3","bdp_wmem","Wed Mar 15 2023 13:51:06 GMT-0600 (Central Standard Time)","578754","Match,No Match","","null","","","","","","<div class='trialBorder'><div class='vertical-center'><img style='vertical-align:center; align:center' src='img/fixation2_sml.jpg'></div><div class='arrayDiv1'><div class='tc'><img class='introPic' src='trustrating_stim/white_mw038.bmp'><br><font color='red'><strong>Keep</strong></font></div></div></div>","null","ARRAY","1","trustrating_stim/white_mw038.bmp","0","noMatchOutcome","i","1500","","","","",""
"html-keyboard-response","62","183488","0.0-7.0-3.5","60cfdcfdf8a3c6c42dad17d3","bdp_wmem","Wed Mar 15 2023 13:51:06 GMT-0600 (Central Standard Time)","578754","Match,No Match","","null","","","","","","<div class='trialBorder'><div class='vertical-center'><img src='img/fixation2_sml.jpg'</img></div></div>","null","DELAY","","","","","","","","","","",""
"html-keyboard-response","63","185231","0.0-7.0-4.5","60cfdcfdf8a3c6c42dad17d3","bdp_wmem","Wed Mar 15 2023 13:51:06 GMT-0600 (Central Standard Time)","578754","Match,No Match","","1742","","","","","","<div class='trialBorder'><div class='targDiv'><div class='tc'><img class='introPic' src='trustrating_stim/white_mw038.bmp'><br><font color='green'><strong>Share</strong></font></div></div><div class='respDiv'><div class='respDivL'>Match<br>(e)</div><div class='respDivR'>No Match<br>(i)</div></div></div>","e","TARGET","1","trustrating_stim/white_mw038.bmp","0","noMatchOutcome","i","1500","trustrating_stim/white_mw038.bmp","green","Share","REAL","0"
"html-keyboard-response","64","185733","0.0-7.0-5.5","60cfdcfdf8a3c6c42dad17d3","bdp_wmem","Wed Mar 15 2023 13:51:06 GMT-0600 (Central Standard Time)","578754","Match,No Match","","null","","","","","","<div class='trialBorder'><div class='vertical-center'><img src='img/error.jpg'></div><div class='respDiv'><div class='respDivL'><font style='color:orange'>Match<br>(e)</font></div><div class='respDivR'>No Match<br>(i)</div></div></div>","null","FEEDBACK","","","","","","","","","","",""
"html-keyboard-response","65","186234","0.0-7.0-1.6","60cfdcfdf8a3c6c42dad17d3","bdp_wmem","Wed Mar 15 2023 13:51:06 GMT-0600 (Central Standard Time)","578754","Match,No Match","","null","","","","","","<div class='trialBorder'><div class='vertical-center'><img src='img/fixation2_sml.jpg'</img></div></div>","null","FIX","","","","","","","","","","",""
"html-keyboard-response","66","187737","0.0-7.0-2.6","60cfdcfdf8a3c6c42dad17d3","bdp_wmem","Wed Mar 15 2023 13:51:06 GMT-0600 (Central Standard Time)","578754","Match,No Match","","null","","","","","","<div class='trialBorder'><div class='vertical-center'><img style='vertical-align:center; align:center' src='img/fixation2_sml.jpg'></div><div class='arrayDiv1'><div class='tc'><img class='introPic' src='trustrating_stim/white_mw012.bmp'><br><font color='red'><strong>Keep</strong></font></div></div></div>","null","ARRAY","1","trustrating_stim/white_mw012.bmp","0","noMatchOutcome","i","1500","","","","",""
"html-keyboard-response","67","191739","0.0-7.0-3.6","60cfdcfdf8a3c6c42dad17d3","bdp_wmem","Wed Mar 15 2023 13:51:06 GMT-0600 (Central Standard Time)","578754","Match,No Match","","null","","","","","","<div class='trialBorder'><div class='vertical-center'><img src='img/fixation2_sml.jpg'</img></div></div>","null","DELAY","","","","","","","","","","",""
"html-keyboard-response","68","193197","0.0-7.0-4.6","60cfdcfdf8a3c6c42dad17d3","bdp_wmem","Wed Mar 15 2023 13:51:06 GMT-0600 (Central Standard Time)","578754","Match,No Match","","1457","","","","","","<div class='trialBorder'><div class='targDiv'><div class='tc'><img class='introPic' src='trustrating_stim/white_mw012.bmp'><br><font color='green'><strong>Share</strong></font></div></div><div class='respDiv'><div class='respDivL'>Match<br>(e)</div><div class='respDivR'>No Match<br>(i)</div></div></div>","e","TARGET","1","trustrating_stim/white_mw012.bmp","0","noMatchOutcome","i","1500","trustrating_stim/white_mw012.bmp","green","Share","REAL","0"
"html-keyboard-response","69","193698","0.0-7.0-5.6","60cfdcfdf8a3c6c42dad17d3","bdp_wmem","Wed Mar 15 2023 13:51:06 GMT-0600 (Central Standard Time)","578754","Match,No Match","","null","","","","","","<div class='trialBorder'><div class='vertical-center'><img src='img/error.jpg'></div><div class='respDiv'><div class='respDivL'><font style='color:orange'>Match<br>(e)</font></div><div class='respDivR'>No Match<br>(i)</div></div></div>","null","FEEDBACK","","","","","","","","","","",""
"html-keyboard-response","70","194199","0.0-7.0-1.7","60cfdcfdf8a3c6c42dad17d3","bdp_wmem","Wed Mar 15 2023 13:51:06 GMT-0600 (Central Standard Time)","578754","Match,No Match","","null","","","","","","<div class='trialBorder'><div class='vertical-center'><img src='img/fixation2_sml.jpg'</img></div></div>","null","FIX","","","","","","","","","","",""
"html-keyboard-response","71","198701","0.0-7.0-2.7","60cfdcfdf8a3c6c42dad17d3","bdp_wmem","Wed Mar 15 2023 13:51:06 GMT-0600 (Central Standard Time)","578754","Match,No Match","","null","","","","","","<div class='trialBorder'><div class='vertical-center'><img style='vertical-align:center; align:center' src='img/fixation2_sml.jpg'></div><div class='arrayDiv3'><div class='tl'><img class='introPic' src='trustrating_stim/white_mw003.bmp'><br><font color='green'><strong>Share</strong></font></div><div class='tc'><img class='introPic' src='trustrating_stim/white_mw070.bmp'><br><font color='red'><strong>Keep</strong></font></div><div class='tr'><img class='introPic' src='trustrating_stim/white_mw040.bmp'><br><font color='green'><strong>Share</strong></font></div></div></div>","null","ARRAY","3","trustrating_stim/white_mw003.bmp,trustrating_stim/white_mw070.bmp,trustrating_stim/white_mw040.bmp","1,0,1","noMatchOutcome","i","4500","","","","",""
"html-keyboard-response","72","202703","0.0-7.0-3.7","60cfdcfdf8a3c6c42dad17d3","bdp_wmem","Wed Mar 15 2023 13:51:06 GMT-0600 (Central Standard Time)","578754","Match,No Match","","null","","","","","","<div class='trialBorder'><div class='vertical-center'><img src='img/fixation2_sml.jpg'</img></div></div>","null","DELAY","","","","","","","","","","",""
"html-keyboard-response","73","203749","0.0-7.0-4.7","60cfdcfdf8a3c6c42dad17d3","bdp_wmem","Wed Mar 15 2023 13:51:06 GMT-0600 (Central Standard Time)","578754","Match,No Match","","1044","","","","","","<div class='trialBorder'><div class='targDiv'><div class='tc'><img class='introPic' src='trustrating_stim/white_mw040.bmp'><br><font color='red'><strong>Keep</strong></font></div></div><div class='respDiv'><div class='respDivL'>Match<br>(e)</div><div class='respDivR'>No Match<br>(i)</div></div></div>","e","TARGET","3","trustrating_stim/white_mw003.bmp,trustrating_stim/white_mw070.bmp,trustrating_stim/white_mw040.bmp","1,0,1","noMatchOutcome","i","4500","trustrating_stim/white_mw040.bmp","red","Keep","REAL","0"
"html-keyboard-response","74","204251","0.0-7.0-5.7","60cfdcfdf8a3c6c42dad17d3","bdp_wmem","Wed Mar 15 2023 13:51:06 GMT-0600 (Central Standard Time)","578754","Match,No Match","","null","","","","","","<div class='trialBorder'><div class='vertical-center'><img src='img/error.jpg'></div><div class='respDiv'><div class='respDivL'><font style='color:orange'>Match<br>(e)</font></div><div class='respDivR'>No Match<br>(i)</div></div></div>","null","FEEDBACK","","","","","","","","","","",""
"html-keyboard-response","75","204752","0.0-7.0-1.8","60cfdcfdf8a3c6c42dad17d3","bdp_wmem","Wed Mar 15 2023 13:51:06 GMT-0600 (Central Standard Time)","578754","Match,No Match","","null","","","","","","<div class='trialBorder'><div class='vertical-center'><img src='img/fixation2_sml.jpg'</img></div></div>","null","FIX","","","","","","","","","","",""
"html-keyboard-response","76","209253","0.0-7.0-2.8","60cfdcfdf8a3c6c42dad17d3","bdp_wmem","Wed Mar 15 2023 13:51:06 GMT-0600 (Central Standard Time)","578754","Match,No Match","","null","","","","","","<div class='trialBorder'><div class='vertical-center'><img style='vertical-align:center; align:center' src='img/fixation2_sml.jpg'></div><div class='arrayDiv3'><div class='tl'><img class='introPic' src='trustrating_stim/white_mw092.bmp'><br><font color='green'><strong>Share</strong></font></div><div class='tc'><img class='introPic' src='trustrating_stim/white_mw078.bmp'><br><font color='green'><strong>Share</strong></font></div><div class='tr'><img class='introPic' src='trustrating_stim/white_mw042.bmp'><br><font color='red'><strong>Keep</strong></font></div></div></div>","null","ARRAY","3","trustrating_stim/white_mw092.bmp,trustrating_stim/white_mw078.bmp,trustrating_stim/white_mw042.bmp","1,1,0","Match","e","4500","","","","",""
"html-keyboard-response","77","213255","0.0-7.0-3.8","60cfdcfdf8a3c6c42dad17d3","bdp_wmem","Wed Mar 15 2023 13:51:06 GMT-0600 (Central Standard Time)","578754","Match,No Match","","null","","","","","","<div class='trialBorder'><div class='vertical-center'><img src='img/fixation2_sml.jpg'</img></div></div>","null","DELAY","","","","","","","","","","",""
"html-keyboard-response","78","214065","0.0-7.0-4.8","60cfdcfdf8a3c6c42dad17d3","bdp_wmem","Wed Mar 15 2023 13:51:06 GMT-0600 (Central Standard Time)","578754","Match,No Match","","809","","","","","","<div class='trialBorder'><div class='targDiv'><div class='tc'><img class='introPic' src='trustrating_stim/white_mw078.bmp'><br><font color='green'><strong>Share</strong></font></div></div><div class='respDiv'><div class='respDivL'>Match<br>(e)</div><div class='respDivR'>No Match<br>(i)</div></div></div>","e","TARGET","3","trustrating_stim/white_mw092.bmp,trustrating_stim/white_mw078.bmp,trustrating_stim/white_mw042.bmp","1,1,0","Match","e","4500","trustrating_stim/white_mw078.bmp","green","Share","REAL","1"
"html-keyboard-response","79","214566","0.0-7.0-5.8","60cfdcfdf8a3c6c42dad17d3","bdp_wmem","Wed Mar 15 2023 13:51:06 GMT-0600 (Central Standard Time)","578754","Match,No Match","","null","","","","","","<div class='trialBorder'><div class='vertical-center'><img src='img/correct.jpg'></div><div class='respDiv'><div class='respDivL'><font style='color:orange'>Match<br>(e)</font></div><div class='respDivR'>No Match<br>(i)</div></div></div>","null","FEEDBACK","","","","","","","","","","",""
"html-keyboard-response","80","215067","0.0-7.0-1.9","60cfdcfdf8a3c6c42dad17d3","bdp_wmem","Wed Mar 15 2023 13:51:06 GMT-0600 (Central Standard Time)","578754","Match,No Match","","null","","","","","","<div class='trialBorder'><div class='vertical-center'><img src='img/fixation2_sml.jpg'</img></div></div>","null","FIX","","","","","","","","","","",""
"html-keyboard-response","81","219569","0.0-7.0-2.9","60cfdcfdf8a3c6c42dad17d3","bdp_wmem","Wed Mar 15 2023 13:51:06 GMT-0600 (Central Standard Time)","578754","Match,No Match","","null","","","","","","<div class='trialBorder'><div class='vertical-center'><img style='vertical-align:center; align:center' src='img/fixation2_sml.jpg'></div><div class='arrayDiv3'><div class='tl'><img class='introPic' src='trustrating_stim/white_mw040.bmp'><br><font color='green'><strong>Share</strong></font></div><div class='tc'><img class='introPic' src='trustrating_stim/white_mw013.bmp'><br><font color='red'><strong>Keep</strong></font></div><div class='tr'><img class='introPic' src='trustrating_stim/white_mw078.bmp'><br><font color='red'><strong>Keep</strong></font></div></div></div>","null","ARRAY","3","trustrating_stim/white_mw040.bmp,trustrating_stim/white_mw013.bmp,trustrating_stim/white_mw078.bmp","1,0,0","Match","e","4500","","","","",""
"html-keyboard-response","82","223570","0.0-7.0-3.9","60cfdcfdf8a3c6c42dad17d3","bdp_wmem","Wed Mar 15 2023 13:51:06 GMT-0600 (Central Standard Time)","578754","Match,No Match","","null","","","","","","<div class='trialBorder'><div class='vertical-center'><img src='img/fixation2_sml.jpg'</img></div></div>","null","DELAY","","","","","","","","","","",""
"html-keyboard-response","83","224829","0.0-7.0-4.9","60cfdcfdf8a3c6c42dad17d3","bdp_wmem","Wed Mar 15 2023 13:51:06 GMT-0600 (Central Standard Time)","578754","Match,No Match","","1257","","","","","","<div class='trialBorder'><div class='targDiv'><div class='tc'><img class='introPic' src='trustrating_stim/white_mw078.bmp'><br><font color='red'><strong>Keep</strong></font></div></div><div class='respDiv'><div class='respDivL'>Match<br>(e)</div><div class='respDivR'>No Match<br>(i)</div></div></div>","e","TARGET","3","trustrating_stim/white_mw040.bmp,trustrating_stim/white_mw013.bmp,trustrating_stim/white_mw078.bmp","1,0,0","Match","e","4500","trustrating_stim/white_mw078.bmp","red","Keep","REAL","1"
"html-keyboard-response","84","225330","0.0-7.0-5.9","60cfdcfdf8a3c6c42dad17d3","bdp_wmem","Wed Mar 15 2023 13:51:06 GMT-0600 (Central Standard Time)","578754","Match,No Match","","null","","","","","","<div class='trialBorder'><div class='vertical-center'><img src='img/correct.jpg'></div><div class='respDiv'><div class='respDivL'><font style='color:orange'>Match<br>(e)</font></div><div class='respDivR'>No Match<br>(i)</div></div></div>","null","FEEDBACK","","","","","","","","","","",""
"html-keyboard-response","85","225832","0.0-7.0-1.10","60cfdcfdf8a3c6c42dad17d3","bdp_wmem","Wed Mar 15 2023 13:51:06 GMT-0600 (Central Standard Time)","578754","Match,No Match","","null","","","","","","<div class='trialBorder'><div class='vertical-center'><img src='img/fixation2_sml.jpg'</img></div></div>","null","FIX","","","","","","","","","","",""
"html-keyboard-response","86","227333","0.0-7.0-2.10","60cfdcfdf8a3c6c42dad17d3","bdp_wmem","Wed Mar 15 2023 13:51:06 GMT-0600 (Central Standard Time)","578754","Match,No Match","","null","","","","","","<div class='trialBorder'><div class='vertical-center'><img style='vertical-align:center; align:center' src='img/fixation2_sml.jpg'></div><div class='arrayDiv1'><div class='tc'><img class='introPic' src='trustrating_stim/white_mw042.bmp'><br><font color='green'><strong>Share</strong></font></div></div></div>","null","ARRAY","1","trustrating_stim/white_mw042.bmp","1","noMatchFace","i","1500","","","","",""
"html-keyboard-response","87","231335","0.0-7.0-3.10","60cfdcfdf8a3c6c42dad17d3","bdp_wmem","Wed Mar 15 2023 13:51:06 GMT-0600 (Central Standard Time)","578754","Match,No Match","","null","","","","","","<div class='trialBorder'><div class='vertical-center'><img src='img/fixation2_sml.jpg'</img></div></div>","null","DELAY","","","","","","","","","","",""
"html-keyboard-response","88","232330","0.0-7.0-4.10","60cfdcfdf8a3c6c42dad17d3","bdp_wmem","Wed Mar 15 2023 13:51:06 GMT-0600 (Central Standard Time)","578754","Match,No Match","","993","","","","","","<div class='trialBorder'><div class='targDiv'><div class='tc'><img class='introPic' src='trustrating_stim/white_mw038.bmp'><br><font color='green'><strong>Share</strong></font></div></div><div class='respDiv'><div class='respDivL'>Match<br>(e)</div><div class='respDivR'>No Match<br>(i)</div></div></div>","i","TARGET","1","trustrating_stim/white_mw042.bmp","1","noMatchFace","i","1500","trustrating_stim/white_mw038.bmp","green","Share","REAL","1"
"html-keyboard-response","89","232830","0.0-7.0-5.10","60cfdcfdf8a3c6c42dad17d3","bdp_wmem","Wed Mar 15 2023 13:51:06 GMT-0600 (Central Standard Time)","578754","Match,No Match","","null","","","","","","<div class='trialBorder'><div class='vertical-center'><img src='img/correct.jpg'></div><div class='respDiv'><div class='respDivL'>Match<br>(e)</div><div class='respDivR'><font style='color:orange'>No Match<br>(i)</font></div></div></div>","null","FEEDBACK","","","","","","","","","","",""
"html-keyboard-response","90","233331","0.0-7.0-1.11","60cfdcfdf8a3c6c42dad17d3","bdp_wmem","Wed Mar 15 2023 13:51:06 GMT-0600 (Central Standard Time)","578754","Match,No Match","","null","","","","","","<div class='trialBorder'><div class='vertical-center'><img src='img/fixation2_sml.jpg'</img></div></div>","null","FIX","","","","","","","","","","",""
"html-keyboard-response","91","234833","0.0-7.0-2.11","60cfdcfdf8a3c6c42dad17d3","bdp_wmem","Wed Mar 15 2023 13:51:06 GMT-0600 (Central Standard Time)","578754","Match,No Match","","null","","","","","","<div class='trialBorder'><div class='vertical-center'><img style='vertical-align:center; align:center' src='img/fixation2_sml.jpg'></div><div class='arrayDiv1'><div class='tc'><img class='introPic' src='trustrating_stim/white_mw010.bmp'><br><font color='green'><strong>Share</strong></font></div></div></div>","null","ARRAY","1","trustrating_stim/white_mw010.bmp","1","Match","e","1500","","","","",""
"html-keyboard-response","92","238835","0.0-7.0-3.11","60cfdcfdf8a3c6c42dad17d3","bdp_wmem","Wed Mar 15 2023 13:51:06 GMT-0600 (Central Standard Time)","578754","Match,No Match","","null","","","","","","<div class='trialBorder'><div class='vertical-center'><img src='img/fixation2_sml.jpg'</img></div></div>","null","DELAY","","","","","","","","","","",""
"html-keyboard-response","93","239509","0.0-7.0-4.11","60cfdcfdf8a3c6c42dad17d3","bdp_wmem","Wed Mar 15 2023 13:51:06 GMT-0600 (Central Standard Time)","578754","Match,No Match","","673","","","","","","<div class='trialBorder'><div class='targDiv'><div class='tc'><img class='introPic' src='trustrating_stim/white_mw010.bmp'><br><font color='green'><strong>Share</strong></font></div></div><div class='respDiv'><div class='respDivL'>Match<br>(e)</div><div class='respDivR'>No Match<br>(i)</div></div></div>","e","TARGET","1","trustrating_stim/white_mw010.bmp","1","Match","e","1500","trustrating_stim/white_mw010.bmp","green","Share","REAL","1"
"html-keyboard-response","94","240011","0.0-7.0-5.11","60cfdcfdf8a3c6c42dad17d3","bdp_wmem","Wed Mar 15 2023 13:51:06 GMT-0600 (Central Standard Time)","578754","Match,No Match","","null","","","","","","<div class='trialBorder'><div class='vertical-center'><img src='img/correct.jpg'></div><div class='respDiv'><div class='respDivL'><font style='color:orange'>Match<br>(e)</font></div><div class='respDivR'>No Match<br>(i)</div></div></div>","null","FEEDBACK","","","","","","","","","","",""
"html-keyboard-response","95","240513","0.0-7.0-1.12","60cfdcfdf8a3c6c42dad17d3","bdp_wmem","Wed Mar 15 2023 13:51:06 GMT-0600 (Central Standard Time)","578754","Match,No Match","","null","","","","","","<div class='trialBorder'><div class='vertical-center'><img src='img/fixation2_sml.jpg'</img></div></div>","null","FIX","","","","","","","","","","",""
"html-keyboard-response","96","245014","0.0-7.0-2.12","60cfdcfdf8a3c6c42dad17d3","bdp_wmem","Wed Mar 15 2023 13:51:06 GMT-0600 (Central Standard Time)","578754","Match,No Match","","null","","","","","","<div class='trialBorder'><div class='vertical-center'><img style='vertical-align:center; align:center' src='img/fixation2_sml.jpg'></div><div class='arrayDiv3'><div class='tl'><img class='introPic' src='trustrating_stim/white_mw070.bmp'><br><font color='red'><strong>Keep</strong></font></div><div class='tc'><img class='introPic' src='trustrating_stim/white_mw003.bmp'><br><font color='red'><strong>Keep</strong></font></div><div class='tr'><img class='introPic' src='trustrating_stim/white_mw042.bmp'><br><font color='green'><strong>Share</strong></font></div></div></div>","null","ARRAY","3","trustrating_stim/white_mw070.bmp,trustrating_stim/white_mw003.bmp,trustrating_stim/white_mw042.bmp","0,0,1","Match","e","4500","","","","",""
"html-keyboard-response","97","249016","0.0-7.0-3.12","60cfdcfdf8a3c6c42dad17d3","bdp_wmem","Wed Mar 15 2023 13:51:06 GMT-0600 (Central Standard Time)","578754","Match,No Match","","null","","","","","","<div class='trialBorder'><div class='vertical-center'><img src='img/fixation2_sml.jpg'</img></div></div>","null","DELAY","","","","","","","","","","",""
"html-keyboard-response","98","250989","0.0-7.0-4.12","60cfdcfdf8a3c6c42dad17d3","bdp_wmem","Wed Mar 15 2023 13:51:06 GMT-0600 (Central Standard Time)","578754","Match,No Match","","1973","","","","","","<div class='trialBorder'><div class='targDiv'><div class='tc'><img class='introPic' src='trustrating_stim/white_mw042.bmp'><br><font color='green'><strong>Share</strong></font></div></div><div class='respDiv'><div class='respDivL'>Match<br>(e)</div><div class='respDivR'>No Match<br>(i)</div></div></div>","e","TARGET","3","trustrating_stim/white_mw070.bmp,trustrating_stim/white_mw003.bmp,trustrating_stim/white_mw042.bmp","0,0,1","Match","e","4500","trustrating_stim/white_mw042.bmp","green","Share","REAL","1"
"html-keyboard-response","99","251490","0.0-7.0-5.12","60cfdcfdf8a3c6c42dad17d3","bdp_wmem","Wed Mar 15 2023 13:51:06 GMT-0600 (Central Standard Time)","578754","Match,No Match","","null","","","","","","<div class='trialBorder'><div class='vertical-center'><img src='img/correct.jpg'></div><div class='respDiv'><div class='respDivL'><font style='color:orange'>Match<br>(e)</font></div><div class='respDivR'>No Match<br>(i)</div></div></div>","null","FEEDBACK","","","","","","","","","","",""
"html-keyboard-response","100","251991","0.0-7.0-1.13","60cfdcfdf8a3c6c42dad17d3","bdp_wmem","Wed Mar 15 2023 13:51:06 GMT-0600 (Central Standard Time)","578754","Match,No Match","","null","","","","","","<div class='trialBorder'><div class='vertical-center'><img src='img/fixation2_sml.jpg'</img></div></div>","null","FIX","","","","","","","","","","",""
"html-keyboard-response","101","256494","0.0-7.0-2.13","60cfdcfdf8a3c6c42dad17d3","bdp_wmem","Wed Mar 15 2023 13:51:06 GMT-0600 (Central Standard Time)","578754","Match,No Match","","null","","","","","","<div class='trialBorder'><div class='vertical-center'><img style='vertical-align:center; align:center' src='img/fixation2_sml.jpg'></div><div class='arrayDiv3'><div class='tl'><img class='introPic' src='trustrating_stim/white_mw038.bmp'><br><font color='green'><strong>Share</strong></font></div><div class='tc'><img class='introPic' src='trustrating_stim/white_mw070.bmp'><br><font color='red'><strong>Keep</strong></font></div><div class='tr'><img class='introPic' src='trustrating_stim/white_mw078.bmp'><br><font color='green'><strong>Share</strong></font></div></div></div>","null","ARRAY","3","trustrating_stim/white_mw038.bmp,trustrating_stim/white_mw070.bmp,trustrating_stim/white_mw078.bmp","1,0,1","noMatchOutcome","i","4500","","","","",""
"html-keyboard-response","102","260495","0.0-7.0-3.13","60cfdcfdf8a3c6c42dad17d3","bdp_wmem","Wed Mar 15 2023 13:51:06 GMT-0600 (Central Standard Time)","578754","Match,No Match","","null","","","","","","<div class='trialBorder'><div class='vertical-center'><img src='img/fixation2_sml.jpg'</img></div></div>","null","DELAY","","","","","","","","","","",""
"html-keyboard-response","103","262032","0.0-7.0-4.13","60cfdcfdf8a3c6c42dad17d3","bdp_wmem","Wed Mar 15 2023 13:51:06 GMT-0600 (Central Standard Time)","578754","Match,No Match","","1535","","","","","","<div class='trialBorder'><div class='targDiv'><div class='tc'><img class='introPic' src='trustrating_stim/white_mw038.bmp'><br><font color='red'><strong>Keep</strong></font></div></div><div class='respDiv'><div class='respDivL'>Match<br>(e)</div><div class='respDivR'>No Match<br>(i)</div></div></div>","i","TARGET","3","trustrating_stim/white_mw038.bmp,trustrating_stim/white_mw070.bmp,trustrating_stim/white_mw078.bmp","1,0,1","noMatchOutcome","i","4500","trustrating_stim/white_mw038.bmp","red","Keep","REAL","1"
"html-keyboard-response","104","262533","0.0-7.0-5.13","60cfdcfdf8a3c6c42dad17d3","bdp_wmem","Wed Mar 15 2023 13:51:06 GMT-0600 (Central Standard Time)","578754","Match,No Match","","null","","","","","","<div class='trialBorder'><div class='vertical-center'><img src='img/correct.jpg'></div><div class='respDiv'><div class='respDivL'>Match<br>(e)</div><div class='respDivR'><font style='color:orange'>No Match<br>(i)</font></div></div></div>","null","FEEDBACK","","","","","","","","","","",""
"html-keyboard-response","105","263034","0.0-7.0-1.14","60cfdcfdf8a3c6c42dad17d3","bdp_wmem","Wed Mar 15 2023 13:51:06 GMT-0600 (Central Standard Time)","578754","Match,No Match","","null","","","","","","<div class='trialBorder'><div class='vertical-center'><img src='img/fixation2_sml.jpg'</img></div></div>","null","FIX","","","","","","","","","","",""
"html-keyboard-response","106","267536","0.0-7.0-2.14","60cfdcfdf8a3c6c42dad17d3","bdp_wmem","Wed Mar 15 2023 13:51:06 GMT-0600 (Central Standard Time)","578754","Match,No Match","","null","","","","","","<div class='trialBorder'><div class='vertical-center'><img style='vertical-align:center; align:center' src='img/fixation2_sml.jpg'></div><div class='arrayDiv3'><div class='tl'><img class='introPic' src='trustrating_stim/white_mw010.bmp'><br><font color='green'><strong>Share</strong></font></div><div class='tc'><img class='introPic' src='trustrating_stim/white_mw040.bmp'><br><font color='red'><strong>Keep</strong></font></div><div class='tr'><img class='introPic' src='trustrating_stim/white_mw085.bmp'><br><font color='green'><strong>Share</strong></font></div></div></div>","null","ARRAY","3","trustrating_stim/white_mw010.bmp,trustrating_stim/white_mw040.bmp,trustrating_stim/white_mw085.bmp","1,0,1","noMatchOutcome","i","4500","","","","",""
"html-keyboard-response","107","271538","0.0-7.0-3.14","60cfdcfdf8a3c6c42dad17d3","bdp_wmem","Wed Mar 15 2023 13:51:06 GMT-0600 (Central Standard Time)","578754","Match,No Match","","null","","","","","","<div class='trialBorder'><div class='vertical-center'><img src='img/fixation2_sml.jpg'</img></div></div>","null","DELAY","","","","","","","","","","",""
"html-keyboard-response","108","273041","0.0-7.0-4.14","60cfdcfdf8a3c6c42dad17d3","bdp_wmem","Wed Mar 15 2023 13:51:06 GMT-0600 (Central Standard Time)","578754","Match,No Match","","1502","","","","","","<div class='trialBorder'><div class='targDiv'><div class='tc'><img class='introPic' src='trustrating_stim/white_mw010.bmp'><br><font color='red'><strong>Keep</strong></font></div></div><div class='respDiv'><div class='respDivL'>Match<br>(e)</div><div class='respDivR'>No Match<br>(i)</div></div></div>","i","TARGET","3","trustrating_stim/white_mw010.bmp,trustrating_stim/white_mw040.bmp,trustrating_stim/white_mw085.bmp","1,0,1","noMatchOutcome","i","4500","trustrating_stim/white_mw010.bmp","red","Keep","REAL","1"
"html-keyboard-response","109","273543","0.0-7.0-5.14","60cfdcfdf8a3c6c42dad17d3","bdp_wmem","Wed Mar 15 2023 13:51:06 GMT-0600 (Central Standard Time)","578754","Match,No Match","","null","","","","","","<div class='trialBorder'><div class='vertical-center'><img src='img/correct.jpg'></div><div class='respDiv'><div class='respDivL'>Match<br>(e)</div><div class='respDivR'><font style='color:orange'>No Match<br>(i)</font></div></div></div>","null","FEEDBACK","","","","","","","","","","",""
"html-keyboard-response","110","274044","0.0-7.0-1.15","60cfdcfdf8a3c6c42dad17d3","bdp_wmem","Wed Mar 15 2023 13:51:06 GMT-0600 (Central Standard Time)","578754","Match,No Match","","null","","","","","","<div class='trialBorder'><div class='vertical-center'><img src='img/fixation2_sml.jpg'</img></div></div>","null","FIX","","","","","","","","","","",""
"html-keyboard-response","111","277045","0.0-7.0-2.15","60cfdcfdf8a3c6c42dad17d3","bdp_wmem","Wed Mar 15 2023 13:51:06 GMT-0600 (Central Standard Time)","578754","Match,No Match","","null","","","","","","<div class='trialBorder'><div class='vertical-center'><img style='vertical-align:center; align:center' src='img/fixation2_sml.jpg'></div><div class='arrayDiv2'><div class='tl'><img class='introPic' src='trustrating_stim/white_mw085.bmp'><br><font color='green'><strong>Share</strong></font></div><div class='tr'><img class='introPic' src='trustrating_stim/white_mw038.bmp'><br><font color='red'><strong>Keep</strong></font></div></div></div>","null","ARRAY","2","trustrating_stim/white_mw085.bmp,trustrating_stim/white_mw038.bmp","1,0","noMatchFace","i","3000","","","","",""
"html-keyboard-response","112","281047","0.0-7.0-3.15","60cfdcfdf8a3c6c42dad17d3","bdp_wmem","Wed Mar 15 2023 13:51:06 GMT-0600 (Central Standard Time)","578754","Match,No Match","","null","","","","","","<div class='trialBorder'><div class='vertical-center'><img src='img/fixation2_sml.jpg'</img></div></div>","null","DELAY","","","","","","","","","","",""
"html-keyboard-response","113","282844","0.0-7.0-4.15","60cfdcfdf8a3c6c42dad17d3","bdp_wmem","Wed Mar 15 2023 13:51:06 GMT-0600 (Central Standard Time)","578754","Match,No Match","","1797","","","","","","<div class='trialBorder'><div class='targDiv'><div class='tc'><img class='introPic' src='trustrating_stim/white_mw040.bmp'><br><font color='green'><strong>Share</strong></font></div></div><div class='respDiv'><div class='respDivL'>Match<br>(e)</div><div class='respDivR'>No Match<br>(i)</div></div></div>","i","TARGET","2","trustrating_stim/white_mw085.bmp,trustrating_stim/white_mw038.bmp","1,0","noMatchFace","i","3000","trustrating_stim/white_mw040.bmp","green","Share","REAL","1"
"html-keyboard-response","114","283345","0.0-7.0-5.15","60cfdcfdf8a3c6c42dad17d3","bdp_wmem","Wed Mar 15 2023 13:51:06 GMT-0600 (Central Standard Time)","578754","Match,No Match","","null","","","","","","<div class='trialBorder'><div class='vertical-center'><img src='img/correct.jpg'></div><div class='respDiv'><div class='respDivL'>Match<br>(e)</div><div class='respDivR'><font style='color:orange'>No Match<br>(i)</font></div></div></div>","null","FEEDBACK","","","","","","","","","","",""
"html-keyboard-response","115","283847","0.0-7.0-1.16","60cfdcfdf8a3c6c42dad17d3","bdp_wmem","Wed Mar 15 2023 13:51:06 GMT-0600 (Central Standard Time)","578754","Match,No Match","","null","","","","","","<div class='trialBorder'><div class='vertical-center'><img src='img/fixation2_sml.jpg'</img></div></div>","null","FIX","","","","","","","","","","",""
"html-keyboard-response","116","286849","0.0-7.0-2.16","60cfdcfdf8a3c6c42dad17d3","bdp_wmem","Wed Mar 15 2023 13:51:06 GMT-0600 (Central Standard Time)","578754","Match,No Match","","null","","","","","","<div class='trialBorder'><div class='vertical-center'><img style='vertical-align:center; align:center' src='img/fixation2_sml.jpg'></div><div class='arrayDiv2'><div class='tl'><img class='introPic' src='trustrating_stim/white_mw012.bmp'><br><font color='red'><strong>Keep</strong></font></div><div class='tr'><img class='introPic' src='trustrating_stim/white_mw092.bmp'><br><font color='green'><strong>Share</strong></font></div></div></div>","null","ARRAY","2","trustrating_stim/white_mw012.bmp,trustrating_stim/white_mw092.bmp","0,1","noMatchOutcome","i","3000","","","","",""
"html-keyboard-response","117","290851","0.0-7.0-3.16","60cfdcfdf8a3c6c42dad17d3","bdp_wmem","Wed Mar 15 2023 13:51:06 GMT-0600 (Central Standard Time)","578754","Match,No Match","","null","","","","","","<div class='trialBorder'><div class='vertical-center'><img src='img/fixation2_sml.jpg'</img></div></div>","null","DELAY","","","","","","","","","","",""
"html-keyboard-response","118","291808","0.0-7.0-4.16","60cfdcfdf8a3c6c42dad17d3","bdp_wmem","Wed Mar 15 2023 13:51:06 GMT-0600 (Central Standard Time)","578754","Match,No Match","","955","","","","","","<div class='trialBorder'><div class='targDiv'><div class='tc'><img class='introPic' src='trustrating_stim/white_mw012.bmp'><br><font color='green'><strong>Share</strong></font></div></div><div class='respDiv'><div class='respDivL'>Match<br>(e)</div><div class='respDivR'>No Match<br>(i)</div></div></div>","i","TARGET","2","trustrating_stim/white_mw012.bmp,trustrating_stim/white_mw092.bmp","0,1","noMatchOutcome","i","3000","trustrating_stim/white_mw012.bmp","green","Share","REAL","1"
"html-keyboard-response","119","292310","0.0-7.0-5.16","60cfdcfdf8a3c6c42dad17d3","bdp_wmem","Wed Mar 15 2023 13:51:06 GMT-0600 (Central Standard Time)","578754","Match,No Match","","null","","","","","","<div class='trialBorder'><div class='vertical-center'><img src='img/correct.jpg'></div><div class='respDiv'><div class='respDivL'>Match<br>(e)</div><div class='respDivR'><font style='color:orange'>No Match<br>(i)</font></div></div></div>","null","FEEDBACK","","","","","","","","","","",""
"html-keyboard-response","120","292811","0.0-7.0-1.17","60cfdcfdf8a3c6c42dad17d3","bdp_wmem","Wed Mar 15 2023 13:51:06 GMT-0600 (Central Standard Time)","578754","Match,No Match","","null","","","","","","<div class='trialBorder'><div class='vertical-center'><img src='img/fixation2_sml.jpg'</img></div></div>","null","FIX","","","","","","","","","","",""
"html-keyboard-response","121","295813","0.0-7.0-2.17","60cfdcfdf8a3c6c42dad17d3","bdp_wmem","Wed Mar 15 2023 13:51:06 GMT-0600 (Central Standard Time)","578754","Match,No Match","","null","","","","","","<div class='trialBorder'><div class='vertical-center'><img style='vertical-align:center; align:center' src='img/fixation2_sml.jpg'></div><div class='arrayDiv2'><div class='tl'><img class='introPic' src='trustrating_stim/white_mw040.bmp'><br><font color='green'><strong>Share</strong></font></div><div class='tr'><img class='introPic' src='trustrating_stim/white_mw013.bmp'><br><font color='red'><strong>Keep</strong></font></div></div></div>","null","ARRAY","2","trustrating_stim/white_mw040.bmp,trustrating_stim/white_mw013.bmp","1,0","noMatchFace","i","3000","","","","",""
"html-keyboard-response","122","299814","0.0-7.0-3.17","60cfdcfdf8a3c6c42dad17d3","bdp_wmem","Wed Mar 15 2023 13:51:06 GMT-0600 (Central Standard Time)","578754","Match,No Match","","null","","","","","","<div class='trialBorder'><div class='vertical-center'><img src='img/fixation2_sml.jpg'</img></div></div>","null","DELAY","","","","","","","","","","",""
"html-keyboard-response","123","301994","0.0-7.0-4.17","60cfdcfdf8a3c6c42dad17d3","bdp_wmem","Wed Mar 15 2023 13:51:06 GMT-0600 (Central Standard Time)","578754","Match,No Match","","2178","","","","","","<div class='trialBorder'><div class='targDiv'><div class='tc'><img class='introPic' src='trustrating_stim/white_mw003.bmp'><br><font color='green'><strong>Share</strong></font></div></div><div class='respDiv'><div class='respDivL'>Match<br>(e)</div><div class='respDivR'>No Match<br>(i)</div></div></div>","i","TARGET","2","trustrating_stim/white_mw040.bmp,trustrating_stim/white_mw013.bmp","1,0","noMatchFace","i","3000","trustrating_stim/white_mw003.bmp","green","Share","REAL","1"
"html-keyboard-response","124","302495","0.0-7.0-5.17","60cfdcfdf8a3c6c42dad17d3","bdp_wmem","Wed Mar 15 2023 13:51:06 GMT-0600 (Central Standard Time)","578754","Match,No Match","","null","","","","","","<div class='trialBorder'><div class='vertical-center'><img src='img/correct.jpg'></div><div class='respDiv'><div class='respDivL'>Match<br>(e)</div><div class='respDivR'><font style='color:orange'>No Match<br>(i)</font></div></div></div>","null","FEEDBACK","","","","","","","","","","",""
"html-keyboard-response","125","302996","0.0-7.0-1.18","60cfdcfdf8a3c6c42dad17d3","bdp_wmem","Wed Mar 15 2023 13:51:06 GMT-0600 (Central Standard Time)","578754","Match,No Match","","null","","","","","","<div class='trialBorder'><div class='vertical-center'><img src='img/fixation2_sml.jpg'</img></div></div>","null","FIX","","","","","","","","","","",""
"html-keyboard-response","126","305999","0.0-7.0-2.18","60cfdcfdf8a3c6c42dad17d3","bdp_wmem","Wed Mar 15 2023 13:51:06 GMT-0600 (Central Standard Time)","578754","Match,No Match","","null","","","","","","<div class='trialBorder'><div class='vertical-center'><img style='vertical-align:center; align:center' src='img/fixation2_sml.jpg'></div><div class='arrayDiv2'><div class='tl'><img class='introPic' src='trustrating_stim/white_mw012.bmp'><br><font color='green'><strong>Share</strong></font></div><div class='tr'><img class='introPic' src='trustrating_stim/white_mw040.bmp'><br><font color='red'><strong>Keep</strong></font></div></div></div>","null","ARRAY","2","trustrating_stim/white_mw012.bmp,trustrating_stim/white_mw040.bmp","1,0","noMatchFace","i","3000","","","","",""
"html-keyboard-response","127","310000","0.0-7.0-3.18","60cfdcfdf8a3c6c42dad17d3","bdp_wmem","Wed Mar 15 2023 13:51:06 GMT-0600 (Central Standard Time)","578754","Match,No Match","","null","","","","","","<div class='trialBorder'><div class='vertical-center'><img src='img/fixation2_sml.jpg'</img></div></div>","null","DELAY","","","","","","","","","","",""
"html-keyboard-response","128","311315","0.0-7.0-4.18","60cfdcfdf8a3c6c42dad17d3","bdp_wmem","Wed Mar 15 2023 13:51:06 GMT-0600 (Central Standard Time)","578754","Match,No Match","","1312","","","","","","<div class='trialBorder'><div class='targDiv'><div class='tc'><img class='introPic' src='trustrating_stim/white_mw085.bmp'><br><font color='green'><strong>Share</strong></font></div></div><div class='respDiv'><div class='respDivL'>Match<br>(e)</div><div class='respDivR'>No Match<br>(i)</div></div></div>","i","TARGET","2","trustrating_stim/white_mw012.bmp,trustrating_stim/white_mw040.bmp","1,0","noMatchFace","i","3000","trustrating_stim/white_mw085.bmp","green","Share","REAL","1"
"html-keyboard-response","129","311817","0.0-7.0-5.18","60cfdcfdf8a3c6c42dad17d3","bdp_wmem","Wed Mar 15 2023 13:51:06 GMT-0600 (Central Standard Time)","578754","Match,No Match","","null","","","","","","<div class='trialBorder'><div class='vertical-center'><img src='img/correct.jpg'></div><div class='respDiv'><div class='respDivL'>Match<br>(e)</div><div class='respDivR'><font style='color:orange'>No Match<br>(i)</font></div></div></div>","null","FEEDBACK","","","","","","","","","","",""
"html-keyboard-response","130","312319","0.0-7.0-1.19","60cfdcfdf8a3c6c42dad17d3","bdp_wmem","Wed Mar 15 2023 13:51:06 GMT-0600 (Central Standard Time)","578754","Match,No Match","","null","","","","","","<div class='trialBorder'><div class='vertical-center'><img src='img/fixation2_sml.jpg'</img></div></div>","null","FIX","","","","","","","","","","",""
"html-keyboard-response","131","313821","0.0-7.0-2.19","60cfdcfdf8a3c6c42dad17d3","bdp_wmem","Wed Mar 15 2023 13:51:06 GMT-0600 (Central Standard Time)","578754","Match,No Match","","null","","","","","","<div class='trialBorder'><div class='vertical-center'><img style='vertical-align:center; align:center' src='img/fixation2_sml.jpg'></div><div class='arrayDiv1'><div class='tc'><img class='introPic' src='trustrating_stim/white_mw092.bmp'><br><font color='green'><strong>Share</strong></font></div></div></div>","null","ARRAY","1","trustrating_stim/white_mw092.bmp","1","Match","e","1500","","","","",""
"html-keyboard-response","132","317823","0.0-7.0-3.19","60cfdcfdf8a3c6c42dad17d3","bdp_wmem","Wed Mar 15 2023 13:51:06 GMT-0600 (Central Standard Time)","578754","Match,No Match","","null","","","","","","<div class='trialBorder'><div class='vertical-center'><img src='img/fixation2_sml.jpg'</img></div></div>","null","DELAY","","","","","","","","","","",""
"html-keyboard-response","133","319157","0.0-7.0-4.19","60cfdcfdf8a3c6c42dad17d3","bdp_wmem","Wed Mar 15 2023 13:51:06 GMT-0600 (Central Standard Time)","578754","Match,No Match","","1333","","","","","","<div class='trialBorder'><div class='targDiv'><div class='tc'><img class='introPic' src='trustrating_stim/white_mw092.bmp'><br><font color='green'><strong>Share</strong></font></div></div><div class='respDiv'><div class='respDivL'>Match<br>(e)</div><div class='respDivR'>No Match<br>(i)</div></div></div>","i","TARGET","1","trustrating_stim/white_mw092.bmp","1","Match","e","1500","trustrating_stim/white_mw092.bmp","green","Share","REAL","0"
"html-keyboard-response","134","319658","0.0-7.0-5.19","60cfdcfdf8a3c6c42dad17d3","bdp_wmem","Wed Mar 15 2023 13:51:06 GMT-0600 (Central Standard Time)","578754","Match,No Match","","null","","","","","","<div class='trialBorder'><div class='vertical-center'><img src='img/error.jpg'></div><div class='respDiv'><div class='respDivL'>Match<br>(e)</div><div class='respDivR'><font style='color:orange'>No Match<br>(i)</font></div></div></div>","null","FEEDBACK","","","","","","","","","","",""
"html-keyboard-response","135","320159","0.0-7.0-1.20","60cfdcfdf8a3c6c42dad17d3","bdp_wmem","Wed Mar 15 2023 13:51:06 GMT-0600 (Central Standard Time)","578754","Match,No Match","","null","","","","","","<div class='trialBorder'><div class='vertical-center'><img src='img/fixation2_sml.jpg'</img></div></div>","null","FIX","","","","","","","","","","",""
"html-keyboard-response","136","321660","0.0-7.0-2.20","60cfdcfdf8a3c6c42dad17d3","bdp_wmem","Wed Mar 15 2023 13:51:06 GMT-0600 (Central Standard Time)","578754","Match,No Match","","null","","","","","","<div class='trialBorder'><div class='vertical-center'><img style='vertical-align:center; align:center' src='img/fixation2_sml.jpg'></div><div class='arrayDiv1'><div class='tc'><img class='introPic' src='trustrating_stim/white_mw003.bmp'><br><font color='green'><strong>Share</strong></font></div></div></div>","null","ARRAY","1","trustrating_stim/white_mw003.bmp","1","Match","e","1500","","","","",""
"html-keyboard-response","137","325662","0.0-7.0-3.20","60cfdcfdf8a3c6c42dad17d3","bdp_wmem","Wed Mar 15 2023 13:51:06 GMT-0600 (Central Standard Time)","578754","Match,No Match","","null","","","","","","<div class='trialBorder'><div class='vertical-center'><img src='img/fixation2_sml.jpg'</img></div></div>","null","DELAY","","","","","","","","","","",""
"html-keyboard-response","138","326621","0.0-7.0-4.20","60cfdcfdf8a3c6c42dad17d3","bdp_wmem","Wed Mar 15 2023 13:51:06 GMT-0600 (Central Standard Time)","578754","Match,No Match","","958","","","","","","<div class='trialBorder'><div class='targDiv'><div class='tc'><img class='introPic' src='trustrating_stim/white_mw003.bmp'><br><font color='green'><strong>Share</strong></font></div></div><div class='respDiv'><div class='respDivL'>Match<br>(e)</div><div class='respDivR'>No Match<br>(i)</div></div></div>","e","TARGET","1","trustrating_stim/white_mw003.bmp","1","Match","e","1500","trustrating_stim/white_mw003.bmp","green","Share","REAL","1"
"html-keyboard-response","139","327122","0.0-7.0-5.20","60cfdcfdf8a3c6c42dad17d3","bdp_wmem","Wed Mar 15 2023 13:51:06 GMT-0600 (Central Standard Time)","578754","Match,No Match","","null","","","","","","<div class='trialBorder'><div class='vertical-center'><img src='img/correct.jpg'></div><div class='respDiv'><div class='respDivL'><font style='color:orange'>Match<br>(e)</font></div><div class='respDivR'>No Match<br>(i)</div></div></div>","null","FEEDBACK","","","","","","","","","","",""
"html-keyboard-response","140","327623","0.0-7.0-1.21","60cfdcfdf8a3c6c42dad17d3","bdp_wmem","Wed Mar 15 2023 13:51:06 GMT-0600 (Central Standard Time)","578754","Match,No Match","","null","","","","","","<div class='trialBorder'><div class='vertical-center'><img src='img/fixation2_sml.jpg'</img></div></div>","null","FIX","","","","","","","","","","",""
"html-keyboard-response","141","329125","0.0-7.0-2.21","60cfdcfdf8a3c6c42dad17d3","bdp_wmem","Wed Mar 15 2023 13:51:06 GMT-0600 (Central Standard Time)","578754","Match,No Match","","null","","","","","","<div class='trialBorder'><div class='vertical-center'><img style='vertical-align:center; align:center' src='img/fixation2_sml.jpg'></div><div class='arrayDiv1'><div class='tc'><img class='introPic' src='trustrating_stim/white_mw038.bmp'><br><font color='red'><strong>Keep</strong></font></div></div></div>","null","ARRAY","1","trustrating_stim/white_mw038.bmp","0","noMatchOutcome","i","1500","","","","",""
"html-keyboard-response","142","333126","0.0-7.0-3.21","60cfdcfdf8a3c6c42dad17d3","bdp_wmem","Wed Mar 15 2023 13:51:06 GMT-0600 (Central Standard Time)","578754","Match,No Match","","null","","","","","","<div class='trialBorder'><div class='vertical-center'><img src='img/fixation2_sml.jpg'</img></div></div>","null","DELAY","","","","","","","","","","",""
"html-keyboard-response","143","334559","0.0-7.0-4.21","60cfdcfdf8a3c6c42dad17d3","bdp_wmem","Wed Mar 15 2023 13:51:06 GMT-0600 (Central Standard Time)","578754","Match,No Match","","1432","","","","","","<div class='trialBorder'><div class='targDiv'><div class='tc'><img class='introPic' src='trustrating_stim/white_mw038.bmp'><br><font color='green'><strong>Share</strong></font></div></div><div class='respDiv'><div class='respDivL'>Match<br>(e)</div><div class='respDivR'>No Match<br>(i)</div></div></div>","e","TARGET","1","trustrating_stim/white_mw038.bmp","0","noMatchOutcome","i","1500","trustrating_stim/white_mw038.bmp","green","Share","REAL","0"
"html-keyboard-response","144","335060","0.0-7.0-5.21","60cfdcfdf8a3c6c42dad17d3","bdp_wmem","Wed Mar 15 2023 13:51:06 GMT-0600 (Central Standard Time)","578754","Match,No Match","","null","","","","","","<div class='trialBorder'><div class='vertical-center'><img src='img/error.jpg'></div><div class='respDiv'><div class='respDivL'><font style='color:orange'>Match<br>(e)</font></div><div class='respDivR'>No Match<br>(i)</div></div></div>","null","FEEDBACK","","","","","","","","","","",""
"html-keyboard-response","145","335563","0.0-7.0-1.22","60cfdcfdf8a3c6c42dad17d3","bdp_wmem","Wed Mar 15 2023 13:51:06 GMT-0600 (Central Standard Time)","578754","Match,No Match","","null","","","","","","<div class='trialBorder'><div class='vertical-center'><img src='img/fixation2_sml.jpg'</img></div></div>","null","FIX","","","","","","","","","","",""
"html-keyboard-response","146","340064","0.0-7.0-2.22","60cfdcfdf8a3c6c42dad17d3","bdp_wmem","Wed Mar 15 2023 13:51:06 GMT-0600 (Central Standard Time)","578754","Match,No Match","","null","","","","","","<div class='trialBorder'><div class='vertical-center'><img style='vertical-align:center; align:center' src='img/fixation2_sml.jpg'></div><div class='arrayDiv3'><div class='tl'><img class='introPic' src='trustrating_stim/white_mw070.bmp'><br><font color='red'><strong>Keep</strong></font></div><div class='tc'><img class='introPic' src='trustrating_stim/white_mw038.bmp'><br><font color='red'><strong>Keep</strong></font></div><div class='tr'><img class='introPic' src='trustrating_stim/white_mw013.bmp'><br><font color='green'><strong>Share</strong></font></div></div></div>","null","ARRAY","3","trustrating_stim/white_mw070.bmp,trustrating_stim/white_mw038.bmp,trustrating_stim/white_mw013.bmp","0,0,1","noMatchFace","i","4500","","","","",""
"html-keyboard-response","147","344065","0.0-7.0-3.22","60cfdcfdf8a3c6c42dad17d3","bdp_wmem","Wed Mar 15 2023 13:51:06 GMT-0600 (Central Standard Time)","578754","Match,No Match","","null","","","","","","<div class='trialBorder'><div class='vertical-center'><img src='img/fixation2_sml.jpg'</img></div></div>","null","DELAY","","","","","","","","","","",""
"html-keyboard-response","148","345251","0.0-7.0-4.22","60cfdcfdf8a3c6c42dad17d3","bdp_wmem","Wed Mar 15 2023 13:51:06 GMT-0600 (Central Standard Time)","578754","Match,No Match","","1186","","","","","","<div class='trialBorder'><div class='targDiv'><div class='tc'><img class='introPic' src='trustrating_stim/white_mw078.bmp'><br><font color='green'><strong>Share</strong></font></div></div><div class='respDiv'><div class='respDivL'>Match<br>(e)</div><div class='respDivR'>No Match<br>(i)</div></div></div>","i","TARGET","3","trustrating_stim/white_mw070.bmp,trustrating_stim/white_mw038.bmp,trustrating_stim/white_mw013.bmp","0,0,1","noMatchFace","i","4500","trustrating_stim/white_mw078.bmp","green","Share","REAL","1"
"html-keyboard-response","149","345752","0.0-7.0-5.22","60cfdcfdf8a3c6c42dad17d3","bdp_wmem","Wed Mar 15 2023 13:51:06 GMT-0600 (Central Standard Time)","578754","Match,No Match","","null","","","","","","<div class='trialBorder'><div class='vertical-center'><img src='img/correct.jpg'></div><div class='respDiv'><div class='respDivL'>Match<br>(e)</div><div class='respDivR'><font style='color:orange'>No Match<br>(i)</font></div></div></div>","null","FEEDBACK","","","","","","","","","","",""
"html-keyboard-response","150","346253","0.0-7.0-1.23","60cfdcfdf8a3c6c42dad17d3","bdp_wmem","Wed Mar 15 2023 13:51:06 GMT-0600 (Central Standard Time)","578754","Match,No Match","","null","","","","","","<div class='trialBorder'><div class='vertical-center'><img src='img/fixation2_sml.jpg'</img></div></div>","null","FIX","","","","","","","","","","",""
"html-keyboard-response","151","350755","0.0-7.0-2.23","60cfdcfdf8a3c6c42dad17d3","bdp_wmem","Wed Mar 15 2023 13:51:06 GMT-0600 (Central Standard Time)","578754","Match,No Match","","null","","","","","","<div class='trialBorder'><div class='vertical-center'><img style='vertical-align:center; align:center' src='img/fixation2_sml.jpg'></div><div class='arrayDiv3'><div class='tl'><img class='introPic' src='trustrating_stim/white_mw040.bmp'><br><font color='green'><strong>Share</strong></font></div><div class='tc'><img class='introPic' src='trustrating_stim/white_mw085.bmp'><br><font color='green'><strong>Share</strong></font></div><div class='tr'><img class='introPic' src='trustrating_stim/white_mw091.bmp'><br><font color='red'><strong>Keep</strong></font></div></div></div>","null","ARRAY","3","trustrating_stim/white_mw040.bmp,trustrating_stim/white_mw085.bmp,trustrating_stim/white_mw091.bmp","1,1,0","noMatchFace","i","4500","","","","",""
"html-keyboard-response","152","354756","0.0-7.0-3.23","60cfdcfdf8a3c6c42dad17d3","bdp_wmem","Wed Mar 15 2023 13:51:06 GMT-0600 (Central Standard Time)","578754","Match,No Match","","null","","","","","","<div class='trialBorder'><div class='vertical-center'><img src='img/fixation2_sml.jpg'</img></div></div>","null","DELAY","","","","","","","","","","",""
"html-keyboard-response","153","355847","0.0-7.0-4.23","60cfdcfdf8a3c6c42dad17d3","bdp_wmem","Wed Mar 15 2023 13:51:06 GMT-0600 (Central Standard Time)","578754","Match,No Match","","1089","","","","","","<div class='trialBorder'><div class='targDiv'><div class='tc'><img class='introPic' src='trustrating_stim/white_mw078.bmp'><br><font color='red'><strong>Keep</strong></font></div></div><div class='respDiv'><div class='respDivL'>Match<br>(e)</div><div class='respDivR'>No Match<br>(i)</div></div></div>","i","TARGET","3","trustrating_stim/white_mw040.bmp,trustrating_stim/white_mw085.bmp,trustrating_stim/white_mw091.bmp","1,1,0","noMatchFace","i","4500","trustrating_stim/white_mw078.bmp","red","Keep","REAL","1"
"html-keyboard-response","154","356348","0.0-7.0-5.23","60cfdcfdf8a3c6c42dad17d3","bdp_wmem","Wed Mar 15 2023 13:51:06 GMT-0600 (Central Standard Time)","578754","Match,No Match","","null","","","","","","<div class='trialBorder'><div class='vertical-center'><img src='img/correct.jpg'></div><div class='respDiv'><div class='respDivL'>Match<br>(e)</div><div class='respDivR'><font style='color:orange'>No Match<br>(i)</font></div></div></div>","null","FEEDBACK","","","","","","","","","","",""
"html-keyboard-response","155","356850","0.0-7.0-1.24","60cfdcfdf8a3c6c42dad17d3","bdp_wmem","Wed Mar 15 2023 13:51:06 GMT-0600 (Central Standard Time)","578754","Match,No Match","","null","","","","","","<div class='trialBorder'><div class='vertical-center'><img src='img/fixation2_sml.jpg'</img></div></div>","null","FIX","","","","","","","","","","",""
"html-keyboard-response","156","361352","0.0-7.0-2.24","60cfdcfdf8a3c6c42dad17d3","bdp_wmem","Wed Mar 15 2023 13:51:06 GMT-0600 (Central Standard Time)","578754","Match,No Match","","null","","","","","","<div class='trialBorder'><div class='vertical-center'><img style='vertical-align:center; align:center' src='img/fixation2_sml.jpg'></div><div class='arrayDiv3'><div class='tl'><img class='introPic' src='trustrating_stim/white_mw078.bmp'><br><font color='red'><strong>Keep</strong></font></div><div class='tc'><img class='introPic' src='trustrating_stim/white_mw042.bmp'><br><font color='green'><strong>Share</strong></font></div><div class='tr'><img class='introPic' src='trustrating_stim/white_mw092.bmp'><br><font color='green'><strong>Share</strong></font></div></div></div>","null","ARRAY","3","trustrating_stim/white_mw078.bmp,trustrating_stim/white_mw042.bmp,trustrating_stim/white_mw092.bmp","0,1,1","noMatchOutcome","i","4500","","","","",""
"html-keyboard-response","157","365354","0.0-7.0-3.24","60cfdcfdf8a3c6c42dad17d3","bdp_wmem","Wed Mar 15 2023 13:51:06 GMT-0600 (Central Standard Time)","578754","Match,No Match","","null","","","","","","<div class='trialBorder'><div class='vertical-center'><img src='img/fixation2_sml.jpg'</img></div></div>","null","DELAY","","","","","","","","","","",""
"html-keyboard-response","158","367519","0.0-7.0-4.24","60cfdcfdf8a3c6c42dad17d3","bdp_wmem","Wed Mar 15 2023 13:51:06 GMT-0600 (Central Standard Time)","578754","Match,No Match","","2164","","","","","","<div class='trialBorder'><div class='targDiv'><div class='tc'><img class='introPic' src='trustrating_stim/white_mw042.bmp'><br><font color='red'><strong>Keep</strong></font></div></div><div class='respDiv'><div class='respDivL'>Match<br>(e)</div><div class='respDivR'>No Match<br>(i)</div></div></div>","e","TARGET","3","trustrating_stim/white_mw078.bmp,trustrating_stim/white_mw042.bmp,trustrating_stim/white_mw092.bmp","0,1,1","noMatchOutcome","i","4500","trustrating_stim/white_mw042.bmp","red","Keep","REAL","0"
"html-keyboard-response","159","368020","0.0-7.0-5.24","60cfdcfdf8a3c6c42dad17d3","bdp_wmem","Wed Mar 15 2023 13:51:06 GMT-0600 (Central Standard Time)","578754","Match,No Match","","null","","","","","","<div class='trialBorder'><div class='vertical-center'><img src='img/error.jpg'></div><div class='respDiv'><div class='respDivL'><font style='color:orange'>Match<br>(e)</font></div><div class='respDivR'>No Match<br>(i)</div></div></div>","null","FEEDBACK","","","","","","","","","","",""
"html-keyboard-response","160","368522","0.0-7.0-1.25","60cfdcfdf8a3c6c42dad17d3","bdp_wmem","Wed Mar 15 2023 13:51:06 GMT-0600 (Central Standard Time)","578754","Match,No Match","","null","","","","","","<div class='trialBorder'><div class='vertical-center'><img src='img/fixation2_sml.jpg'</img></div></div>","null","FIX","","","","","","","","","","",""
"html-keyboard-response","161","371523","0.0-7.0-2.25","60cfdcfdf8a3c6c42dad17d3","bdp_wmem","Wed Mar 15 2023 13:51:06 GMT-0600 (Central Standard Time)","578754","Match,No Match","","null","","","","","","<div class='trialBorder'><div class='vertical-center'><img style='vertical-align:center; align:center' src='img/fixation2_sml.jpg'></div><div class='arrayDiv2'><div class='tl'><img class='introPic' src='trustrating_stim/white_mw042.bmp'><br><font color='green'><strong>Share</strong></font></div><div class='tr'><img class='introPic' src='trustrating_stim/white_mw040.bmp'><br><font color='red'><strong>Keep</strong></font></div></div></div>","null","ARRAY","2","trustrating_stim/white_mw042.bmp,trustrating_stim/white_mw040.bmp","1,0","Match","e","3000","","","","",""
"html-keyboard-response","162","375525","0.0-7.0-3.25","60cfdcfdf8a3c6c42dad17d3","bdp_wmem","Wed Mar 15 2023 13:51:06 GMT-0600 (Central Standard Time)","578754","Match,No Match","","null","","","","","","<div class='trialBorder'><div class='vertical-center'><img src='img/fixation2_sml.jpg'</img></div></div>","null","DELAY","","","","","","","","","","",""
"html-keyboard-response","163","376982","0.0-7.0-4.25","60cfdcfdf8a3c6c42dad17d3","bdp_wmem","Wed Mar 15 2023 13:51:06 GMT-0600 (Central Standard Time)","578754","Match,No Match","","1455","","","","","","<div class='trialBorder'><div class='targDiv'><div class='tc'><img class='introPic' src='trustrating_stim/white_mw040.bmp'><br><font color='red'><strong>Keep</strong></font></div></div><div class='respDiv'><div class='respDivL'>Match<br>(e)</div><div class='respDivR'>No Match<br>(i)</div></div></div>","e","TARGET","2","trustrating_stim/white_mw042.bmp,trustrating_stim/white_mw040.bmp","1,0","Match","e","3000","trustrating_stim/white_mw040.bmp","red","Keep","REAL","1"
"html-keyboard-response","164","377483","0.0-7.0-5.25","60cfdcfdf8a3c6c42dad17d3","bdp_wmem","Wed Mar 15 2023 13:51:06 GMT-0600 (Central Standard Time)","578754","Match,No Match","","null","","","","","","<div class='trialBorder'><div class='vertical-center'><img src='img/correct.jpg'></div><div class='respDiv'><div class='respDivL'><font style='color:orange'>Match<br>(e)</font></div><div class='respDivR'>No Match<br>(i)</div></div></div>","null","FEEDBACK","","","","","","","","","","",""
"html-keyboard-response","165","377984","0.0-7.0-1.26","60cfdcfdf8a3c6c42dad17d3","bdp_wmem","Wed Mar 15 2023 13:51:06 GMT-0600 (Central Standard Time)","578754","Match,No Match","","null","","","","","","<div class='trialBorder'><div class='vertical-center'><img src='img/fixation2_sml.jpg'</img></div></div>","null","FIX","","","","","","","","","","",""
"html-keyboard-response","166","380987","0.0-7.0-2.26","60cfdcfdf8a3c6c42dad17d3","bdp_wmem","Wed Mar 15 2023 13:51:06 GMT-0600 (Central Standard Time)","578754","Match,No Match","","null","","","","","","<div class='trialBorder'><div class='vertical-center'><img style='vertical-align:center; align:center' src='img/fixation2_sml.jpg'></div><div class='arrayDiv2'><div class='tl'><img class='introPic' src='trustrating_stim/white_mw092.bmp'><br><font color='red'><strong>Keep</strong></font></div><div class='tr'><img class='introPic' src='trustrating_stim/white_mw042.bmp'><br><font color='green'><strong>Share</strong></font></div></div></div>","null","ARRAY","2","trustrating_stim/white_mw092.bmp,trustrating_stim/white_mw042.bmp","0,1","Match","e","3000","","","","",""
"html-keyboard-response","167","384988","0.0-7.0-3.26","60cfdcfdf8a3c6c42dad17d3","bdp_wmem","Wed Mar 15 2023 13:51:06 GMT-0600 (Central Standard Time)","578754","Match,No Match","","null","","","","","","<div class='trialBorder'><div class='vertical-center'><img src='img/fixation2_sml.jpg'</img></div></div>","null","DELAY","","","","","","","","","","",""
"html-keyboard-response","168","386396","0.0-7.0-4.26","60cfdcfdf8a3c6c42dad17d3","bdp_wmem","Wed Mar 15 2023 13:51:06 GMT-0600 (Central Standard Time)","578754","Match,No Match","","1406","","","","","","<div class='trialBorder'><div class='targDiv'><div class='tc'><img class='introPic' src='trustrating_stim/white_mw092.bmp'><br><font color='red'><strong>Keep</strong></font></div></div><div class='respDiv'><div class='respDivL'>Match<br>(e)</div><div class='respDivR'>No Match<br>(i)</div></div></div>","e","TARGET","2","trustrating_stim/white_mw092.bmp,trustrating_stim/white_mw042.bmp","0,1","Match","e","3000","trustrating_stim/white_mw092.bmp","red","Keep","REAL","1"
"html-keyboard-response","169","386897","0.0-7.0-5.26","60cfdcfdf8a3c6c42dad17d3","bdp_wmem","Wed Mar 15 2023 13:51:06 GMT-0600 (Central Standard Time)","578754","Match,No Match","","null","","","","","","<div class='trialBorder'><div class='vertical-center'><img src='img/correct.jpg'></div><div class='respDiv'><div class='respDivL'><font style='color:orange'>Match<br>(e)</font></div><div class='respDivR'>No Match<br>(i)</div></div></div>","null","FEEDBACK","","","","","","","","","","",""
"html-keyboard-response","170","387400","0.0-7.0-1.27","60cfdcfdf8a3c6c42dad17d3","bdp_wmem","Wed Mar 15 2023 13:51:06 GMT-0600 (Central Standard Time)","578754","Match,No Match","","null","","","","","","<div class='trialBorder'><div class='vertical-center'><img src='img/fixation2_sml.jpg'</img></div></div>","null","FIX","","","","","","","","","","",""
"html-keyboard-response","171","388902","0.0-7.0-2.27","60cfdcfdf8a3c6c42dad17d3","bdp_wmem","Wed Mar 15 2023 13:51:06 GMT-0600 (Central Standard Time)","578754","Match,No Match","","null","","","","","","<div class='trialBorder'><div class='vertical-center'><img style='vertical-align:center; align:center' src='img/fixation2_sml.jpg'></div><div class='arrayDiv1'><div class='tc'><img class='introPic' src='trustrating_stim/white_mw085.bmp'><br><font color='red'><strong>Keep</strong></font></div></div></div>","null","ARRAY","1","trustrating_stim/white_mw085.bmp","0","Match","e","1500","","","","",""
"html-keyboard-response","172","392903","0.0-7.0-3.27","60cfdcfdf8a3c6c42dad17d3","bdp_wmem","Wed Mar 15 2023 13:51:06 GMT-0600 (Central Standard Time)","578754","Match,No Match","","null","","","","","","<div class='trialBorder'><div class='vertical-center'><img src='img/fixation2_sml.jpg'</img></div></div>","null","DELAY","","","","","","","","","","",""
"html-keyboard-response","173","394041","0.0-7.0-4.27","60cfdcfdf8a3c6c42dad17d3","bdp_wmem","Wed Mar 15 2023 13:51:06 GMT-0600 (Central Standard Time)","578754","Match,No Match","","1137","","","","","","<div class='trialBorder'><div class='targDiv'><div class='tc'><img class='introPic' src='trustrating_stim/white_mw085.bmp'><br><font color='red'><strong>Keep</strong></font></div></div><div class='respDiv'><div class='respDivL'>Match<br>(e)</div><div class='respDivR'>No Match<br>(i)</div></div></div>","e","TARGET","1","trustrating_stim/white_mw085.bmp","0","Match","e","1500","trustrating_stim/white_mw085.bmp","red","Keep","REAL","1"
"html-keyboard-response","174","394542","0.0-7.0-5.27","60cfdcfdf8a3c6c42dad17d3","bdp_wmem","Wed Mar 15 2023 13:51:06 GMT-0600 (Central Standard Time)","578754","Match,No Match","","null","","","","","","<div class='trialBorder'><div class='vertical-center'><img src='img/correct.jpg'></div><div class='respDiv'><div class='respDivL'><font style='color:orange'>Match<br>(e)</font></div><div class='respDivR'>No Match<br>(i)</div></div></div>","null","FEEDBACK","","","","","","","","","","",""
"html-keyboard-response","175","395043","0.0-7.0-1.28","60cfdcfdf8a3c6c42dad17d3","bdp_wmem","Wed Mar 15 2023 13:51:06 GMT-0600 (Central Standard Time)","578754","Match,No Match","","null","","","","","","<div class='trialBorder'><div class='vertical-center'><img src='img/fixation2_sml.jpg'</img></div></div>","null","FIX","","","","","","","","","","",""
"html-keyboard-response","176","396544","0.0-7.0-2.28","60cfdcfdf8a3c6c42dad17d3","bdp_wmem","Wed Mar 15 2023 13:51:06 GMT-0600 (Central Standard Time)","578754","Match,No Match","","null","","","","","","<div class='trialBorder'><div class='vertical-center'><img style='vertical-align:center; align:center' src='img/fixation2_sml.jpg'></div><div class='arrayDiv1'><div class='tc'><img class='introPic' src='trustrating_stim/white_mw091.bmp'><br><font color='green'><strong>Share</strong></font></div></div></div>","null","ARRAY","1","trustrating_stim/white_mw091.bmp","1","noMatchOutcome","i","1500","","","","",""
"html-keyboard-response","177","400545","0.0-7.0-3.28","60cfdcfdf8a3c6c42dad17d3","bdp_wmem","Wed Mar 15 2023 13:51:06 GMT-0600 (Central Standard Time)","578754","Match,No Match","","null","","","","","","<div class='trialBorder'><div class='vertical-center'><img src='img/fixation2_sml.jpg'</img></div></div>","null","DELAY","","","","","","","","","","",""
"html-keyboard-response","178","401883","0.0-7.0-4.28","60cfdcfdf8a3c6c42dad17d3","bdp_wmem","Wed Mar 15 2023 13:51:06 GMT-0600 (Central Standard Time)","578754","Match,No Match","","1337","","","","","","<div class='trialBorder'><div class='targDiv'><div class='tc'><img class='introPic' src='trustrating_stim/white_mw091.bmp'><br><font color='red'><strong>Keep</strong></font></div></div><div class='respDiv'><div class='respDivL'>Match<br>(e)</div><div class='respDivR'>No Match<br>(i)</div></div></div>","i","TARGET","1","trustrating_stim/white_mw091.bmp","1","noMatchOutcome","i","1500","trustrating_stim/white_mw091.bmp","red","Keep","REAL","1"
"html-keyboard-response","179","402384","0.0-7.0-5.28","60cfdcfdf8a3c6c42dad17d3","bdp_wmem","Wed Mar 15 2023 13:51:06 GMT-0600 (Central Standard Time)","578754","Match,No Match","","null","","","","","","<div class='trialBorder'><div class='vertical-center'><img src='img/correct.jpg'></div><div class='respDiv'><div class='respDivL'>Match<br>(e)</div><div class='respDivR'><font style='color:orange'>No Match<br>(i)</font></div></div></div>","null","FEEDBACK","","","","","","","","","","",""
"html-keyboard-response","180","402886","0.0-7.0-1.29","60cfdcfdf8a3c6c42dad17d3","bdp_wmem","Wed Mar 15 2023 13:51:06 GMT-0600 (Central Standard Time)","578754","Match,No Match","","null","","","","","","<div class='trialBorder'><div class='vertical-center'><img src='img/fixation2_sml.jpg'</img></div></div>","null","FIX","","","","","","","","","","",""
"html-keyboard-response","181","407389","0.0-7.0-2.29","60cfdcfdf8a3c6c42dad17d3","bdp_wmem","Wed Mar 15 2023 13:51:06 GMT-0600 (Central Standard Time)","578754","Match,No Match","","null","","","","","","<div class='trialBorder'><div class='vertical-center'><img style='vertical-align:center; align:center' src='img/fixation2_sml.jpg'></div><div class='arrayDiv3'><div class='tl'><img class='introPic' src='trustrating_stim/white_mw012.bmp'><br><font color='green'><strong>Share</strong></font></div><div class='tc'><img class='introPic' src='trustrating_stim/white_mw070.bmp'><br><font color='red'><strong>Keep</strong></font></div><div class='tr'><img class='introPic' src='trustrating_stim/white_mw003.bmp'><br><font color='red'><strong>Keep</strong></font></div></div></div>","null","ARRAY","3","trustrating_stim/white_mw012.bmp,trustrating_stim/white_mw070.bmp,trustrating_stim/white_mw003.bmp","1,0,0","noMatchFace","i","4500","","","","",""
"html-keyboard-response","182","411391","0.0-7.0-3.29","60cfdcfdf8a3c6c42dad17d3","bdp_wmem","Wed Mar 15 2023 13:51:06 GMT-0600 (Central Standard Time)","578754","Match,No Match","","null","","","","","","<div class='trialBorder'><div class='vertical-center'><img src='img/fixation2_sml.jpg'</img></div></div>","null","DELAY","","","","","","","","","","",""
"html-keyboard-response","183","412562","0.0-7.0-4.29","60cfdcfdf8a3c6c42dad17d3","bdp_wmem","Wed Mar 15 2023 13:51:06 GMT-0600 (Central Standard Time)","578754","Match,No Match","","1170","","","","","","<div class='trialBorder'><div class='targDiv'><div class='tc'><img class='introPic' src='trustrating_stim/white_mw038.bmp'><br><font color='green'><strong>Share</strong></font></div></div><div class='respDiv'><div class='respDivL'>Match<br>(e)</div><div class='respDivR'>No Match<br>(i)</div></div></div>","i","TARGET","3","trustrating_stim/white_mw012.bmp,trustrating_stim/white_mw070.bmp,trustrating_stim/white_mw003.bmp","1,0,0","noMatchFace","i","4500","trustrating_stim/white_mw038.bmp","green","Share","REAL","1"
"html-keyboard-response","184","413062","0.0-7.0-5.29","60cfdcfdf8a3c6c42dad17d3","bdp_wmem","Wed Mar 15 2023 13:51:06 GMT-0600 (Central Standard Time)","578754","Match,No Match","","null","","","","","","<div class='trialBorder'><div class='vertical-center'><img src='img/correct.jpg'></div><div class='respDiv'><div class='respDivL'>Match<br>(e)</div><div class='respDivR'><font style='color:orange'>No Match<br>(i)</font></div></div></div>","null","FEEDBACK","","","","","","","","","","",""
"html-keyboard-response","185","413564","0.0-7.0-1.30","60cfdcfdf8a3c6c42dad17d3","bdp_wmem","Wed Mar 15 2023 13:51:06 GMT-0600 (Central Standard Time)","578754","Match,No Match","","null","","","","","","<div class='trialBorder'><div class='vertical-center'><img src='img/fixation2_sml.jpg'</img></div></div>","null","FIX","","","","","","","","","","",""
"html-keyboard-response","186","416566","0.0-7.0-2.30","60cfdcfdf8a3c6c42dad17d3","bdp_wmem","Wed Mar 15 2023 13:51:06 GMT-0600 (Central Standard Time)","578754","Match,No Match","","null","","","","","","<div class='trialBorder'><div class='vertical-center'><img style='vertical-align:center; align:center' src='img/fixation2_sml.jpg'></div><div class='arrayDiv2'><div class='tl'><img class='introPic' src='trustrating_stim/white_mw092.bmp'><br><font color='green'><strong>Share</strong></font></div><div class='tr'><img class='introPic' src='trustrating_stim/white_mw003.bmp'><br><font color='red'><strong>Keep</strong></font></div></div></div>","null","ARRAY","2","trustrating_stim/white_mw092.bmp,trustrating_stim/white_mw003.bmp","1,0","Match","e","3000","","","","",""
