"trial_type","trial_index","time_elapsed","internal_node_id","subject_id","task","startTime","totalTime","labels","view_history","rt","event","trial","time","trialtype","success","stimulus","key_press","stimType","arraySize","arrayFaces","arrayOutcomes","matchType","corrResp","arrayDur","targFace","targCol","targOutcome","trialType","corr"
"pavlovia","0","9","0.0-0.0","lempert2","bdp_wmem","Wed Feb 22 2023 18:37:18 GMT-0500 (Colombia Standard Time)","623448","Match,No Match","","","","","","","","","","","","","","","","","","","","",""
"instructions","1","4325","0.0-1.0","lempert2","bdp_wmem","Wed Feb 22 2023 18:37:18 GMT-0500 (Colombia Standard Time)","623448","Match,No Match","[{""page_index"":0,""viewing_time"":4315}]","4315","","","","","","","","","","","","","","","","","","",""
"","","","","lempert2","bdp_wmem","Wed Feb 22 2023 18:37:18 GMT-0500 (Colombia Standard Time)","623448","Match,No Match","","","fullscreenenter","2","5846","fullscreenenter","","","","","","","","","","","","","","",""
"fullscreen","2","6824","0.0-2.0","lempert2","bdp_wmem","Wed Feb 22 2023 18:37:18 GMT-0500 (Colombia Standard Time)","623448","Match,No Match","","","","","","","true","","","","","","","","","","","","","",""
"instructions","3","125745","0.0-4.0","lempert2","bdp_wmem","Wed Feb 22 2023 18:37:18 GMT-0500 (Colombia Standard Time)","623448","Match,No Match","[{""page_index"":0,""viewing_time"":33483},{""page_index"":1,""viewing_time"":4108},{""page_index"":0,""viewing_time"":20126},{""page_index"":1,""viewing_time"":10715},{""page_index"":2,""viewing_time"":9148},{""page_index"":1,""viewing_time"":12192},{""page_index"":2,""viewing_time"":3390},{""page_index"":3,""viewing_time"":2524},{""page_index"":4,""viewing_time"":23233}]","118919","","","","","","","","","","","","","","","","","","",""
"html-keyboard-response","4","126257","0.0-5.0-1.0","lempert2","bdp_wmem","Wed Feb 22 2023 18:37:18 GMT-0500 (Colombia Standard Time)","623448","Match,No Match","","null","","","","","","<div class='trialBorder'><div class='vertical-center'><img src='img/fixation2_sml.jpg'</img></div></div>","null","FIX","","","","","","","","","","",""
"html-keyboard-response","5","130761","0.0-5.0-2.0","lempert2","bdp_wmem","Wed Feb 22 2023 18:37:18 GMT-0500 (Colombia Standard Time)","623448","Match,No Match","","null","","","","","","<div class='trialBorder'><div class='vertical-center'><img style='vertical-align:center; align:center' src='img/fixation2_sml.jpg'></div><div class='arrayDiv3'><div class='tl'><img class='introPic' src='trustrating_stim/white_mw040.bmp'><br><font color='green'><strong>Share</strong></font></div><div class='tc'><img class='introPic' src='trustrating_stim/white_mw010.bmp'><br><font color='red'><strong>Keep</strong></font></div><div class='tr'><img class='introPic' src='trustrating_stim/white_mw038.bmp'><br><font color='green'><strong>Share</strong></font></div></div></div>","null","ARRAY","3","trustrating_stim/white_mw040.bmp,trustrating_stim/white_mw010.bmp,trustrating_stim/white_mw038.bmp","1,0,1","Match","e","4500","","","","",""
"html-keyboard-response","6","134772","0.0-5.0-3.0","lempert2","bdp_wmem","Wed Feb 22 2023 18:37:18 GMT-0500 (Colombia Standard Time)","623448","Match,No Match","","null","","","","","","<div class='trialBorder'><div class='vertical-center'><img src='img/fixation2_sml.jpg'</img></div></div>","null","DELAY","","","","","","","","","","",""
"html-keyboard-response","7","137781","0.0-5.0-4.0","lempert2","bdp_wmem","Wed Feb 22 2023 18:37:18 GMT-0500 (Colombia Standard Time)","623448","Match,No Match","","3006","","","","","","<div class='trialBorder'><div class='targDiv'><div class='tc'><img class='introPic' src='trustrating_stim/white_mw038.bmp'><br><font color='green'><strong>Share</strong></font></div></div><div class='respDiv'><div class='respDivL'>Match<br>(e)</div><div class='respDivR'>No Match<br>(i)</div></div></div>","e","TARGET","3","trustrating_stim/white_mw040.bmp,trustrating_stim/white_mw010.bmp,trustrating_stim/white_mw038.bmp","1,0,1","Match","e","4500","trustrating_stim/white_mw038.bmp","green","Share","PRACTICE","1"
"html-keyboard-response","8","138290","0.0-5.0-5.0","lempert2","bdp_wmem","Wed Feb 22 2023 18:37:18 GMT-0500 (Colombia Standard Time)","623448","Match,No Match","","null","","","","","","<div class='trialBorder'><div class='vertical-center'><img src='img/correct.jpg'></div><div class='respDiv'><div class='respDivL'><font style='color:orange'>Match<br>(e)</font></div><div class='respDivR'>No Match<br>(i)</div></div></div>","null","FEEDBACK","","","","","","","","","","",""
"html-keyboard-response","9","138802","0.0-5.0-1.1","lempert2","bdp_wmem","Wed Feb 22 2023 18:37:18 GMT-0500 (Colombia Standard Time)","623448","Match,No Match","","null","","","","","","<div class='trialBorder'><div class='vertical-center'><img src='img/fixation2_sml.jpg'</img></div></div>","null","FIX","","","","","","","","","","",""
"html-keyboard-response","10","141805","0.0-5.0-2.1","lempert2","bdp_wmem","Wed Feb 22 2023 18:37:18 GMT-0500 (Colombia Standard Time)","623448","Match,No Match","","null","","","","","","<div class='trialBorder'><div class='vertical-center'><img style='vertical-align:center; align:center' src='img/fixation2_sml.jpg'></div><div class='arrayDiv2'><div class='tl'><img class='introPic' src='trustrating_stim/white_mw092.bmp'><br><font color='green'><strong>Share</strong></font></div><div class='tr'><img class='introPic' src='trustrating_stim/white_mw042.bmp'><br><font color='red'><strong>Keep</strong></font></div></div></div>","null","ARRAY","2","trustrating_stim/white_mw092.bmp,trustrating_stim/white_mw042.bmp","1,0","noMatchOutcome","i","3000","","","","",""
"html-keyboard-response","11","145813","0.0-5.0-3.1","lempert2","bdp_wmem","Wed Feb 22 2023 18:37:18 GMT-0500 (Colombia Standard Time)","623448","Match,No Match","","null","","","","","","<div class='trialBorder'><div class='vertical-center'><img src='img/fixation2_sml.jpg'</img></div></div>","null","DELAY","","","","","","","","","","",""
"html-keyboard-response","12","148578","0.0-5.0-4.1","lempert2","bdp_wmem","Wed Feb 22 2023 18:37:18 GMT-0500 (Colombia Standard Time)","623448","Match,No Match","","2763","","","","","","<div class='trialBorder'><div class='targDiv'><div class='tc'><img class='introPic' src='trustrating_stim/white_mw042.bmp'><br><font color='green'><strong>Share</strong></font></div></div><div class='respDiv'><div class='respDivL'>Match<br>(e)</div><div class='respDivR'>No Match<br>(i)</div></div></div>","i","TARGET","2","trustrating_stim/white_mw092.bmp,trustrating_stim/white_mw042.bmp","1,0","noMatchOutcome","i","3000","trustrating_stim/white_mw042.bmp","green","Share","PRACTICE","1"
"html-keyboard-response","13","149083","0.0-5.0-5.1","lempert2","bdp_wmem","Wed Feb 22 2023 18:37:18 GMT-0500 (Colombia Standard Time)","623448","Match,No Match","","null","","","","","","<div class='trialBorder'><div class='vertical-center'><img src='img/correct.jpg'></div><div class='respDiv'><div class='respDivL'>Match<br>(e)</div><div class='respDivR'><font style='color:orange'>No Match<br>(i)</font></div></div></div>","null","FEEDBACK","","","","","","","","","","",""
"html-keyboard-response","14","149589","0.0-5.0-1.2","lempert2","bdp_wmem","Wed Feb 22 2023 18:37:18 GMT-0500 (Colombia Standard Time)","623448","Match,No Match","","null","","","","","","<div class='trialBorder'><div class='vertical-center'><img src='img/fixation2_sml.jpg'</img></div></div>","null","FIX","","","","","","","","","","",""
"html-keyboard-response","15","151097","0.0-5.0-2.2","lempert2","bdp_wmem","Wed Feb 22 2023 18:37:18 GMT-0500 (Colombia Standard Time)","623448","Match,No Match","","null","","","","","","<div class='trialBorder'><div class='vertical-center'><img style='vertical-align:center; align:center' src='img/fixation2_sml.jpg'></div><div class='arrayDiv1'><div class='tc'><img class='introPic' src='trustrating_stim/white_mw040.bmp'><br><font color='green'><strong>Share</strong></font></div></div></div>","null","ARRAY","1","trustrating_stim/white_mw040.bmp","1","Match","e","1500","","","","",""
"html-keyboard-response","16","155107","0.0-5.0-3.2","lempert2","bdp_wmem","Wed Feb 22 2023 18:37:18 GMT-0500 (Colombia Standard Time)","623448","Match,No Match","","null","","","","","","<div class='trialBorder'><div class='vertical-center'><img src='img/fixation2_sml.jpg'</img></div></div>","null","DELAY","","","","","","","","","","",""
"html-keyboard-response","17","156043","0.0-5.0-4.2","lempert2","bdp_wmem","Wed Feb 22 2023 18:37:18 GMT-0500 (Colombia Standard Time)","623448","Match,No Match","","934","","","","","","<div class='trialBorder'><div class='targDiv'><div class='tc'><img class='introPic' src='trustrating_stim/white_mw040.bmp'><br><font color='green'><strong>Share</strong></font></div></div><div class='respDiv'><div class='respDivL'>Match<br>(e)</div><div class='respDivR'>No Match<br>(i)</div></div></div>","e","TARGET","1","trustrating_stim/white_mw040.bmp","1","Match","e","1500","trustrating_stim/white_mw040.bmp","green","Share","PRACTICE","1"
"html-keyboard-response","18","156551","0.0-5.0-5.2","lempert2","bdp_wmem","Wed Feb 22 2023 18:37:18 GMT-0500 (Colombia Standard Time)","623448","Match,No Match","","null","","","","","","<div class='trialBorder'><div class='vertical-center'><img src='img/correct.jpg'></div><div class='respDiv'><div class='respDivL'><font style='color:orange'>Match<br>(e)</font></div><div class='respDivR'>No Match<br>(i)</div></div></div>","null","FEEDBACK","","","","","","","","","","",""
"html-keyboard-response","19","157053","0.0-5.0-1.3","lempert2","bdp_wmem","Wed Feb 22 2023 18:37:18 GMT-0500 (Colombia Standard Time)","623448","Match,No Match","","null","","","","","","<div class='trialBorder'><div class='vertical-center'><img src='img/fixation2_sml.jpg'</img></div></div>","null","FIX","","","","","","","","","","",""
"html-keyboard-response","20","158556","0.0-5.0-2.3","lempert2","bdp_wmem","Wed Feb 22 2023 18:37:18 GMT-0500 (Colombia Standard Time)","623448","Match,No Match","","null","","","","","","<div class='trialBorder'><div class='vertical-center'><img style='vertical-align:center; align:center' src='img/fixation2_sml.jpg'></div><div class='arrayDiv1'><div class='tc'><img class='introPic' src='trustrating_stim/white_mw003.bmp'><br><font color='green'><strong>Share</strong></font></div></div></div>","null","ARRAY","1","trustrating_stim/white_mw003.bmp","1","noMatchFace","i","1500","","","","",""
"html-keyboard-response","21","162561","0.0-5.0-3.3","lempert2","bdp_wmem","Wed Feb 22 2023 18:37:18 GMT-0500 (Colombia Standard Time)","623448","Match,No Match","","null","","","","","","<div class='trialBorder'><div class='vertical-center'><img src='img/fixation2_sml.jpg'</img></div></div>","null","DELAY","","","","","","","","","","",""
"html-keyboard-response","22","163082","0.0-5.0-4.3","lempert2","bdp_wmem","Wed Feb 22 2023 18:37:18 GMT-0500 (Colombia Standard Time)","623448","Match,No Match","","518","","","","","","<div class='trialBorder'><div class='targDiv'><div class='tc'><img class='introPic' src='trustrating_stim/white_mw042.bmp'><br><font color='green'><strong>Share</strong></font></div></div><div class='respDiv'><div class='respDivL'>Match<br>(e)</div><div class='respDivR'>No Match<br>(i)</div></div></div>","e","TARGET","1","trustrating_stim/white_mw003.bmp","1","noMatchFace","i","1500","trustrating_stim/white_mw042.bmp","green","Share","PRACTICE","0"
"html-keyboard-response","23","163595","0.0-5.0-5.3","lempert2","bdp_wmem","Wed Feb 22 2023 18:37:18 GMT-0500 (Colombia Standard Time)","623448","Match,No Match","","null","","","","","","<div class='trialBorder'><div class='vertical-center'><img src='img/error.jpg'></div><div class='respDiv'><div class='respDivL'><font style='color:orange'>Match<br>(e)</font></div><div class='respDivR'>No Match<br>(i)</div></div></div>","null","FEEDBACK","","","","","","","","","","",""
"html-keyboard-response","24","164102","0.0-5.0-1.4","lempert2","bdp_wmem","Wed Feb 22 2023 18:37:18 GMT-0500 (Colombia Standard Time)","623448","Match,No Match","","null","","","","","","<div class='trialBorder'><div class='vertical-center'><img src='img/fixation2_sml.jpg'</img></div></div>","null","FIX","","","","","","","","","","",""
"html-keyboard-response","25","168607","0.0-5.0-2.4","lempert2","bdp_wmem","Wed Feb 22 2023 18:37:18 GMT-0500 (Colombia Standard Time)","623448","Match,No Match","","null","","","","","","<div class='trialBorder'><div class='vertical-center'><img style='vertical-align:center; align:center' src='img/fixation2_sml.jpg'></div><div class='arrayDiv3'><div class='tl'><img class='introPic' src='trustrating_stim/white_mw085.bmp'><br><font color='red'><strong>Keep</strong></font></div><div class='tc'><img class='introPic' src='trustrating_stim/white_mw012.bmp'><br><font color='green'><strong>Share</strong></font></div><div class='tr'><img class='introPic' src='trustrating_stim/white_mw038.bmp'><br><font color='red'><strong>Keep</strong></font></div></div></div>","null","ARRAY","3","trustrating_stim/white_mw085.bmp,trustrating_stim/white_mw012.bmp,trustrating_stim/white_mw038.bmp","0,1,0","noMatchOutcome","i","4500","","","","",""
"html-keyboard-response","26","172613","0.0-5.0-3.4","lempert2","bdp_wmem","Wed Feb 22 2023 18:37:18 GMT-0500 (Colombia Standard Time)","623448","Match,No Match","","null","","","","","","<div class='trialBorder'><div class='vertical-center'><img src='img/fixation2_sml.jpg'</img></div></div>","null","DELAY","","","","","","","","","","",""
"html-keyboard-response","27","173839","0.0-5.0-4.4","lempert2","bdp_wmem","Wed Feb 22 2023 18:37:18 GMT-0500 (Colombia Standard Time)","623448","Match,No Match","","1223","","","","","","<div class='trialBorder'><div class='targDiv'><div class='tc'><img class='introPic' src='trustrating_stim/white_mw038.bmp'><br><font color='green'><strong>Share</strong></font></div></div><div class='respDiv'><div class='respDivL'>Match<br>(e)</div><div class='respDivR'>No Match<br>(i)</div></div></div>","e","TARGET","3","trustrating_stim/white_mw085.bmp,trustrating_stim/white_mw012.bmp,trustrating_stim/white_mw038.bmp","0,1,0","noMatchOutcome","i","4500","trustrating_stim/white_mw038.bmp","green","Share","PRACTICE","0"
"html-keyboard-response","28","174352","0.0-5.0-5.4","lempert2","bdp_wmem","Wed Feb 22 2023 18:37:18 GMT-0500 (Colombia Standard Time)","623448","Match,No Match","","null","","","","","","<div class='trialBorder'><div class='vertical-center'><img src='img/error.jpg'></div><div class='respDiv'><div class='respDivL'><font style='color:orange'>Match<br>(e)</font></div><div class='respDivR'>No Match<br>(i)</div></div></div>","null","FEEDBACK","","","","","","","","","","",""
"html-keyboard-response","29","174859","0.0-5.0-1.5","lempert2","bdp_wmem","Wed Feb 22 2023 18:37:18 GMT-0500 (Colombia Standard Time)","623448","Match,No Match","","null","","","","","","<div class='trialBorder'><div class='vertical-center'><img src='img/fixation2_sml.jpg'</img></div></div>","null","FIX","","","","","","","","","","",""
"html-keyboard-response","30","177870","0.0-5.0-2.5","lempert2","bdp_wmem","Wed Feb 22 2023 18:37:18 GMT-0500 (Colombia Standard Time)","623448","Match,No Match","","null","","","","","","<div class='trialBorder'><div class='vertical-center'><img style='vertical-align:center; align:center' src='img/fixation2_sml.jpg'></div><div class='arrayDiv2'><div class='tl'><img class='introPic' src='trustrating_stim/white_mw003.bmp'><br><font color='red'><strong>Keep</strong></font></div><div class='tr'><img class='introPic' src='trustrating_stim/white_mw070.bmp'><br><font color='green'><strong>Share</strong></font></div></div></div>","null","ARRAY","2","trustrating_stim/white_mw003.bmp,trustrating_stim/white_mw070.bmp","0,1","Match","e","3000","","","","",""
"html-keyboard-response","31","181882","0.0-5.0-3.5","lempert2","bdp_wmem","Wed Feb 22 2023 18:37:18 GMT-0500 (Colombia Standard Time)","623448","Match,No Match","","null","","","","","","<div class='trialBorder'><div class='vertical-center'><img src='img/fixation2_sml.jpg'</img></div></div>","null","DELAY","","","","","","","","","","",""
"html-keyboard-response","32","184114","0.0-5.0-4.5","lempert2","bdp_wmem","Wed Feb 22 2023 18:37:18 GMT-0500 (Colombia Standard Time)","623448","Match,No Match","","2229","","","","","","<div class='trialBorder'><div class='targDiv'><div class='tc'><img class='introPic' src='trustrating_stim/white_mw070.bmp'><br><font color='green'><strong>Share</strong></font></div></div><div class='respDiv'><div class='respDivL'>Match<br>(e)</div><div class='respDivR'>No Match<br>(i)</div></div></div>","e","TARGET","2","trustrating_stim/white_mw003.bmp,trustrating_stim/white_mw070.bmp","0,1","Match","e","3000","trustrating_stim/white_mw070.bmp","green","Share","PRACTICE","1"
"html-keyboard-response","33","184623","0.0-5.0-5.5","lempert2","bdp_wmem","Wed Feb 22 2023 18:37:18 GMT-0500 (Colombia Standard Time)","623448","Match,No Match","","null","","","","","","<div class='trialBorder'><div class='vertical-center'><img src='img/correct.jpg'></div><div class='respDiv'><div class='respDivL'><font style='color:orange'>Match<br>(e)</font></div><div class='respDivR'>No Match<br>(i)</div></div></div>","null","FEEDBACK","","","","","","","","","","",""
"instructions","34","185492","0.0-6.0","lempert2","bdp_wmem","Wed Feb 22 2023 18:37:18 GMT-0500 (Colombia Standard Time)","623448","Match,No Match","[{""page_index"":0,""viewing_time"":868}]","868","","","","","","","","","","","","","","","","","","",""
"html-keyboard-response","35","186002","0.0-7.0-1.0","lempert2","bdp_wmem","Wed Feb 22 2023 18:37:18 GMT-0500 (Colombia Standard Time)","623448","Match,No Match","","null","","","","","","<div class='trialBorder'><div class='vertical-center'><img src='img/fixation2_sml.jpg'</img></div></div>","null","FIX","","","","","","","","","","",""
"html-keyboard-response","36","187505","0.0-7.0-2.0","lempert2","bdp_wmem","Wed Feb 22 2023 18:37:18 GMT-0500 (Colombia Standard Time)","623448","Match,No Match","","null","","","","","","<div class='trialBorder'><div class='vertical-center'><img style='vertical-align:center; align:center' src='img/fixation2_sml.jpg'></div><div class='arrayDiv1'><div class='tc'><img class='introPic' src='trustrating_stim/white_mw092.bmp'><br><font color='green'><strong>Share</strong></font></div></div></div>","null","ARRAY","1","trustrating_stim/white_mw092.bmp","1","noMatchFace","i","1500","","","","",""
"html-keyboard-response","37","191513","0.0-7.0-3.0","lempert2","bdp_wmem","Wed Feb 22 2023 18:37:18 GMT-0500 (Colombia Standard Time)","623448","Match,No Match","","null","","","","","","<div class='trialBorder'><div class='vertical-center'><img src='img/fixation2_sml.jpg'</img></div></div>","null","DELAY","","","","","","","","","","",""
"html-keyboard-response","38","192757","0.0-7.0-4.0","lempert2","bdp_wmem","Wed Feb 22 2023 18:37:18 GMT-0500 (Colombia Standard Time)","623448","Match,No Match","","1242","","","","","","<div class='trialBorder'><div class='targDiv'><div class='tc'><img class='introPic' src='trustrating_stim/white_mw085.bmp'><br><font color='green'><strong>Share</strong></font></div></div><div class='respDiv'><div class='respDivL'>Match<br>(e)</div><div class='respDivR'>No Match<br>(i)</div></div></div>","i","TARGET","1","trustrating_stim/white_mw092.bmp","1","noMatchFace","i","1500","trustrating_stim/white_mw085.bmp","green","Share","REAL","1"
"html-keyboard-response","39","193273","0.0-7.0-5.0","lempert2","bdp_wmem","Wed Feb 22 2023 18:37:18 GMT-0500 (Colombia Standard Time)","623448","Match,No Match","","null","","","","","","<div class='trialBorder'><div class='vertical-center'><img src='img/correct.jpg'></div><div class='respDiv'><div class='respDivL'>Match<br>(e)</div><div class='respDivR'><font style='color:orange'>No Match<br>(i)</font></div></div></div>","null","FEEDBACK","","","","","","","","","","",""
"html-keyboard-response","40","193778","0.0-7.0-1.1","lempert2","bdp_wmem","Wed Feb 22 2023 18:37:18 GMT-0500 (Colombia Standard Time)","623448","Match,No Match","","null","","","","","","<div class='trialBorder'><div class='vertical-center'><img src='img/fixation2_sml.jpg'</img></div></div>","null","FIX","","","","","","","","","","",""
"html-keyboard-response","41","196792","0.0-7.0-2.1","lempert2","bdp_wmem","Wed Feb 22 2023 18:37:18 GMT-0500 (Colombia Standard Time)","623448","Match,No Match","","null","","","","","","<div class='trialBorder'><div class='vertical-center'><img style='vertical-align:center; align:center' src='img/fixation2_sml.jpg'></div><div class='arrayDiv2'><div class='tl'><img class='introPic' src='trustrating_stim/white_mw040.bmp'><br><font color='red'><strong>Keep</strong></font></div><div class='tr'><img class='introPic' src='trustrating_stim/white_mw013.bmp'><br><font color='green'><strong>Share</strong></font></div></div></div>","null","ARRAY","2","trustrating_stim/white_mw040.bmp,trustrating_stim/white_mw013.bmp","0,1","Match","e","3000","","","","",""
"html-keyboard-response","42","200801","0.0-7.0-3.1","lempert2","bdp_wmem","Wed Feb 22 2023 18:37:18 GMT-0500 (Colombia Standard Time)","623448","Match,No Match","","null","","","","","","<div class='trialBorder'><div class='vertical-center'><img src='img/fixation2_sml.jpg'</img></div></div>","null","DELAY","","","","","","","","","","",""
"html-keyboard-response","43","202131","0.0-7.0-4.1","lempert2","bdp_wmem","Wed Feb 22 2023 18:37:18 GMT-0500 (Colombia Standard Time)","623448","Match,No Match","","1327","","","","","","<div class='trialBorder'><div class='targDiv'><div class='tc'><img class='introPic' src='trustrating_stim/white_mw040.bmp'><br><font color='red'><strong>Keep</strong></font></div></div><div class='respDiv'><div class='respDivL'>Match<br>(e)</div><div class='respDivR'>No Match<br>(i)</div></div></div>","i","TARGET","2","trustrating_stim/white_mw040.bmp,trustrating_stim/white_mw013.bmp","0,1","Match","e","3000","trustrating_stim/white_mw040.bmp","red","Keep","REAL","0"
"html-keyboard-response","44","202646","0.0-7.0-5.1","lempert2","bdp_wmem","Wed Feb 22 2023 18:37:18 GMT-0500 (Colombia Standard Time)","623448","Match,No Match","","null","","","","","","<div class='trialBorder'><div class='vertical-center'><img src='img/error.jpg'></div><div class='respDiv'><div class='respDivL'>Match<br>(e)</div><div class='respDivR'><font style='color:orange'>No Match<br>(i)</font></div></div></div>","null","FEEDBACK","","","","","","","","","","",""
"html-keyboard-response","45","203151","0.0-7.0-1.2","lempert2","bdp_wmem","Wed Feb 22 2023 18:37:18 GMT-0500 (Colombia Standard Time)","623448","Match,No Match","","null","","","","","","<div class='trialBorder'><div class='vertical-center'><img src='img/fixation2_sml.jpg'</img></div></div>","null","FIX","","","","","","","","","","",""
"html-keyboard-response","46","207654","0.0-7.0-2.2","lempert2","bdp_wmem","Wed Feb 22 2023 18:37:18 GMT-0500 (Colombia Standard Time)","623448","Match,No Match","","null","","","","","","<div class='trialBorder'><div class='vertical-center'><img style='vertical-align:center; align:center' src='img/fixation2_sml.jpg'></div><div class='arrayDiv3'><div class='tl'><img class='introPic' src='trustrating_stim/white_mw092.bmp'><br><font color='green'><strong>Share</strong></font></div><div class='tc'><img class='introPic' src='trustrating_stim/white_mw042.bmp'><br><font color='red'><strong>Keep</strong></font></div><div class='tr'><img class='introPic' src='trustrating_stim/white_mw040.bmp'><br><font color='green'><strong>Share</strong></font></div></div></div>","null","ARRAY","3","trustrating_stim/white_mw092.bmp,trustrating_stim/white_mw042.bmp,trustrating_stim/white_mw040.bmp","1,0,1","Match","e","4500","","","","",""
"html-keyboard-response","47","211662","0.0-7.0-3.2","lempert2","bdp_wmem","Wed Feb 22 2023 18:37:18 GMT-0500 (Colombia Standard Time)","623448","Match,No Match","","null","","","","","","<div class='trialBorder'><div class='vertical-center'><img src='img/fixation2_sml.jpg'</img></div></div>","null","DELAY","","","","","","","","","","",""
"html-keyboard-response","48","212817","0.0-7.0-4.2","lempert2","bdp_wmem","Wed Feb 22 2023 18:37:18 GMT-0500 (Colombia Standard Time)","623448","Match,No Match","","1152","","","","","","<div class='trialBorder'><div class='targDiv'><div class='tc'><img class='introPic' src='trustrating_stim/white_mw092.bmp'><br><font color='green'><strong>Share</strong></font></div></div><div class='respDiv'><div class='respDivL'>Match<br>(e)</div><div class='respDivR'>No Match<br>(i)</div></div></div>","e","TARGET","3","trustrating_stim/white_mw092.bmp,trustrating_stim/white_mw042.bmp,trustrating_stim/white_mw040.bmp","1,0,1","Match","e","4500","trustrating_stim/white_mw092.bmp","green","Share","REAL","1"
"html-keyboard-response","49","213322","0.0-7.0-5.2","lempert2","bdp_wmem","Wed Feb 22 2023 18:37:18 GMT-0500 (Colombia Standard Time)","623448","Match,No Match","","null","","","","","","<div class='trialBorder'><div class='vertical-center'><img src='img/correct.jpg'></div><div class='respDiv'><div class='respDivL'><font style='color:orange'>Match<br>(e)</font></div><div class='respDivR'>No Match<br>(i)</div></div></div>","null","FEEDBACK","","","","","","","","","","",""
"html-keyboard-response","50","213827","0.0-7.0-1.3","lempert2","bdp_wmem","Wed Feb 22 2023 18:37:18 GMT-0500 (Colombia Standard Time)","623448","Match,No Match","","null","","","","","","<div class='trialBorder'><div class='vertical-center'><img src='img/fixation2_sml.jpg'</img></div></div>","null","FIX","","","","","","","","","","",""
"html-keyboard-response","51","218331","0.0-7.0-2.3","lempert2","bdp_wmem","Wed Feb 22 2023 18:37:18 GMT-0500 (Colombia Standard Time)","623448","Match,No Match","","null","","","","","","<div class='trialBorder'><div class='vertical-center'><img style='vertical-align:center; align:center' src='img/fixation2_sml.jpg'></div><div class='arrayDiv3'><div class='tl'><img class='introPic' src='trustrating_stim/white_mw092.bmp'><br><font color='green'><strong>Share</strong></font></div><div class='tc'><img class='introPic' src='trustrating_stim/white_mw010.bmp'><br><font color='red'><strong>Keep</strong></font></div><div class='tr'><img class='introPic' src='trustrating_stim/white_mw091.bmp'><br><font color='green'><strong>Share</strong></font></div></div></div>","null","ARRAY","3","trustrating_stim/white_mw092.bmp,trustrating_stim/white_mw010.bmp,trustrating_stim/white_mw091.bmp","1,0,1","noMatchOutcome","i","4500","","","","",""
"html-keyboard-response","52","222345","0.0-7.0-3.3","lempert2","bdp_wmem","Wed Feb 22 2023 18:37:18 GMT-0500 (Colombia Standard Time)","623448","Match,No Match","","null","","","","","","<div class='trialBorder'><div class='vertical-center'><img src='img/fixation2_sml.jpg'</img></div></div>","null","DELAY","","","","","","","","","","",""
"html-keyboard-response","53","224471","0.0-7.0-4.3","lempert2","bdp_wmem","Wed Feb 22 2023 18:37:18 GMT-0500 (Colombia Standard Time)","623448","Match,No Match","","2122","","","","","","<div class='trialBorder'><div class='targDiv'><div class='tc'><img class='introPic' src='trustrating_stim/white_mw091.bmp'><br><font color='red'><strong>Keep</strong></font></div></div><div class='respDiv'><div class='respDivL'>Match<br>(e)</div><div class='respDivR'>No Match<br>(i)</div></div></div>","i","TARGET","3","trustrating_stim/white_mw092.bmp,trustrating_stim/white_mw010.bmp,trustrating_stim/white_mw091.bmp","1,0,1","noMatchOutcome","i","4500","trustrating_stim/white_mw091.bmp","red","Keep","REAL","1"
"html-keyboard-response","54","224975","0.0-7.0-5.3","lempert2","bdp_wmem","Wed Feb 22 2023 18:37:18 GMT-0500 (Colombia Standard Time)","623448","Match,No Match","","null","","","","","","<div class='trialBorder'><div class='vertical-center'><img src='img/correct.jpg'></div><div class='respDiv'><div class='respDivL'>Match<br>(e)</div><div class='respDivR'><font style='color:orange'>No Match<br>(i)</font></div></div></div>","null","FEEDBACK","","","","","","","","","","",""
"html-keyboard-response","55","225481","0.0-7.0-1.4","lempert2","bdp_wmem","Wed Feb 22 2023 18:37:18 GMT-0500 (Colombia Standard Time)","623448","Match,No Match","","null","","","","","","<div class='trialBorder'><div class='vertical-center'><img src='img/fixation2_sml.jpg'</img></div></div>","null","FIX","","","","","","","","","","",""
"html-keyboard-response","56","229991","0.0-7.0-2.4","lempert2","bdp_wmem","Wed Feb 22 2023 18:37:18 GMT-0500 (Colombia Standard Time)","623448","Match,No Match","","null","","","","","","<div class='trialBorder'><div class='vertical-center'><img style='vertical-align:center; align:center' src='img/fixation2_sml.jpg'></div><div class='arrayDiv3'><div class='tl'><img class='introPic' src='trustrating_stim/white_mw085.bmp'><br><font color='green'><strong>Share</strong></font></div><div class='tc'><img class='introPic' src='trustrating_stim/white_mw040.bmp'><br><font color='red'><strong>Keep</strong></font></div><div class='tr'><img class='introPic' src='trustrating_stim/white_mw042.bmp'><br><font color='green'><strong>Share</strong></font></div></div></div>","null","ARRAY","3","trustrating_stim/white_mw085.bmp,trustrating_stim/white_mw040.bmp,trustrating_stim/white_mw042.bmp","1,0,1","Match","e","4500","","","","",""
"html-keyboard-response","57","233995","0.0-7.0-3.4","lempert2","bdp_wmem","Wed Feb 22 2023 18:37:18 GMT-0500 (Colombia Standard Time)","623448","Match,No Match","","null","","","","","","<div class='trialBorder'><div class='vertical-center'><img src='img/fixation2_sml.jpg'</img></div></div>","null","DELAY","","","","","","","","","","",""
"html-keyboard-response","58","235268","0.0-7.0-4.4","lempert2","bdp_wmem","Wed Feb 22 2023 18:37:18 GMT-0500 (Colombia Standard Time)","623448","Match,No Match","","1271","","","","","","<div class='trialBorder'><div class='targDiv'><div class='tc'><img class='introPic' src='trustrating_stim/white_mw042.bmp'><br><font color='green'><strong>Share</strong></font></div></div><div class='respDiv'><div class='respDivL'>Match<br>(e)</div><div class='respDivR'>No Match<br>(i)</div></div></div>","e","TARGET","3","trustrating_stim/white_mw085.bmp,trustrating_stim/white_mw040.bmp,trustrating_stim/white_mw042.bmp","1,0,1","Match","e","4500","trustrating_stim/white_mw042.bmp","green","Share","REAL","1"
"html-keyboard-response","59","235780","0.0-7.0-5.4","lempert2","bdp_wmem","Wed Feb 22 2023 18:37:18 GMT-0500 (Colombia Standard Time)","623448","Match,No Match","","null","","","","","","<div class='trialBorder'><div class='vertical-center'><img src='img/correct.jpg'></div><div class='respDiv'><div class='respDivL'><font style='color:orange'>Match<br>(e)</font></div><div class='respDivR'>No Match<br>(i)</div></div></div>","null","FEEDBACK","","","","","","","","","","",""
"html-keyboard-response","60","236284","0.0-7.0-1.5","lempert2","bdp_wmem","Wed Feb 22 2023 18:37:18 GMT-0500 (Colombia Standard Time)","623448","Match,No Match","","null","","","","","","<div class='trialBorder'><div class='vertical-center'><img src='img/fixation2_sml.jpg'</img></div></div>","null","FIX","","","","","","","","","","",""
"html-keyboard-response","61","240795","0.0-7.0-2.5","lempert2","bdp_wmem","Wed Feb 22 2023 18:37:18 GMT-0500 (Colombia Standard Time)","623448","Match,No Match","","null","","","","","","<div class='trialBorder'><div class='vertical-center'><img style='vertical-align:center; align:center' src='img/fixation2_sml.jpg'></div><div class='arrayDiv3'><div class='tl'><img class='introPic' src='trustrating_stim/white_mw038.bmp'><br><font color='red'><strong>Keep</strong></font></div><div class='tc'><img class='introPic' src='trustrating_stim/white_mw042.bmp'><br><font color='red'><strong>Keep</strong></font></div><div class='tr'><img class='introPic' src='trustrating_stim/white_mw012.bmp'><br><font color='green'><strong>Share</strong></font></div></div></div>","null","ARRAY","3","trustrating_stim/white_mw038.bmp,trustrating_stim/white_mw042.bmp,trustrating_stim/white_mw012.bmp","0,0,1","Match","e","4500","","","","",""
"html-keyboard-response","62","244804","0.0-7.0-3.5","lempert2","bdp_wmem","Wed Feb 22 2023 18:37:18 GMT-0500 (Colombia Standard Time)","623448","Match,No Match","","null","","","","","","<div class='trialBorder'><div class='vertical-center'><img src='img/fixation2_sml.jpg'</img></div></div>","null","DELAY","","","","","","","","","","",""
"html-keyboard-response","63","245931","0.0-7.0-4.5","lempert2","bdp_wmem","Wed Feb 22 2023 18:37:18 GMT-0500 (Colombia Standard Time)","623448","Match,No Match","","1125","","","","","","<div class='trialBorder'><div class='targDiv'><div class='tc'><img class='introPic' src='trustrating_stim/white_mw012.bmp'><br><font color='green'><strong>Share</strong></font></div></div><div class='respDiv'><div class='respDivL'>Match<br>(e)</div><div class='respDivR'>No Match<br>(i)</div></div></div>","e","TARGET","3","trustrating_stim/white_mw038.bmp,trustrating_stim/white_mw042.bmp,trustrating_stim/white_mw012.bmp","0,0,1","Match","e","4500","trustrating_stim/white_mw012.bmp","green","Share","REAL","1"
"html-keyboard-response","64","246440","0.0-7.0-5.5","lempert2","bdp_wmem","Wed Feb 22 2023 18:37:18 GMT-0500 (Colombia Standard Time)","623448","Match,No Match","","null","","","","","","<div class='trialBorder'><div class='vertical-center'><img src='img/correct.jpg'></div><div class='respDiv'><div class='respDivL'><font style='color:orange'>Match<br>(e)</font></div><div class='respDivR'>No Match<br>(i)</div></div></div>","null","FEEDBACK","","","","","","","","","","",""
"html-keyboard-response","65","246949","0.0-7.0-1.6","lempert2","bdp_wmem","Wed Feb 22 2023 18:37:18 GMT-0500 (Colombia Standard Time)","623448","Match,No Match","","null","","","","","","<div class='trialBorder'><div class='vertical-center'><img src='img/fixation2_sml.jpg'</img></div></div>","null","FIX","","","","","","","","","","",""
"html-keyboard-response","66","249959","0.0-7.0-2.6","lempert2","bdp_wmem","Wed Feb 22 2023 18:37:18 GMT-0500 (Colombia Standard Time)","623448","Match,No Match","","null","","","","","","<div class='trialBorder'><div class='vertical-center'><img style='vertical-align:center; align:center' src='img/fixation2_sml.jpg'></div><div class='arrayDiv2'><div class='tl'><img class='introPic' src='trustrating_stim/white_mw042.bmp'><br><font color='red'><strong>Keep</strong></font></div><div class='tr'><img class='introPic' src='trustrating_stim/white_mw085.bmp'><br><font color='green'><strong>Share</strong></font></div></div></div>","null","ARRAY","2","trustrating_stim/white_mw042.bmp,trustrating_stim/white_mw085.bmp","0,1","Match","e","3000","","","","",""
"html-keyboard-response","67","253962","0.0-7.0-3.6","lempert2","bdp_wmem","Wed Feb 22 2023 18:37:18 GMT-0500 (Colombia Standard Time)","623448","Match,No Match","","null","","","","","","<div class='trialBorder'><div class='vertical-center'><img src='img/fixation2_sml.jpg'</img></div></div>","null","DELAY","","","","","","","","","","",""
"html-keyboard-response","68","257444","0.0-7.0-4.6","lempert2","bdp_wmem","Wed Feb 22 2023 18:37:18 GMT-0500 (Colombia Standard Time)","623448","Match,No Match","","3480","","","","","","<div class='trialBorder'><div class='targDiv'><div class='tc'><img class='introPic' src='trustrating_stim/white_mw042.bmp'><br><font color='red'><strong>Keep</strong></font></div></div><div class='respDiv'><div class='respDivL'>Match<br>(e)</div><div class='respDivR'>No Match<br>(i)</div></div></div>","e","TARGET","2","trustrating_stim/white_mw042.bmp,trustrating_stim/white_mw085.bmp","0,1","Match","e","3000","trustrating_stim/white_mw042.bmp","red","Keep","REAL","1"
"html-keyboard-response","69","257953","0.0-7.0-5.6","lempert2","bdp_wmem","Wed Feb 22 2023 18:37:18 GMT-0500 (Colombia Standard Time)","623448","Match,No Match","","null","","","","","","<div class='trialBorder'><div class='vertical-center'><img src='img/correct.jpg'></div><div class='respDiv'><div class='respDivL'><font style='color:orange'>Match<br>(e)</font></div><div class='respDivR'>No Match<br>(i)</div></div></div>","null","FEEDBACK","","","","","","","","","","",""
"html-keyboard-response","70","258462","0.0-7.0-1.7","lempert2","bdp_wmem","Wed Feb 22 2023 18:37:18 GMT-0500 (Colombia Standard Time)","623448","Match,No Match","","null","","","","","","<div class='trialBorder'><div class='vertical-center'><img src='img/fixation2_sml.jpg'</img></div></div>","null","FIX","","","","","","","","","","",""
"html-keyboard-response","71","261467","0.0-7.0-2.7","lempert2","bdp_wmem","Wed Feb 22 2023 18:37:18 GMT-0500 (Colombia Standard Time)","623448","Match,No Match","","null","","","","","","<div class='trialBorder'><div class='vertical-center'><img style='vertical-align:center; align:center' src='img/fixation2_sml.jpg'></div><div class='arrayDiv2'><div class='tl'><img class='introPic' src='trustrating_stim/white_mw010.bmp'><br><font color='red'><strong>Keep</strong></font></div><div class='tr'><img class='introPic' src='trustrating_stim/white_mw070.bmp'><br><font color='green'><strong>Share</strong></font></div></div></div>","null","ARRAY","2","trustrating_stim/white_mw010.bmp,trustrating_stim/white_mw070.bmp","0,1","Match","e","3000","","","","",""
"html-keyboard-response","72","265477","0.0-7.0-3.7","lempert2","bdp_wmem","Wed Feb 22 2023 18:37:18 GMT-0500 (Colombia Standard Time)","623448","Match,No Match","","null","","","","","","<div class='trialBorder'><div class='vertical-center'><img src='img/fixation2_sml.jpg'</img></div></div>","null","DELAY","","","","","","","","","","",""
"html-keyboard-response","73","267297","0.0-7.0-4.7","lempert2","bdp_wmem","Wed Feb 22 2023 18:37:18 GMT-0500 (Colombia Standard Time)","623448","Match,No Match","","1818","","","","","","<div class='trialBorder'><div class='targDiv'><div class='tc'><img class='introPic' src='trustrating_stim/white_mw070.bmp'><br><font color='green'><strong>Share</strong></font></div></div><div class='respDiv'><div class='respDivL'>Match<br>(e)</div><div class='respDivR'>No Match<br>(i)</div></div></div>","e","TARGET","2","trustrating_stim/white_mw010.bmp,trustrating_stim/white_mw070.bmp","0,1","Match","e","3000","trustrating_stim/white_mw070.bmp","green","Share","REAL","1"
"html-keyboard-response","74","267801","0.0-7.0-5.7","lempert2","bdp_wmem","Wed Feb 22 2023 18:37:18 GMT-0500 (Colombia Standard Time)","623448","Match,No Match","","null","","","","","","<div class='trialBorder'><div class='vertical-center'><img src='img/correct.jpg'></div><div class='respDiv'><div class='respDivL'><font style='color:orange'>Match<br>(e)</font></div><div class='respDivR'>No Match<br>(i)</div></div></div>","null","FEEDBACK","","","","","","","","","","",""
"html-keyboard-response","75","268313","0.0-7.0-1.8","lempert2","bdp_wmem","Wed Feb 22 2023 18:37:18 GMT-0500 (Colombia Standard Time)","623448","Match,No Match","","null","","","","","","<div class='trialBorder'><div class='vertical-center'><img src='img/fixation2_sml.jpg'</img></div></div>","null","FIX","","","","","","","","","","",""
"html-keyboard-response","76","269820","0.0-7.0-2.8","lempert2","bdp_wmem","Wed Feb 22 2023 18:37:18 GMT-0500 (Colombia Standard Time)","623448","Match,No Match","","null","","","","","","<div class='trialBorder'><div class='vertical-center'><img style='vertical-align:center; align:center' src='img/fixation2_sml.jpg'></div><div class='arrayDiv1'><div class='tc'><img class='introPic' src='trustrating_stim/white_mw038.bmp'><br><font color='green'><strong>Share</strong></font></div></div></div>","null","ARRAY","1","trustrating_stim/white_mw038.bmp","1","Match","e","1500","","","","",""
"html-keyboard-response","77","273826","0.0-7.0-3.8","lempert2","bdp_wmem","Wed Feb 22 2023 18:37:18 GMT-0500 (Colombia Standard Time)","623448","Match,No Match","","null","","","","","","<div class='trialBorder'><div class='vertical-center'><img src='img/fixation2_sml.jpg'</img></div></div>","null","DELAY","","","","","","","","","","",""
"html-keyboard-response","78","274418","0.0-7.0-4.8","lempert2","bdp_wmem","Wed Feb 22 2023 18:37:18 GMT-0500 (Colombia Standard Time)","623448","Match,No Match","","590","","","","","","<div class='trialBorder'><div class='targDiv'><div class='tc'><img class='introPic' src='trustrating_stim/white_mw038.bmp'><br><font color='green'><strong>Share</strong></font></div></div><div class='respDiv'><div class='respDivL'>Match<br>(e)</div><div class='respDivR'>No Match<br>(i)</div></div></div>","e","TARGET","1","trustrating_stim/white_mw038.bmp","1","Match","e","1500","trustrating_stim/white_mw038.bmp","green","Share","REAL","1"
"html-keyboard-response","79","274921","0.0-7.0-5.8","lempert2","bdp_wmem","Wed Feb 22 2023 18:37:18 GMT-0500 (Colombia Standard Time)","623448","Match,No Match","","null","","","","","","<div class='trialBorder'><div class='vertical-center'><img src='img/correct.jpg'></div><div class='respDiv'><div class='respDivL'><font style='color:orange'>Match<br>(e)</font></div><div class='respDivR'>No Match<br>(i)</div></div></div>","null","FEEDBACK","","","","","","","","","","",""
"html-keyboard-response","80","275426","0.0-7.0-1.9","lempert2","bdp_wmem","Wed Feb 22 2023 18:37:18 GMT-0500 (Colombia Standard Time)","623448","Match,No Match","","null","","","","","","<div class='trialBorder'><div class='vertical-center'><img src='img/fixation2_sml.jpg'</img></div></div>","null","FIX","","","","","","","","","","",""
"html-keyboard-response","81","279932","0.0-7.0-2.9","lempert2","bdp_wmem","Wed Feb 22 2023 18:37:18 GMT-0500 (Colombia Standard Time)","623448","Match,No Match","","null","","","","","","<div class='trialBorder'><div class='vertical-center'><img style='vertical-align:center; align:center' src='img/fixation2_sml.jpg'></div><div class='arrayDiv3'><div class='tl'><img class='introPic' src='trustrating_stim/white_mw012.bmp'><br><font color='red'><strong>Keep</strong></font></div><div class='tc'><img class='introPic' src='trustrating_stim/white_mw040.bmp'><br><font color='green'><strong>Share</strong></font></div><div class='tr'><img class='introPic' src='trustrating_stim/white_mw085.bmp'><br><font color='green'><strong>Share</strong></font></div></div></div>","null","ARRAY","3","trustrating_stim/white_mw012.bmp,trustrating_stim/white_mw040.bmp,trustrating_stim/white_mw085.bmp","0,1,1","noMatchOutcome","i","4500","","","","",""
"html-keyboard-response","82","283944","0.0-7.0-3.9","lempert2","bdp_wmem","Wed Feb 22 2023 18:37:18 GMT-0500 (Colombia Standard Time)","623448","Match,No Match","","null","","","","","","<div class='trialBorder'><div class='vertical-center'><img src='img/fixation2_sml.jpg'</img></div></div>","null","DELAY","","","","","","","","","","",""
"html-keyboard-response","83","285430","0.0-7.0-4.9","lempert2","bdp_wmem","Wed Feb 22 2023 18:37:18 GMT-0500 (Colombia Standard Time)","623448","Match,No Match","","1484","","","","","","<div class='trialBorder'><div class='targDiv'><div class='tc'><img class='introPic' src='trustrating_stim/white_mw040.bmp'><br><font color='red'><strong>Keep</strong></font></div></div><div class='respDiv'><div class='respDivL'>Match<br>(e)</div><div class='respDivR'>No Match<br>(i)</div></div></div>","i","TARGET","3","trustrating_stim/white_mw012.bmp,trustrating_stim/white_mw040.bmp,trustrating_stim/white_mw085.bmp","0,1,1","noMatchOutcome","i","4500","trustrating_stim/white_mw040.bmp","red","Keep","REAL","1"
"html-keyboard-response","84","285934","0.0-7.0-5.9","lempert2","bdp_wmem","Wed Feb 22 2023 18:37:18 GMT-0500 (Colombia Standard Time)","623448","Match,No Match","","null","","","","","","<div class='trialBorder'><div class='vertical-center'><img src='img/correct.jpg'></div><div class='respDiv'><div class='respDivL'>Match<br>(e)</div><div class='respDivR'><font style='color:orange'>No Match<br>(i)</font></div></div></div>","null","FEEDBACK","","","","","","","","","","",""
"html-keyboard-response","85","286449","0.0-7.0-1.10","lempert2","bdp_wmem","Wed Feb 22 2023 18:37:18 GMT-0500 (Colombia Standard Time)","623448","Match,No Match","","null","","","","","","<div class='trialBorder'><div class='vertical-center'><img src='img/fixation2_sml.jpg'</img></div></div>","null","FIX","","","","","","","","","","",""
"html-keyboard-response","86","287961","0.0-7.0-2.10","lempert2","bdp_wmem","Wed Feb 22 2023 18:37:18 GMT-0500 (Colombia Standard Time)","623448","Match,No Match","","null","","","","","","<div class='trialBorder'><div class='vertical-center'><img style='vertical-align:center; align:center' src='img/fixation2_sml.jpg'></div><div class='arrayDiv1'><div class='tc'><img class='introPic' src='trustrating_stim/white_mw038.bmp'><br><font color='green'><strong>Share</strong></font></div></div></div>","null","ARRAY","1","trustrating_stim/white_mw038.bmp","1","Match","e","1500","","","","",""
"html-keyboard-response","87","291963","0.0-7.0-3.10","lempert2","bdp_wmem","Wed Feb 22 2023 18:37:18 GMT-0500 (Colombia Standard Time)","623448","Match,No Match","","null","","","","","","<div class='trialBorder'><div class='vertical-center'><img src='img/fixation2_sml.jpg'</img></div></div>","null","DELAY","","","","","","","","","","",""
"html-keyboard-response","88","292707","0.0-7.0-4.10","lempert2","bdp_wmem","Wed Feb 22 2023 18:37:18 GMT-0500 (Colombia Standard Time)","623448","Match,No Match","","741","","","","","","<div class='trialBorder'><div class='targDiv'><div class='tc'><img class='introPic' src='trustrating_stim/white_mw038.bmp'><br><font color='green'><strong>Share</strong></font></div></div><div class='respDiv'><div class='respDivL'>Match<br>(e)</div><div class='respDivR'>No Match<br>(i)</div></div></div>","e","TARGET","1","trustrating_stim/white_mw038.bmp","1","Match","e","1500","trustrating_stim/white_mw038.bmp","green","Share","REAL","1"
"html-keyboard-response","89","293218","0.0-7.0-5.10","lempert2","bdp_wmem","Wed Feb 22 2023 18:37:18 GMT-0500 (Colombia Standard Time)","623448","Match,No Match","","null","","","","","","<div class='trialBorder'><div class='vertical-center'><img src='img/correct.jpg'></div><div class='respDiv'><div class='respDivL'><font style='color:orange'>Match<br>(e)</font></div><div class='respDivR'>No Match<br>(i)</div></div></div>","null","FEEDBACK","","","","","","","","","","",""
"html-keyboard-response","90","293720","0.0-7.0-1.11","lempert2","bdp_wmem","Wed Feb 22 2023 18:37:18 GMT-0500 (Colombia Standard Time)","623448","Match,No Match","","null","","","","","","<div class='trialBorder'><div class='vertical-center'><img src='img/fixation2_sml.jpg'</img></div></div>","null","FIX","","","","","","","","","","",""
"html-keyboard-response","91","295228","0.0-7.0-2.11","lempert2","bdp_wmem","Wed Feb 22 2023 18:37:18 GMT-0500 (Colombia Standard Time)","623448","Match,No Match","","null","","","","","","<div class='trialBorder'><div class='vertical-center'><img style='vertical-align:center; align:center' src='img/fixation2_sml.jpg'></div><div class='arrayDiv1'><div class='tc'><img class='introPic' src='trustrating_stim/white_mw003.bmp'><br><font color='green'><strong>Share</strong></font></div></div></div>","null","ARRAY","1","trustrating_stim/white_mw003.bmp","1","noMatchFace","i","1500","","","","",""
"html-keyboard-response","92","299232","0.0-7.0-3.11","lempert2","bdp_wmem","Wed Feb 22 2023 18:37:18 GMT-0500 (Colombia Standard Time)","623448","Match,No Match","","null","","","","","","<div class='trialBorder'><div class='vertical-center'><img src='img/fixation2_sml.jpg'</img></div></div>","null","DELAY","","","","","","","","","","",""
"html-keyboard-response","93","300188","0.0-7.0-4.11","lempert2","bdp_wmem","Wed Feb 22 2023 18:37:18 GMT-0500 (Colombia Standard Time)","623448","Match,No Match","","956","","","","","","<div class='trialBorder'><div class='targDiv'><div class='tc'><img class='introPic' src='trustrating_stim/white_mw042.bmp'><br><font color='green'><strong>Share</strong></font></div></div><div class='respDiv'><div class='respDivL'>Match<br>(e)</div><div class='respDivR'>No Match<br>(i)</div></div></div>","i","TARGET","1","trustrating_stim/white_mw003.bmp","1","noMatchFace","i","1500","trustrating_stim/white_mw042.bmp","green","Share","REAL","1"
"html-keyboard-response","94","300698","0.0-7.0-5.11","lempert2","bdp_wmem","Wed Feb 22 2023 18:37:18 GMT-0500 (Colombia Standard Time)","623448","Match,No Match","","null","","","","","","<div class='trialBorder'><div class='vertical-center'><img src='img/correct.jpg'></div><div class='respDiv'><div class='respDivL'>Match<br>(e)</div><div class='respDivR'><font style='color:orange'>No Match<br>(i)</font></div></div></div>","null","FEEDBACK","","","","","","","","","","",""
"html-keyboard-response","95","301200","0.0-7.0-1.12","lempert2","bdp_wmem","Wed Feb 22 2023 18:37:18 GMT-0500 (Colombia Standard Time)","623448","Match,No Match","","null","","","","","","<div class='trialBorder'><div class='vertical-center'><img src='img/fixation2_sml.jpg'</img></div></div>","null","FIX","","","","","","","","","","",""
"html-keyboard-response","96","305717","0.0-7.0-2.12","lempert2","bdp_wmem","Wed Feb 22 2023 18:37:18 GMT-0500 (Colombia Standard Time)","623448","Match,No Match","","null","","","","","","<div class='trialBorder'><div class='vertical-center'><img style='vertical-align:center; align:center' src='img/fixation2_sml.jpg'></div><div class='arrayDiv3'><div class='tl'><img class='introPic' src='trustrating_stim/white_mw012.bmp'><br><font color='red'><strong>Keep</strong></font></div><div class='tc'><img class='introPic' src='trustrating_stim/white_mw042.bmp'><br><font color='green'><strong>Share</strong></font></div><div class='tr'><img class='introPic' src='trustrating_stim/white_mw013.bmp'><br><font color='green'><strong>Share</strong></font></div></div></div>","null","ARRAY","3","trustrating_stim/white_mw012.bmp,trustrating_stim/white_mw042.bmp,trustrating_stim/white_mw013.bmp","0,1,1","noMatchFace","i","4500","","","","",""
"html-keyboard-response","97","309725","0.0-7.0-3.12","lempert2","bdp_wmem","Wed Feb 22 2023 18:37:18 GMT-0500 (Colombia Standard Time)","623448","Match,No Match","","null","","","","","","<div class='trialBorder'><div class='vertical-center'><img src='img/fixation2_sml.jpg'</img></div></div>","null","DELAY","","","","","","","","","","",""
"html-keyboard-response","98","310775","0.0-7.0-4.12","lempert2","bdp_wmem","Wed Feb 22 2023 18:37:18 GMT-0500 (Colombia Standard Time)","623448","Match,No Match","","1048","","","","","","<div class='trialBorder'><div class='targDiv'><div class='tc'><img class='introPic' src='trustrating_stim/white_mw078.bmp'><br><font color='green'><strong>Share</strong></font></div></div><div class='respDiv'><div class='respDivL'>Match<br>(e)</div><div class='respDivR'>No Match<br>(i)</div></div></div>","i","TARGET","3","trustrating_stim/white_mw012.bmp,trustrating_stim/white_mw042.bmp,trustrating_stim/white_mw013.bmp","0,1,1","noMatchFace","i","4500","trustrating_stim/white_mw078.bmp","green","Share","REAL","1"
"html-keyboard-response","99","311291","0.0-7.0-5.12","lempert2","bdp_wmem","Wed Feb 22 2023 18:37:18 GMT-0500 (Colombia Standard Time)","623448","Match,No Match","","null","","","","","","<div class='trialBorder'><div class='vertical-center'><img src='img/correct.jpg'></div><div class='respDiv'><div class='respDivL'>Match<br>(e)</div><div class='respDivR'><font style='color:orange'>No Match<br>(i)</font></div></div></div>","null","FEEDBACK","","","","","","","","","","",""
"html-keyboard-response","100","311796","0.0-7.0-1.13","lempert2","bdp_wmem","Wed Feb 22 2023 18:37:18 GMT-0500 (Colombia Standard Time)","623448","Match,No Match","","null","","","","","","<div class='trialBorder'><div class='vertical-center'><img src='img/fixation2_sml.jpg'</img></div></div>","null","FIX","","","","","","","","","","",""
"html-keyboard-response","101","316304","0.0-7.0-2.13","lempert2","bdp_wmem","Wed Feb 22 2023 18:37:18 GMT-0500 (Colombia Standard Time)","623448","Match,No Match","","null","","","","","","<div class='trialBorder'><div class='vertical-center'><img style='vertical-align:center; align:center' src='img/fixation2_sml.jpg'></div><div class='arrayDiv3'><div class='tl'><img class='introPic' src='trustrating_stim/white_mw078.bmp'><br><font color='green'><strong>Share</strong></font></div><div class='tc'><img class='introPic' src='trustrating_stim/white_mw013.bmp'><br><font color='green'><strong>Share</strong></font></div><div class='tr'><img class='introPic' src='trustrating_stim/white_mw012.bmp'><br><font color='red'><strong>Keep</strong></font></div></div></div>","null","ARRAY","3","trustrating_stim/white_mw078.bmp,trustrating_stim/white_mw013.bmp,trustrating_stim/white_mw012.bmp","1,1,0","noMatchFace","i","4500","","","","",""
"html-keyboard-response","102","320311","0.0-7.0-3.13","lempert2","bdp_wmem","Wed Feb 22 2023 18:37:18 GMT-0500 (Colombia Standard Time)","623448","Match,No Match","","null","","","","","","<div class='trialBorder'><div class='vertical-center'><img src='img/fixation2_sml.jpg'</img></div></div>","null","DELAY","","","","","","","","","","",""
"html-keyboard-response","103","323426","0.0-7.0-4.13","lempert2","bdp_wmem","Wed Feb 22 2023 18:37:18 GMT-0500 (Colombia Standard Time)","623448","Match,No Match","","3112","","","","","","<div class='trialBorder'><div class='targDiv'><div class='tc'><img class='introPic' src='trustrating_stim/white_mw038.bmp'><br><font color='green'><strong>Share</strong></font></div></div><div class='respDiv'><div class='respDivL'>Match<br>(e)</div><div class='respDivR'>No Match<br>(i)</div></div></div>","e","TARGET","3","trustrating_stim/white_mw078.bmp,trustrating_stim/white_mw013.bmp,trustrating_stim/white_mw012.bmp","1,1,0","noMatchFace","i","4500","trustrating_stim/white_mw038.bmp","green","Share","REAL","0"
"html-keyboard-response","104","323934","0.0-7.0-5.13","lempert2","bdp_wmem","Wed Feb 22 2023 18:37:18 GMT-0500 (Colombia Standard Time)","623448","Match,No Match","","null","","","","","","<div class='trialBorder'><div class='vertical-center'><img src='img/error.jpg'></div><div class='respDiv'><div class='respDivL'><font style='color:orange'>Match<br>(e)</font></div><div class='respDivR'>No Match<br>(i)</div></div></div>","null","FEEDBACK","","","","","","","","","","",""
"html-keyboard-response","105","324436","0.0-7.0-1.14","lempert2","bdp_wmem","Wed Feb 22 2023 18:37:18 GMT-0500 (Colombia Standard Time)","623448","Match,No Match","","null","","","","","","<div class='trialBorder'><div class='vertical-center'><img src='img/fixation2_sml.jpg'</img></div></div>","null","FIX","","","","","","","","","","",""
"html-keyboard-response","106","328951","0.0-7.0-2.14","lempert2","bdp_wmem","Wed Feb 22 2023 18:37:18 GMT-0500 (Colombia Standard Time)","623448","Match,No Match","","null","","","","","","<div class='trialBorder'><div class='vertical-center'><img style='vertical-align:center; align:center' src='img/fixation2_sml.jpg'></div><div class='arrayDiv3'><div class='tl'><img class='introPic' src='trustrating_stim/white_mw003.bmp'><br><font color='green'><strong>Share</strong></font></div><div class='tc'><img class='introPic' src='trustrating_stim/white_mw092.bmp'><br><font color='red'><strong>Keep</strong></font></div><div class='tr'><img class='introPic' src='trustrating_stim/white_mw040.bmp'><br><font color='green'><strong>Share</strong></font></div></div></div>","null","ARRAY","3","trustrating_stim/white_mw003.bmp,trustrating_stim/white_mw092.bmp,trustrating_stim/white_mw040.bmp","1,0,1","Match","e","4500","","","","",""
"html-keyboard-response","107","332961","0.0-7.0-3.14","lempert2","bdp_wmem","Wed Feb 22 2023 18:37:18 GMT-0500 (Colombia Standard Time)","623448","Match,No Match","","null","","","","","","<div class='trialBorder'><div class='vertical-center'><img src='img/fixation2_sml.jpg'</img></div></div>","null","DELAY","","","","","","","","","","",""
"html-keyboard-response","108","334444","0.0-7.0-4.14","lempert2","bdp_wmem","Wed Feb 22 2023 18:37:18 GMT-0500 (Colombia Standard Time)","623448","Match,No Match","","1479","","","","","","<div class='trialBorder'><div class='targDiv'><div class='tc'><img class='introPic' src='trustrating_stim/white_mw003.bmp'><br><font color='green'><strong>Share</strong></font></div></div><div class='respDiv'><div class='respDivL'>Match<br>(e)</div><div class='respDivR'>No Match<br>(i)</div></div></div>","i","TARGET","3","trustrating_stim/white_mw003.bmp,trustrating_stim/white_mw092.bmp,trustrating_stim/white_mw040.bmp","1,0,1","Match","e","4500","trustrating_stim/white_mw003.bmp","green","Share","REAL","0"
"html-keyboard-response","109","334952","0.0-7.0-5.14","lempert2","bdp_wmem","Wed Feb 22 2023 18:37:18 GMT-0500 (Colombia Standard Time)","623448","Match,No Match","","null","","","","","","<div class='trialBorder'><div class='vertical-center'><img src='img/error.jpg'></div><div class='respDiv'><div class='respDivL'>Match<br>(e)</div><div class='respDivR'><font style='color:orange'>No Match<br>(i)</font></div></div></div>","null","FEEDBACK","","","","","","","","","","",""
"html-keyboard-response","110","335460","0.0-7.0-1.15","lempert2","bdp_wmem","Wed Feb 22 2023 18:37:18 GMT-0500 (Colombia Standard Time)","623448","Match,No Match","","null","","","","","","<div class='trialBorder'><div class='vertical-center'><img src='img/fixation2_sml.jpg'</img></div></div>","null","FIX","","","","","","","","","","",""
"html-keyboard-response","111","336964","0.0-7.0-2.15","lempert2","bdp_wmem","Wed Feb 22 2023 18:37:18 GMT-0500 (Colombia Standard Time)","623448","Match,No Match","","null","","","","","","<div class='trialBorder'><div class='vertical-center'><img style='vertical-align:center; align:center' src='img/fixation2_sml.jpg'></div><div class='arrayDiv1'><div class='tc'><img class='introPic' src='trustrating_stim/white_mw085.bmp'><br><font color='red'><strong>Keep</strong></font></div></div></div>","null","ARRAY","1","trustrating_stim/white_mw085.bmp","0","noMatchOutcome","i","1500","","","","",""
"html-keyboard-response","112","340970","0.0-7.0-3.15","lempert2","bdp_wmem","Wed Feb 22 2023 18:37:18 GMT-0500 (Colombia Standard Time)","623448","Match,No Match","","null","","","","","","<div class='trialBorder'><div class='vertical-center'><img src='img/fixation2_sml.jpg'</img></div></div>","null","DELAY","","","","","","","","","","",""
"html-keyboard-response","113","341706","0.0-7.0-4.15","lempert2","bdp_wmem","Wed Feb 22 2023 18:37:18 GMT-0500 (Colombia Standard Time)","623448","Match,No Match","","734","","","","","","<div class='trialBorder'><div class='targDiv'><div class='tc'><img class='introPic' src='trustrating_stim/white_mw085.bmp'><br><font color='green'><strong>Share</strong></font></div></div><div class='respDiv'><div class='respDivL'>Match<br>(e)</div><div class='respDivR'>No Match<br>(i)</div></div></div>","e","TARGET","1","trustrating_stim/white_mw085.bmp","0","noMatchOutcome","i","1500","trustrating_stim/white_mw085.bmp","green","Share","REAL","0"
"html-keyboard-response","114","342215","0.0-7.0-5.15","lempert2","bdp_wmem","Wed Feb 22 2023 18:37:18 GMT-0500 (Colombia Standard Time)","623448","Match,No Match","","null","","","","","","<div class='trialBorder'><div class='vertical-center'><img src='img/error.jpg'></div><div class='respDiv'><div class='respDivL'><font style='color:orange'>Match<br>(e)</font></div><div class='respDivR'>No Match<br>(i)</div></div></div>","null","FEEDBACK","","","","","","","","","","",""
"html-keyboard-response","115","342726","0.0-7.0-1.16","lempert2","bdp_wmem","Wed Feb 22 2023 18:37:18 GMT-0500 (Colombia Standard Time)","623448","Match,No Match","","null","","","","","","<div class='trialBorder'><div class='vertical-center'><img src='img/fixation2_sml.jpg'</img></div></div>","null","FIX","","","","","","","","","","",""
"html-keyboard-response","116","345734","0.0-7.0-2.16","lempert2","bdp_wmem","Wed Feb 22 2023 18:37:18 GMT-0500 (Colombia Standard Time)","623448","Match,No Match","","null","","","","","","<div class='trialBorder'><div class='vertical-center'><img style='vertical-align:center; align:center' src='img/fixation2_sml.jpg'></div><div class='arrayDiv2'><div class='tl'><img class='introPic' src='trustrating_stim/white_mw042.bmp'><br><font color='red'><strong>Keep</strong></font></div><div class='tr'><img class='introPic' src='trustrating_stim/white_mw012.bmp'><br><font color='green'><strong>Share</strong></font></div></div></div>","null","ARRAY","2","trustrating_stim/white_mw042.bmp,trustrating_stim/white_mw012.bmp","0,1","Match","e","3000","","","","",""
"html-keyboard-response","117","349744","0.0-7.0-3.16","lempert2","bdp_wmem","Wed Feb 22 2023 18:37:18 GMT-0500 (Colombia Standard Time)","623448","Match,No Match","","null","","","","","","<div class='trialBorder'><div class='vertical-center'><img src='img/fixation2_sml.jpg'</img></div></div>","null","DELAY","","","","","","","","","","",""
"html-keyboard-response","118","350612","0.0-7.0-4.16","lempert2","bdp_wmem","Wed Feb 22 2023 18:37:18 GMT-0500 (Colombia Standard Time)","623448","Match,No Match","","865","","","","","","<div class='trialBorder'><div class='targDiv'><div class='tc'><img class='introPic' src='trustrating_stim/white_mw012.bmp'><br><font color='green'><strong>Share</strong></font></div></div><div class='respDiv'><div class='respDivL'>Match<br>(e)</div><div class='respDivR'>No Match<br>(i)</div></div></div>","e","TARGET","2","trustrating_stim/white_mw042.bmp,trustrating_stim/white_mw012.bmp","0,1","Match","e","3000","trustrating_stim/white_mw012.bmp","green","Share","REAL","1"
"html-keyboard-response","119","351117","0.0-7.0-5.16","lempert2","bdp_wmem","Wed Feb 22 2023 18:37:18 GMT-0500 (Colombia Standard Time)","623448","Match,No Match","","null","","","","","","<div class='trialBorder'><div class='vertical-center'><img src='img/correct.jpg'></div><div class='respDiv'><div class='respDivL'><font style='color:orange'>Match<br>(e)</font></div><div class='respDivR'>No Match<br>(i)</div></div></div>","null","FEEDBACK","","","","","","","","","","",""
"html-keyboard-response","120","351628","0.0-7.0-1.17","lempert2","bdp_wmem","Wed Feb 22 2023 18:37:18 GMT-0500 (Colombia Standard Time)","623448","Match,No Match","","null","","","","","","<div class='trialBorder'><div class='vertical-center'><img src='img/fixation2_sml.jpg'</img></div></div>","null","FIX","","","","","","","","","","",""
"html-keyboard-response","121","354638","0.0-7.0-2.17","lempert2","bdp_wmem","Wed Feb 22 2023 18:37:18 GMT-0500 (Colombia Standard Time)","623448","Match,No Match","","null","","","","","","<div class='trialBorder'><div class='vertical-center'><img style='vertical-align:center; align:center' src='img/fixation2_sml.jpg'></div><div class='arrayDiv2'><div class='tl'><img class='introPic' src='trustrating_stim/white_mw091.bmp'><br><font color='green'><strong>Share</strong></font></div><div class='tr'><img class='introPic' src='trustrating_stim/white_mw013.bmp'><br><font color='red'><strong>Keep</strong></font></div></div></div>","null","ARRAY","2","trustrating_stim/white_mw091.bmp,trustrating_stim/white_mw013.bmp","1,0","noMatchFace","i","3000","","","","",""
"html-keyboard-response","122","358643","0.0-7.0-3.17","lempert2","bdp_wmem","Wed Feb 22 2023 18:37:18 GMT-0500 (Colombia Standard Time)","623448","Match,No Match","","null","","","","","","<div class='trialBorder'><div class='vertical-center'><img src='img/fixation2_sml.jpg'</img></div></div>","null","DELAY","","","","","","","","","","",""
"html-keyboard-response","123","359768","0.0-7.0-4.17","lempert2","bdp_wmem","Wed Feb 22 2023 18:37:18 GMT-0500 (Colombia Standard Time)","623448","Match,No Match","","1123","","","","","","<div class='trialBorder'><div class='targDiv'><div class='tc'><img class='introPic' src='trustrating_stim/white_mw092.bmp'><br><font color='green'><strong>Share</strong></font></div></div><div class='respDiv'><div class='respDivL'>Match<br>(e)</div><div class='respDivR'>No Match<br>(i)</div></div></div>","i","TARGET","2","trustrating_stim/white_mw091.bmp,trustrating_stim/white_mw013.bmp","1,0","noMatchFace","i","3000","trustrating_stim/white_mw092.bmp","green","Share","REAL","1"
"html-keyboard-response","124","360275","0.0-7.0-5.17","lempert2","bdp_wmem","Wed Feb 22 2023 18:37:18 GMT-0500 (Colombia Standard Time)","623448","Match,No Match","","null","","","","","","<div class='trialBorder'><div class='vertical-center'><img src='img/correct.jpg'></div><div class='respDiv'><div class='respDivL'>Match<br>(e)</div><div class='respDivR'><font style='color:orange'>No Match<br>(i)</font></div></div></div>","null","FEEDBACK","","","","","","","","","","",""
"html-keyboard-response","125","360788","0.0-7.0-1.18","lempert2","bdp_wmem","Wed Feb 22 2023 18:37:18 GMT-0500 (Colombia Standard Time)","623448","Match,No Match","","null","","","","","","<div class='trialBorder'><div class='vertical-center'><img src='img/fixation2_sml.jpg'</img></div></div>","null","FIX","","","","","","","","","","",""
"html-keyboard-response","126","365291","0.0-7.0-2.18","lempert2","bdp_wmem","Wed Feb 22 2023 18:37:18 GMT-0500 (Colombia Standard Time)","623448","Match,No Match","","null","","","","","","<div class='trialBorder'><div class='vertical-center'><img style='vertical-align:center; align:center' src='img/fixation2_sml.jpg'></div><div class='arrayDiv3'><div class='tl'><img class='introPic' src='trustrating_stim/white_mw040.bmp'><br><font color='red'><strong>Keep</strong></font></div><div class='tc'><img class='introPic' src='trustrating_stim/white_mw092.bmp'><br><font color='red'><strong>Keep</strong></font></div><div class='tr'><img class='introPic' src='trustrating_stim/white_mw042.bmp'><br><font color='green'><strong>Share</strong></font></div></div></div>","null","ARRAY","3","trustrating_stim/white_mw040.bmp,trustrating_stim/white_mw092.bmp,trustrating_stim/white_mw042.bmp","0,0,1","Match","e","4500","","","","",""
"html-keyboard-response","127","369307","0.0-7.0-3.18","lempert2","bdp_wmem","Wed Feb 22 2023 18:37:18 GMT-0500 (Colombia Standard Time)","623448","Match,No Match","","null","","","","","","<div class='trialBorder'><div class='vertical-center'><img src='img/fixation2_sml.jpg'</img></div></div>","null","DELAY","","","","","","","","","","",""
"html-keyboard-response","128","370064","0.0-7.0-4.18","lempert2","bdp_wmem","Wed Feb 22 2023 18:37:18 GMT-0500 (Colombia Standard Time)","623448","Match,No Match","","755","","","","","","<div class='trialBorder'><div class='targDiv'><div class='tc'><img class='introPic' src='trustrating_stim/white_mw042.bmp'><br><font color='green'><strong>Share</strong></font></div></div><div class='respDiv'><div class='respDivL'>Match<br>(e)</div><div class='respDivR'>No Match<br>(i)</div></div></div>","e","TARGET","3","trustrating_stim/white_mw040.bmp,trustrating_stim/white_mw092.bmp,trustrating_stim/white_mw042.bmp","0,0,1","Match","e","4500","trustrating_stim/white_mw042.bmp","green","Share","REAL","1"
"html-keyboard-response","129","370573","0.0-7.0-5.18","lempert2","bdp_wmem","Wed Feb 22 2023 18:37:18 GMT-0500 (Colombia Standard Time)","623448","Match,No Match","","null","","","","","","<div class='trialBorder'><div class='vertical-center'><img src='img/correct.jpg'></div><div class='respDiv'><div class='respDivL'><font style='color:orange'>Match<br>(e)</font></div><div class='respDivR'>No Match<br>(i)</div></div></div>","null","FEEDBACK","","","","","","","","","","",""
"html-keyboard-response","130","371083","0.0-7.0-1.19","lempert2","bdp_wmem","Wed Feb 22 2023 18:37:18 GMT-0500 (Colombia Standard Time)","623448","Match,No Match","","null","","","","","","<div class='trialBorder'><div class='vertical-center'><img src='img/fixation2_sml.jpg'</img></div></div>","null","FIX","","","","","","","","","","",""
"html-keyboard-response","131","375592","0.0-7.0-2.19","lempert2","bdp_wmem","Wed Feb 22 2023 18:37:18 GMT-0500 (Colombia Standard Time)","623448","Match,No Match","","null","","","","","","<div class='trialBorder'><div class='vertical-center'><img style='vertical-align:center; align:center' src='img/fixation2_sml.jpg'></div><div class='arrayDiv3'><div class='tl'><img class='introPic' src='trustrating_stim/white_mw013.bmp'><br><font color='green'><strong>Share</strong></font></div><div class='tc'><img class='introPic' src='trustrating_stim/white_mw042.bmp'><br><font color='green'><strong>Share</strong></font></div><div class='tr'><img class='introPic' src='trustrating_stim/white_mw010.bmp'><br><font color='red'><strong>Keep</strong></font></div></div></div>","null","ARRAY","3","trustrating_stim/white_mw013.bmp,trustrating_stim/white_mw042.bmp,trustrating_stim/white_mw010.bmp","1,1,0","noMatchFace","i","4500","","","","",""
"html-keyboard-response","132","379605","0.0-7.0-3.19","lempert2","bdp_wmem","Wed Feb 22 2023 18:37:18 GMT-0500 (Colombia Standard Time)","623448","Match,No Match","","null","","","","","","<div class='trialBorder'><div class='vertical-center'><img src='img/fixation2_sml.jpg'</img></div></div>","null","DELAY","","","","","","","","","","",""
"html-keyboard-response","133","381004","0.0-7.0-4.19","lempert2","bdp_wmem","Wed Feb 22 2023 18:37:18 GMT-0500 (Colombia Standard Time)","623448","Match,No Match","","1397","","","","","","<div class='trialBorder'><div class='targDiv'><div class='tc'><img class='introPic' src='trustrating_stim/white_mw070.bmp'><br><font color='green'><strong>Share</strong></font></div></div><div class='respDiv'><div class='respDivL'>Match<br>(e)</div><div class='respDivR'>No Match<br>(i)</div></div></div>","i","TARGET","3","trustrating_stim/white_mw013.bmp,trustrating_stim/white_mw042.bmp,trustrating_stim/white_mw010.bmp","1,1,0","noMatchFace","i","4500","trustrating_stim/white_mw070.bmp","green","Share","REAL","1"
"html-keyboard-response","134","381512","0.0-7.0-5.19","lempert2","bdp_wmem","Wed Feb 22 2023 18:37:18 GMT-0500 (Colombia Standard Time)","623448","Match,No Match","","null","","","","","","<div class='trialBorder'><div class='vertical-center'><img src='img/correct.jpg'></div><div class='respDiv'><div class='respDivL'>Match<br>(e)</div><div class='respDivR'><font style='color:orange'>No Match<br>(i)</font></div></div></div>","null","FEEDBACK","","","","","","","","","","",""
"html-keyboard-response","135","382018","0.0-7.0-1.20","lempert2","bdp_wmem","Wed Feb 22 2023 18:37:18 GMT-0500 (Colombia Standard Time)","623448","Match,No Match","","null","","","","","","<div class='trialBorder'><div class='vertical-center'><img src='img/fixation2_sml.jpg'</img></div></div>","null","FIX","","","","","","","","","","",""
"html-keyboard-response","136","386527","0.0-7.0-2.20","lempert2","bdp_wmem","Wed Feb 22 2023 18:37:18 GMT-0500 (Colombia Standard Time)","623448","Match,No Match","","null","","","","","","<div class='trialBorder'><div class='vertical-center'><img style='vertical-align:center; align:center' src='img/fixation2_sml.jpg'></div><div class='arrayDiv3'><div class='tl'><img class='introPic' src='trustrating_stim/white_mw070.bmp'><br><font color='green'><strong>Share</strong></font></div><div class='tc'><img class='introPic' src='trustrating_stim/white_mw092.bmp'><br><font color='red'><strong>Keep</strong></font></div><div class='tr'><img class='introPic' src='trustrating_stim/white_mw091.bmp'><br><font color='red'><strong>Keep</strong></font></div></div></div>","null","ARRAY","3","trustrating_stim/white_mw070.bmp,trustrating_stim/white_mw092.bmp,trustrating_stim/white_mw091.bmp","1,0,0","noMatchFace","i","4500","","","","",""
"html-keyboard-response","137","390533","0.0-7.0-3.20","lempert2","bdp_wmem","Wed Feb 22 2023 18:37:18 GMT-0500 (Colombia Standard Time)","623448","Match,No Match","","null","","","","","","<div class='trialBorder'><div class='vertical-center'><img src='img/fixation2_sml.jpg'</img></div></div>","null","DELAY","","","","","","","","","","",""
"html-keyboard-response","138","392836","0.0-7.0-4.20","lempert2","bdp_wmem","Wed Feb 22 2023 18:37:18 GMT-0500 (Colombia Standard Time)","623448","Match,No Match","","2300","","","","","","<div class='trialBorder'><div class='targDiv'><div class='tc'><img class='introPic' src='trustrating_stim/white_mw042.bmp'><br><font color='red'><strong>Keep</strong></font></div></div><div class='respDiv'><div class='respDivL'>Match<br>(e)</div><div class='respDivR'>No Match<br>(i)</div></div></div>","e","TARGET","3","trustrating_stim/white_mw070.bmp,trustrating_stim/white_mw092.bmp,trustrating_stim/white_mw091.bmp","1,0,0","noMatchFace","i","4500","trustrating_stim/white_mw042.bmp","red","Keep","REAL","0"
"html-keyboard-response","139","393339","0.0-7.0-5.20","lempert2","bdp_wmem","Wed Feb 22 2023 18:37:18 GMT-0500 (Colombia Standard Time)","623448","Match,No Match","","null","","","","","","<div class='trialBorder'><div class='vertical-center'><img src='img/error.jpg'></div><div class='respDiv'><div class='respDivL'><font style='color:orange'>Match<br>(e)</font></div><div class='respDivR'>No Match<br>(i)</div></div></div>","null","FEEDBACK","","","","","","","","","","",""
"html-keyboard-response","140","393858","0.0-7.0-1.21","lempert2","bdp_wmem","Wed Feb 22 2023 18:37:18 GMT-0500 (Colombia Standard Time)","623448","Match,No Match","","null","","","","","","<div class='trialBorder'><div class='vertical-center'><img src='img/fixation2_sml.jpg'</img></div></div>","null","FIX","","","","","","","","","","",""
"html-keyboard-response","141","395364","0.0-7.0-2.21","lempert2","bdp_wmem","Wed Feb 22 2023 18:37:18 GMT-0500 (Colombia Standard Time)","623448","Match,No Match","","null","","","","","","<div class='trialBorder'><div class='vertical-center'><img style='vertical-align:center; align:center' src='img/fixation2_sml.jpg'></div><div class='arrayDiv1'><div class='tc'><img class='introPic' src='trustrating_stim/white_mw091.bmp'><br><font color='green'><strong>Share</strong></font></div></div></div>","null","ARRAY","1","trustrating_stim/white_mw091.bmp","1","noMatchFace","i","1500","","","","",""
"html-keyboard-response","142","399376","0.0-7.0-3.21","lempert2","bdp_wmem","Wed Feb 22 2023 18:37:18 GMT-0500 (Colombia Standard Time)","623448","Match,No Match","","null","","","","","","<div class='trialBorder'><div class='vertical-center'><img src='img/fixation2_sml.jpg'</img></div></div>","null","DELAY","","","","","","","","","","",""
"html-keyboard-response","143","400533","0.0-7.0-4.21","lempert2","bdp_wmem","Wed Feb 22 2023 18:37:18 GMT-0500 (Colombia Standard Time)","623448","Match,No Match","","1154","","","","","","<div class='trialBorder'><div class='targDiv'><div class='tc'><img class='introPic' src='trustrating_stim/white_mw092.bmp'><br><font color='green'><strong>Share</strong></font></div></div><div class='respDiv'><div class='respDivL'>Match<br>(e)</div><div class='respDivR'>No Match<br>(i)</div></div></div>","i","TARGET","1","trustrating_stim/white_mw091.bmp","1","noMatchFace","i","1500","trustrating_stim/white_mw092.bmp","green","Share","REAL","1"
"html-keyboard-response","144","401046","0.0-7.0-5.21","lempert2","bdp_wmem","Wed Feb 22 2023 18:37:18 GMT-0500 (Colombia Standard Time)","623448","Match,No Match","","null","","","","","","<div class='trialBorder'><div class='vertical-center'><img src='img/correct.jpg'></div><div class='respDiv'><div class='respDivL'>Match<br>(e)</div><div class='respDivR'><font style='color:orange'>No Match<br>(i)</font></div></div></div>","null","FEEDBACK","","","","","","","","","","",""
"html-keyboard-response","145","401551","0.0-7.0-1.22","lempert2","bdp_wmem","Wed Feb 22 2023 18:37:18 GMT-0500 (Colombia Standard Time)","623448","Match,No Match","","null","","","","","","<div class='trialBorder'><div class='vertical-center'><img src='img/fixation2_sml.jpg'</img></div></div>","null","FIX","","","","","","","","","","",""
"html-keyboard-response","146","406063","0.0-7.0-2.22","lempert2","bdp_wmem","Wed Feb 22 2023 18:37:18 GMT-0500 (Colombia Standard Time)","623448","Match,No Match","","null","","","","","","<div class='trialBorder'><div class='vertical-center'><img style='vertical-align:center; align:center' src='img/fixation2_sml.jpg'></div><div class='arrayDiv3'><div class='tl'><img class='introPic' src='trustrating_stim/white_mw012.bmp'><br><font color='green'><strong>Share</strong></font></div><div class='tc'><img class='introPic' src='trustrating_stim/white_mw042.bmp'><br><font color='red'><strong>Keep</strong></font></div><div class='tr'><img class='introPic' src='trustrating_stim/white_mw078.bmp'><br><font color='green'><strong>Share</strong></font></div></div></div>","null","ARRAY","3","trustrating_stim/white_mw012.bmp,trustrating_stim/white_mw042.bmp,trustrating_stim/white_mw078.bmp","1,0,1","Match","e","4500","","","","",""
"html-keyboard-response","147","410072","0.0-7.0-3.22","lempert2","bdp_wmem","Wed Feb 22 2023 18:37:18 GMT-0500 (Colombia Standard Time)","623448","Match,No Match","","null","","","","","","<div class='trialBorder'><div class='vertical-center'><img src='img/fixation2_sml.jpg'</img></div></div>","null","DELAY","","","","","","","","","","",""
"html-keyboard-response","148","410920","0.0-7.0-4.22","lempert2","bdp_wmem","Wed Feb 22 2023 18:37:18 GMT-0500 (Colombia Standard Time)","623448","Match,No Match","","846","","","","","","<div class='trialBorder'><div class='targDiv'><div class='tc'><img class='introPic' src='trustrating_stim/white_mw078.bmp'><br><font color='green'><strong>Share</strong></font></div></div><div class='respDiv'><div class='respDivL'>Match<br>(e)</div><div class='respDivR'>No Match<br>(i)</div></div></div>","i","TARGET","3","trustrating_stim/white_mw012.bmp,trustrating_stim/white_mw042.bmp,trustrating_stim/white_mw078.bmp","1,0,1","Match","e","4500","trustrating_stim/white_mw078.bmp","green","Share","REAL","0"
"html-keyboard-response","149","411424","0.0-7.0-5.22","lempert2","bdp_wmem","Wed Feb 22 2023 18:37:18 GMT-0500 (Colombia Standard Time)","623448","Match,No Match","","null","","","","","","<div class='trialBorder'><div class='vertical-center'><img src='img/error.jpg'></div><div class='respDiv'><div class='respDivL'>Match<br>(e)</div><div class='respDivR'><font style='color:orange'>No Match<br>(i)</font></div></div></div>","null","FEEDBACK","","","","","","","","","","",""
"html-keyboard-response","150","411930","0.0-7.0-1.23","lempert2","bdp_wmem","Wed Feb 22 2023 18:37:18 GMT-0500 (Colombia Standard Time)","623448","Match,No Match","","null","","","","","","<div class='trialBorder'><div class='vertical-center'><img src='img/fixation2_sml.jpg'</img></div></div>","null","FIX","","","","","","","","","","",""
"html-keyboard-response","151","413435","0.0-7.0-2.23","lempert2","bdp_wmem","Wed Feb 22 2023 18:37:18 GMT-0500 (Colombia Standard Time)","623448","Match,No Match","","null","","","","","","<div class='trialBorder'><div class='vertical-center'><img style='vertical-align:center; align:center' src='img/fixation2_sml.jpg'></div><div class='arrayDiv1'><div class='tc'><img class='introPic' src='trustrating_stim/white_mw085.bmp'><br><font color='green'><strong>Share</strong></font></div></div></div>","null","ARRAY","1","trustrating_stim/white_mw085.bmp","1","Match","e","1500","","","","",""
"html-keyboard-response","152","417453","0.0-7.0-3.23","lempert2","bdp_wmem","Wed Feb 22 2023 18:37:18 GMT-0500 (Colombia Standard Time)","623448","Match,No Match","","null","","","","","","<div class='trialBorder'><div class='vertical-center'><img src='img/fixation2_sml.jpg'</img></div></div>","null","DELAY","","","","","","","","","","",""
"html-keyboard-response","153","417947","0.0-7.0-4.23","lempert2","bdp_wmem","Wed Feb 22 2023 18:37:18 GMT-0500 (Colombia Standard Time)","623448","Match,No Match","","491","","","","","","<div class='trialBorder'><div class='targDiv'><div class='tc'><img class='introPic' src='trustrating_stim/white_mw085.bmp'><br><font color='green'><strong>Share</strong></font></div></div><div class='respDiv'><div class='respDivL'>Match<br>(e)</div><div class='respDivR'>No Match<br>(i)</div></div></div>","e","TARGET","1","trustrating_stim/white_mw085.bmp","1","Match","e","1500","trustrating_stim/white_mw085.bmp","green","Share","REAL","1"
"html-keyboard-response","154","418454","0.0-7.0-5.23","lempert2","bdp_wmem","Wed Feb 22 2023 18:37:18 GMT-0500 (Colombia Standard Time)","623448","Match,No Match","","null","","","","","","<div class='trialBorder'><div class='vertical-center'><img src='img/correct.jpg'></div><div class='respDiv'><div class='respDivL'><font style='color:orange'>Match<br>(e)</font></div><div class='respDivR'>No Match<br>(i)</div></div></div>","null","FEEDBACK","","","","","","","","","","",""
"html-keyboard-response","155","418963","0.0-7.0-1.24","lempert2","bdp_wmem","Wed Feb 22 2023 18:37:18 GMT-0500 (Colombia Standard Time)","623448","Match,No Match","","null","","","","","","<div class='trialBorder'><div class='vertical-center'><img src='img/fixation2_sml.jpg'</img></div></div>","null","FIX","","","","","","","","","","",""
"html-keyboard-response","156","421974","0.0-7.0-2.24","lempert2","bdp_wmem","Wed Feb 22 2023 18:37:18 GMT-0500 (Colombia Standard Time)","623448","Match,No Match","","null","","","","","","<div class='trialBorder'><div class='vertical-center'><img style='vertical-align:center; align:center' src='img/fixation2_sml.jpg'></div><div class='arrayDiv2'><div class='tl'><img class='introPic' src='trustrating_stim/white_mw038.bmp'><br><font color='green'><strong>Share</strong></font></div><div class='tr'><img class='introPic' src='trustrating_stim/white_mw070.bmp'><br><font color='red'><strong>Keep</strong></font></div></div></div>","null","ARRAY","2","trustrating_stim/white_mw038.bmp,trustrating_stim/white_mw070.bmp","1,0","noMatchOutcome","i","3000","","","","",""
"html-keyboard-response","157","425984","0.0-7.0-3.24","lempert2","bdp_wmem","Wed Feb 22 2023 18:37:18 GMT-0500 (Colombia Standard Time)","623448","Match,No Match","","null","","","","","","<div class='trialBorder'><div class='vertical-center'><img src='img/fixation2_sml.jpg'</img></div></div>","null","DELAY","","","","","","","","","","",""
"html-keyboard-response","158","426771","0.0-7.0-4.24","lempert2","bdp_wmem","Wed Feb 22 2023 18:37:18 GMT-0500 (Colombia Standard Time)","623448","Match,No Match","","784","","","","","","<div class='trialBorder'><div class='targDiv'><div class='tc'><img class='introPic' src='trustrating_stim/white_mw070.bmp'><br><font color='green'><strong>Share</strong></font></div></div><div class='respDiv'><div class='respDivL'>Match<br>(e)</div><div class='respDivR'>No Match<br>(i)</div></div></div>","i","TARGET","2","trustrating_stim/white_mw038.bmp,trustrating_stim/white_mw070.bmp","1,0","noMatchOutcome","i","3000","trustrating_stim/white_mw070.bmp","green","Share","REAL","1"
"html-keyboard-response","159","427280","0.0-7.0-5.24","lempert2","bdp_wmem","Wed Feb 22 2023 18:37:18 GMT-0500 (Colombia Standard Time)","623448","Match,No Match","","null","","","","","","<div class='trialBorder'><div class='vertical-center'><img src='img/correct.jpg'></div><div class='respDiv'><div class='respDivL'>Match<br>(e)</div><div class='respDivR'><font style='color:orange'>No Match<br>(i)</font></div></div></div>","null","FEEDBACK","","","","","","","","","","",""
"html-keyboard-response","160","427786","0.0-7.0-1.25","lempert2","bdp_wmem","Wed Feb 22 2023 18:37:18 GMT-0500 (Colombia Standard Time)","623448","Match,No Match","","null","","","","","","<div class='trialBorder'><div class='vertical-center'><img src='img/fixation2_sml.jpg'</img></div></div>","null","FIX","","","","","","","","","","",""
"html-keyboard-response","161","430803","0.0-7.0-2.25","lempert2","bdp_wmem","Wed Feb 22 2023 18:37:18 GMT-0500 (Colombia Standard Time)","623448","Match,No Match","","null","","","","","","<div class='trialBorder'><div class='vertical-center'><img style='vertical-align:center; align:center' src='img/fixation2_sml.jpg'></div><div class='arrayDiv2'><div class='tl'><img class='introPic' src='trustrating_stim/white_mw092.bmp'><br><font color='red'><strong>Keep</strong></font></div><div class='tr'><img class='introPic' src='trustrating_stim/white_mw078.bmp'><br><font color='green'><strong>Share</strong></font></div></div></div>","null","ARRAY","2","trustrating_stim/white_mw092.bmp,trustrating_stim/white_mw078.bmp","0,1","Match","e","3000","","","","",""
"html-keyboard-response","162","434813","0.0-7.0-3.25","lempert2","bdp_wmem","Wed Feb 22 2023 18:37:18 GMT-0500 (Colombia Standard Time)","623448","Match,No Match","","null","","","","","","<div class='trialBorder'><div class='vertical-center'><img src='img/fixation2_sml.jpg'</img></div></div>","null","DELAY","","","","","","","","","","",""
"html-keyboard-response","163","435754","0.0-7.0-4.25","lempert2","bdp_wmem","Wed Feb 22 2023 18:37:18 GMT-0500 (Colombia Standard Time)","623448","Match,No Match","","939","","","","","","<div class='trialBorder'><div class='targDiv'><div class='tc'><img class='introPic' src='trustrating_stim/white_mw092.bmp'><br><font color='red'><strong>Keep</strong></font></div></div><div class='respDiv'><div class='respDivL'>Match<br>(e)</div><div class='respDivR'>No Match<br>(i)</div></div></div>","e","TARGET","2","trustrating_stim/white_mw092.bmp,trustrating_stim/white_mw078.bmp","0,1","Match","e","3000","trustrating_stim/white_mw092.bmp","red","Keep","REAL","1"
"html-keyboard-response","164","436266","0.0-7.0-5.25","lempert2","bdp_wmem","Wed Feb 22 2023 18:37:18 GMT-0500 (Colombia Standard Time)","623448","Match,No Match","","null","","","","","","<div class='trialBorder'><div class='vertical-center'><img src='img/correct.jpg'></div><div class='respDiv'><div class='respDivL'><font style='color:orange'>Match<br>(e)</font></div><div class='respDivR'>No Match<br>(i)</div></div></div>","null","FEEDBACK","","","","","","","","","","",""
"html-keyboard-response","165","436772","0.0-7.0-1.26","lempert2","bdp_wmem","Wed Feb 22 2023 18:37:18 GMT-0500 (Colombia Standard Time)","623448","Match,No Match","","null","","","","","","<div class='trialBorder'><div class='vertical-center'><img src='img/fixation2_sml.jpg'</img></div></div>","null","FIX","","","","","","","","","","",""
"html-keyboard-response","166","439776","0.0-7.0-2.26","lempert2","bdp_wmem","Wed Feb 22 2023 18:37:18 GMT-0500 (Colombia Standard Time)","623448","Match,No Match","","null","","","","","","<div class='trialBorder'><div class='vertical-center'><img style='vertical-align:center; align:center' src='img/fixation2_sml.jpg'></div><div class='arrayDiv2'><div class='tl'><img class='introPic' src='trustrating_stim/white_mw010.bmp'><br><font color='green'><strong>Share</strong></font></div><div class='tr'><img class='introPic' src='trustrating_stim/white_mw038.bmp'><br><font color='red'><strong>Keep</strong></font></div></div></div>","null","ARRAY","2","trustrating_stim/white_mw010.bmp,trustrating_stim/white_mw038.bmp","1,0","noMatchOutcome","i","3000","","","","",""
"html-keyboard-response","167","443780","0.0-7.0-3.26","lempert2","bdp_wmem","Wed Feb 22 2023 18:37:18 GMT-0500 (Colombia Standard Time)","623448","Match,No Match","","null","","","","","","<div class='trialBorder'><div class='vertical-center'><img src='img/fixation2_sml.jpg'</img></div></div>","null","DELAY","","","","","","","","","","",""
"html-keyboard-response","168","444732","0.0-7.0-4.26","lempert2","bdp_wmem","Wed Feb 22 2023 18:37:18 GMT-0500 (Colombia Standard Time)","623448","Match,No Match","","950","","","","","","<div class='trialBorder'><div class='targDiv'><div class='tc'><img class='introPic' src='trustrating_stim/white_mw010.bmp'><br><font color='red'><strong>Keep</strong></font></div></div><div class='respDiv'><div class='respDivL'>Match<br>(e)</div><div class='respDivR'>No Match<br>(i)</div></div></div>","i","TARGET","2","trustrating_stim/white_mw010.bmp,trustrating_stim/white_mw038.bmp","1,0","noMatchOutcome","i","3000","trustrating_stim/white_mw010.bmp","red","Keep","REAL","1"
"html-keyboard-response","169","445242","0.0-7.0-5.26","lempert2","bdp_wmem","Wed Feb 22 2023 18:37:18 GMT-0500 (Colombia Standard Time)","623448","Match,No Match","","null","","","","","","<div class='trialBorder'><div class='vertical-center'><img src='img/correct.jpg'></div><div class='respDiv'><div class='respDivL'>Match<br>(e)</div><div class='respDivR'><font style='color:orange'>No Match<br>(i)</font></div></div></div>","null","FEEDBACK","","","","","","","","","","",""
"html-keyboard-response","170","445750","0.0-7.0-1.27","lempert2","bdp_wmem","Wed Feb 22 2023 18:37:18 GMT-0500 (Colombia Standard Time)","623448","Match,No Match","","null","","","","","","<div class='trialBorder'><div class='vertical-center'><img src='img/fixation2_sml.jpg'</img></div></div>","null","FIX","","","","","","","","","","",""
"html-keyboard-response","171","450253","0.0-7.0-2.27","lempert2","bdp_wmem","Wed Feb 22 2023 18:37:18 GMT-0500 (Colombia Standard Time)","623448","Match,No Match","","null","","","","","","<div class='trialBorder'><div class='vertical-center'><img style='vertical-align:center; align:center' src='img/fixation2_sml.jpg'></div><div class='arrayDiv3'><div class='tl'><img class='introPic' src='trustrating_stim/white_mw042.bmp'><br><font color='red'><strong>Keep</strong></font></div><div class='tc'><img class='introPic' src='trustrating_stim/white_mw085.bmp'><br><font color='red'><strong>Keep</strong></font></div><div class='tr'><img class='introPic' src='trustrating_stim/white_mw040.bmp'><br><font color='green'><strong>Share</strong></font></div></div></div>","null","ARRAY","3","trustrating_stim/white_mw042.bmp,trustrating_stim/white_mw085.bmp,trustrating_stim/white_mw040.bmp","0,0,1","noMatchOutcome","i","4500","","","","",""
"html-keyboard-response","172","454270","0.0-7.0-3.27","lempert2","bdp_wmem","Wed Feb 22 2023 18:37:18 GMT-0500 (Colombia Standard Time)","623448","Match,No Match","","null","","","","","","<div class='trialBorder'><div class='vertical-center'><img src='img/fixation2_sml.jpg'</img></div></div>","null","DELAY","","","","","","","","","","",""
"html-keyboard-response","173","455038","0.0-7.0-4.27","lempert2","bdp_wmem","Wed Feb 22 2023 18:37:18 GMT-0500 (Colombia Standard Time)","623448","Match,No Match","","766","","","","","","<div class='trialBorder'><div class='targDiv'><div class='tc'><img class='introPic' src='trustrating_stim/white_mw042.bmp'><br><font color='green'><strong>Share</strong></font></div></div><div class='respDiv'><div class='respDivL'>Match<br>(e)</div><div class='respDivR'>No Match<br>(i)</div></div></div>","i","TARGET","3","trustrating_stim/white_mw042.bmp,trustrating_stim/white_mw085.bmp,trustrating_stim/white_mw040.bmp","0,0,1","noMatchOutcome","i","4500","trustrating_stim/white_mw042.bmp","green","Share","REAL","1"
"html-keyboard-response","174","455544","0.0-7.0-5.27","lempert2","bdp_wmem","Wed Feb 22 2023 18:37:18 GMT-0500 (Colombia Standard Time)","623448","Match,No Match","","null","","","","","","<div class='trialBorder'><div class='vertical-center'><img src='img/correct.jpg'></div><div class='respDiv'><div class='respDivL'>Match<br>(e)</div><div class='respDivR'><font style='color:orange'>No Match<br>(i)</font></div></div></div>","null","FEEDBACK","","","","","","","","","","",""
"html-keyboard-response","175","456051","0.0-7.0-1.28","lempert2","bdp_wmem","Wed Feb 22 2023 18:37:18 GMT-0500 (Colombia Standard Time)","623448","Match,No Match","","null","","","","","","<div class='trialBorder'><div class='vertical-center'><img src='img/fixation2_sml.jpg'</img></div></div>","null","FIX","","","","","","","","","","",""
"html-keyboard-response","176","460558","0.0-7.0-2.28","lempert2","bdp_wmem","Wed Feb 22 2023 18:37:18 GMT-0500 (Colombia Standard Time)","623448","Match,No Match","","null","","","","","","<div class='trialBorder'><div class='vertical-center'><img style='vertical-align:center; align:center' src='img/fixation2_sml.jpg'></div><div class='arrayDiv3'><div class='tl'><img class='introPic' src='trustrating_stim/white_mw042.bmp'><br><font color='green'><strong>Share</strong></font></div><div class='tc'><img class='introPic' src='trustrating_stim/white_mw038.bmp'><br><font color='green'><strong>Share</strong></font></div><div class='tr'><img class='introPic' src='trustrating_stim/white_mw092.bmp'><br><font color='red'><strong>Keep</strong></font></div></div></div>","null","ARRAY","3","trustrating_stim/white_mw042.bmp,trustrating_stim/white_mw038.bmp,trustrating_stim/white_mw092.bmp","1,1,0","Match","e","4500","","","","",""
"html-keyboard-response","177","464567","0.0-7.0-3.28","lempert2","bdp_wmem","Wed Feb 22 2023 18:37:18 GMT-0500 (Colombia Standard Time)","623448","Match,No Match","","null","","","","","","<div class='trialBorder'><div class='vertical-center'><img src='img/fixation2_sml.jpg'</img></div></div>","null","DELAY","","","","","","","","","","",""
"html-keyboard-response","178","465510","0.0-7.0-4.28","lempert2","bdp_wmem","Wed Feb 22 2023 18:37:18 GMT-0500 (Colombia Standard Time)","623448","Match,No Match","","940","","","","","","<div class='trialBorder'><div class='targDiv'><div class='tc'><img class='introPic' src='trustrating_stim/white_mw038.bmp'><br><font color='green'><strong>Share</strong></font></div></div><div class='respDiv'><div class='respDivL'>Match<br>(e)</div><div class='respDivR'>No Match<br>(i)</div></div></div>","e","TARGET","3","trustrating_stim/white_mw042.bmp,trustrating_stim/white_mw038.bmp,trustrating_stim/white_mw092.bmp","1,1,0","Match","e","4500","trustrating_stim/white_mw038.bmp","green","Share","REAL","1"
"html-keyboard-response","179","466015","0.0-7.0-5.28","lempert2","bdp_wmem","Wed Feb 22 2023 18:37:18 GMT-0500 (Colombia Standard Time)","623448","Match,No Match","","null","","","","","","<div class='trialBorder'><div class='vertical-center'><img src='img/correct.jpg'></div><div class='respDiv'><div class='respDivL'><font style='color:orange'>Match<br>(e)</font></div><div class='respDivR'>No Match<br>(i)</div></div></div>","null","FEEDBACK","","","","","","","","","","",""
"html-keyboard-response","180","466521","0.0-7.0-1.29","lempert2","bdp_wmem","Wed Feb 22 2023 18:37:18 GMT-0500 (Colombia Standard Time)","623448","Match,No Match","","null","","","","","","<div class='trialBorder'><div class='vertical-center'><img src='img/fixation2_sml.jpg'</img></div></div>","null","FIX","","","","","","","","","","",""
"html-keyboard-response","181","471024","0.0-7.0-2.29","lempert2","bdp_wmem","Wed Feb 22 2023 18:37:18 GMT-0500 (Colombia Standard Time)","623448","Match,No Match","","null","","","","","","<div class='trialBorder'><div class='vertical-center'><img style='vertical-align:center; align:center' src='img/fixation2_sml.jpg'></div><div class='arrayDiv3'><div class='tl'><img class='introPic' src='trustrating_stim/white_mw042.bmp'><br><font color='green'><strong>Share</strong></font></div><div class='tc'><img class='introPic' src='trustrating_stim/white_mw040.bmp'><br><font color='red'><strong>Keep</strong></font></div><div class='tr'><img class='introPic' src='trustrating_stim/white_mw092.bmp'><br><font color='green'><strong>Share</strong></font></div></div></div>","null","ARRAY","3","trustrating_stim/white_mw042.bmp,trustrating_stim/white_mw040.bmp,trustrating_stim/white_mw092.bmp","1,0,1","Match","e","4500","","","","",""
"html-keyboard-response","182","475033","0.0-7.0-3.29","lempert2","bdp_wmem","Wed Feb 22 2023 18:37:18 GMT-0500 (Colombia Standard Time)","623448","Match,No Match","","null","","","","","","<div class='trialBorder'><div class='vertical-center'><img src='img/fixation2_sml.jpg'</img></div></div>","null","DELAY","","","","","","","","","","",""
"html-keyboard-response","183","475316","0.0-7.0-4.29","lempert2","bdp_wmem","Wed Feb 22 2023 18:37:18 GMT-0500 (Colombia Standard Time)","623448","Match,No Match","","280","","","","","","<div class='trialBorder'><div class='targDiv'><div class='tc'><img class='introPic' src='trustrating_stim/white_mw040.bmp'><br><font color='red'><strong>Keep</strong></font></div></div><div class='respDiv'><div class='respDivL'>Match<br>(e)</div><div class='respDivR'>No Match<br>(i)</div></div></div>","e","TARGET","3","trustrating_stim/white_mw042.bmp,trustrating_stim/white_mw040.bmp,trustrating_stim/white_mw092.bmp","1,0,1","Match","e","4500","trustrating_stim/white_mw040.bmp","red","Keep","REAL","1"
"html-keyboard-response","184","475819","0.0-7.0-5.29","lempert2","bdp_wmem","Wed Feb 22 2023 18:37:18 GMT-0500 (Colombia Standard Time)","623448","Match,No Match","","null","","","","","","<div class='trialBorder'><div class='vertical-center'><img src='img/correct.jpg'></div><div class='respDiv'><div class='respDivL'><font style='color:orange'>Match<br>(e)</font></div><div class='respDivR'>No Match<br>(i)</div></div></div>","null","FEEDBACK","","","","","","","","","","",""
"html-keyboard-response","185","476324","0.0-7.0-1.30","lempert2","bdp_wmem","Wed Feb 22 2023 18:37:18 GMT-0500 (Colombia Standard Time)","623448","Match,No Match","","null","","","","","","<div class='trialBorder'><div class='vertical-center'><img src='img/fixation2_sml.jpg'</img></div></div>","null","FIX","","","","","","","","","","",""
"html-keyboard-response","186","477842","0.0-7.0-2.30","lempert2","bdp_wmem","Wed Feb 22 2023 18:37:18 GMT-0500 (Colombia Standard Time)","623448","Match,No Match","","null","","","","","","<div class='trialBorder'><div class='vertical-center'><img style='vertical-align:center; align:center' src='img/fixation2_sml.jpg'></div><div class='arrayDiv1'><div class='tc'><img class='introPic' src='trustrating_stim/white_mw040.bmp'><br><font color='green'><strong>Share</strong></font></div></div></div>","null","ARRAY","1","trustrating_stim/white_mw040.bmp","1","Match","e","1500","","","","",""
"html-keyboard-response","187","481851","0.0-7.0-3.30","lempert2","bdp_wmem","Wed Feb 22 2023 18:37:18 GMT-0500 (Colombia Standard Time)","623448","Match,No Match","","null","","","","","","<div class='trialBorder'><div class='vertical-center'><img src='img/fixation2_sml.jpg'</img></div></div>","null","DELAY","","","","","","","","","","",""
"html-keyboard-response","188","482348","0.0-7.0-4.30","lempert2","bdp_wmem","Wed Feb 22 2023 18:37:18 GMT-0500 (Colombia Standard Time)","623448","Match,No Match","","494","","","","","","<div class='trialBorder'><div class='targDiv'><div class='tc'><img class='introPic' src='trustrating_stim/white_mw040.bmp'><br><font color='green'><strong>Share</strong></font></div></div><div class='respDiv'><div class='respDivL'>Match<br>(e)</div><div class='respDivR'>No Match<br>(i)</div></div></div>","e","TARGET","1","trustrating_stim/white_mw040.bmp","1","Match","e","1500","trustrating_stim/white_mw040.bmp","green","Share","REAL","1"
"html-keyboard-response","189","482853","0.0-7.0-5.30","lempert2","bdp_wmem","Wed Feb 22 2023 18:37:18 GMT-0500 (Colombia Standard Time)","623448","Match,No Match","","null","","","","","","<div class='trialBorder'><div class='vertical-center'><img src='img/correct.jpg'></div><div class='respDiv'><div class='respDivL'><font style='color:orange'>Match<br>(e)</font></div><div class='respDivR'>No Match<br>(i)</div></div></div>","null","FEEDBACK","","","","","","","","","","",""
"html-keyboard-response","190","483363","0.0-7.0-1.31","lempert2","bdp_wmem","Wed Feb 22 2023 18:37:18 GMT-0500 (Colombia Standard Time)","623448","Match,No Match","","null","","","","","","<div class='trialBorder'><div class='vertical-center'><img src='img/fixation2_sml.jpg'</img></div></div>","null","FIX","","","","","","","","","","",""
