"trial_type","trial_index","time_elapsed","internal_node_id","subject_id","task","startTime","totalTime","labels","view_history","rt","event","trial","time","trialtype","success","stimulus","key_press","stimType","arraySize","arrayFaces","arrayOutcomes","matchType","corrResp","arrayDur","targFace","targCol","targOutcome","trialType","corr"
"pavlovia","0","1","0.0-0.0","6338c2127eed17193a7a4d32","bdp_wmem","Mon Mar 13 2023 11:17:49 GMT-0700 (Pacific Daylight Time)","721573","Match,No Match","","","","","","","","","","","","","","","","","","","","",""
"instructions","1","3038","0.0-1.0","6338c2127eed17193a7a4d32","bdp_wmem","Mon Mar 13 2023 11:17:49 GMT-0700 (Pacific Daylight Time)","721573","Match,No Match","[{""page_index"":0,""viewing_time"":3036}]","3036","","","","","","","","","","","","","","","","","","",""
"","","","","6338c2127eed17193a7a4d32","bdp_wmem","Mon Mar 13 2023 11:17:49 GMT-0700 (Pacific Daylight Time)","721573","Match,No Match","","","fullscreenenter","2","5256","fullscreenenter","","","","","","","","","","","","","","",""
"fullscreen","2","6245","0.0-2.0","6338c2127eed17193a7a4d32","bdp_wmem","Mon Mar 13 2023 11:17:49 GMT-0700 (Pacific Daylight Time)","721573","Match,No Match","","","","","","","true","","","","","","","","","","","","","",""
"instructions","3","160755","0.0-4.0","6338c2127eed17193a7a4d32","bdp_wmem","Mon Mar 13 2023 11:17:49 GMT-0700 (Pacific Daylight Time)","721573","Match,No Match","[{""page_index"":0,""viewing_time"":43075},{""page_index"":1,""viewing_time"":43574},{""page_index"":2,""viewing_time"":27915},{""page_index"":1,""viewing_time"":11587},{""page_index"":2,""viewing_time"":3956},{""page_index"":3,""viewing_time"":9514},{""page_index"":4,""viewing_time"":14888}]","154509","","","","","","","","","","","","","","","","","","",""
"html-keyboard-response","4","161257","0.0-5.0-1.0","6338c2127eed17193a7a4d32","bdp_wmem","Mon Mar 13 2023 11:17:49 GMT-0700 (Pacific Daylight Time)","721573","Match,No Match","","null","","","","","","<div class='trialBorder'><div class='vertical-center'><img src='img/fixation2_sml.jpg'</img></div></div>","null","FIX","","","","","","","","","","",""
"html-keyboard-response","5","165759","0.0-5.0-2.0","6338c2127eed17193a7a4d32","bdp_wmem","Mon Mar 13 2023 11:17:49 GMT-0700 (Pacific Daylight Time)","721573","Match,No Match","","null","","","","","","<div class='trialBorder'><div class='vertical-center'><img style='vertical-align:center; align:center' src='img/fixation2_sml.jpg'></div><div class='arrayDiv3'><div class='tl'><img class='introPic' src='trustrating_stim/white_mw070.bmp'><br><font color='red'><strong>Keep</strong></font></div><div class='tc'><img class='introPic' src='trustrating_stim/white_mw038.bmp'><br><font color='green'><strong>Share</strong></font></div><div class='tr'><img class='introPic' src='trustrating_stim/white_mw012.bmp'><br><font color='green'><strong>Share</strong></font></div></div></div>","null","ARRAY","3","trustrating_stim/white_mw070.bmp,trustrating_stim/white_mw038.bmp,trustrating_stim/white_mw012.bmp","0,1,1","noMatchOutcome","i","4500","","","","",""
"html-keyboard-response","6","169761","0.0-5.0-3.0","6338c2127eed17193a7a4d32","bdp_wmem","Mon Mar 13 2023 11:17:49 GMT-0700 (Pacific Daylight Time)","721573","Match,No Match","","null","","","","","","<div class='trialBorder'><div class='vertical-center'><img src='img/fixation2_sml.jpg'</img></div></div>","null","DELAY","","","","","","","","","","",""
"html-keyboard-response","7","171351","0.0-5.0-4.0","6338c2127eed17193a7a4d32","bdp_wmem","Mon Mar 13 2023 11:17:49 GMT-0700 (Pacific Daylight Time)","721573","Match,No Match","","1589","","","","","","<div class='trialBorder'><div class='targDiv'><div class='tc'><img class='introPic' src='trustrating_stim/white_mw012.bmp'><br><font color='red'><strong>Keep</strong></font></div></div><div class='respDiv'><div class='respDivL'>Match<br>(e)</div><div class='respDivR'>No Match<br>(i)</div></div></div>","i","TARGET","3","trustrating_stim/white_mw070.bmp,trustrating_stim/white_mw038.bmp,trustrating_stim/white_mw012.bmp","0,1,1","noMatchOutcome","i","4500","trustrating_stim/white_mw012.bmp","red","Keep","PRACTICE","1"
"html-keyboard-response","8","171852","0.0-5.0-5.0","6338c2127eed17193a7a4d32","bdp_wmem","Mon Mar 13 2023 11:17:49 GMT-0700 (Pacific Daylight Time)","721573","Match,No Match","","null","","","","","","<div class='trialBorder'><div class='vertical-center'><img src='img/correct.jpg'></div><div class='respDiv'><div class='respDivL'>Match<br>(e)</div><div class='respDivR'><font style='color:orange'>No Match<br>(i)</font></div></div></div>","null","FEEDBACK","","","","","","","","","","",""
"html-keyboard-response","9","172353","0.0-5.0-1.1","6338c2127eed17193a7a4d32","bdp_wmem","Mon Mar 13 2023 11:17:49 GMT-0700 (Pacific Daylight Time)","721573","Match,No Match","","null","","","","","","<div class='trialBorder'><div class='vertical-center'><img src='img/fixation2_sml.jpg'</img></div></div>","null","FIX","","","","","","","","","","",""
"html-keyboard-response","10","175354","0.0-5.0-2.1","6338c2127eed17193a7a4d32","bdp_wmem","Mon Mar 13 2023 11:17:49 GMT-0700 (Pacific Daylight Time)","721573","Match,No Match","","null","","","","","","<div class='trialBorder'><div class='vertical-center'><img style='vertical-align:center; align:center' src='img/fixation2_sml.jpg'></div><div class='arrayDiv2'><div class='tl'><img class='introPic' src='trustrating_stim/white_mw091.bmp'><br><font color='green'><strong>Share</strong></font></div><div class='tr'><img class='introPic' src='trustrating_stim/white_mw013.bmp'><br><font color='red'><strong>Keep</strong></font></div></div></div>","null","ARRAY","2","trustrating_stim/white_mw091.bmp,trustrating_stim/white_mw013.bmp","1,0","noMatchFace","i","3000","","","","",""
"html-keyboard-response","11","179356","0.0-5.0-3.1","6338c2127eed17193a7a4d32","bdp_wmem","Mon Mar 13 2023 11:17:49 GMT-0700 (Pacific Daylight Time)","721573","Match,No Match","","null","","","","","","<div class='trialBorder'><div class='vertical-center'><img src='img/fixation2_sml.jpg'</img></div></div>","null","DELAY","","","","","","","","","","",""
"html-keyboard-response","12","181561","0.0-5.0-4.1","6338c2127eed17193a7a4d32","bdp_wmem","Mon Mar 13 2023 11:17:49 GMT-0700 (Pacific Daylight Time)","721573","Match,No Match","","2204","","","","","","<div class='trialBorder'><div class='targDiv'><div class='tc'><img class='introPic' src='trustrating_stim/white_mw042.bmp'><br><font color='green'><strong>Share</strong></font></div></div><div class='respDiv'><div class='respDivL'>Match<br>(e)</div><div class='respDivR'>No Match<br>(i)</div></div></div>","i","TARGET","2","trustrating_stim/white_mw091.bmp,trustrating_stim/white_mw013.bmp","1,0","noMatchFace","i","3000","trustrating_stim/white_mw042.bmp","green","Share","PRACTICE","1"
"html-keyboard-response","13","182062","0.0-5.0-5.1","6338c2127eed17193a7a4d32","bdp_wmem","Mon Mar 13 2023 11:17:49 GMT-0700 (Pacific Daylight Time)","721573","Match,No Match","","null","","","","","","<div class='trialBorder'><div class='vertical-center'><img src='img/correct.jpg'></div><div class='respDiv'><div class='respDivL'>Match<br>(e)</div><div class='respDivR'><font style='color:orange'>No Match<br>(i)</font></div></div></div>","null","FEEDBACK","","","","","","","","","","",""
"html-keyboard-response","14","182563","0.0-5.0-1.2","6338c2127eed17193a7a4d32","bdp_wmem","Mon Mar 13 2023 11:17:49 GMT-0700 (Pacific Daylight Time)","721573","Match,No Match","","null","","","","","","<div class='trialBorder'><div class='vertical-center'><img src='img/fixation2_sml.jpg'</img></div></div>","null","FIX","","","","","","","","","","",""
"html-keyboard-response","15","184065","0.0-5.0-2.2","6338c2127eed17193a7a4d32","bdp_wmem","Mon Mar 13 2023 11:17:49 GMT-0700 (Pacific Daylight Time)","721573","Match,No Match","","null","","","","","","<div class='trialBorder'><div class='vertical-center'><img style='vertical-align:center; align:center' src='img/fixation2_sml.jpg'></div><div class='arrayDiv1'><div class='tc'><img class='introPic' src='trustrating_stim/white_mw003.bmp'><br><font color='green'><strong>Share</strong></font></div></div></div>","null","ARRAY","1","trustrating_stim/white_mw003.bmp","1","Match","e","1500","","","","",""
"html-keyboard-response","16","188066","0.0-5.0-3.2","6338c2127eed17193a7a4d32","bdp_wmem","Mon Mar 13 2023 11:17:49 GMT-0700 (Pacific Daylight Time)","721573","Match,No Match","","null","","","","","","<div class='trialBorder'><div class='vertical-center'><img src='img/fixation2_sml.jpg'</img></div></div>","null","DELAY","","","","","","","","","","",""
"html-keyboard-response","17","189903","0.0-5.0-4.2","6338c2127eed17193a7a4d32","bdp_wmem","Mon Mar 13 2023 11:17:49 GMT-0700 (Pacific Daylight Time)","721573","Match,No Match","","1835","","","","","","<div class='trialBorder'><div class='targDiv'><div class='tc'><img class='introPic' src='trustrating_stim/white_mw003.bmp'><br><font color='green'><strong>Share</strong></font></div></div><div class='respDiv'><div class='respDivL'>Match<br>(e)</div><div class='respDivR'>No Match<br>(i)</div></div></div>","e","TARGET","1","trustrating_stim/white_mw003.bmp","1","Match","e","1500","trustrating_stim/white_mw003.bmp","green","Share","PRACTICE","1"
"html-keyboard-response","18","190404","0.0-5.0-5.2","6338c2127eed17193a7a4d32","bdp_wmem","Mon Mar 13 2023 11:17:49 GMT-0700 (Pacific Daylight Time)","721573","Match,No Match","","null","","","","","","<div class='trialBorder'><div class='vertical-center'><img src='img/correct.jpg'></div><div class='respDiv'><div class='respDivL'><font style='color:orange'>Match<br>(e)</font></div><div class='respDivR'>No Match<br>(i)</div></div></div>","null","FEEDBACK","","","","","","","","","","",""
"html-keyboard-response","19","190905","0.0-5.0-1.3","6338c2127eed17193a7a4d32","bdp_wmem","Mon Mar 13 2023 11:17:49 GMT-0700 (Pacific Daylight Time)","721573","Match,No Match","","null","","","","","","<div class='trialBorder'><div class='vertical-center'><img src='img/fixation2_sml.jpg'</img></div></div>","null","FIX","","","","","","","","","","",""
"html-keyboard-response","20","193907","0.0-5.0-2.3","6338c2127eed17193a7a4d32","bdp_wmem","Mon Mar 13 2023 11:17:49 GMT-0700 (Pacific Daylight Time)","721573","Match,No Match","","null","","","","","","<div class='trialBorder'><div class='vertical-center'><img style='vertical-align:center; align:center' src='img/fixation2_sml.jpg'></div><div class='arrayDiv2'><div class='tl'><img class='introPic' src='trustrating_stim/white_mw070.bmp'><br><font color='green'><strong>Share</strong></font></div><div class='tr'><img class='introPic' src='trustrating_stim/white_mw040.bmp'><br><font color='red'><strong>Keep</strong></font></div></div></div>","null","ARRAY","2","trustrating_stim/white_mw070.bmp,trustrating_stim/white_mw040.bmp","1,0","Match","e","3000","","","","",""
"html-keyboard-response","21","197909","0.0-5.0-3.3","6338c2127eed17193a7a4d32","bdp_wmem","Mon Mar 13 2023 11:17:49 GMT-0700 (Pacific Daylight Time)","721573","Match,No Match","","null","","","","","","<div class='trialBorder'><div class='vertical-center'><img src='img/fixation2_sml.jpg'</img></div></div>","null","DELAY","","","","","","","","","","",""
"html-keyboard-response","22","199910","0.0-5.0-4.3","6338c2127eed17193a7a4d32","bdp_wmem","Mon Mar 13 2023 11:17:49 GMT-0700 (Pacific Daylight Time)","721573","Match,No Match","","2001","","","","","","<div class='trialBorder'><div class='targDiv'><div class='tc'><img class='introPic' src='trustrating_stim/white_mw040.bmp'><br><font color='red'><strong>Keep</strong></font></div></div><div class='respDiv'><div class='respDivL'>Match<br>(e)</div><div class='respDivR'>No Match<br>(i)</div></div></div>","i","TARGET","2","trustrating_stim/white_mw070.bmp,trustrating_stim/white_mw040.bmp","1,0","Match","e","3000","trustrating_stim/white_mw040.bmp","red","Keep","PRACTICE","0"
"html-keyboard-response","23","200410","0.0-5.0-5.3","6338c2127eed17193a7a4d32","bdp_wmem","Mon Mar 13 2023 11:17:49 GMT-0700 (Pacific Daylight Time)","721573","Match,No Match","","null","","","","","","<div class='trialBorder'><div class='vertical-center'><img src='img/error.jpg'></div><div class='respDiv'><div class='respDivL'>Match<br>(e)</div><div class='respDivR'><font style='color:orange'>No Match<br>(i)</font></div></div></div>","null","FEEDBACK","","","","","","","","","","",""
"html-keyboard-response","24","200912","0.0-5.0-1.4","6338c2127eed17193a7a4d32","bdp_wmem","Mon Mar 13 2023 11:17:49 GMT-0700 (Pacific Daylight Time)","721573","Match,No Match","","null","","","","","","<div class='trialBorder'><div class='vertical-center'><img src='img/fixation2_sml.jpg'</img></div></div>","null","FIX","","","","","","","","","","",""
"html-keyboard-response","25","202414","0.0-5.0-2.4","6338c2127eed17193a7a4d32","bdp_wmem","Mon Mar 13 2023 11:17:49 GMT-0700 (Pacific Daylight Time)","721573","Match,No Match","","null","","","","","","<div class='trialBorder'><div class='vertical-center'><img style='vertical-align:center; align:center' src='img/fixation2_sml.jpg'></div><div class='arrayDiv1'><div class='tc'><img class='introPic' src='trustrating_stim/white_mw010.bmp'><br><font color='red'><strong>Keep</strong></font></div></div></div>","null","ARRAY","1","trustrating_stim/white_mw010.bmp","0","noMatchFace","i","1500","","","","",""
"html-keyboard-response","26","206416","0.0-5.0-3.4","6338c2127eed17193a7a4d32","bdp_wmem","Mon Mar 13 2023 11:17:49 GMT-0700 (Pacific Daylight Time)","721573","Match,No Match","","null","","","","","","<div class='trialBorder'><div class='vertical-center'><img src='img/fixation2_sml.jpg'</img></div></div>","null","DELAY","","","","","","","","","","",""
"html-keyboard-response","27","207924","0.0-5.0-4.4","6338c2127eed17193a7a4d32","bdp_wmem","Mon Mar 13 2023 11:17:49 GMT-0700 (Pacific Daylight Time)","721573","Match,No Match","","1507","","","","","","<div class='trialBorder'><div class='targDiv'><div class='tc'><img class='introPic' src='trustrating_stim/white_mw070.bmp'><br><font color='red'><strong>Keep</strong></font></div></div><div class='respDiv'><div class='respDivL'>Match<br>(e)</div><div class='respDivR'>No Match<br>(i)</div></div></div>","i","TARGET","1","trustrating_stim/white_mw010.bmp","0","noMatchFace","i","1500","trustrating_stim/white_mw070.bmp","red","Keep","PRACTICE","1"
"html-keyboard-response","28","208425","0.0-5.0-5.4","6338c2127eed17193a7a4d32","bdp_wmem","Mon Mar 13 2023 11:17:49 GMT-0700 (Pacific Daylight Time)","721573","Match,No Match","","null","","","","","","<div class='trialBorder'><div class='vertical-center'><img src='img/correct.jpg'></div><div class='respDiv'><div class='respDivL'>Match<br>(e)</div><div class='respDivR'><font style='color:orange'>No Match<br>(i)</font></div></div></div>","null","FEEDBACK","","","","","","","","","","",""
"html-keyboard-response","29","208926","0.0-5.0-1.5","6338c2127eed17193a7a4d32","bdp_wmem","Mon Mar 13 2023 11:17:49 GMT-0700 (Pacific Daylight Time)","721573","Match,No Match","","null","","","","","","<div class='trialBorder'><div class='vertical-center'><img src='img/fixation2_sml.jpg'</img></div></div>","null","FIX","","","","","","","","","","",""
"html-keyboard-response","30","213428","0.0-5.0-2.5","6338c2127eed17193a7a4d32","bdp_wmem","Mon Mar 13 2023 11:17:49 GMT-0700 (Pacific Daylight Time)","721573","Match,No Match","","null","","","","","","<div class='trialBorder'><div class='vertical-center'><img style='vertical-align:center; align:center' src='img/fixation2_sml.jpg'></div><div class='arrayDiv3'><div class='tl'><img class='introPic' src='trustrating_stim/white_mw091.bmp'><br><font color='green'><strong>Share</strong></font></div><div class='tc'><img class='introPic' src='trustrating_stim/white_mw013.bmp'><br><font color='red'><strong>Keep</strong></font></div><div class='tr'><img class='introPic' src='trustrating_stim/white_mw040.bmp'><br><font color='red'><strong>Keep</strong></font></div></div></div>","null","ARRAY","3","trustrating_stim/white_mw091.bmp,trustrating_stim/white_mw013.bmp,trustrating_stim/white_mw040.bmp","1,0,0","Match","e","4500","","","","",""
"html-keyboard-response","31","217429","0.0-5.0-3.5","6338c2127eed17193a7a4d32","bdp_wmem","Mon Mar 13 2023 11:17:49 GMT-0700 (Pacific Daylight Time)","721573","Match,No Match","","null","","","","","","<div class='trialBorder'><div class='vertical-center'><img src='img/fixation2_sml.jpg'</img></div></div>","null","DELAY","","","","","","","","","","",""
"html-keyboard-response","32","219120","0.0-5.0-4.5","6338c2127eed17193a7a4d32","bdp_wmem","Mon Mar 13 2023 11:17:49 GMT-0700 (Pacific Daylight Time)","721573","Match,No Match","","1690","","","","","","<div class='trialBorder'><div class='targDiv'><div class='tc'><img class='introPic' src='trustrating_stim/white_mw040.bmp'><br><font color='red'><strong>Keep</strong></font></div></div><div class='respDiv'><div class='respDivL'>Match<br>(e)</div><div class='respDivR'>No Match<br>(i)</div></div></div>","i","TARGET","3","trustrating_stim/white_mw091.bmp,trustrating_stim/white_mw013.bmp,trustrating_stim/white_mw040.bmp","1,0,0","Match","e","4500","trustrating_stim/white_mw040.bmp","red","Keep","PRACTICE","0"
"html-keyboard-response","33","219621","0.0-5.0-5.5","6338c2127eed17193a7a4d32","bdp_wmem","Mon Mar 13 2023 11:17:49 GMT-0700 (Pacific Daylight Time)","721573","Match,No Match","","null","","","","","","<div class='trialBorder'><div class='vertical-center'><img src='img/error.jpg'></div><div class='respDiv'><div class='respDivL'>Match<br>(e)</div><div class='respDivR'><font style='color:orange'>No Match<br>(i)</font></div></div></div>","null","FEEDBACK","","","","","","","","","","",""
"instructions","34","277151","0.0-6.0","6338c2127eed17193a7a4d32","bdp_wmem","Mon Mar 13 2023 11:17:49 GMT-0700 (Pacific Daylight Time)","721573","Match,No Match","[{""page_index"":0,""viewing_time"":57530}]","57530","","","","","","","","","","","","","","","","","","",""
"html-keyboard-response","35","277653","0.0-7.0-1.0","6338c2127eed17193a7a4d32","bdp_wmem","Mon Mar 13 2023 11:17:49 GMT-0700 (Pacific Daylight Time)","721573","Match,No Match","","null","","","","","","<div class='trialBorder'><div class='vertical-center'><img src='img/fixation2_sml.jpg'</img></div></div>","null","FIX","","","","","","","","","","",""
"html-keyboard-response","36","279154","0.0-7.0-2.0","6338c2127eed17193a7a4d32","bdp_wmem","Mon Mar 13 2023 11:17:49 GMT-0700 (Pacific Daylight Time)","721573","Match,No Match","","null","","","","","","<div class='trialBorder'><div class='vertical-center'><img style='vertical-align:center; align:center' src='img/fixation2_sml.jpg'></div><div class='arrayDiv1'><div class='tc'><img class='introPic' src='trustrating_stim/white_mw092.bmp'><br><font color='green'><strong>Share</strong></font></div></div></div>","null","ARRAY","1","trustrating_stim/white_mw092.bmp","1","Match","e","1500","","","","",""
"html-keyboard-response","37","283156","0.0-7.0-3.0","6338c2127eed17193a7a4d32","bdp_wmem","Mon Mar 13 2023 11:17:49 GMT-0700 (Pacific Daylight Time)","721573","Match,No Match","","null","","","","","","<div class='trialBorder'><div class='vertical-center'><img src='img/fixation2_sml.jpg'</img></div></div>","null","DELAY","","","","","","","","","","",""
"html-keyboard-response","38","284570","0.0-7.0-4.0","6338c2127eed17193a7a4d32","bdp_wmem","Mon Mar 13 2023 11:17:49 GMT-0700 (Pacific Daylight Time)","721573","Match,No Match","","1414","","","","","","<div class='trialBorder'><div class='targDiv'><div class='tc'><img class='introPic' src='trustrating_stim/white_mw092.bmp'><br><font color='green'><strong>Share</strong></font></div></div><div class='respDiv'><div class='respDivL'>Match<br>(e)</div><div class='respDivR'>No Match<br>(i)</div></div></div>","e","TARGET","1","trustrating_stim/white_mw092.bmp","1","Match","e","1500","trustrating_stim/white_mw092.bmp","green","Share","REAL","1"
"html-keyboard-response","39","285071","0.0-7.0-5.0","6338c2127eed17193a7a4d32","bdp_wmem","Mon Mar 13 2023 11:17:49 GMT-0700 (Pacific Daylight Time)","721573","Match,No Match","","null","","","","","","<div class='trialBorder'><div class='vertical-center'><img src='img/correct.jpg'></div><div class='respDiv'><div class='respDivL'><font style='color:orange'>Match<br>(e)</font></div><div class='respDivR'>No Match<br>(i)</div></div></div>","null","FEEDBACK","","","","","","","","","","",""
"html-keyboard-response","40","285573","0.0-7.0-1.1","6338c2127eed17193a7a4d32","bdp_wmem","Mon Mar 13 2023 11:17:49 GMT-0700 (Pacific Daylight Time)","721573","Match,No Match","","null","","","","","","<div class='trialBorder'><div class='vertical-center'><img src='img/fixation2_sml.jpg'</img></div></div>","null","FIX","","","","","","","","","","",""
"html-keyboard-response","41","287074","0.0-7.0-2.1","6338c2127eed17193a7a4d32","bdp_wmem","Mon Mar 13 2023 11:17:49 GMT-0700 (Pacific Daylight Time)","721573","Match,No Match","","null","","","","","","<div class='trialBorder'><div class='vertical-center'><img style='vertical-align:center; align:center' src='img/fixation2_sml.jpg'></div><div class='arrayDiv1'><div class='tc'><img class='introPic' src='trustrating_stim/white_mw042.bmp'><br><font color='red'><strong>Keep</strong></font></div></div></div>","null","ARRAY","1","trustrating_stim/white_mw042.bmp","0","noMatchFace","i","1500","","","","",""
"html-keyboard-response","42","291076","0.0-7.0-3.1","6338c2127eed17193a7a4d32","bdp_wmem","Mon Mar 13 2023 11:17:49 GMT-0700 (Pacific Daylight Time)","721573","Match,No Match","","null","","","","","","<div class='trialBorder'><div class='vertical-center'><img src='img/fixation2_sml.jpg'</img></div></div>","null","DELAY","","","","","","","","","","",""
"html-keyboard-response","43","292717","0.0-7.0-4.1","6338c2127eed17193a7a4d32","bdp_wmem","Mon Mar 13 2023 11:17:49 GMT-0700 (Pacific Daylight Time)","721573","Match,No Match","","1640","","","","","","<div class='trialBorder'><div class='targDiv'><div class='tc'><img class='introPic' src='trustrating_stim/white_mw070.bmp'><br><font color='red'><strong>Keep</strong></font></div></div><div class='respDiv'><div class='respDivL'>Match<br>(e)</div><div class='respDivR'>No Match<br>(i)</div></div></div>","i","TARGET","1","trustrating_stim/white_mw042.bmp","0","noMatchFace","i","1500","trustrating_stim/white_mw070.bmp","red","Keep","REAL","1"
"html-keyboard-response","44","293218","0.0-7.0-5.1","6338c2127eed17193a7a4d32","bdp_wmem","Mon Mar 13 2023 11:17:49 GMT-0700 (Pacific Daylight Time)","721573","Match,No Match","","null","","","","","","<div class='trialBorder'><div class='vertical-center'><img src='img/correct.jpg'></div><div class='respDiv'><div class='respDivL'>Match<br>(e)</div><div class='respDivR'><font style='color:orange'>No Match<br>(i)</font></div></div></div>","null","FEEDBACK","","","","","","","","","","",""
"html-keyboard-response","45","293720","0.0-7.0-1.2","6338c2127eed17193a7a4d32","bdp_wmem","Mon Mar 13 2023 11:17:49 GMT-0700 (Pacific Daylight Time)","721573","Match,No Match","","null","","","","","","<div class='trialBorder'><div class='vertical-center'><img src='img/fixation2_sml.jpg'</img></div></div>","null","FIX","","","","","","","","","","",""
"html-keyboard-response","46","296721","0.0-7.0-2.2","6338c2127eed17193a7a4d32","bdp_wmem","Mon Mar 13 2023 11:17:49 GMT-0700 (Pacific Daylight Time)","721573","Match,No Match","","null","","","","","","<div class='trialBorder'><div class='vertical-center'><img style='vertical-align:center; align:center' src='img/fixation2_sml.jpg'></div><div class='arrayDiv2'><div class='tl'><img class='introPic' src='trustrating_stim/white_mw078.bmp'><br><font color='green'><strong>Share</strong></font></div><div class='tr'><img class='introPic' src='trustrating_stim/white_mw038.bmp'><br><font color='red'><strong>Keep</strong></font></div></div></div>","null","ARRAY","2","trustrating_stim/white_mw078.bmp,trustrating_stim/white_mw038.bmp","1,0","noMatchFace","i","3000","","","","",""
"html-keyboard-response","47","300724","0.0-7.0-3.2","6338c2127eed17193a7a4d32","bdp_wmem","Mon Mar 13 2023 11:17:49 GMT-0700 (Pacific Daylight Time)","721573","Match,No Match","","null","","","","","","<div class='trialBorder'><div class='vertical-center'><img src='img/fixation2_sml.jpg'</img></div></div>","null","DELAY","","","","","","","","","","",""
"html-keyboard-response","48","302064","0.0-7.0-4.2","6338c2127eed17193a7a4d32","bdp_wmem","Mon Mar 13 2023 11:17:49 GMT-0700 (Pacific Daylight Time)","721573","Match,No Match","","1339","","","","","","<div class='trialBorder'><div class='targDiv'><div class='tc'><img class='introPic' src='trustrating_stim/white_mw085.bmp'><br><font color='green'><strong>Share</strong></font></div></div><div class='respDiv'><div class='respDivL'>Match<br>(e)</div><div class='respDivR'>No Match<br>(i)</div></div></div>","i","TARGET","2","trustrating_stim/white_mw078.bmp,trustrating_stim/white_mw038.bmp","1,0","noMatchFace","i","3000","trustrating_stim/white_mw085.bmp","green","Share","REAL","1"
"html-keyboard-response","49","302565","0.0-7.0-5.2","6338c2127eed17193a7a4d32","bdp_wmem","Mon Mar 13 2023 11:17:49 GMT-0700 (Pacific Daylight Time)","721573","Match,No Match","","null","","","","","","<div class='trialBorder'><div class='vertical-center'><img src='img/correct.jpg'></div><div class='respDiv'><div class='respDivL'>Match<br>(e)</div><div class='respDivR'><font style='color:orange'>No Match<br>(i)</font></div></div></div>","null","FEEDBACK","","","","","","","","","","",""
"html-keyboard-response","50","303066","0.0-7.0-1.3","6338c2127eed17193a7a4d32","bdp_wmem","Mon Mar 13 2023 11:17:49 GMT-0700 (Pacific Daylight Time)","721573","Match,No Match","","null","","","","","","<div class='trialBorder'><div class='vertical-center'><img src='img/fixation2_sml.jpg'</img></div></div>","null","FIX","","","","","","","","","","",""
"html-keyboard-response","51","307568","0.0-7.0-2.3","6338c2127eed17193a7a4d32","bdp_wmem","Mon Mar 13 2023 11:17:49 GMT-0700 (Pacific Daylight Time)","721573","Match,No Match","","null","","","","","","<div class='trialBorder'><div class='vertical-center'><img style='vertical-align:center; align:center' src='img/fixation2_sml.jpg'></div><div class='arrayDiv3'><div class='tl'><img class='introPic' src='trustrating_stim/white_mw078.bmp'><br><font color='red'><strong>Keep</strong></font></div><div class='tc'><img class='introPic' src='trustrating_stim/white_mw042.bmp'><br><font color='green'><strong>Share</strong></font></div><div class='tr'><img class='introPic' src='trustrating_stim/white_mw003.bmp'><br><font color='red'><strong>Keep</strong></font></div></div></div>","null","ARRAY","3","trustrating_stim/white_mw078.bmp,trustrating_stim/white_mw042.bmp,trustrating_stim/white_mw003.bmp","0,1,0","Match","e","4500","","","","",""
"html-keyboard-response","52","311570","0.0-7.0-3.3","6338c2127eed17193a7a4d32","bdp_wmem","Mon Mar 13 2023 11:17:49 GMT-0700 (Pacific Daylight Time)","721573","Match,No Match","","null","","","","","","<div class='trialBorder'><div class='vertical-center'><img src='img/fixation2_sml.jpg'</img></div></div>","null","DELAY","","","","","","","","","","",""
"html-keyboard-response","53","312903","0.0-7.0-4.3","6338c2127eed17193a7a4d32","bdp_wmem","Mon Mar 13 2023 11:17:49 GMT-0700 (Pacific Daylight Time)","721573","Match,No Match","","1333","","","","","","<div class='trialBorder'><div class='targDiv'><div class='tc'><img class='introPic' src='trustrating_stim/white_mw042.bmp'><br><font color='green'><strong>Share</strong></font></div></div><div class='respDiv'><div class='respDivL'>Match<br>(e)</div><div class='respDivR'>No Match<br>(i)</div></div></div>","e","TARGET","3","trustrating_stim/white_mw078.bmp,trustrating_stim/white_mw042.bmp,trustrating_stim/white_mw003.bmp","0,1,0","Match","e","4500","trustrating_stim/white_mw042.bmp","green","Share","REAL","1"
"html-keyboard-response","54","313404","0.0-7.0-5.3","6338c2127eed17193a7a4d32","bdp_wmem","Mon Mar 13 2023 11:17:49 GMT-0700 (Pacific Daylight Time)","721573","Match,No Match","","null","","","","","","<div class='trialBorder'><div class='vertical-center'><img src='img/correct.jpg'></div><div class='respDiv'><div class='respDivL'><font style='color:orange'>Match<br>(e)</font></div><div class='respDivR'>No Match<br>(i)</div></div></div>","null","FEEDBACK","","","","","","","","","","",""
"html-keyboard-response","55","313906","0.0-7.0-1.4","6338c2127eed17193a7a4d32","bdp_wmem","Mon Mar 13 2023 11:17:49 GMT-0700 (Pacific Daylight Time)","721573","Match,No Match","","null","","","","","","<div class='trialBorder'><div class='vertical-center'><img src='img/fixation2_sml.jpg'</img></div></div>","null","FIX","","","","","","","","","","",""
"html-keyboard-response","56","318407","0.0-7.0-2.4","6338c2127eed17193a7a4d32","bdp_wmem","Mon Mar 13 2023 11:17:49 GMT-0700 (Pacific Daylight Time)","721573","Match,No Match","","null","","","","","","<div class='trialBorder'><div class='vertical-center'><img style='vertical-align:center; align:center' src='img/fixation2_sml.jpg'></div><div class='arrayDiv3'><div class='tl'><img class='introPic' src='trustrating_stim/white_mw085.bmp'><br><font color='green'><strong>Share</strong></font></div><div class='tc'><img class='introPic' src='trustrating_stim/white_mw010.bmp'><br><font color='green'><strong>Share</strong></font></div><div class='tr'><img class='introPic' src='trustrating_stim/white_mw042.bmp'><br><font color='red'><strong>Keep</strong></font></div></div></div>","null","ARRAY","3","trustrating_stim/white_mw085.bmp,trustrating_stim/white_mw010.bmp,trustrating_stim/white_mw042.bmp","1,1,0","noMatchFace","i","4500","","","","",""
"html-keyboard-response","57","322409","0.0-7.0-3.4","6338c2127eed17193a7a4d32","bdp_wmem","Mon Mar 13 2023 11:17:49 GMT-0700 (Pacific Daylight Time)","721573","Match,No Match","","null","","","","","","<div class='trialBorder'><div class='vertical-center'><img src='img/fixation2_sml.jpg'</img></div></div>","null","DELAY","","","","","","","","","","",""
"html-keyboard-response","58","323791","0.0-7.0-4.4","6338c2127eed17193a7a4d32","bdp_wmem","Mon Mar 13 2023 11:17:49 GMT-0700 (Pacific Daylight Time)","721573","Match,No Match","","1381","","","","","","<div class='trialBorder'><div class='targDiv'><div class='tc'><img class='introPic' src='trustrating_stim/white_mw038.bmp'><br><font color='green'><strong>Share</strong></font></div></div><div class='respDiv'><div class='respDivL'>Match<br>(e)</div><div class='respDivR'>No Match<br>(i)</div></div></div>","i","TARGET","3","trustrating_stim/white_mw085.bmp,trustrating_stim/white_mw010.bmp,trustrating_stim/white_mw042.bmp","1,1,0","noMatchFace","i","4500","trustrating_stim/white_mw038.bmp","green","Share","REAL","1"
"html-keyboard-response","59","324292","0.0-7.0-5.4","6338c2127eed17193a7a4d32","bdp_wmem","Mon Mar 13 2023 11:17:49 GMT-0700 (Pacific Daylight Time)","721573","Match,No Match","","null","","","","","","<div class='trialBorder'><div class='vertical-center'><img src='img/correct.jpg'></div><div class='respDiv'><div class='respDivL'>Match<br>(e)</div><div class='respDivR'><font style='color:orange'>No Match<br>(i)</font></div></div></div>","null","FEEDBACK","","","","","","","","","","",""
"html-keyboard-response","60","324793","0.0-7.0-1.5","6338c2127eed17193a7a4d32","bdp_wmem","Mon Mar 13 2023 11:17:49 GMT-0700 (Pacific Daylight Time)","721573","Match,No Match","","null","","","","","","<div class='trialBorder'><div class='vertical-center'><img src='img/fixation2_sml.jpg'</img></div></div>","null","FIX","","","","","","","","","","",""
"html-keyboard-response","61","329295","0.0-7.0-2.5","6338c2127eed17193a7a4d32","bdp_wmem","Mon Mar 13 2023 11:17:49 GMT-0700 (Pacific Daylight Time)","721573","Match,No Match","","null","","","","","","<div class='trialBorder'><div class='vertical-center'><img style='vertical-align:center; align:center' src='img/fixation2_sml.jpg'></div><div class='arrayDiv3'><div class='tl'><img class='introPic' src='trustrating_stim/white_mw078.bmp'><br><font color='red'><strong>Keep</strong></font></div><div class='tc'><img class='introPic' src='trustrating_stim/white_mw038.bmp'><br><font color='green'><strong>Share</strong></font></div><div class='tr'><img class='introPic' src='trustrating_stim/white_mw013.bmp'><br><font color='green'><strong>Share</strong></font></div></div></div>","null","ARRAY","3","trustrating_stim/white_mw078.bmp,trustrating_stim/white_mw038.bmp,trustrating_stim/white_mw013.bmp","0,1,1","Match","e","4500","","","","",""
"html-keyboard-response","62","333297","0.0-7.0-3.5","6338c2127eed17193a7a4d32","bdp_wmem","Mon Mar 13 2023 11:17:49 GMT-0700 (Pacific Daylight Time)","721573","Match,No Match","","null","","","","","","<div class='trialBorder'><div class='vertical-center'><img src='img/fixation2_sml.jpg'</img></div></div>","null","DELAY","","","","","","","","","","",""
"html-keyboard-response","63","334860","0.0-7.0-4.5","6338c2127eed17193a7a4d32","bdp_wmem","Mon Mar 13 2023 11:17:49 GMT-0700 (Pacific Daylight Time)","721573","Match,No Match","","1562","","","","","","<div class='trialBorder'><div class='targDiv'><div class='tc'><img class='introPic' src='trustrating_stim/white_mw013.bmp'><br><font color='green'><strong>Share</strong></font></div></div><div class='respDiv'><div class='respDivL'>Match<br>(e)</div><div class='respDivR'>No Match<br>(i)</div></div></div>","i","TARGET","3","trustrating_stim/white_mw078.bmp,trustrating_stim/white_mw038.bmp,trustrating_stim/white_mw013.bmp","0,1,1","Match","e","4500","trustrating_stim/white_mw013.bmp","green","Share","REAL","0"
"html-keyboard-response","64","335361","0.0-7.0-5.5","6338c2127eed17193a7a4d32","bdp_wmem","Mon Mar 13 2023 11:17:49 GMT-0700 (Pacific Daylight Time)","721573","Match,No Match","","null","","","","","","<div class='trialBorder'><div class='vertical-center'><img src='img/error.jpg'></div><div class='respDiv'><div class='respDivL'>Match<br>(e)</div><div class='respDivR'><font style='color:orange'>No Match<br>(i)</font></div></div></div>","null","FEEDBACK","","","","","","","","","","",""
"html-keyboard-response","65","335863","0.0-7.0-1.6","6338c2127eed17193a7a4d32","bdp_wmem","Mon Mar 13 2023 11:17:49 GMT-0700 (Pacific Daylight Time)","721573","Match,No Match","","null","","","","","","<div class='trialBorder'><div class='vertical-center'><img src='img/fixation2_sml.jpg'</img></div></div>","null","FIX","","","","","","","","","","",""
"html-keyboard-response","66","337364","0.0-7.0-2.6","6338c2127eed17193a7a4d32","bdp_wmem","Mon Mar 13 2023 11:17:49 GMT-0700 (Pacific Daylight Time)","721573","Match,No Match","","null","","","","","","<div class='trialBorder'><div class='vertical-center'><img style='vertical-align:center; align:center' src='img/fixation2_sml.jpg'></div><div class='arrayDiv1'><div class='tc'><img class='introPic' src='trustrating_stim/white_mw013.bmp'><br><font color='green'><strong>Share</strong></font></div></div></div>","null","ARRAY","1","trustrating_stim/white_mw013.bmp","1","noMatchOutcome","i","1500","","","","",""
"html-keyboard-response","67","341365","0.0-7.0-3.6","6338c2127eed17193a7a4d32","bdp_wmem","Mon Mar 13 2023 11:17:49 GMT-0700 (Pacific Daylight Time)","721573","Match,No Match","","null","","","","","","<div class='trialBorder'><div class='vertical-center'><img src='img/fixation2_sml.jpg'</img></div></div>","null","DELAY","","","","","","","","","","",""
"html-keyboard-response","68","342849","0.0-7.0-4.6","6338c2127eed17193a7a4d32","bdp_wmem","Mon Mar 13 2023 11:17:49 GMT-0700 (Pacific Daylight Time)","721573","Match,No Match","","1483","","","","","","<div class='trialBorder'><div class='targDiv'><div class='tc'><img class='introPic' src='trustrating_stim/white_mw013.bmp'><br><font color='red'><strong>Keep</strong></font></div></div><div class='respDiv'><div class='respDivL'>Match<br>(e)</div><div class='respDivR'>No Match<br>(i)</div></div></div>","i","TARGET","1","trustrating_stim/white_mw013.bmp","1","noMatchOutcome","i","1500","trustrating_stim/white_mw013.bmp","red","Keep","REAL","1"
"html-keyboard-response","69","343350","0.0-7.0-5.6","6338c2127eed17193a7a4d32","bdp_wmem","Mon Mar 13 2023 11:17:49 GMT-0700 (Pacific Daylight Time)","721573","Match,No Match","","null","","","","","","<div class='trialBorder'><div class='vertical-center'><img src='img/correct.jpg'></div><div class='respDiv'><div class='respDivL'>Match<br>(e)</div><div class='respDivR'><font style='color:orange'>No Match<br>(i)</font></div></div></div>","null","FEEDBACK","","","","","","","","","","",""
"html-keyboard-response","70","343851","0.0-7.0-1.7","6338c2127eed17193a7a4d32","bdp_wmem","Mon Mar 13 2023 11:17:49 GMT-0700 (Pacific Daylight Time)","721573","Match,No Match","","null","","","","","","<div class='trialBorder'><div class='vertical-center'><img src='img/fixation2_sml.jpg'</img></div></div>","null","FIX","","","","","","","","","","",""
"html-keyboard-response","71","348353","0.0-7.0-2.7","6338c2127eed17193a7a4d32","bdp_wmem","Mon Mar 13 2023 11:17:49 GMT-0700 (Pacific Daylight Time)","721573","Match,No Match","","null","","","","","","<div class='trialBorder'><div class='vertical-center'><img style='vertical-align:center; align:center' src='img/fixation2_sml.jpg'></div><div class='arrayDiv3'><div class='tl'><img class='introPic' src='trustrating_stim/white_mw010.bmp'><br><font color='red'><strong>Keep</strong></font></div><div class='tc'><img class='introPic' src='trustrating_stim/white_mw003.bmp'><br><font color='red'><strong>Keep</strong></font></div><div class='tr'><img class='introPic' src='trustrating_stim/white_mw042.bmp'><br><font color='green'><strong>Share</strong></font></div></div></div>","null","ARRAY","3","trustrating_stim/white_mw010.bmp,trustrating_stim/white_mw003.bmp,trustrating_stim/white_mw042.bmp","0,0,1","noMatchOutcome","i","4500","","","","",""
"html-keyboard-response","72","352354","0.0-7.0-3.7","6338c2127eed17193a7a4d32","bdp_wmem","Mon Mar 13 2023 11:17:49 GMT-0700 (Pacific Daylight Time)","721573","Match,No Match","","null","","","","","","<div class='trialBorder'><div class='vertical-center'><img src='img/fixation2_sml.jpg'</img></div></div>","null","DELAY","","","","","","","","","","",""
"html-keyboard-response","73","354257","0.0-7.0-4.7","6338c2127eed17193a7a4d32","bdp_wmem","Mon Mar 13 2023 11:17:49 GMT-0700 (Pacific Daylight Time)","721573","Match,No Match","","1902","","","","","","<div class='trialBorder'><div class='targDiv'><div class='tc'><img class='introPic' src='trustrating_stim/white_mw042.bmp'><br><font color='red'><strong>Keep</strong></font></div></div><div class='respDiv'><div class='respDivL'>Match<br>(e)</div><div class='respDivR'>No Match<br>(i)</div></div></div>","e","TARGET","3","trustrating_stim/white_mw010.bmp,trustrating_stim/white_mw003.bmp,trustrating_stim/white_mw042.bmp","0,0,1","noMatchOutcome","i","4500","trustrating_stim/white_mw042.bmp","red","Keep","REAL","0"
"html-keyboard-response","74","354759","0.0-7.0-5.7","6338c2127eed17193a7a4d32","bdp_wmem","Mon Mar 13 2023 11:17:49 GMT-0700 (Pacific Daylight Time)","721573","Match,No Match","","null","","","","","","<div class='trialBorder'><div class='vertical-center'><img src='img/error.jpg'></div><div class='respDiv'><div class='respDivL'><font style='color:orange'>Match<br>(e)</font></div><div class='respDivR'>No Match<br>(i)</div></div></div>","null","FEEDBACK","","","","","","","","","","",""
"html-keyboard-response","75","355261","0.0-7.0-1.8","6338c2127eed17193a7a4d32","bdp_wmem","Mon Mar 13 2023 11:17:49 GMT-0700 (Pacific Daylight Time)","721573","Match,No Match","","null","","","","","","<div class='trialBorder'><div class='vertical-center'><img src='img/fixation2_sml.jpg'</img></div></div>","null","FIX","","","","","","","","","","",""
"html-keyboard-response","76","359763","0.0-7.0-2.8","6338c2127eed17193a7a4d32","bdp_wmem","Mon Mar 13 2023 11:17:49 GMT-0700 (Pacific Daylight Time)","721573","Match,No Match","","null","","","","","","<div class='trialBorder'><div class='vertical-center'><img style='vertical-align:center; align:center' src='img/fixation2_sml.jpg'></div><div class='arrayDiv3'><div class='tl'><img class='introPic' src='trustrating_stim/white_mw085.bmp'><br><font color='red'><strong>Keep</strong></font></div><div class='tc'><img class='introPic' src='trustrating_stim/white_mw038.bmp'><br><font color='red'><strong>Keep</strong></font></div><div class='tr'><img class='introPic' src='trustrating_stim/white_mw013.bmp'><br><font color='green'><strong>Share</strong></font></div></div></div>","null","ARRAY","3","trustrating_stim/white_mw085.bmp,trustrating_stim/white_mw038.bmp,trustrating_stim/white_mw013.bmp","0,0,1","Match","e","4500","","","","",""
"html-keyboard-response","77","363765","0.0-7.0-3.8","6338c2127eed17193a7a4d32","bdp_wmem","Mon Mar 13 2023 11:17:49 GMT-0700 (Pacific Daylight Time)","721573","Match,No Match","","null","","","","","","<div class='trialBorder'><div class='vertical-center'><img src='img/fixation2_sml.jpg'</img></div></div>","null","DELAY","","","","","","","","","","",""
"html-keyboard-response","78","365017","0.0-7.0-4.8","6338c2127eed17193a7a4d32","bdp_wmem","Mon Mar 13 2023 11:17:49 GMT-0700 (Pacific Daylight Time)","721573","Match,No Match","","1252","","","","","","<div class='trialBorder'><div class='targDiv'><div class='tc'><img class='introPic' src='trustrating_stim/white_mw013.bmp'><br><font color='green'><strong>Share</strong></font></div></div><div class='respDiv'><div class='respDivL'>Match<br>(e)</div><div class='respDivR'>No Match<br>(i)</div></div></div>","e","TARGET","3","trustrating_stim/white_mw085.bmp,trustrating_stim/white_mw038.bmp,trustrating_stim/white_mw013.bmp","0,0,1","Match","e","4500","trustrating_stim/white_mw013.bmp","green","Share","REAL","1"
"html-keyboard-response","79","365519","0.0-7.0-5.8","6338c2127eed17193a7a4d32","bdp_wmem","Mon Mar 13 2023 11:17:49 GMT-0700 (Pacific Daylight Time)","721573","Match,No Match","","null","","","","","","<div class='trialBorder'><div class='vertical-center'><img src='img/correct.jpg'></div><div class='respDiv'><div class='respDivL'><font style='color:orange'>Match<br>(e)</font></div><div class='respDivR'>No Match<br>(i)</div></div></div>","null","FEEDBACK","","","","","","","","","","",""
"html-keyboard-response","80","366021","0.0-7.0-1.9","6338c2127eed17193a7a4d32","bdp_wmem","Mon Mar 13 2023 11:17:49 GMT-0700 (Pacific Daylight Time)","721573","Match,No Match","","null","","","","","","<div class='trialBorder'><div class='vertical-center'><img src='img/fixation2_sml.jpg'</img></div></div>","null","FIX","","","","","","","","","","",""
"html-keyboard-response","81","369022","0.0-7.0-2.9","6338c2127eed17193a7a4d32","bdp_wmem","Mon Mar 13 2023 11:17:49 GMT-0700 (Pacific Daylight Time)","721573","Match,No Match","","null","","","","","","<div class='trialBorder'><div class='vertical-center'><img style='vertical-align:center; align:center' src='img/fixation2_sml.jpg'></div><div class='arrayDiv2'><div class='tl'><img class='introPic' src='trustrating_stim/white_mw012.bmp'><br><font color='red'><strong>Keep</strong></font></div><div class='tr'><img class='introPic' src='trustrating_stim/white_mw010.bmp'><br><font color='green'><strong>Share</strong></font></div></div></div>","null","ARRAY","2","trustrating_stim/white_mw012.bmp,trustrating_stim/white_mw010.bmp","0,1","Match","e","3000","","","","",""
"html-keyboard-response","82","373023","0.0-7.0-3.9","6338c2127eed17193a7a4d32","bdp_wmem","Mon Mar 13 2023 11:17:49 GMT-0700 (Pacific Daylight Time)","721573","Match,No Match","","null","","","","","","<div class='trialBorder'><div class='vertical-center'><img src='img/fixation2_sml.jpg'</img></div></div>","null","DELAY","","","","","","","","","","",""
"html-keyboard-response","83","375660","0.0-7.0-4.9","6338c2127eed17193a7a4d32","bdp_wmem","Mon Mar 13 2023 11:17:49 GMT-0700 (Pacific Daylight Time)","721573","Match,No Match","","2636","","","","","","<div class='trialBorder'><div class='targDiv'><div class='tc'><img class='introPic' src='trustrating_stim/white_mw012.bmp'><br><font color='red'><strong>Keep</strong></font></div></div><div class='respDiv'><div class='respDivL'>Match<br>(e)</div><div class='respDivR'>No Match<br>(i)</div></div></div>","e","TARGET","2","trustrating_stim/white_mw012.bmp,trustrating_stim/white_mw010.bmp","0,1","Match","e","3000","trustrating_stim/white_mw012.bmp","red","Keep","REAL","1"
"html-keyboard-response","84","376161","0.0-7.0-5.9","6338c2127eed17193a7a4d32","bdp_wmem","Mon Mar 13 2023 11:17:49 GMT-0700 (Pacific Daylight Time)","721573","Match,No Match","","null","","","","","","<div class='trialBorder'><div class='vertical-center'><img src='img/correct.jpg'></div><div class='respDiv'><div class='respDivL'><font style='color:orange'>Match<br>(e)</font></div><div class='respDivR'>No Match<br>(i)</div></div></div>","null","FEEDBACK","","","","","","","","","","",""
"html-keyboard-response","85","376662","0.0-7.0-1.10","6338c2127eed17193a7a4d32","bdp_wmem","Mon Mar 13 2023 11:17:49 GMT-0700 (Pacific Daylight Time)","721573","Match,No Match","","null","","","","","","<div class='trialBorder'><div class='vertical-center'><img src='img/fixation2_sml.jpg'</img></div></div>","null","FIX","","","","","","","","","","",""
"html-keyboard-response","86","379664","0.0-7.0-2.10","6338c2127eed17193a7a4d32","bdp_wmem","Mon Mar 13 2023 11:17:49 GMT-0700 (Pacific Daylight Time)","721573","Match,No Match","","null","","","","","","<div class='trialBorder'><div class='vertical-center'><img style='vertical-align:center; align:center' src='img/fixation2_sml.jpg'></div><div class='arrayDiv2'><div class='tl'><img class='introPic' src='trustrating_stim/white_mw078.bmp'><br><font color='green'><strong>Share</strong></font></div><div class='tr'><img class='introPic' src='trustrating_stim/white_mw091.bmp'><br><font color='red'><strong>Keep</strong></font></div></div></div>","null","ARRAY","2","trustrating_stim/white_mw078.bmp,trustrating_stim/white_mw091.bmp","1,0","noMatchOutcome","i","3000","","","","",""
"html-keyboard-response","87","383666","0.0-7.0-3.10","6338c2127eed17193a7a4d32","bdp_wmem","Mon Mar 13 2023 11:17:49 GMT-0700 (Pacific Daylight Time)","721573","Match,No Match","","null","","","","","","<div class='trialBorder'><div class='vertical-center'><img src='img/fixation2_sml.jpg'</img></div></div>","null","DELAY","","","","","","","","","","",""
"html-keyboard-response","88","384782","0.0-7.0-4.10","6338c2127eed17193a7a4d32","bdp_wmem","Mon Mar 13 2023 11:17:49 GMT-0700 (Pacific Daylight Time)","721573","Match,No Match","","1116","","","","","","<div class='trialBorder'><div class='targDiv'><div class='tc'><img class='introPic' src='trustrating_stim/white_mw091.bmp'><br><font color='green'><strong>Share</strong></font></div></div><div class='respDiv'><div class='respDivL'>Match<br>(e)</div><div class='respDivR'>No Match<br>(i)</div></div></div>","i","TARGET","2","trustrating_stim/white_mw078.bmp,trustrating_stim/white_mw091.bmp","1,0","noMatchOutcome","i","3000","trustrating_stim/white_mw091.bmp","green","Share","REAL","1"
"html-keyboard-response","89","385283","0.0-7.0-5.10","6338c2127eed17193a7a4d32","bdp_wmem","Mon Mar 13 2023 11:17:49 GMT-0700 (Pacific Daylight Time)","721573","Match,No Match","","null","","","","","","<div class='trialBorder'><div class='vertical-center'><img src='img/correct.jpg'></div><div class='respDiv'><div class='respDivL'>Match<br>(e)</div><div class='respDivR'><font style='color:orange'>No Match<br>(i)</font></div></div></div>","null","FEEDBACK","","","","","","","","","","",""
"html-keyboard-response","90","385785","0.0-7.0-1.11","6338c2127eed17193a7a4d32","bdp_wmem","Mon Mar 13 2023 11:17:49 GMT-0700 (Pacific Daylight Time)","721573","Match,No Match","","null","","","","","","<div class='trialBorder'><div class='vertical-center'><img src='img/fixation2_sml.jpg'</img></div></div>","null","FIX","","","","","","","","","","",""
"html-keyboard-response","91","387286","0.0-7.0-2.11","6338c2127eed17193a7a4d32","bdp_wmem","Mon Mar 13 2023 11:17:49 GMT-0700 (Pacific Daylight Time)","721573","Match,No Match","","null","","","","","","<div class='trialBorder'><div class='vertical-center'><img style='vertical-align:center; align:center' src='img/fixation2_sml.jpg'></div><div class='arrayDiv1'><div class='tc'><img class='introPic' src='trustrating_stim/white_mw013.bmp'><br><font color='green'><strong>Share</strong></font></div></div></div>","null","ARRAY","1","trustrating_stim/white_mw013.bmp","1","noMatchFace","i","1500","","","","",""
"html-keyboard-response","92","391287","0.0-7.0-3.11","6338c2127eed17193a7a4d32","bdp_wmem","Mon Mar 13 2023 11:17:49 GMT-0700 (Pacific Daylight Time)","721573","Match,No Match","","null","","","","","","<div class='trialBorder'><div class='vertical-center'><img src='img/fixation2_sml.jpg'</img></div></div>","null","DELAY","","","","","","","","","","",""
"html-keyboard-response","93","392003","0.0-7.0-4.11","6338c2127eed17193a7a4d32","bdp_wmem","Mon Mar 13 2023 11:17:49 GMT-0700 (Pacific Daylight Time)","721573","Match,No Match","","715","","","","","","<div class='trialBorder'><div class='targDiv'><div class='tc'><img class='introPic' src='trustrating_stim/white_mw012.bmp'><br><font color='green'><strong>Share</strong></font></div></div><div class='respDiv'><div class='respDivL'>Match<br>(e)</div><div class='respDivR'>No Match<br>(i)</div></div></div>","i","TARGET","1","trustrating_stim/white_mw013.bmp","1","noMatchFace","i","1500","trustrating_stim/white_mw012.bmp","green","Share","REAL","1"
"html-keyboard-response","94","392504","0.0-7.0-5.11","6338c2127eed17193a7a4d32","bdp_wmem","Mon Mar 13 2023 11:17:49 GMT-0700 (Pacific Daylight Time)","721573","Match,No Match","","null","","","","","","<div class='trialBorder'><div class='vertical-center'><img src='img/correct.jpg'></div><div class='respDiv'><div class='respDivL'>Match<br>(e)</div><div class='respDivR'><font style='color:orange'>No Match<br>(i)</font></div></div></div>","null","FEEDBACK","","","","","","","","","","",""
"html-keyboard-response","95","393005","0.0-7.0-1.12","6338c2127eed17193a7a4d32","bdp_wmem","Mon Mar 13 2023 11:17:49 GMT-0700 (Pacific Daylight Time)","721573","Match,No Match","","null","","","","","","<div class='trialBorder'><div class='vertical-center'><img src='img/fixation2_sml.jpg'</img></div></div>","null","FIX","","","","","","","","","","",""
"html-keyboard-response","96","394506","0.0-7.0-2.12","6338c2127eed17193a7a4d32","bdp_wmem","Mon Mar 13 2023 11:17:49 GMT-0700 (Pacific Daylight Time)","721573","Match,No Match","","null","","","","","","<div class='trialBorder'><div class='vertical-center'><img style='vertical-align:center; align:center' src='img/fixation2_sml.jpg'></div><div class='arrayDiv1'><div class='tc'><img class='introPic' src='trustrating_stim/white_mw078.bmp'><br><font color='green'><strong>Share</strong></font></div></div></div>","null","ARRAY","1","trustrating_stim/white_mw078.bmp","1","Match","e","1500","","","","",""
"html-keyboard-response","97","398508","0.0-7.0-3.12","6338c2127eed17193a7a4d32","bdp_wmem","Mon Mar 13 2023 11:17:49 GMT-0700 (Pacific Daylight Time)","721573","Match,No Match","","null","","","","","","<div class='trialBorder'><div class='vertical-center'><img src='img/fixation2_sml.jpg'</img></div></div>","null","DELAY","","","","","","","","","","",""
"html-keyboard-response","98","401223","0.0-7.0-4.12","6338c2127eed17193a7a4d32","bdp_wmem","Mon Mar 13 2023 11:17:49 GMT-0700 (Pacific Daylight Time)","721573","Match,No Match","","2715","","","","","","<div class='trialBorder'><div class='targDiv'><div class='tc'><img class='introPic' src='trustrating_stim/white_mw078.bmp'><br><font color='green'><strong>Share</strong></font></div></div><div class='respDiv'><div class='respDivL'>Match<br>(e)</div><div class='respDivR'>No Match<br>(i)</div></div></div>","i","TARGET","1","trustrating_stim/white_mw078.bmp","1","Match","e","1500","trustrating_stim/white_mw078.bmp","green","Share","REAL","0"
"html-keyboard-response","99","401724","0.0-7.0-5.12","6338c2127eed17193a7a4d32","bdp_wmem","Mon Mar 13 2023 11:17:49 GMT-0700 (Pacific Daylight Time)","721573","Match,No Match","","null","","","","","","<div class='trialBorder'><div class='vertical-center'><img src='img/error.jpg'></div><div class='respDiv'><div class='respDivL'>Match<br>(e)</div><div class='respDivR'><font style='color:orange'>No Match<br>(i)</font></div></div></div>","null","FEEDBACK","","","","","","","","","","",""
"html-keyboard-response","100","402225","0.0-7.0-1.13","6338c2127eed17193a7a4d32","bdp_wmem","Mon Mar 13 2023 11:17:49 GMT-0700 (Pacific Daylight Time)","721573","Match,No Match","","null","","","","","","<div class='trialBorder'><div class='vertical-center'><img src='img/fixation2_sml.jpg'</img></div></div>","null","FIX","","","","","","","","","","",""
"html-keyboard-response","101","405227","0.0-7.0-2.13","6338c2127eed17193a7a4d32","bdp_wmem","Mon Mar 13 2023 11:17:49 GMT-0700 (Pacific Daylight Time)","721573","Match,No Match","","null","","","","","","<div class='trialBorder'><div class='vertical-center'><img style='vertical-align:center; align:center' src='img/fixation2_sml.jpg'></div><div class='arrayDiv2'><div class='tl'><img class='introPic' src='trustrating_stim/white_mw078.bmp'><br><font color='green'><strong>Share</strong></font></div><div class='tr'><img class='introPic' src='trustrating_stim/white_mw012.bmp'><br><font color='red'><strong>Keep</strong></font></div></div></div>","null","ARRAY","2","trustrating_stim/white_mw078.bmp,trustrating_stim/white_mw012.bmp","1,0","Match","e","3000","","","","",""
"html-keyboard-response","102","409228","0.0-7.0-3.13","6338c2127eed17193a7a4d32","bdp_wmem","Mon Mar 13 2023 11:17:49 GMT-0700 (Pacific Daylight Time)","721573","Match,No Match","","null","","","","","","<div class='trialBorder'><div class='vertical-center'><img src='img/fixation2_sml.jpg'</img></div></div>","null","DELAY","","","","","","","","","","",""
"html-keyboard-response","103","409537","0.0-7.0-4.13","6338c2127eed17193a7a4d32","bdp_wmem","Mon Mar 13 2023 11:17:49 GMT-0700 (Pacific Daylight Time)","721573","Match,No Match","","308","","","","","","<div class='trialBorder'><div class='targDiv'><div class='tc'><img class='introPic' src='trustrating_stim/white_mw078.bmp'><br><font color='green'><strong>Share</strong></font></div></div><div class='respDiv'><div class='respDivL'>Match<br>(e)</div><div class='respDivR'>No Match<br>(i)</div></div></div>","e","TARGET","2","trustrating_stim/white_mw078.bmp,trustrating_stim/white_mw012.bmp","1,0","Match","e","3000","trustrating_stim/white_mw078.bmp","green","Share","REAL","1"
"html-keyboard-response","104","410038","0.0-7.0-5.13","6338c2127eed17193a7a4d32","bdp_wmem","Mon Mar 13 2023 11:17:49 GMT-0700 (Pacific Daylight Time)","721573","Match,No Match","","null","","","","","","<div class='trialBorder'><div class='vertical-center'><img src='img/correct.jpg'></div><div class='respDiv'><div class='respDivL'><font style='color:orange'>Match<br>(e)</font></div><div class='respDivR'>No Match<br>(i)</div></div></div>","null","FEEDBACK","","","","","","","","","","",""
"html-keyboard-response","105","410540","0.0-7.0-1.14","6338c2127eed17193a7a4d32","bdp_wmem","Mon Mar 13 2023 11:17:49 GMT-0700 (Pacific Daylight Time)","721573","Match,No Match","","null","","","","","","<div class='trialBorder'><div class='vertical-center'><img src='img/fixation2_sml.jpg'</img></div></div>","null","FIX","","","","","","","","","","",""
"html-keyboard-response","106","415042","0.0-7.0-2.14","6338c2127eed17193a7a4d32","bdp_wmem","Mon Mar 13 2023 11:17:49 GMT-0700 (Pacific Daylight Time)","721573","Match,No Match","","null","","","","","","<div class='trialBorder'><div class='vertical-center'><img style='vertical-align:center; align:center' src='img/fixation2_sml.jpg'></div><div class='arrayDiv3'><div class='tl'><img class='introPic' src='trustrating_stim/white_mw040.bmp'><br><font color='red'><strong>Keep</strong></font></div><div class='tc'><img class='introPic' src='trustrating_stim/white_mw012.bmp'><br><font color='green'><strong>Share</strong></font></div><div class='tr'><img class='introPic' src='trustrating_stim/white_mw038.bmp'><br><font color='red'><strong>Keep</strong></font></div></div></div>","null","ARRAY","3","trustrating_stim/white_mw040.bmp,trustrating_stim/white_mw012.bmp,trustrating_stim/white_mw038.bmp","0,1,0","noMatchOutcome","i","4500","","","","",""
"html-keyboard-response","107","419043","0.0-7.0-3.14","6338c2127eed17193a7a4d32","bdp_wmem","Mon Mar 13 2023 11:17:49 GMT-0700 (Pacific Daylight Time)","721573","Match,No Match","","null","","","","","","<div class='trialBorder'><div class='vertical-center'><img src='img/fixation2_sml.jpg'</img></div></div>","null","DELAY","","","","","","","","","","",""
"html-keyboard-response","108","419278","0.0-7.0-4.14","6338c2127eed17193a7a4d32","bdp_wmem","Mon Mar 13 2023 11:17:49 GMT-0700 (Pacific Daylight Time)","721573","Match,No Match","","235","","","","","","<div class='trialBorder'><div class='targDiv'><div class='tc'><img class='introPic' src='trustrating_stim/white_mw040.bmp'><br><font color='green'><strong>Share</strong></font></div></div><div class='respDiv'><div class='respDivL'>Match<br>(e)</div><div class='respDivR'>No Match<br>(i)</div></div></div>","i","TARGET","3","trustrating_stim/white_mw040.bmp,trustrating_stim/white_mw012.bmp,trustrating_stim/white_mw038.bmp","0,1,0","noMatchOutcome","i","4500","trustrating_stim/white_mw040.bmp","green","Share","REAL","1"
"html-keyboard-response","109","419780","0.0-7.0-5.14","6338c2127eed17193a7a4d32","bdp_wmem","Mon Mar 13 2023 11:17:49 GMT-0700 (Pacific Daylight Time)","721573","Match,No Match","","null","","","","","","<div class='trialBorder'><div class='vertical-center'><img src='img/correct.jpg'></div><div class='respDiv'><div class='respDivL'>Match<br>(e)</div><div class='respDivR'><font style='color:orange'>No Match<br>(i)</font></div></div></div>","null","FEEDBACK","","","","","","","","","","",""
"html-keyboard-response","110","420281","0.0-7.0-1.15","6338c2127eed17193a7a4d32","bdp_wmem","Mon Mar 13 2023 11:17:49 GMT-0700 (Pacific Daylight Time)","721573","Match,No Match","","null","","","","","","<div class='trialBorder'><div class='vertical-center'><img src='img/fixation2_sml.jpg'</img></div></div>","null","FIX","","","","","","","","","","",""
"html-keyboard-response","111","424784","0.0-7.0-2.15","6338c2127eed17193a7a4d32","bdp_wmem","Mon Mar 13 2023 11:17:49 GMT-0700 (Pacific Daylight Time)","721573","Match,No Match","","null","","","","","","<div class='trialBorder'><div class='vertical-center'><img style='vertical-align:center; align:center' src='img/fixation2_sml.jpg'></div><div class='arrayDiv3'><div class='tl'><img class='introPic' src='trustrating_stim/white_mw040.bmp'><br><font color='green'><strong>Share</strong></font></div><div class='tc'><img class='introPic' src='trustrating_stim/white_mw010.bmp'><br><font color='red'><strong>Keep</strong></font></div><div class='tr'><img class='introPic' src='trustrating_stim/white_mw070.bmp'><br><font color='red'><strong>Keep</strong></font></div></div></div>","null","ARRAY","3","trustrating_stim/white_mw040.bmp,trustrating_stim/white_mw010.bmp,trustrating_stim/white_mw070.bmp","1,0,0","Match","e","4500","","","","",""
"html-keyboard-response","112","428786","0.0-7.0-3.15","6338c2127eed17193a7a4d32","bdp_wmem","Mon Mar 13 2023 11:17:49 GMT-0700 (Pacific Daylight Time)","721573","Match,No Match","","null","","","","","","<div class='trialBorder'><div class='vertical-center'><img src='img/fixation2_sml.jpg'</img></div></div>","null","DELAY","","","","","","","","","","",""
"html-keyboard-response","113","429243","0.0-7.0-4.15","6338c2127eed17193a7a4d32","bdp_wmem","Mon Mar 13 2023 11:17:49 GMT-0700 (Pacific Daylight Time)","721573","Match,No Match","","457","","","","","","<div class='trialBorder'><div class='targDiv'><div class='tc'><img class='introPic' src='trustrating_stim/white_mw070.bmp'><br><font color='red'><strong>Keep</strong></font></div></div><div class='respDiv'><div class='respDivL'>Match<br>(e)</div><div class='respDivR'>No Match<br>(i)</div></div></div>","i","TARGET","3","trustrating_stim/white_mw040.bmp,trustrating_stim/white_mw010.bmp,trustrating_stim/white_mw070.bmp","1,0,0","Match","e","4500","trustrating_stim/white_mw070.bmp","red","Keep","REAL","0"
"html-keyboard-response","114","429744","0.0-7.0-5.15","6338c2127eed17193a7a4d32","bdp_wmem","Mon Mar 13 2023 11:17:49 GMT-0700 (Pacific Daylight Time)","721573","Match,No Match","","null","","","","","","<div class='trialBorder'><div class='vertical-center'><img src='img/error.jpg'></div><div class='respDiv'><div class='respDivL'>Match<br>(e)</div><div class='respDivR'><font style='color:orange'>No Match<br>(i)</font></div></div></div>","null","FEEDBACK","","","","","","","","","","",""
"html-keyboard-response","115","430245","0.0-7.0-1.16","6338c2127eed17193a7a4d32","bdp_wmem","Mon Mar 13 2023 11:17:49 GMT-0700 (Pacific Daylight Time)","721573","Match,No Match","","null","","","","","","<div class='trialBorder'><div class='vertical-center'><img src='img/fixation2_sml.jpg'</img></div></div>","null","FIX","","","","","","","","","","",""
"html-keyboard-response","116","434747","0.0-7.0-2.16","6338c2127eed17193a7a4d32","bdp_wmem","Mon Mar 13 2023 11:17:49 GMT-0700 (Pacific Daylight Time)","721573","Match,No Match","","null","","","","","","<div class='trialBorder'><div class='vertical-center'><img style='vertical-align:center; align:center' src='img/fixation2_sml.jpg'></div><div class='arrayDiv3'><div class='tl'><img class='introPic' src='trustrating_stim/white_mw013.bmp'><br><font color='red'><strong>Keep</strong></font></div><div class='tc'><img class='introPic' src='trustrating_stim/white_mw042.bmp'><br><font color='green'><strong>Share</strong></font></div><div class='tr'><img class='introPic' src='trustrating_stim/white_mw010.bmp'><br><font color='red'><strong>Keep</strong></font></div></div></div>","null","ARRAY","3","trustrating_stim/white_mw013.bmp,trustrating_stim/white_mw042.bmp,trustrating_stim/white_mw010.bmp","0,1,0","noMatchFace","i","4500","","","","",""
"html-keyboard-response","117","438749","0.0-7.0-3.16","6338c2127eed17193a7a4d32","bdp_wmem","Mon Mar 13 2023 11:17:49 GMT-0700 (Pacific Daylight Time)","721573","Match,No Match","","null","","","","","","<div class='trialBorder'><div class='vertical-center'><img src='img/fixation2_sml.jpg'</img></div></div>","null","DELAY","","","","","","","","","","",""
"html-keyboard-response","118","439090","0.0-7.0-4.16","6338c2127eed17193a7a4d32","bdp_wmem","Mon Mar 13 2023 11:17:49 GMT-0700 (Pacific Daylight Time)","721573","Match,No Match","","340","","","","","","<div class='trialBorder'><div class='targDiv'><div class='tc'><img class='introPic' src='trustrating_stim/white_mw091.bmp'><br><font color='red'><strong>Keep</strong></font></div></div><div class='respDiv'><div class='respDivL'>Match<br>(e)</div><div class='respDivR'>No Match<br>(i)</div></div></div>","i","TARGET","3","trustrating_stim/white_mw013.bmp,trustrating_stim/white_mw042.bmp,trustrating_stim/white_mw010.bmp","0,1,0","noMatchFace","i","4500","trustrating_stim/white_mw091.bmp","red","Keep","REAL","1"
"html-keyboard-response","119","439591","0.0-7.0-5.16","6338c2127eed17193a7a4d32","bdp_wmem","Mon Mar 13 2023 11:17:49 GMT-0700 (Pacific Daylight Time)","721573","Match,No Match","","null","","","","","","<div class='trialBorder'><div class='vertical-center'><img src='img/correct.jpg'></div><div class='respDiv'><div class='respDivL'>Match<br>(e)</div><div class='respDivR'><font style='color:orange'>No Match<br>(i)</font></div></div></div>","null","FEEDBACK","","","","","","","","","","",""
"html-keyboard-response","120","440094","0.0-7.0-1.17","6338c2127eed17193a7a4d32","bdp_wmem","Mon Mar 13 2023 11:17:49 GMT-0700 (Pacific Daylight Time)","721573","Match,No Match","","null","","","","","","<div class='trialBorder'><div class='vertical-center'><img src='img/fixation2_sml.jpg'</img></div></div>","null","FIX","","","","","","","","","","",""
"html-keyboard-response","121","441595","0.0-7.0-2.17","6338c2127eed17193a7a4d32","bdp_wmem","Mon Mar 13 2023 11:17:49 GMT-0700 (Pacific Daylight Time)","721573","Match,No Match","","null","","","","","","<div class='trialBorder'><div class='vertical-center'><img style='vertical-align:center; align:center' src='img/fixation2_sml.jpg'></div><div class='arrayDiv1'><div class='tc'><img class='introPic' src='trustrating_stim/white_mw092.bmp'><br><font color='red'><strong>Keep</strong></font></div></div></div>","null","ARRAY","1","trustrating_stim/white_mw092.bmp","0","Match","e","1500","","","","",""
"html-keyboard-response","122","445596","0.0-7.0-3.17","6338c2127eed17193a7a4d32","bdp_wmem","Mon Mar 13 2023 11:17:49 GMT-0700 (Pacific Daylight Time)","721573","Match,No Match","","null","","","","","","<div class='trialBorder'><div class='vertical-center'><img src='img/fixation2_sml.jpg'</img></div></div>","null","DELAY","","","","","","","","","","",""
"html-keyboard-response","123","446241","0.0-7.0-4.17","6338c2127eed17193a7a4d32","bdp_wmem","Mon Mar 13 2023 11:17:49 GMT-0700 (Pacific Daylight Time)","721573","Match,No Match","","644","","","","","","<div class='trialBorder'><div class='targDiv'><div class='tc'><img class='introPic' src='trustrating_stim/white_mw092.bmp'><br><font color='red'><strong>Keep</strong></font></div></div><div class='respDiv'><div class='respDivL'>Match<br>(e)</div><div class='respDivR'>No Match<br>(i)</div></div></div>","e","TARGET","1","trustrating_stim/white_mw092.bmp","0","Match","e","1500","trustrating_stim/white_mw092.bmp","red","Keep","REAL","1"
"html-keyboard-response","124","446742","0.0-7.0-5.17","6338c2127eed17193a7a4d32","bdp_wmem","Mon Mar 13 2023 11:17:49 GMT-0700 (Pacific Daylight Time)","721573","Match,No Match","","null","","","","","","<div class='trialBorder'><div class='vertical-center'><img src='img/correct.jpg'></div><div class='respDiv'><div class='respDivL'><font style='color:orange'>Match<br>(e)</font></div><div class='respDivR'>No Match<br>(i)</div></div></div>","null","FEEDBACK","","","","","","","","","","",""
"html-keyboard-response","125","447243","0.0-7.0-1.18","6338c2127eed17193a7a4d32","bdp_wmem","Mon Mar 13 2023 11:17:49 GMT-0700 (Pacific Daylight Time)","721573","Match,No Match","","null","","","","","","<div class='trialBorder'><div class='vertical-center'><img src='img/fixation2_sml.jpg'</img></div></div>","null","FIX","","","","","","","","","","",""
"html-keyboard-response","126","450245","0.0-7.0-2.18","6338c2127eed17193a7a4d32","bdp_wmem","Mon Mar 13 2023 11:17:49 GMT-0700 (Pacific Daylight Time)","721573","Match,No Match","","null","","","","","","<div class='trialBorder'><div class='vertical-center'><img style='vertical-align:center; align:center' src='img/fixation2_sml.jpg'></div><div class='arrayDiv2'><div class='tl'><img class='introPic' src='trustrating_stim/white_mw040.bmp'><br><font color='red'><strong>Keep</strong></font></div><div class='tr'><img class='introPic' src='trustrating_stim/white_mw092.bmp'><br><font color='green'><strong>Share</strong></font></div></div></div>","null","ARRAY","2","trustrating_stim/white_mw040.bmp,trustrating_stim/white_mw092.bmp","0,1","noMatchOutcome","i","3000","","","","",""
"html-keyboard-response","127","454247","0.0-7.0-3.18","6338c2127eed17193a7a4d32","bdp_wmem","Mon Mar 13 2023 11:17:49 GMT-0700 (Pacific Daylight Time)","721573","Match,No Match","","null","","","","","","<div class='trialBorder'><div class='vertical-center'><img src='img/fixation2_sml.jpg'</img></div></div>","null","DELAY","","","","","","","","","","",""
"html-keyboard-response","128","454950","0.0-7.0-4.18","6338c2127eed17193a7a4d32","bdp_wmem","Mon Mar 13 2023 11:17:49 GMT-0700 (Pacific Daylight Time)","721573","Match,No Match","","702","","","","","","<div class='trialBorder'><div class='targDiv'><div class='tc'><img class='introPic' src='trustrating_stim/white_mw040.bmp'><br><font color='green'><strong>Share</strong></font></div></div><div class='respDiv'><div class='respDivL'>Match<br>(e)</div><div class='respDivR'>No Match<br>(i)</div></div></div>","e","TARGET","2","trustrating_stim/white_mw040.bmp,trustrating_stim/white_mw092.bmp","0,1","noMatchOutcome","i","3000","trustrating_stim/white_mw040.bmp","green","Share","REAL","0"
"html-keyboard-response","129","455452","0.0-7.0-5.18","6338c2127eed17193a7a4d32","bdp_wmem","Mon Mar 13 2023 11:17:49 GMT-0700 (Pacific Daylight Time)","721573","Match,No Match","","null","","","","","","<div class='trialBorder'><div class='vertical-center'><img src='img/error.jpg'></div><div class='respDiv'><div class='respDivL'><font style='color:orange'>Match<br>(e)</font></div><div class='respDivR'>No Match<br>(i)</div></div></div>","null","FEEDBACK","","","","","","","","","","",""
"html-keyboard-response","130","455954","0.0-7.0-1.19","6338c2127eed17193a7a4d32","bdp_wmem","Mon Mar 13 2023 11:17:49 GMT-0700 (Pacific Daylight Time)","721573","Match,No Match","","null","","","","","","<div class='trialBorder'><div class='vertical-center'><img src='img/fixation2_sml.jpg'</img></div></div>","null","FIX","","","","","","","","","","",""
"html-keyboard-response","131","460455","0.0-7.0-2.19","6338c2127eed17193a7a4d32","bdp_wmem","Mon Mar 13 2023 11:17:49 GMT-0700 (Pacific Daylight Time)","721573","Match,No Match","","null","","","","","","<div class='trialBorder'><div class='vertical-center'><img style='vertical-align:center; align:center' src='img/fixation2_sml.jpg'></div><div class='arrayDiv3'><div class='tl'><img class='introPic' src='trustrating_stim/white_mw013.bmp'><br><font color='green'><strong>Share</strong></font></div><div class='tc'><img class='introPic' src='trustrating_stim/white_mw010.bmp'><br><font color='red'><strong>Keep</strong></font></div><div class='tr'><img class='introPic' src='trustrating_stim/white_mw085.bmp'><br><font color='red'><strong>Keep</strong></font></div></div></div>","null","ARRAY","3","trustrating_stim/white_mw013.bmp,trustrating_stim/white_mw010.bmp,trustrating_stim/white_mw085.bmp","1,0,0","Match","e","4500","","","","",""
"html-keyboard-response","132","464457","0.0-7.0-3.19","6338c2127eed17193a7a4d32","bdp_wmem","Mon Mar 13 2023 11:17:49 GMT-0700 (Pacific Daylight Time)","721573","Match,No Match","","null","","","","","","<div class='trialBorder'><div class='vertical-center'><img src='img/fixation2_sml.jpg'</img></div></div>","null","DELAY","","","","","","","","","","",""
"html-keyboard-response","133","466205","0.0-7.0-4.19","6338c2127eed17193a7a4d32","bdp_wmem","Mon Mar 13 2023 11:17:49 GMT-0700 (Pacific Daylight Time)","721573","Match,No Match","","1747","","","","","","<div class='trialBorder'><div class='targDiv'><div class='tc'><img class='introPic' src='trustrating_stim/white_mw085.bmp'><br><font color='red'><strong>Keep</strong></font></div></div><div class='respDiv'><div class='respDivL'>Match<br>(e)</div><div class='respDivR'>No Match<br>(i)</div></div></div>","i","TARGET","3","trustrating_stim/white_mw013.bmp,trustrating_stim/white_mw010.bmp,trustrating_stim/white_mw085.bmp","1,0,0","Match","e","4500","trustrating_stim/white_mw085.bmp","red","Keep","REAL","0"
"html-keyboard-response","134","466705","0.0-7.0-5.19","6338c2127eed17193a7a4d32","bdp_wmem","Mon Mar 13 2023 11:17:49 GMT-0700 (Pacific Daylight Time)","721573","Match,No Match","","null","","","","","","<div class='trialBorder'><div class='vertical-center'><img src='img/error.jpg'></div><div class='respDiv'><div class='respDivL'>Match<br>(e)</div><div class='respDivR'><font style='color:orange'>No Match<br>(i)</font></div></div></div>","null","FEEDBACK","","","","","","","","","","",""
"html-keyboard-response","135","467207","0.0-7.0-1.20","6338c2127eed17193a7a4d32","bdp_wmem","Mon Mar 13 2023 11:17:49 GMT-0700 (Pacific Daylight Time)","721573","Match,No Match","","null","","","","","","<div class='trialBorder'><div class='vertical-center'><img src='img/fixation2_sml.jpg'</img></div></div>","null","FIX","","","","","","","","","","",""
"html-keyboard-response","136","468708","0.0-7.0-2.20","6338c2127eed17193a7a4d32","bdp_wmem","Mon Mar 13 2023 11:17:49 GMT-0700 (Pacific Daylight Time)","721573","Match,No Match","","null","","","","","","<div class='trialBorder'><div class='vertical-center'><img style='vertical-align:center; align:center' src='img/fixation2_sml.jpg'></div><div class='arrayDiv1'><div class='tc'><img class='introPic' src='trustrating_stim/white_mw091.bmp'><br><font color='green'><strong>Share</strong></font></div></div></div>","null","ARRAY","1","trustrating_stim/white_mw091.bmp","1","noMatchOutcome","i","1500","","","","",""
"html-keyboard-response","137","472709","0.0-7.0-3.20","6338c2127eed17193a7a4d32","bdp_wmem","Mon Mar 13 2023 11:17:49 GMT-0700 (Pacific Daylight Time)","721573","Match,No Match","","null","","","","","","<div class='trialBorder'><div class='vertical-center'><img src='img/fixation2_sml.jpg'</img></div></div>","null","DELAY","","","","","","","","","","",""
"html-keyboard-response","138","474506","0.0-7.0-4.20","6338c2127eed17193a7a4d32","bdp_wmem","Mon Mar 13 2023 11:17:49 GMT-0700 (Pacific Daylight Time)","721573","Match,No Match","","1796","","","","","","<div class='trialBorder'><div class='targDiv'><div class='tc'><img class='introPic' src='trustrating_stim/white_mw091.bmp'><br><font color='red'><strong>Keep</strong></font></div></div><div class='respDiv'><div class='respDivL'>Match<br>(e)</div><div class='respDivR'>No Match<br>(i)</div></div></div>","e","TARGET","1","trustrating_stim/white_mw091.bmp","1","noMatchOutcome","i","1500","trustrating_stim/white_mw091.bmp","red","Keep","REAL","0"
"html-keyboard-response","139","475007","0.0-7.0-5.20","6338c2127eed17193a7a4d32","bdp_wmem","Mon Mar 13 2023 11:17:49 GMT-0700 (Pacific Daylight Time)","721573","Match,No Match","","null","","","","","","<div class='trialBorder'><div class='vertical-center'><img src='img/error.jpg'></div><div class='respDiv'><div class='respDivL'><font style='color:orange'>Match<br>(e)</font></div><div class='respDivR'>No Match<br>(i)</div></div></div>","null","FEEDBACK","","","","","","","","","","",""
"html-keyboard-response","140","475508","0.0-7.0-1.21","6338c2127eed17193a7a4d32","bdp_wmem","Mon Mar 13 2023 11:17:49 GMT-0700 (Pacific Daylight Time)","721573","Match,No Match","","null","","","","","","<div class='trialBorder'><div class='vertical-center'><img src='img/fixation2_sml.jpg'</img></div></div>","null","FIX","","","","","","","","","","",""
"html-keyboard-response","141","477011","0.0-7.0-2.21","6338c2127eed17193a7a4d32","bdp_wmem","Mon Mar 13 2023 11:17:49 GMT-0700 (Pacific Daylight Time)","721573","Match,No Match","","null","","","","","","<div class='trialBorder'><div class='vertical-center'><img style='vertical-align:center; align:center' src='img/fixation2_sml.jpg'></div><div class='arrayDiv1'><div class='tc'><img class='introPic' src='trustrating_stim/white_mw012.bmp'><br><font color='green'><strong>Share</strong></font></div></div></div>","null","ARRAY","1","trustrating_stim/white_mw012.bmp","1","Match","e","1500","","","","",""
"html-keyboard-response","142","481013","0.0-7.0-3.21","6338c2127eed17193a7a4d32","bdp_wmem","Mon Mar 13 2023 11:17:49 GMT-0700 (Pacific Daylight Time)","721573","Match,No Match","","null","","","","","","<div class='trialBorder'><div class='vertical-center'><img src='img/fixation2_sml.jpg'</img></div></div>","null","DELAY","","","","","","","","","","",""
"html-keyboard-response","143","481811","0.0-7.0-4.21","6338c2127eed17193a7a4d32","bdp_wmem","Mon Mar 13 2023 11:17:49 GMT-0700 (Pacific Daylight Time)","721573","Match,No Match","","797","","","","","","<div class='trialBorder'><div class='targDiv'><div class='tc'><img class='introPic' src='trustrating_stim/white_mw012.bmp'><br><font color='green'><strong>Share</strong></font></div></div><div class='respDiv'><div class='respDivL'>Match<br>(e)</div><div class='respDivR'>No Match<br>(i)</div></div></div>","e","TARGET","1","trustrating_stim/white_mw012.bmp","1","Match","e","1500","trustrating_stim/white_mw012.bmp","green","Share","REAL","1"
"html-keyboard-response","144","482313","0.0-7.0-5.21","6338c2127eed17193a7a4d32","bdp_wmem","Mon Mar 13 2023 11:17:49 GMT-0700 (Pacific Daylight Time)","721573","Match,No Match","","null","","","","","","<div class='trialBorder'><div class='vertical-center'><img src='img/correct.jpg'></div><div class='respDiv'><div class='respDivL'><font style='color:orange'>Match<br>(e)</font></div><div class='respDivR'>No Match<br>(i)</div></div></div>","null","FEEDBACK","","","","","","","","","","",""
"html-keyboard-response","145","482814","0.0-7.0-1.22","6338c2127eed17193a7a4d32","bdp_wmem","Mon Mar 13 2023 11:17:49 GMT-0700 (Pacific Daylight Time)","721573","Match,No Match","","null","","","","","","<div class='trialBorder'><div class='vertical-center'><img src='img/fixation2_sml.jpg'</img></div></div>","null","FIX","","","","","","","","","","",""
"html-keyboard-response","146","485815","0.0-7.0-2.22","6338c2127eed17193a7a4d32","bdp_wmem","Mon Mar 13 2023 11:17:49 GMT-0700 (Pacific Daylight Time)","721573","Match,No Match","","null","","","","","","<div class='trialBorder'><div class='vertical-center'><img style='vertical-align:center; align:center' src='img/fixation2_sml.jpg'></div><div class='arrayDiv2'><div class='tl'><img class='introPic' src='trustrating_stim/white_mw012.bmp'><br><font color='red'><strong>Keep</strong></font></div><div class='tr'><img class='introPic' src='trustrating_stim/white_mw013.bmp'><br><font color='green'><strong>Share</strong></font></div></div></div>","null","ARRAY","2","trustrating_stim/white_mw012.bmp,trustrating_stim/white_mw013.bmp","0,1","noMatchFace","i","3000","","","","",""
"html-keyboard-response","147","489817","0.0-7.0-3.22","6338c2127eed17193a7a4d32","bdp_wmem","Mon Mar 13 2023 11:17:49 GMT-0700 (Pacific Daylight Time)","721573","Match,No Match","","null","","","","","","<div class='trialBorder'><div class='vertical-center'><img src='img/fixation2_sml.jpg'</img></div></div>","null","DELAY","","","","","","","","","","",""
"html-keyboard-response","148","490708","0.0-7.0-4.22","6338c2127eed17193a7a4d32","bdp_wmem","Mon Mar 13 2023 11:17:49 GMT-0700 (Pacific Daylight Time)","721573","Match,No Match","","890","","","","","","<div class='trialBorder'><div class='targDiv'><div class='tc'><img class='introPic' src='trustrating_stim/white_mw091.bmp'><br><font color='red'><strong>Keep</strong></font></div></div><div class='respDiv'><div class='respDivL'>Match<br>(e)</div><div class='respDivR'>No Match<br>(i)</div></div></div>","e","TARGET","2","trustrating_stim/white_mw012.bmp,trustrating_stim/white_mw013.bmp","0,1","noMatchFace","i","3000","trustrating_stim/white_mw091.bmp","red","Keep","REAL","0"
"html-keyboard-response","149","491209","0.0-7.0-5.22","6338c2127eed17193a7a4d32","bdp_wmem","Mon Mar 13 2023 11:17:49 GMT-0700 (Pacific Daylight Time)","721573","Match,No Match","","null","","","","","","<div class='trialBorder'><div class='vertical-center'><img src='img/error.jpg'></div><div class='respDiv'><div class='respDivL'><font style='color:orange'>Match<br>(e)</font></div><div class='respDivR'>No Match<br>(i)</div></div></div>","null","FEEDBACK","","","","","","","","","","",""
"html-keyboard-response","150","491711","0.0-7.0-1.23","6338c2127eed17193a7a4d32","bdp_wmem","Mon Mar 13 2023 11:17:49 GMT-0700 (Pacific Daylight Time)","721573","Match,No Match","","null","","","","","","<div class='trialBorder'><div class='vertical-center'><img src='img/fixation2_sml.jpg'</img></div></div>","null","FIX","","","","","","","","","","",""
"html-keyboard-response","151","493213","0.0-7.0-2.23","6338c2127eed17193a7a4d32","bdp_wmem","Mon Mar 13 2023 11:17:49 GMT-0700 (Pacific Daylight Time)","721573","Match,No Match","","null","","","","","","<div class='trialBorder'><div class='vertical-center'><img style='vertical-align:center; align:center' src='img/fixation2_sml.jpg'></div><div class='arrayDiv1'><div class='tc'><img class='introPic' src='trustrating_stim/white_mw038.bmp'><br><font color='red'><strong>Keep</strong></font></div></div></div>","null","ARRAY","1","trustrating_stim/white_mw038.bmp","0","noMatchFace","i","1500","","","","",""
"html-keyboard-response","152","497214","0.0-7.0-3.23","6338c2127eed17193a7a4d32","bdp_wmem","Mon Mar 13 2023 11:17:49 GMT-0700 (Pacific Daylight Time)","721573","Match,No Match","","null","","","","","","<div class='trialBorder'><div class='vertical-center'><img src='img/fixation2_sml.jpg'</img></div></div>","null","DELAY","","","","","","","","","","",""
"html-keyboard-response","153","498308","0.0-7.0-4.23","6338c2127eed17193a7a4d32","bdp_wmem","Mon Mar 13 2023 11:17:49 GMT-0700 (Pacific Daylight Time)","721573","Match,No Match","","1093","","","","","","<div class='trialBorder'><div class='targDiv'><div class='tc'><img class='introPic' src='trustrating_stim/white_mw091.bmp'><br><font color='red'><strong>Keep</strong></font></div></div><div class='respDiv'><div class='respDivL'>Match<br>(e)</div><div class='respDivR'>No Match<br>(i)</div></div></div>","i","TARGET","1","trustrating_stim/white_mw038.bmp","0","noMatchFace","i","1500","trustrating_stim/white_mw091.bmp","red","Keep","REAL","1"
"html-keyboard-response","154","498809","0.0-7.0-5.23","6338c2127eed17193a7a4d32","bdp_wmem","Mon Mar 13 2023 11:17:49 GMT-0700 (Pacific Daylight Time)","721573","Match,No Match","","null","","","","","","<div class='trialBorder'><div class='vertical-center'><img src='img/correct.jpg'></div><div class='respDiv'><div class='respDivL'>Match<br>(e)</div><div class='respDivR'><font style='color:orange'>No Match<br>(i)</font></div></div></div>","null","FEEDBACK","","","","","","","","","","",""
"html-keyboard-response","155","499311","0.0-7.0-1.24","6338c2127eed17193a7a4d32","bdp_wmem","Mon Mar 13 2023 11:17:49 GMT-0700 (Pacific Daylight Time)","721573","Match,No Match","","null","","","","","","<div class='trialBorder'><div class='vertical-center'><img src='img/fixation2_sml.jpg'</img></div></div>","null","FIX","","","","","","","","","","",""
"html-keyboard-response","156","500813","0.0-7.0-2.24","6338c2127eed17193a7a4d32","bdp_wmem","Mon Mar 13 2023 11:17:49 GMT-0700 (Pacific Daylight Time)","721573","Match,No Match","","null","","","","","","<div class='trialBorder'><div class='vertical-center'><img style='vertical-align:center; align:center' src='img/fixation2_sml.jpg'></div><div class='arrayDiv1'><div class='tc'><img class='introPic' src='trustrating_stim/white_mw070.bmp'><br><font color='red'><strong>Keep</strong></font></div></div></div>","null","ARRAY","1","trustrating_stim/white_mw070.bmp","0","Match","e","1500","","","","",""
"html-keyboard-response","157","504815","0.0-7.0-3.24","6338c2127eed17193a7a4d32","bdp_wmem","Mon Mar 13 2023 11:17:49 GMT-0700 (Pacific Daylight Time)","721573","Match,No Match","","null","","","","","","<div class='trialBorder'><div class='vertical-center'><img src='img/fixation2_sml.jpg'</img></div></div>","null","DELAY","","","","","","","","","","",""
"html-keyboard-response","158","505494","0.0-7.0-4.24","6338c2127eed17193a7a4d32","bdp_wmem","Mon Mar 13 2023 11:17:49 GMT-0700 (Pacific Daylight Time)","721573","Match,No Match","","679","","","","","","<div class='trialBorder'><div class='targDiv'><div class='tc'><img class='introPic' src='trustrating_stim/white_mw070.bmp'><br><font color='red'><strong>Keep</strong></font></div></div><div class='respDiv'><div class='respDivL'>Match<br>(e)</div><div class='respDivR'>No Match<br>(i)</div></div></div>","e","TARGET","1","trustrating_stim/white_mw070.bmp","0","Match","e","1500","trustrating_stim/white_mw070.bmp","red","Keep","REAL","1"
"html-keyboard-response","159","505995","0.0-7.0-5.24","6338c2127eed17193a7a4d32","bdp_wmem","Mon Mar 13 2023 11:17:49 GMT-0700 (Pacific Daylight Time)","721573","Match,No Match","","null","","","","","","<div class='trialBorder'><div class='vertical-center'><img src='img/correct.jpg'></div><div class='respDiv'><div class='respDivL'><font style='color:orange'>Match<br>(e)</font></div><div class='respDivR'>No Match<br>(i)</div></div></div>","null","FEEDBACK","","","","","","","","","","",""
"html-keyboard-response","160","506497","0.0-7.0-1.25","6338c2127eed17193a7a4d32","bdp_wmem","Mon Mar 13 2023 11:17:49 GMT-0700 (Pacific Daylight Time)","721573","Match,No Match","","null","","","","","","<div class='trialBorder'><div class='vertical-center'><img src='img/fixation2_sml.jpg'</img></div></div>","null","FIX","","","","","","","","","","",""
"html-keyboard-response","161","509498","0.0-7.0-2.25","6338c2127eed17193a7a4d32","bdp_wmem","Mon Mar 13 2023 11:17:49 GMT-0700 (Pacific Daylight Time)","721573","Match,No Match","","null","","","","","","<div class='trialBorder'><div class='vertical-center'><img style='vertical-align:center; align:center' src='img/fixation2_sml.jpg'></div><div class='arrayDiv2'><div class='tl'><img class='introPic' src='trustrating_stim/white_mw091.bmp'><br><font color='green'><strong>Share</strong></font></div><div class='tr'><img class='introPic' src='trustrating_stim/white_mw040.bmp'><br><font color='red'><strong>Keep</strong></font></div></div></div>","null","ARRAY","2","trustrating_stim/white_mw091.bmp,trustrating_stim/white_mw040.bmp","1,0","noMatchOutcome","i","3000","","","","",""
"html-keyboard-response","162","513500","0.0-7.0-3.25","6338c2127eed17193a7a4d32","bdp_wmem","Mon Mar 13 2023 11:17:49 GMT-0700 (Pacific Daylight Time)","721573","Match,No Match","","null","","","","","","<div class='trialBorder'><div class='vertical-center'><img src='img/fixation2_sml.jpg'</img></div></div>","null","DELAY","","","","","","","","","","",""
"html-keyboard-response","163","514142","0.0-7.0-4.25","6338c2127eed17193a7a4d32","bdp_wmem","Mon Mar 13 2023 11:17:49 GMT-0700 (Pacific Daylight Time)","721573","Match,No Match","","641","","","","","","<div class='trialBorder'><div class='targDiv'><div class='tc'><img class='introPic' src='trustrating_stim/white_mw040.bmp'><br><font color='green'><strong>Share</strong></font></div></div><div class='respDiv'><div class='respDivL'>Match<br>(e)</div><div class='respDivR'>No Match<br>(i)</div></div></div>","i","TARGET","2","trustrating_stim/white_mw091.bmp,trustrating_stim/white_mw040.bmp","1,0","noMatchOutcome","i","3000","trustrating_stim/white_mw040.bmp","green","Share","REAL","1"
"html-keyboard-response","164","514644","0.0-7.0-5.25","6338c2127eed17193a7a4d32","bdp_wmem","Mon Mar 13 2023 11:17:49 GMT-0700 (Pacific Daylight Time)","721573","Match,No Match","","null","","","","","","<div class='trialBorder'><div class='vertical-center'><img src='img/correct.jpg'></div><div class='respDiv'><div class='respDivL'>Match<br>(e)</div><div class='respDivR'><font style='color:orange'>No Match<br>(i)</font></div></div></div>","null","FEEDBACK","","","","","","","","","","",""
"html-keyboard-response","165","515146","0.0-7.0-1.26","6338c2127eed17193a7a4d32","bdp_wmem","Mon Mar 13 2023 11:17:49 GMT-0700 (Pacific Daylight Time)","721573","Match,No Match","","null","","","","","","<div class='trialBorder'><div class='vertical-center'><img src='img/fixation2_sml.jpg'</img></div></div>","null","FIX","","","","","","","","","","",""
"html-keyboard-response","166","518148","0.0-7.0-2.26","6338c2127eed17193a7a4d32","bdp_wmem","Mon Mar 13 2023 11:17:49 GMT-0700 (Pacific Daylight Time)","721573","Match,No Match","","null","","","","","","<div class='trialBorder'><div class='vertical-center'><img style='vertical-align:center; align:center' src='img/fixation2_sml.jpg'></div><div class='arrayDiv2'><div class='tl'><img class='introPic' src='trustrating_stim/white_mw042.bmp'><br><font color='red'><strong>Keep</strong></font></div><div class='tr'><img class='introPic' src='trustrating_stim/white_mw092.bmp'><br><font color='green'><strong>Share</strong></font></div></div></div>","null","ARRAY","2","trustrating_stim/white_mw042.bmp,trustrating_stim/white_mw092.bmp","0,1","noMatchFace","i","3000","","","","",""
"html-keyboard-response","167","522150","0.0-7.0-3.26","6338c2127eed17193a7a4d32","bdp_wmem","Mon Mar 13 2023 11:17:49 GMT-0700 (Pacific Daylight Time)","721573","Match,No Match","","null","","","","","","<div class='trialBorder'><div class='vertical-center'><img src='img/fixation2_sml.jpg'</img></div></div>","null","DELAY","","","","","","","","","","",""
"html-keyboard-response","168","522863","0.0-7.0-4.26","6338c2127eed17193a7a4d32","bdp_wmem","Mon Mar 13 2023 11:17:49 GMT-0700 (Pacific Daylight Time)","721573","Match,No Match","","712","","","","","","<div class='trialBorder'><div class='targDiv'><div class='tc'><img class='introPic' src='trustrating_stim/white_mw010.bmp'><br><font color='green'><strong>Share</strong></font></div></div><div class='respDiv'><div class='respDivL'>Match<br>(e)</div><div class='respDivR'>No Match<br>(i)</div></div></div>","i","TARGET","2","trustrating_stim/white_mw042.bmp,trustrating_stim/white_mw092.bmp","0,1","noMatchFace","i","3000","trustrating_stim/white_mw010.bmp","green","Share","REAL","1"
"html-keyboard-response","169","523364","0.0-7.0-5.26","6338c2127eed17193a7a4d32","bdp_wmem","Mon Mar 13 2023 11:17:49 GMT-0700 (Pacific Daylight Time)","721573","Match,No Match","","null","","","","","","<div class='trialBorder'><div class='vertical-center'><img src='img/correct.jpg'></div><div class='respDiv'><div class='respDivL'>Match<br>(e)</div><div class='respDivR'><font style='color:orange'>No Match<br>(i)</font></div></div></div>","null","FEEDBACK","","","","","","","","","","",""
"html-keyboard-response","170","523865","0.0-7.0-1.27","6338c2127eed17193a7a4d32","bdp_wmem","Mon Mar 13 2023 11:17:49 GMT-0700 (Pacific Daylight Time)","721573","Match,No Match","","null","","","","","","<div class='trialBorder'><div class='vertical-center'><img src='img/fixation2_sml.jpg'</img></div></div>","null","FIX","","","","","","","","","","",""
"html-keyboard-response","171","528367","0.0-7.0-2.27","6338c2127eed17193a7a4d32","bdp_wmem","Mon Mar 13 2023 11:17:49 GMT-0700 (Pacific Daylight Time)","721573","Match,No Match","","null","","","","","","<div class='trialBorder'><div class='vertical-center'><img style='vertical-align:center; align:center' src='img/fixation2_sml.jpg'></div><div class='arrayDiv3'><div class='tl'><img class='introPic' src='trustrating_stim/white_mw070.bmp'><br><font color='red'><strong>Keep</strong></font></div><div class='tc'><img class='introPic' src='trustrating_stim/white_mw085.bmp'><br><font color='green'><strong>Share</strong></font></div><div class='tr'><img class='introPic' src='trustrating_stim/white_mw040.bmp'><br><font color='red'><strong>Keep</strong></font></div></div></div>","null","ARRAY","3","trustrating_stim/white_mw070.bmp,trustrating_stim/white_mw085.bmp,trustrating_stim/white_mw040.bmp","0,1,0","Match","e","4500","","","","",""
"html-keyboard-response","172","532368","0.0-7.0-3.27","6338c2127eed17193a7a4d32","bdp_wmem","Mon Mar 13 2023 11:17:49 GMT-0700 (Pacific Daylight Time)","721573","Match,No Match","","null","","","","","","<div class='trialBorder'><div class='vertical-center'><img src='img/fixation2_sml.jpg'</img></div></div>","null","DELAY","","","","","","","","","","",""
"html-keyboard-response","173","532800","0.0-7.0-4.27","6338c2127eed17193a7a4d32","bdp_wmem","Mon Mar 13 2023 11:17:49 GMT-0700 (Pacific Daylight Time)","721573","Match,No Match","","431","","","","","","<div class='trialBorder'><div class='targDiv'><div class='tc'><img class='introPic' src='trustrating_stim/white_mw040.bmp'><br><font color='red'><strong>Keep</strong></font></div></div><div class='respDiv'><div class='respDivL'>Match<br>(e)</div><div class='respDivR'>No Match<br>(i)</div></div></div>","e","TARGET","3","trustrating_stim/white_mw070.bmp,trustrating_stim/white_mw085.bmp,trustrating_stim/white_mw040.bmp","0,1,0","Match","e","4500","trustrating_stim/white_mw040.bmp","red","Keep","REAL","1"
"html-keyboard-response","174","533301","0.0-7.0-5.27","6338c2127eed17193a7a4d32","bdp_wmem","Mon Mar 13 2023 11:17:49 GMT-0700 (Pacific Daylight Time)","721573","Match,No Match","","null","","","","","","<div class='trialBorder'><div class='vertical-center'><img src='img/correct.jpg'></div><div class='respDiv'><div class='respDivL'><font style='color:orange'>Match<br>(e)</font></div><div class='respDivR'>No Match<br>(i)</div></div></div>","null","FEEDBACK","","","","","","","","","","",""
"html-keyboard-response","175","533801","0.0-7.0-1.28","6338c2127eed17193a7a4d32","bdp_wmem","Mon Mar 13 2023 11:17:49 GMT-0700 (Pacific Daylight Time)","721573","Match,No Match","","null","","","","","","<div class='trialBorder'><div class='vertical-center'><img src='img/fixation2_sml.jpg'</img></div></div>","null","FIX","","","","","","","","","","",""
"html-keyboard-response","176","536803","0.0-7.0-2.28","6338c2127eed17193a7a4d32","bdp_wmem","Mon Mar 13 2023 11:17:49 GMT-0700 (Pacific Daylight Time)","721573","Match,No Match","","null","","","","","","<div class='trialBorder'><div class='vertical-center'><img style='vertical-align:center; align:center' src='img/fixation2_sml.jpg'></div><div class='arrayDiv2'><div class='tl'><img class='introPic' src='trustrating_stim/white_mw092.bmp'><br><font color='red'><strong>Keep</strong></font></div><div class='tr'><img class='introPic' src='trustrating_stim/white_mw040.bmp'><br><font color='green'><strong>Share</strong></font></div></div></div>","null","ARRAY","2","trustrating_stim/white_mw092.bmp,trustrating_stim/white_mw040.bmp","0,1","Match","e","3000","","","","",""
"html-keyboard-response","177","540804","0.0-7.0-3.28","6338c2127eed17193a7a4d32","bdp_wmem","Mon Mar 13 2023 11:17:49 GMT-0700 (Pacific Daylight Time)","721573","Match,No Match","","null","","","","","","<div class='trialBorder'><div class='vertical-center'><img src='img/fixation2_sml.jpg'</img></div></div>","null","DELAY","","","","","","","","","","",""
"html-keyboard-response","178","541516","0.0-7.0-4.28","6338c2127eed17193a7a4d32","bdp_wmem","Mon Mar 13 2023 11:17:49 GMT-0700 (Pacific Daylight Time)","721573","Match,No Match","","711","","","","","","<div class='trialBorder'><div class='targDiv'><div class='tc'><img class='introPic' src='trustrating_stim/white_mw092.bmp'><br><font color='red'><strong>Keep</strong></font></div></div><div class='respDiv'><div class='respDivL'>Match<br>(e)</div><div class='respDivR'>No Match<br>(i)</div></div></div>","e","TARGET","2","trustrating_stim/white_mw092.bmp,trustrating_stim/white_mw040.bmp","0,1","Match","e","3000","trustrating_stim/white_mw092.bmp","red","Keep","REAL","1"
"html-keyboard-response","179","542017","0.0-7.0-5.28","6338c2127eed17193a7a4d32","bdp_wmem","Mon Mar 13 2023 11:17:49 GMT-0700 (Pacific Daylight Time)","721573","Match,No Match","","null","","","","","","<div class='trialBorder'><div class='vertical-center'><img src='img/correct.jpg'></div><div class='respDiv'><div class='respDivL'><font style='color:orange'>Match<br>(e)</font></div><div class='respDivR'>No Match<br>(i)</div></div></div>","null","FEEDBACK","","","","","","","","","","",""
"html-keyboard-response","180","542518","0.0-7.0-1.29","6338c2127eed17193a7a4d32","bdp_wmem","Mon Mar 13 2023 11:17:49 GMT-0700 (Pacific Daylight Time)","721573","Match,No Match","","null","","","","","","<div class='trialBorder'><div class='vertical-center'><img src='img/fixation2_sml.jpg'</img></div></div>","null","FIX","","","","","","","","","","",""
"html-keyboard-response","181","547021","0.0-7.0-2.29","6338c2127eed17193a7a4d32","bdp_wmem","Mon Mar 13 2023 11:17:49 GMT-0700 (Pacific Daylight Time)","721573","Match,No Match","","null","","","","","","<div class='trialBorder'><div class='vertical-center'><img style='vertical-align:center; align:center' src='img/fixation2_sml.jpg'></div><div class='arrayDiv3'><div class='tl'><img class='introPic' src='trustrating_stim/white_mw040.bmp'><br><font color='green'><strong>Share</strong></font></div><div class='tc'><img class='introPic' src='trustrating_stim/white_mw038.bmp'><br><font color='green'><strong>Share</strong></font></div><div class='tr'><img class='introPic' src='trustrating_stim/white_mw013.bmp'><br><font color='red'><strong>Keep</strong></font></div></div></div>","null","ARRAY","3","trustrating_stim/white_mw040.bmp,trustrating_stim/white_mw038.bmp,trustrating_stim/white_mw013.bmp","1,1,0","noMatchOutcome","i","4500","","","","",""
"html-keyboard-response","182","551022","0.0-7.0-3.29","6338c2127eed17193a7a4d32","bdp_wmem","Mon Mar 13 2023 11:17:49 GMT-0700 (Pacific Daylight Time)","721573","Match,No Match","","null","","","","","","<div class='trialBorder'><div class='vertical-center'><img src='img/fixation2_sml.jpg'</img></div></div>","null","DELAY","","","","","","","","","","",""
"html-keyboard-response","183","551745","0.0-7.0-4.29","6338c2127eed17193a7a4d32","bdp_wmem","Mon Mar 13 2023 11:17:49 GMT-0700 (Pacific Daylight Time)","721573","Match,No Match","","722","","","","","","<div class='trialBorder'><div class='targDiv'><div class='tc'><img class='introPic' src='trustrating_stim/white_mw013.bmp'><br><font color='green'><strong>Share</strong></font></div></div><div class='respDiv'><div class='respDivL'>Match<br>(e)</div><div class='respDivR'>No Match<br>(i)</div></div></div>","e","TARGET","3","trustrating_stim/white_mw040.bmp,trustrating_stim/white_mw038.bmp,trustrating_stim/white_mw013.bmp","1,1,0","noMatchOutcome","i","4500","trustrating_stim/white_mw013.bmp","green","Share","REAL","0"
"html-keyboard-response","184","552247","0.0-7.0-5.29","6338c2127eed17193a7a4d32","bdp_wmem","Mon Mar 13 2023 11:17:49 GMT-0700 (Pacific Daylight Time)","721573","Match,No Match","","null","","","","","","<div class='trialBorder'><div class='vertical-center'><img src='img/error.jpg'></div><div class='respDiv'><div class='respDivL'><font style='color:orange'>Match<br>(e)</font></div><div class='respDivR'>No Match<br>(i)</div></div></div>","null","FEEDBACK","","","","","","","","","","",""
"html-keyboard-response","185","552749","0.0-7.0-1.30","6338c2127eed17193a7a4d32","bdp_wmem","Mon Mar 13 2023 11:17:49 GMT-0700 (Pacific Daylight Time)","721573","Match,No Match","","null","","","","","","<div class='trialBorder'><div class='vertical-center'><img src='img/fixation2_sml.jpg'</img></div></div>","null","FIX","","","","","","","","","","",""
"html-keyboard-response","186","555751","0.0-7.0-2.30","6338c2127eed17193a7a4d32","bdp_wmem","Mon Mar 13 2023 11:17:49 GMT-0700 (Pacific Daylight Time)","721573","Match,No Match","","null","","","","","","<div class='trialBorder'><div class='vertical-center'><img style='vertical-align:center; align:center' src='img/fixation2_sml.jpg'></div><div class='arrayDiv2'><div class='tl'><img class='introPic' src='trustrating_stim/white_mw070.bmp'><br><font color='green'><strong>Share</strong></font></div><div class='tr'><img class='introPic' src='trustrating_stim/white_mw010.bmp'><br><font color='red'><strong>Keep</strong></font></div></div></div>","null","ARRAY","2","trustrating_stim/white_mw070.bmp,trustrating_stim/white_mw010.bmp","1,0","Match","e","3000","","","","",""
"html-keyboard-response","187","559752","0.0-7.0-3.30","6338c2127eed17193a7a4d32","bdp_wmem","Mon Mar 13 2023 11:17:49 GMT-0700 (Pacific Daylight Time)","721573","Match,No Match","","null","","","","","","<div class='trialBorder'><div class='vertical-center'><img src='img/fixation2_sml.jpg'</img></div></div>","null","DELAY","","","","","","","","","","",""
