"trial_type","trial_index","time_elapsed","internal_node_id","subject_id","task","startTime","totalTime","labels","view_history","rt","event","trial","time","trialtype","success","stimulus","key_press","stimType","arraySize","arrayFaces","arrayOutcomes","matchType","corrResp","arrayDur","targFace","targCol","targOutcome","trialType","corr"
"pavlovia","0","2","0.0-0.0","63d7a9346e833b93500723d4","bdp_wmem","Tue Mar 14 2023 21:02:32 GMT-0400 (Eastern Daylight Time)","588093","Match,No Match","","","","","","","","","","","","","","","","","","","","",""
"instructions","1","1272","0.0-1.0","63d7a9346e833b93500723d4","bdp_wmem","Tue Mar 14 2023 21:02:32 GMT-0400 (Eastern Daylight Time)","588093","Match,No Match","[{""page_index"":0,""viewing_time"":1270}]","1270","","","","","","","","","","","","","","","","","","",""
"","","","","63d7a9346e833b93500723d4","bdp_wmem","Tue Mar 14 2023 21:02:32 GMT-0400 (Eastern Daylight Time)","588093","Match,No Match","","","fullscreenenter","2","4290","fullscreenenter","","","","","","","","","","","","","","",""
"fullscreen","2","5274","0.0-2.0","63d7a9346e833b93500723d4","bdp_wmem","Tue Mar 14 2023 21:02:32 GMT-0400 (Eastern Daylight Time)","588093","Match,No Match","","","","","","","true","","","","","","","","","","","","","",""
"instructions","3","89991","0.0-4.0","63d7a9346e833b93500723d4","bdp_wmem","Tue Mar 14 2023 21:02:32 GMT-0400 (Eastern Daylight Time)","588093","Match,No Match","[{""page_index"":0,""viewing_time"":20772},{""page_index"":1,""viewing_time"":40353},{""page_index"":2,""viewing_time"":9295},{""page_index"":3,""viewing_time"":4395},{""page_index"":4,""viewing_time"":9901}]","84716","","","","","","","","","","","","","","","","","","",""
"html-keyboard-response","4","90493","0.0-5.0-1.0","63d7a9346e833b93500723d4","bdp_wmem","Tue Mar 14 2023 21:02:32 GMT-0400 (Eastern Daylight Time)","588093","Match,No Match","","null","","","","","","<div class='trialBorder'><div class='vertical-center'><img src='img/fixation2_sml.jpg'</img></div></div>","null","FIX","","","","","","","","","","",""
"html-keyboard-response","5","91995","0.0-5.0-2.0","63d7a9346e833b93500723d4","bdp_wmem","Tue Mar 14 2023 21:02:32 GMT-0400 (Eastern Daylight Time)","588093","Match,No Match","","null","","","","","","<div class='trialBorder'><div class='vertical-center'><img style='vertical-align:center; align:center' src='img/fixation2_sml.jpg'></div><div class='arrayDiv1'><div class='tc'><img class='introPic' src='trustrating_stim/white_mw010.bmp'><br><font color='red'><strong>Keep</strong></font></div></div></div>","null","ARRAY","1","trustrating_stim/white_mw010.bmp","0","noMatchFace","i","1500","","","","",""
"html-keyboard-response","6","95995","0.0-5.0-3.0","63d7a9346e833b93500723d4","bdp_wmem","Tue Mar 14 2023 21:02:32 GMT-0400 (Eastern Daylight Time)","588093","Match,No Match","","null","","","","","","<div class='trialBorder'><div class='vertical-center'><img src='img/fixation2_sml.jpg'</img></div></div>","null","DELAY","","","","","","","","","","",""
"html-keyboard-response","7","96480","0.0-5.0-4.0","63d7a9346e833b93500723d4","bdp_wmem","Tue Mar 14 2023 21:02:32 GMT-0400 (Eastern Daylight Time)","588093","Match,No Match","","484","","","","","","<div class='trialBorder'><div class='targDiv'><div class='tc'><img class='introPic' src='trustrating_stim/white_mw091.bmp'><br><font color='red'><strong>Keep</strong></font></div></div><div class='respDiv'><div class='respDivL'>Match<br>(e)</div><div class='respDivR'>No Match<br>(i)</div></div></div>","i","TARGET","1","trustrating_stim/white_mw010.bmp","0","noMatchFace","i","1500","trustrating_stim/white_mw091.bmp","red","Keep","PRACTICE","1"
"html-keyboard-response","8","96981","0.0-5.0-5.0","63d7a9346e833b93500723d4","bdp_wmem","Tue Mar 14 2023 21:02:32 GMT-0400 (Eastern Daylight Time)","588093","Match,No Match","","null","","","","","","<div class='trialBorder'><div class='vertical-center'><img src='img/correct.jpg'></div><div class='respDiv'><div class='respDivL'>Match<br>(e)</div><div class='respDivR'><font style='color:orange'>No Match<br>(i)</font></div></div></div>","null","FEEDBACK","","","","","","","","","","",""
"html-keyboard-response","9","97483","0.0-5.0-1.1","63d7a9346e833b93500723d4","bdp_wmem","Tue Mar 14 2023 21:02:32 GMT-0400 (Eastern Daylight Time)","588093","Match,No Match","","null","","","","","","<div class='trialBorder'><div class='vertical-center'><img src='img/fixation2_sml.jpg'</img></div></div>","null","FIX","","","","","","","","","","",""
"html-keyboard-response","10","101984","0.0-5.0-2.1","63d7a9346e833b93500723d4","bdp_wmem","Tue Mar 14 2023 21:02:32 GMT-0400 (Eastern Daylight Time)","588093","Match,No Match","","null","","","","","","<div class='trialBorder'><div class='vertical-center'><img style='vertical-align:center; align:center' src='img/fixation2_sml.jpg'></div><div class='arrayDiv3'><div class='tl'><img class='introPic' src='trustrating_stim/white_mw092.bmp'><br><font color='red'><strong>Keep</strong></font></div><div class='tc'><img class='introPic' src='trustrating_stim/white_mw070.bmp'><br><font color='red'><strong>Keep</strong></font></div><div class='tr'><img class='introPic' src='trustrating_stim/white_mw010.bmp'><br><font color='green'><strong>Share</strong></font></div></div></div>","null","ARRAY","3","trustrating_stim/white_mw092.bmp,trustrating_stim/white_mw070.bmp,trustrating_stim/white_mw010.bmp","0,0,1","noMatchOutcome","i","4500","","","","",""
"html-keyboard-response","11","105986","0.0-5.0-3.1","63d7a9346e833b93500723d4","bdp_wmem","Tue Mar 14 2023 21:02:32 GMT-0400 (Eastern Daylight Time)","588093","Match,No Match","","null","","","","","","<div class='trialBorder'><div class='vertical-center'><img src='img/fixation2_sml.jpg'</img></div></div>","null","DELAY","","","","","","","","","","",""
"html-keyboard-response","12","107072","0.0-5.0-4.1","63d7a9346e833b93500723d4","bdp_wmem","Tue Mar 14 2023 21:02:32 GMT-0400 (Eastern Daylight Time)","588093","Match,No Match","","1085","","","","","","<div class='trialBorder'><div class='targDiv'><div class='tc'><img class='introPic' src='trustrating_stim/white_mw010.bmp'><br><font color='red'><strong>Keep</strong></font></div></div><div class='respDiv'><div class='respDivL'>Match<br>(e)</div><div class='respDivR'>No Match<br>(i)</div></div></div>","e","TARGET","3","trustrating_stim/white_mw092.bmp,trustrating_stim/white_mw070.bmp,trustrating_stim/white_mw010.bmp","0,0,1","noMatchOutcome","i","4500","trustrating_stim/white_mw010.bmp","red","Keep","PRACTICE","0"
"html-keyboard-response","13","107573","0.0-5.0-5.1","63d7a9346e833b93500723d4","bdp_wmem","Tue Mar 14 2023 21:02:32 GMT-0400 (Eastern Daylight Time)","588093","Match,No Match","","null","","","","","","<div class='trialBorder'><div class='vertical-center'><img src='img/error.jpg'></div><div class='respDiv'><div class='respDivL'><font style='color:orange'>Match<br>(e)</font></div><div class='respDivR'>No Match<br>(i)</div></div></div>","null","FEEDBACK","","","","","","","","","","",""
"html-keyboard-response","14","108075","0.0-5.0-1.2","63d7a9346e833b93500723d4","bdp_wmem","Tue Mar 14 2023 21:02:32 GMT-0400 (Eastern Daylight Time)","588093","Match,No Match","","null","","","","","","<div class='trialBorder'><div class='vertical-center'><img src='img/fixation2_sml.jpg'</img></div></div>","null","FIX","","","","","","","","","","",""
"html-keyboard-response","15","111077","0.0-5.0-2.2","63d7a9346e833b93500723d4","bdp_wmem","Tue Mar 14 2023 21:02:32 GMT-0400 (Eastern Daylight Time)","588093","Match,No Match","","null","","","","","","<div class='trialBorder'><div class='vertical-center'><img style='vertical-align:center; align:center' src='img/fixation2_sml.jpg'></div><div class='arrayDiv2'><div class='tl'><img class='introPic' src='trustrating_stim/white_mw085.bmp'><br><font color='green'><strong>Share</strong></font></div><div class='tr'><img class='introPic' src='trustrating_stim/white_mw038.bmp'><br><font color='red'><strong>Keep</strong></font></div></div></div>","null","ARRAY","2","trustrating_stim/white_mw085.bmp,trustrating_stim/white_mw038.bmp","1,0","noMatchOutcome","i","3000","","","","",""
"html-keyboard-response","16","115078","0.0-5.0-3.2","63d7a9346e833b93500723d4","bdp_wmem","Tue Mar 14 2023 21:02:32 GMT-0400 (Eastern Daylight Time)","588093","Match,No Match","","null","","","","","","<div class='trialBorder'><div class='vertical-center'><img src='img/fixation2_sml.jpg'</img></div></div>","null","DELAY","","","","","","","","","","",""
"html-keyboard-response","17","115632","0.0-5.0-4.2","63d7a9346e833b93500723d4","bdp_wmem","Tue Mar 14 2023 21:02:32 GMT-0400 (Eastern Daylight Time)","588093","Match,No Match","","553","","","","","","<div class='trialBorder'><div class='targDiv'><div class='tc'><img class='introPic' src='trustrating_stim/white_mw038.bmp'><br><font color='green'><strong>Share</strong></font></div></div><div class='respDiv'><div class='respDivL'>Match<br>(e)</div><div class='respDivR'>No Match<br>(i)</div></div></div>","e","TARGET","2","trustrating_stim/white_mw085.bmp,trustrating_stim/white_mw038.bmp","1,0","noMatchOutcome","i","3000","trustrating_stim/white_mw038.bmp","green","Share","PRACTICE","0"
"html-keyboard-response","18","116133","0.0-5.0-5.2","63d7a9346e833b93500723d4","bdp_wmem","Tue Mar 14 2023 21:02:32 GMT-0400 (Eastern Daylight Time)","588093","Match,No Match","","null","","","","","","<div class='trialBorder'><div class='vertical-center'><img src='img/error.jpg'></div><div class='respDiv'><div class='respDivL'><font style='color:orange'>Match<br>(e)</font></div><div class='respDivR'>No Match<br>(i)</div></div></div>","null","FEEDBACK","","","","","","","","","","",""
"html-keyboard-response","19","116635","0.0-5.0-1.3","63d7a9346e833b93500723d4","bdp_wmem","Tue Mar 14 2023 21:02:32 GMT-0400 (Eastern Daylight Time)","588093","Match,No Match","","null","","","","","","<div class='trialBorder'><div class='vertical-center'><img src='img/fixation2_sml.jpg'</img></div></div>","null","FIX","","","","","","","","","","",""
"html-keyboard-response","20","118137","0.0-5.0-2.3","63d7a9346e833b93500723d4","bdp_wmem","Tue Mar 14 2023 21:02:32 GMT-0400 (Eastern Daylight Time)","588093","Match,No Match","","null","","","","","","<div class='trialBorder'><div class='vertical-center'><img style='vertical-align:center; align:center' src='img/fixation2_sml.jpg'></div><div class='arrayDiv1'><div class='tc'><img class='introPic' src='trustrating_stim/white_mw091.bmp'><br><font color='green'><strong>Share</strong></font></div></div></div>","null","ARRAY","1","trustrating_stim/white_mw091.bmp","1","Match","e","1500","","","","",""
"html-keyboard-response","21","122138","0.0-5.0-3.3","63d7a9346e833b93500723d4","bdp_wmem","Tue Mar 14 2023 21:02:32 GMT-0400 (Eastern Daylight Time)","588093","Match,No Match","","null","","","","","","<div class='trialBorder'><div class='vertical-center'><img src='img/fixation2_sml.jpg'</img></div></div>","null","DELAY","","","","","","","","","","",""
"html-keyboard-response","22","123720","0.0-5.0-4.3","63d7a9346e833b93500723d4","bdp_wmem","Tue Mar 14 2023 21:02:32 GMT-0400 (Eastern Daylight Time)","588093","Match,No Match","","1580","","","","","","<div class='trialBorder'><div class='targDiv'><div class='tc'><img class='introPic' src='trustrating_stim/white_mw091.bmp'><br><font color='green'><strong>Share</strong></font></div></div><div class='respDiv'><div class='respDivL'>Match<br>(e)</div><div class='respDivR'>No Match<br>(i)</div></div></div>","e","TARGET","1","trustrating_stim/white_mw091.bmp","1","Match","e","1500","trustrating_stim/white_mw091.bmp","green","Share","PRACTICE","1"
"html-keyboard-response","23","124220","0.0-5.0-5.3","63d7a9346e833b93500723d4","bdp_wmem","Tue Mar 14 2023 21:02:32 GMT-0400 (Eastern Daylight Time)","588093","Match,No Match","","null","","","","","","<div class='trialBorder'><div class='vertical-center'><img src='img/correct.jpg'></div><div class='respDiv'><div class='respDivL'><font style='color:orange'>Match<br>(e)</font></div><div class='respDivR'>No Match<br>(i)</div></div></div>","null","FEEDBACK","","","","","","","","","","",""
"html-keyboard-response","24","124721","0.0-5.0-1.4","63d7a9346e833b93500723d4","bdp_wmem","Tue Mar 14 2023 21:02:32 GMT-0400 (Eastern Daylight Time)","588093","Match,No Match","","null","","","","","","<div class='trialBorder'><div class='vertical-center'><img src='img/fixation2_sml.jpg'</img></div></div>","null","FIX","","","","","","","","","","",""
"html-keyboard-response","25","127723","0.0-5.0-2.4","63d7a9346e833b93500723d4","bdp_wmem","Tue Mar 14 2023 21:02:32 GMT-0400 (Eastern Daylight Time)","588093","Match,No Match","","null","","","","","","<div class='trialBorder'><div class='vertical-center'><img style='vertical-align:center; align:center' src='img/fixation2_sml.jpg'></div><div class='arrayDiv2'><div class='tl'><img class='introPic' src='trustrating_stim/white_mw010.bmp'><br><font color='green'><strong>Share</strong></font></div><div class='tr'><img class='introPic' src='trustrating_stim/white_mw003.bmp'><br><font color='red'><strong>Keep</strong></font></div></div></div>","null","ARRAY","2","trustrating_stim/white_mw010.bmp,trustrating_stim/white_mw003.bmp","1,0","Match","e","3000","","","","",""
"html-keyboard-response","26","131724","0.0-5.0-3.4","63d7a9346e833b93500723d4","bdp_wmem","Tue Mar 14 2023 21:02:32 GMT-0400 (Eastern Daylight Time)","588093","Match,No Match","","null","","","","","","<div class='trialBorder'><div class='vertical-center'><img src='img/fixation2_sml.jpg'</img></div></div>","null","DELAY","","","","","","","","","","",""
"html-keyboard-response","27","132528","0.0-5.0-4.4","63d7a9346e833b93500723d4","bdp_wmem","Tue Mar 14 2023 21:02:32 GMT-0400 (Eastern Daylight Time)","588093","Match,No Match","","804","","","","","","<div class='trialBorder'><div class='targDiv'><div class='tc'><img class='introPic' src='trustrating_stim/white_mw003.bmp'><br><font color='red'><strong>Keep</strong></font></div></div><div class='respDiv'><div class='respDivL'>Match<br>(e)</div><div class='respDivR'>No Match<br>(i)</div></div></div>","i","TARGET","2","trustrating_stim/white_mw010.bmp,trustrating_stim/white_mw003.bmp","1,0","Match","e","3000","trustrating_stim/white_mw003.bmp","red","Keep","PRACTICE","0"
"html-keyboard-response","28","133030","0.0-5.0-5.4","63d7a9346e833b93500723d4","bdp_wmem","Tue Mar 14 2023 21:02:32 GMT-0400 (Eastern Daylight Time)","588093","Match,No Match","","null","","","","","","<div class='trialBorder'><div class='vertical-center'><img src='img/error.jpg'></div><div class='respDiv'><div class='respDivL'>Match<br>(e)</div><div class='respDivR'><font style='color:orange'>No Match<br>(i)</font></div></div></div>","null","FEEDBACK","","","","","","","","","","",""
"html-keyboard-response","29","133530","0.0-5.0-1.5","63d7a9346e833b93500723d4","bdp_wmem","Tue Mar 14 2023 21:02:32 GMT-0400 (Eastern Daylight Time)","588093","Match,No Match","","null","","","","","","<div class='trialBorder'><div class='vertical-center'><img src='img/fixation2_sml.jpg'</img></div></div>","null","FIX","","","","","","","","","","",""
"html-keyboard-response","30","138032","0.0-5.0-2.5","63d7a9346e833b93500723d4","bdp_wmem","Tue Mar 14 2023 21:02:32 GMT-0400 (Eastern Daylight Time)","588093","Match,No Match","","null","","","","","","<div class='trialBorder'><div class='vertical-center'><img style='vertical-align:center; align:center' src='img/fixation2_sml.jpg'></div><div class='arrayDiv3'><div class='tl'><img class='introPic' src='trustrating_stim/white_mw092.bmp'><br><font color='green'><strong>Share</strong></font></div><div class='tc'><img class='introPic' src='trustrating_stim/white_mw013.bmp'><br><font color='red'><strong>Keep</strong></font></div><div class='tr'><img class='introPic' src='trustrating_stim/white_mw091.bmp'><br><font color='green'><strong>Share</strong></font></div></div></div>","null","ARRAY","3","trustrating_stim/white_mw092.bmp,trustrating_stim/white_mw013.bmp,trustrating_stim/white_mw091.bmp","1,0,1","Match","e","4500","","","","",""
"html-keyboard-response","31","142033","0.0-5.0-3.5","63d7a9346e833b93500723d4","bdp_wmem","Tue Mar 14 2023 21:02:32 GMT-0400 (Eastern Daylight Time)","588093","Match,No Match","","null","","","","","","<div class='trialBorder'><div class='vertical-center'><img src='img/fixation2_sml.jpg'</img></div></div>","null","DELAY","","","","","","","","","","",""
"html-keyboard-response","32","143168","0.0-5.0-4.5","63d7a9346e833b93500723d4","bdp_wmem","Tue Mar 14 2023 21:02:32 GMT-0400 (Eastern Daylight Time)","588093","Match,No Match","","1133","","","","","","<div class='trialBorder'><div class='targDiv'><div class='tc'><img class='introPic' src='trustrating_stim/white_mw013.bmp'><br><font color='red'><strong>Keep</strong></font></div></div><div class='respDiv'><div class='respDivL'>Match<br>(e)</div><div class='respDivR'>No Match<br>(i)</div></div></div>","e","TARGET","3","trustrating_stim/white_mw092.bmp,trustrating_stim/white_mw013.bmp,trustrating_stim/white_mw091.bmp","1,0,1","Match","e","4500","trustrating_stim/white_mw013.bmp","red","Keep","PRACTICE","1"
"html-keyboard-response","33","143669","0.0-5.0-5.5","63d7a9346e833b93500723d4","bdp_wmem","Tue Mar 14 2023 21:02:32 GMT-0400 (Eastern Daylight Time)","588093","Match,No Match","","null","","","","","","<div class='trialBorder'><div class='vertical-center'><img src='img/correct.jpg'></div><div class='respDiv'><div class='respDivL'><font style='color:orange'>Match<br>(e)</font></div><div class='respDivR'>No Match<br>(i)</div></div></div>","null","FEEDBACK","","","","","","","","","","",""
"instructions","34","149801","0.0-6.0","63d7a9346e833b93500723d4","bdp_wmem","Tue Mar 14 2023 21:02:32 GMT-0400 (Eastern Daylight Time)","588093","Match,No Match","[{""page_index"":0,""viewing_time"":6132}]","6132","","","","","","","","","","","","","","","","","","",""
"html-keyboard-response","35","150302","0.0-7.0-1.0","63d7a9346e833b93500723d4","bdp_wmem","Tue Mar 14 2023 21:02:32 GMT-0400 (Eastern Daylight Time)","588093","Match,No Match","","null","","","","","","<div class='trialBorder'><div class='vertical-center'><img src='img/fixation2_sml.jpg'</img></div></div>","null","FIX","","","","","","","","","","",""
"html-keyboard-response","36","154804","0.0-7.0-2.0","63d7a9346e833b93500723d4","bdp_wmem","Tue Mar 14 2023 21:02:32 GMT-0400 (Eastern Daylight Time)","588093","Match,No Match","","null","","","","","","<div class='trialBorder'><div class='vertical-center'><img style='vertical-align:center; align:center' src='img/fixation2_sml.jpg'></div><div class='arrayDiv3'><div class='tl'><img class='introPic' src='trustrating_stim/white_mw038.bmp'><br><font color='green'><strong>Share</strong></font></div><div class='tc'><img class='introPic' src='trustrating_stim/white_mw070.bmp'><br><font color='green'><strong>Share</strong></font></div><div class='tr'><img class='introPic' src='trustrating_stim/white_mw040.bmp'><br><font color='red'><strong>Keep</strong></font></div></div></div>","null","ARRAY","3","trustrating_stim/white_mw038.bmp,trustrating_stim/white_mw070.bmp,trustrating_stim/white_mw040.bmp","1,1,0","Match","e","4500","","","","",""
"html-keyboard-response","37","158805","0.0-7.0-3.0","63d7a9346e833b93500723d4","bdp_wmem","Tue Mar 14 2023 21:02:32 GMT-0400 (Eastern Daylight Time)","588093","Match,No Match","","null","","","","","","<div class='trialBorder'><div class='vertical-center'><img src='img/fixation2_sml.jpg'</img></div></div>","null","DELAY","","","","","","","","","","",""
"html-keyboard-response","38","159761","0.0-7.0-4.0","63d7a9346e833b93500723d4","bdp_wmem","Tue Mar 14 2023 21:02:32 GMT-0400 (Eastern Daylight Time)","588093","Match,No Match","","955","","","","","","<div class='trialBorder'><div class='targDiv'><div class='tc'><img class='introPic' src='trustrating_stim/white_mw040.bmp'><br><font color='red'><strong>Keep</strong></font></div></div><div class='respDiv'><div class='respDivL'>Match<br>(e)</div><div class='respDivR'>No Match<br>(i)</div></div></div>","i","TARGET","3","trustrating_stim/white_mw038.bmp,trustrating_stim/white_mw070.bmp,trustrating_stim/white_mw040.bmp","1,1,0","Match","e","4500","trustrating_stim/white_mw040.bmp","red","Keep","REAL","0"
"html-keyboard-response","39","160263","0.0-7.0-5.0","63d7a9346e833b93500723d4","bdp_wmem","Tue Mar 14 2023 21:02:32 GMT-0400 (Eastern Daylight Time)","588093","Match,No Match","","null","","","","","","<div class='trialBorder'><div class='vertical-center'><img src='img/error.jpg'></div><div class='respDiv'><div class='respDivL'>Match<br>(e)</div><div class='respDivR'><font style='color:orange'>No Match<br>(i)</font></div></div></div>","null","FEEDBACK","","","","","","","","","","",""
"html-keyboard-response","40","160764","0.0-7.0-1.1","63d7a9346e833b93500723d4","bdp_wmem","Tue Mar 14 2023 21:02:32 GMT-0400 (Eastern Daylight Time)","588093","Match,No Match","","null","","","","","","<div class='trialBorder'><div class='vertical-center'><img src='img/fixation2_sml.jpg'</img></div></div>","null","FIX","","","","","","","","","","",""
"html-keyboard-response","41","163765","0.0-7.0-2.1","63d7a9346e833b93500723d4","bdp_wmem","Tue Mar 14 2023 21:02:32 GMT-0400 (Eastern Daylight Time)","588093","Match,No Match","","null","","","","","","<div class='trialBorder'><div class='vertical-center'><img style='vertical-align:center; align:center' src='img/fixation2_sml.jpg'></div><div class='arrayDiv2'><div class='tl'><img class='introPic' src='trustrating_stim/white_mw085.bmp'><br><font color='red'><strong>Keep</strong></font></div><div class='tr'><img class='introPic' src='trustrating_stim/white_mw040.bmp'><br><font color='green'><strong>Share</strong></font></div></div></div>","null","ARRAY","2","trustrating_stim/white_mw085.bmp,trustrating_stim/white_mw040.bmp","0,1","noMatchOutcome","i","3000","","","","",""
"html-keyboard-response","42","167766","0.0-7.0-3.1","63d7a9346e833b93500723d4","bdp_wmem","Tue Mar 14 2023 21:02:32 GMT-0400 (Eastern Daylight Time)","588093","Match,No Match","","null","","","","","","<div class='trialBorder'><div class='vertical-center'><img src='img/fixation2_sml.jpg'</img></div></div>","null","DELAY","","","","","","","","","","",""
"html-keyboard-response","43","168247","0.0-7.0-4.1","63d7a9346e833b93500723d4","bdp_wmem","Tue Mar 14 2023 21:02:32 GMT-0400 (Eastern Daylight Time)","588093","Match,No Match","","481","","","","","","<div class='trialBorder'><div class='targDiv'><div class='tc'><img class='introPic' src='trustrating_stim/white_mw085.bmp'><br><font color='green'><strong>Share</strong></font></div></div><div class='respDiv'><div class='respDivL'>Match<br>(e)</div><div class='respDivR'>No Match<br>(i)</div></div></div>","e","TARGET","2","trustrating_stim/white_mw085.bmp,trustrating_stim/white_mw040.bmp","0,1","noMatchOutcome","i","3000","trustrating_stim/white_mw085.bmp","green","Share","REAL","0"
"html-keyboard-response","44","168750","0.0-7.0-5.1","63d7a9346e833b93500723d4","bdp_wmem","Tue Mar 14 2023 21:02:32 GMT-0400 (Eastern Daylight Time)","588093","Match,No Match","","null","","","","","","<div class='trialBorder'><div class='vertical-center'><img src='img/error.jpg'></div><div class='respDiv'><div class='respDivL'><font style='color:orange'>Match<br>(e)</font></div><div class='respDivR'>No Match<br>(i)</div></div></div>","null","FEEDBACK","","","","","","","","","","",""
"html-keyboard-response","45","169251","0.0-7.0-1.2","63d7a9346e833b93500723d4","bdp_wmem","Tue Mar 14 2023 21:02:32 GMT-0400 (Eastern Daylight Time)","588093","Match,No Match","","null","","","","","","<div class='trialBorder'><div class='vertical-center'><img src='img/fixation2_sml.jpg'</img></div></div>","null","FIX","","","","","","","","","","",""
"html-keyboard-response","46","170753","0.0-7.0-2.2","63d7a9346e833b93500723d4","bdp_wmem","Tue Mar 14 2023 21:02:32 GMT-0400 (Eastern Daylight Time)","588093","Match,No Match","","null","","","","","","<div class='trialBorder'><div class='vertical-center'><img style='vertical-align:center; align:center' src='img/fixation2_sml.jpg'></div><div class='arrayDiv1'><div class='tc'><img class='introPic' src='trustrating_stim/white_mw092.bmp'><br><font color='red'><strong>Keep</strong></font></div></div></div>","null","ARRAY","1","trustrating_stim/white_mw092.bmp","0","Match","e","1500","","","","",""
"html-keyboard-response","47","174755","0.0-7.0-3.2","63d7a9346e833b93500723d4","bdp_wmem","Tue Mar 14 2023 21:02:32 GMT-0400 (Eastern Daylight Time)","588093","Match,No Match","","null","","","","","","<div class='trialBorder'><div class='vertical-center'><img src='img/fixation2_sml.jpg'</img></div></div>","null","DELAY","","","","","","","","","","",""
"html-keyboard-response","48","175360","0.0-7.0-4.2","63d7a9346e833b93500723d4","bdp_wmem","Tue Mar 14 2023 21:02:32 GMT-0400 (Eastern Daylight Time)","588093","Match,No Match","","605","","","","","","<div class='trialBorder'><div class='targDiv'><div class='tc'><img class='introPic' src='trustrating_stim/white_mw092.bmp'><br><font color='red'><strong>Keep</strong></font></div></div><div class='respDiv'><div class='respDivL'>Match<br>(e)</div><div class='respDivR'>No Match<br>(i)</div></div></div>","e","TARGET","1","trustrating_stim/white_mw092.bmp","0","Match","e","1500","trustrating_stim/white_mw092.bmp","red","Keep","REAL","1"
"html-keyboard-response","49","175861","0.0-7.0-5.2","63d7a9346e833b93500723d4","bdp_wmem","Tue Mar 14 2023 21:02:32 GMT-0400 (Eastern Daylight Time)","588093","Match,No Match","","null","","","","","","<div class='trialBorder'><div class='vertical-center'><img src='img/correct.jpg'></div><div class='respDiv'><div class='respDivL'><font style='color:orange'>Match<br>(e)</font></div><div class='respDivR'>No Match<br>(i)</div></div></div>","null","FEEDBACK","","","","","","","","","","",""
"html-keyboard-response","50","176362","0.0-7.0-1.3","63d7a9346e833b93500723d4","bdp_wmem","Tue Mar 14 2023 21:02:32 GMT-0400 (Eastern Daylight Time)","588093","Match,No Match","","null","","","","","","<div class='trialBorder'><div class='vertical-center'><img src='img/fixation2_sml.jpg'</img></div></div>","null","FIX","","","","","","","","","","",""
"html-keyboard-response","51","180864","0.0-7.0-2.3","63d7a9346e833b93500723d4","bdp_wmem","Tue Mar 14 2023 21:02:32 GMT-0400 (Eastern Daylight Time)","588093","Match,No Match","","null","","","","","","<div class='trialBorder'><div class='vertical-center'><img style='vertical-align:center; align:center' src='img/fixation2_sml.jpg'></div><div class='arrayDiv3'><div class='tl'><img class='introPic' src='trustrating_stim/white_mw085.bmp'><br><font color='green'><strong>Share</strong></font></div><div class='tc'><img class='introPic' src='trustrating_stim/white_mw070.bmp'><br><font color='red'><strong>Keep</strong></font></div><div class='tr'><img class='introPic' src='trustrating_stim/white_mw078.bmp'><br><font color='green'><strong>Share</strong></font></div></div></div>","null","ARRAY","3","trustrating_stim/white_mw085.bmp,trustrating_stim/white_mw070.bmp,trustrating_stim/white_mw078.bmp","1,0,1","noMatchFace","i","4500","","","","",""
"html-keyboard-response","52","184865","0.0-7.0-3.3","63d7a9346e833b93500723d4","bdp_wmem","Tue Mar 14 2023 21:02:32 GMT-0400 (Eastern Daylight Time)","588093","Match,No Match","","null","","","","","","<div class='trialBorder'><div class='vertical-center'><img src='img/fixation2_sml.jpg'</img></div></div>","null","DELAY","","","","","","","","","","",""
"html-keyboard-response","53","185777","0.0-7.0-4.3","63d7a9346e833b93500723d4","bdp_wmem","Tue Mar 14 2023 21:02:32 GMT-0400 (Eastern Daylight Time)","588093","Match,No Match","","911","","","","","","<div class='trialBorder'><div class='targDiv'><div class='tc'><img class='introPic' src='trustrating_stim/white_mw091.bmp'><br><font color='green'><strong>Share</strong></font></div></div><div class='respDiv'><div class='respDivL'>Match<br>(e)</div><div class='respDivR'>No Match<br>(i)</div></div></div>","i","TARGET","3","trustrating_stim/white_mw085.bmp,trustrating_stim/white_mw070.bmp,trustrating_stim/white_mw078.bmp","1,0,1","noMatchFace","i","4500","trustrating_stim/white_mw091.bmp","green","Share","REAL","1"
"html-keyboard-response","54","186277","0.0-7.0-5.3","63d7a9346e833b93500723d4","bdp_wmem","Tue Mar 14 2023 21:02:32 GMT-0400 (Eastern Daylight Time)","588093","Match,No Match","","null","","","","","","<div class='trialBorder'><div class='vertical-center'><img src='img/correct.jpg'></div><div class='respDiv'><div class='respDivL'>Match<br>(e)</div><div class='respDivR'><font style='color:orange'>No Match<br>(i)</font></div></div></div>","null","FEEDBACK","","","","","","","","","","",""
"html-keyboard-response","55","186779","0.0-7.0-1.4","63d7a9346e833b93500723d4","bdp_wmem","Tue Mar 14 2023 21:02:32 GMT-0400 (Eastern Daylight Time)","588093","Match,No Match","","null","","","","","","<div class='trialBorder'><div class='vertical-center'><img src='img/fixation2_sml.jpg'</img></div></div>","null","FIX","","","","","","","","","","",""
"html-keyboard-response","56","191281","0.0-7.0-2.4","63d7a9346e833b93500723d4","bdp_wmem","Tue Mar 14 2023 21:02:32 GMT-0400 (Eastern Daylight Time)","588093","Match,No Match","","null","","","","","","<div class='trialBorder'><div class='vertical-center'><img style='vertical-align:center; align:center' src='img/fixation2_sml.jpg'></div><div class='arrayDiv3'><div class='tl'><img class='introPic' src='trustrating_stim/white_mw092.bmp'><br><font color='red'><strong>Keep</strong></font></div><div class='tc'><img class='introPic' src='trustrating_stim/white_mw010.bmp'><br><font color='green'><strong>Share</strong></font></div><div class='tr'><img class='introPic' src='trustrating_stim/white_mw085.bmp'><br><font color='red'><strong>Keep</strong></font></div></div></div>","null","ARRAY","3","trustrating_stim/white_mw092.bmp,trustrating_stim/white_mw010.bmp,trustrating_stim/white_mw085.bmp","0,1,0","noMatchFace","i","4500","","","","",""
"html-keyboard-response","57","195281","0.0-7.0-3.4","63d7a9346e833b93500723d4","bdp_wmem","Tue Mar 14 2023 21:02:32 GMT-0400 (Eastern Daylight Time)","588093","Match,No Match","","null","","","","","","<div class='trialBorder'><div class='vertical-center'><img src='img/fixation2_sml.jpg'</img></div></div>","null","DELAY","","","","","","","","","","",""
"html-keyboard-response","58","196144","0.0-7.0-4.4","63d7a9346e833b93500723d4","bdp_wmem","Tue Mar 14 2023 21:02:32 GMT-0400 (Eastern Daylight Time)","588093","Match,No Match","","862","","","","","","<div class='trialBorder'><div class='targDiv'><div class='tc'><img class='introPic' src='trustrating_stim/white_mw070.bmp'><br><font color='red'><strong>Keep</strong></font></div></div><div class='respDiv'><div class='respDivL'>Match<br>(e)</div><div class='respDivR'>No Match<br>(i)</div></div></div>","i","TARGET","3","trustrating_stim/white_mw092.bmp,trustrating_stim/white_mw010.bmp,trustrating_stim/white_mw085.bmp","0,1,0","noMatchFace","i","4500","trustrating_stim/white_mw070.bmp","red","Keep","REAL","1"
"html-keyboard-response","59","196646","0.0-7.0-5.4","63d7a9346e833b93500723d4","bdp_wmem","Tue Mar 14 2023 21:02:32 GMT-0400 (Eastern Daylight Time)","588093","Match,No Match","","null","","","","","","<div class='trialBorder'><div class='vertical-center'><img src='img/correct.jpg'></div><div class='respDiv'><div class='respDivL'>Match<br>(e)</div><div class='respDivR'><font style='color:orange'>No Match<br>(i)</font></div></div></div>","null","FEEDBACK","","","","","","","","","","",""
"html-keyboard-response","60","197148","0.0-7.0-1.5","63d7a9346e833b93500723d4","bdp_wmem","Tue Mar 14 2023 21:02:32 GMT-0400 (Eastern Daylight Time)","588093","Match,No Match","","null","","","","","","<div class='trialBorder'><div class='vertical-center'><img src='img/fixation2_sml.jpg'</img></div></div>","null","FIX","","","","","","","","","","",""
"html-keyboard-response","61","201650","0.0-7.0-2.5","63d7a9346e833b93500723d4","bdp_wmem","Tue Mar 14 2023 21:02:32 GMT-0400 (Eastern Daylight Time)","588093","Match,No Match","","null","","","","","","<div class='trialBorder'><div class='vertical-center'><img style='vertical-align:center; align:center' src='img/fixation2_sml.jpg'></div><div class='arrayDiv3'><div class='tl'><img class='introPic' src='trustrating_stim/white_mw042.bmp'><br><font color='green'><strong>Share</strong></font></div><div class='tc'><img class='introPic' src='trustrating_stim/white_mw003.bmp'><br><font color='red'><strong>Keep</strong></font></div><div class='tr'><img class='introPic' src='trustrating_stim/white_mw010.bmp'><br><font color='red'><strong>Keep</strong></font></div></div></div>","null","ARRAY","3","trustrating_stim/white_mw042.bmp,trustrating_stim/white_mw003.bmp,trustrating_stim/white_mw010.bmp","1,0,0","noMatchFace","i","4500","","","","",""
"html-keyboard-response","62","205652","0.0-7.0-3.5","63d7a9346e833b93500723d4","bdp_wmem","Tue Mar 14 2023 21:02:32 GMT-0400 (Eastern Daylight Time)","588093","Match,No Match","","null","","","","","","<div class='trialBorder'><div class='vertical-center'><img src='img/fixation2_sml.jpg'</img></div></div>","null","DELAY","","","","","","","","","","",""
"html-keyboard-response","63","206240","0.0-7.0-4.5","63d7a9346e833b93500723d4","bdp_wmem","Tue Mar 14 2023 21:02:32 GMT-0400 (Eastern Daylight Time)","588093","Match,No Match","","588","","","","","","<div class='trialBorder'><div class='targDiv'><div class='tc'><img class='introPic' src='trustrating_stim/white_mw091.bmp'><br><font color='green'><strong>Share</strong></font></div></div><div class='respDiv'><div class='respDivL'>Match<br>(e)</div><div class='respDivR'>No Match<br>(i)</div></div></div>","i","TARGET","3","trustrating_stim/white_mw042.bmp,trustrating_stim/white_mw003.bmp,trustrating_stim/white_mw010.bmp","1,0,0","noMatchFace","i","4500","trustrating_stim/white_mw091.bmp","green","Share","REAL","1"
"html-keyboard-response","64","206740","0.0-7.0-5.5","63d7a9346e833b93500723d4","bdp_wmem","Tue Mar 14 2023 21:02:32 GMT-0400 (Eastern Daylight Time)","588093","Match,No Match","","null","","","","","","<div class='trialBorder'><div class='vertical-center'><img src='img/correct.jpg'></div><div class='respDiv'><div class='respDivL'>Match<br>(e)</div><div class='respDivR'><font style='color:orange'>No Match<br>(i)</font></div></div></div>","null","FEEDBACK","","","","","","","","","","",""
"html-keyboard-response","65","207241","0.0-7.0-1.6","63d7a9346e833b93500723d4","bdp_wmem","Tue Mar 14 2023 21:02:32 GMT-0400 (Eastern Daylight Time)","588093","Match,No Match","","null","","","","","","<div class='trialBorder'><div class='vertical-center'><img src='img/fixation2_sml.jpg'</img></div></div>","null","FIX","","","","","","","","","","",""
"html-keyboard-response","66","211743","0.0-7.0-2.6","63d7a9346e833b93500723d4","bdp_wmem","Tue Mar 14 2023 21:02:32 GMT-0400 (Eastern Daylight Time)","588093","Match,No Match","","null","","","","","","<div class='trialBorder'><div class='vertical-center'><img style='vertical-align:center; align:center' src='img/fixation2_sml.jpg'></div><div class='arrayDiv3'><div class='tl'><img class='introPic' src='trustrating_stim/white_mw012.bmp'><br><font color='green'><strong>Share</strong></font></div><div class='tc'><img class='introPic' src='trustrating_stim/white_mw040.bmp'><br><font color='green'><strong>Share</strong></font></div><div class='tr'><img class='introPic' src='trustrating_stim/white_mw078.bmp'><br><font color='red'><strong>Keep</strong></font></div></div></div>","null","ARRAY","3","trustrating_stim/white_mw012.bmp,trustrating_stim/white_mw040.bmp,trustrating_stim/white_mw078.bmp","1,1,0","Match","e","4500","","","","",""
"html-keyboard-response","67","215744","0.0-7.0-3.6","63d7a9346e833b93500723d4","bdp_wmem","Tue Mar 14 2023 21:02:32 GMT-0400 (Eastern Daylight Time)","588093","Match,No Match","","null","","","","","","<div class='trialBorder'><div class='vertical-center'><img src='img/fixation2_sml.jpg'</img></div></div>","null","DELAY","","","","","","","","","","",""
"html-keyboard-response","68","216992","0.0-7.0-4.6","63d7a9346e833b93500723d4","bdp_wmem","Tue Mar 14 2023 21:02:32 GMT-0400 (Eastern Daylight Time)","588093","Match,No Match","","1247","","","","","","<div class='trialBorder'><div class='targDiv'><div class='tc'><img class='introPic' src='trustrating_stim/white_mw040.bmp'><br><font color='green'><strong>Share</strong></font></div></div><div class='respDiv'><div class='respDivL'>Match<br>(e)</div><div class='respDivR'>No Match<br>(i)</div></div></div>","i","TARGET","3","trustrating_stim/white_mw012.bmp,trustrating_stim/white_mw040.bmp,trustrating_stim/white_mw078.bmp","1,1,0","Match","e","4500","trustrating_stim/white_mw040.bmp","green","Share","REAL","0"
"html-keyboard-response","69","217493","0.0-7.0-5.6","63d7a9346e833b93500723d4","bdp_wmem","Tue Mar 14 2023 21:02:32 GMT-0400 (Eastern Daylight Time)","588093","Match,No Match","","null","","","","","","<div class='trialBorder'><div class='vertical-center'><img src='img/error.jpg'></div><div class='respDiv'><div class='respDivL'>Match<br>(e)</div><div class='respDivR'><font style='color:orange'>No Match<br>(i)</font></div></div></div>","null","FEEDBACK","","","","","","","","","","",""
"html-keyboard-response","70","217994","0.0-7.0-1.7","63d7a9346e833b93500723d4","bdp_wmem","Tue Mar 14 2023 21:02:32 GMT-0400 (Eastern Daylight Time)","588093","Match,No Match","","null","","","","","","<div class='trialBorder'><div class='vertical-center'><img src='img/fixation2_sml.jpg'</img></div></div>","null","FIX","","","","","","","","","","",""
"html-keyboard-response","71","222495","0.0-7.0-2.7","63d7a9346e833b93500723d4","bdp_wmem","Tue Mar 14 2023 21:02:32 GMT-0400 (Eastern Daylight Time)","588093","Match,No Match","","null","","","","","","<div class='trialBorder'><div class='vertical-center'><img style='vertical-align:center; align:center' src='img/fixation2_sml.jpg'></div><div class='arrayDiv3'><div class='tl'><img class='introPic' src='trustrating_stim/white_mw040.bmp'><br><font color='green'><strong>Share</strong></font></div><div class='tc'><img class='introPic' src='trustrating_stim/white_mw070.bmp'><br><font color='green'><strong>Share</strong></font></div><div class='tr'><img class='introPic' src='trustrating_stim/white_mw085.bmp'><br><font color='red'><strong>Keep</strong></font></div></div></div>","null","ARRAY","3","trustrating_stim/white_mw040.bmp,trustrating_stim/white_mw070.bmp,trustrating_stim/white_mw085.bmp","1,1,0","Match","e","4500","","","","",""
"html-keyboard-response","72","226496","0.0-7.0-3.7","63d7a9346e833b93500723d4","bdp_wmem","Tue Mar 14 2023 21:02:32 GMT-0400 (Eastern Daylight Time)","588093","Match,No Match","","null","","","","","","<div class='trialBorder'><div class='vertical-center'><img src='img/fixation2_sml.jpg'</img></div></div>","null","DELAY","","","","","","","","","","",""
"html-keyboard-response","73","227024","0.0-7.0-4.7","63d7a9346e833b93500723d4","bdp_wmem","Tue Mar 14 2023 21:02:32 GMT-0400 (Eastern Daylight Time)","588093","Match,No Match","","528","","","","","","<div class='trialBorder'><div class='targDiv'><div class='tc'><img class='introPic' src='trustrating_stim/white_mw040.bmp'><br><font color='green'><strong>Share</strong></font></div></div><div class='respDiv'><div class='respDivL'>Match<br>(e)</div><div class='respDivR'>No Match<br>(i)</div></div></div>","e","TARGET","3","trustrating_stim/white_mw040.bmp,trustrating_stim/white_mw070.bmp,trustrating_stim/white_mw085.bmp","1,1,0","Match","e","4500","trustrating_stim/white_mw040.bmp","green","Share","REAL","1"
"html-keyboard-response","74","227525","0.0-7.0-5.7","63d7a9346e833b93500723d4","bdp_wmem","Tue Mar 14 2023 21:02:32 GMT-0400 (Eastern Daylight Time)","588093","Match,No Match","","null","","","","","","<div class='trialBorder'><div class='vertical-center'><img src='img/correct.jpg'></div><div class='respDiv'><div class='respDivL'><font style='color:orange'>Match<br>(e)</font></div><div class='respDivR'>No Match<br>(i)</div></div></div>","null","FEEDBACK","","","","","","","","","","",""
"html-keyboard-response","75","228027","0.0-7.0-1.8","63d7a9346e833b93500723d4","bdp_wmem","Tue Mar 14 2023 21:02:32 GMT-0400 (Eastern Daylight Time)","588093","Match,No Match","","null","","","","","","<div class='trialBorder'><div class='vertical-center'><img src='img/fixation2_sml.jpg'</img></div></div>","null","FIX","","","","","","","","","","",""
"html-keyboard-response","76","232529","0.0-7.0-2.8","63d7a9346e833b93500723d4","bdp_wmem","Tue Mar 14 2023 21:02:32 GMT-0400 (Eastern Daylight Time)","588093","Match,No Match","","null","","","","","","<div class='trialBorder'><div class='vertical-center'><img style='vertical-align:center; align:center' src='img/fixation2_sml.jpg'></div><div class='arrayDiv3'><div class='tl'><img class='introPic' src='trustrating_stim/white_mw092.bmp'><br><font color='red'><strong>Keep</strong></font></div><div class='tc'><img class='introPic' src='trustrating_stim/white_mw070.bmp'><br><font color='red'><strong>Keep</strong></font></div><div class='tr'><img class='introPic' src='trustrating_stim/white_mw013.bmp'><br><font color='green'><strong>Share</strong></font></div></div></div>","null","ARRAY","3","trustrating_stim/white_mw092.bmp,trustrating_stim/white_mw070.bmp,trustrating_stim/white_mw013.bmp","0,0,1","noMatchOutcome","i","4500","","","","",""
"html-keyboard-response","77","236531","0.0-7.0-3.8","63d7a9346e833b93500723d4","bdp_wmem","Tue Mar 14 2023 21:02:32 GMT-0400 (Eastern Daylight Time)","588093","Match,No Match","","null","","","","","","<div class='trialBorder'><div class='vertical-center'><img src='img/fixation2_sml.jpg'</img></div></div>","null","DELAY","","","","","","","","","","",""
"html-keyboard-response","78","237808","0.0-7.0-4.8","63d7a9346e833b93500723d4","bdp_wmem","Tue Mar 14 2023 21:02:32 GMT-0400 (Eastern Daylight Time)","588093","Match,No Match","","1276","","","","","","<div class='trialBorder'><div class='targDiv'><div class='tc'><img class='introPic' src='trustrating_stim/white_mw070.bmp'><br><font color='green'><strong>Share</strong></font></div></div><div class='respDiv'><div class='respDivL'>Match<br>(e)</div><div class='respDivR'>No Match<br>(i)</div></div></div>","e","TARGET","3","trustrating_stim/white_mw092.bmp,trustrating_stim/white_mw070.bmp,trustrating_stim/white_mw013.bmp","0,0,1","noMatchOutcome","i","4500","trustrating_stim/white_mw070.bmp","green","Share","REAL","0"
"html-keyboard-response","79","238309","0.0-7.0-5.8","63d7a9346e833b93500723d4","bdp_wmem","Tue Mar 14 2023 21:02:32 GMT-0400 (Eastern Daylight Time)","588093","Match,No Match","","null","","","","","","<div class='trialBorder'><div class='vertical-center'><img src='img/error.jpg'></div><div class='respDiv'><div class='respDivL'><font style='color:orange'>Match<br>(e)</font></div><div class='respDivR'>No Match<br>(i)</div></div></div>","null","FEEDBACK","","","","","","","","","","",""
"html-keyboard-response","80","238811","0.0-7.0-1.9","63d7a9346e833b93500723d4","bdp_wmem","Tue Mar 14 2023 21:02:32 GMT-0400 (Eastern Daylight Time)","588093","Match,No Match","","null","","","","","","<div class='trialBorder'><div class='vertical-center'><img src='img/fixation2_sml.jpg'</img></div></div>","null","FIX","","","","","","","","","","",""
"html-keyboard-response","81","240312","0.0-7.0-2.9","63d7a9346e833b93500723d4","bdp_wmem","Tue Mar 14 2023 21:02:32 GMT-0400 (Eastern Daylight Time)","588093","Match,No Match","","null","","","","","","<div class='trialBorder'><div class='vertical-center'><img style='vertical-align:center; align:center' src='img/fixation2_sml.jpg'></div><div class='arrayDiv1'><div class='tc'><img class='introPic' src='trustrating_stim/white_mw078.bmp'><br><font color='red'><strong>Keep</strong></font></div></div></div>","null","ARRAY","1","trustrating_stim/white_mw078.bmp","0","Match","e","1500","","","","",""
"html-keyboard-response","82","244313","0.0-7.0-3.9","63d7a9346e833b93500723d4","bdp_wmem","Tue Mar 14 2023 21:02:32 GMT-0400 (Eastern Daylight Time)","588093","Match,No Match","","null","","","","","","<div class='trialBorder'><div class='vertical-center'><img src='img/fixation2_sml.jpg'</img></div></div>","null","DELAY","","","","","","","","","","",""
"html-keyboard-response","83","245463","0.0-7.0-4.9","63d7a9346e833b93500723d4","bdp_wmem","Tue Mar 14 2023 21:02:32 GMT-0400 (Eastern Daylight Time)","588093","Match,No Match","","1149","","","","","","<div class='trialBorder'><div class='targDiv'><div class='tc'><img class='introPic' src='trustrating_stim/white_mw078.bmp'><br><font color='red'><strong>Keep</strong></font></div></div><div class='respDiv'><div class='respDivL'>Match<br>(e)</div><div class='respDivR'>No Match<br>(i)</div></div></div>","i","TARGET","1","trustrating_stim/white_mw078.bmp","0","Match","e","1500","trustrating_stim/white_mw078.bmp","red","Keep","REAL","0"
"html-keyboard-response","84","245965","0.0-7.0-5.9","63d7a9346e833b93500723d4","bdp_wmem","Tue Mar 14 2023 21:02:32 GMT-0400 (Eastern Daylight Time)","588093","Match,No Match","","null","","","","","","<div class='trialBorder'><div class='vertical-center'><img src='img/error.jpg'></div><div class='respDiv'><div class='respDivL'>Match<br>(e)</div><div class='respDivR'><font style='color:orange'>No Match<br>(i)</font></div></div></div>","null","FEEDBACK","","","","","","","","","","",""
"html-keyboard-response","85","246466","0.0-7.0-1.10","63d7a9346e833b93500723d4","bdp_wmem","Tue Mar 14 2023 21:02:32 GMT-0400 (Eastern Daylight Time)","588093","Match,No Match","","null","","","","","","<div class='trialBorder'><div class='vertical-center'><img src='img/fixation2_sml.jpg'</img></div></div>","null","FIX","","","","","","","","","","",""
"html-keyboard-response","86","250967","0.0-7.0-2.10","63d7a9346e833b93500723d4","bdp_wmem","Tue Mar 14 2023 21:02:32 GMT-0400 (Eastern Daylight Time)","588093","Match,No Match","","null","","","","","","<div class='trialBorder'><div class='vertical-center'><img style='vertical-align:center; align:center' src='img/fixation2_sml.jpg'></div><div class='arrayDiv3'><div class='tl'><img class='introPic' src='trustrating_stim/white_mw092.bmp'><br><font color='red'><strong>Keep</strong></font></div><div class='tc'><img class='introPic' src='trustrating_stim/white_mw042.bmp'><br><font color='red'><strong>Keep</strong></font></div><div class='tr'><img class='introPic' src='trustrating_stim/white_mw070.bmp'><br><font color='green'><strong>Share</strong></font></div></div></div>","null","ARRAY","3","trustrating_stim/white_mw092.bmp,trustrating_stim/white_mw042.bmp,trustrating_stim/white_mw070.bmp","0,0,1","Match","e","4500","","","","",""
"html-keyboard-response","87","254969","0.0-7.0-3.10","63d7a9346e833b93500723d4","bdp_wmem","Tue Mar 14 2023 21:02:32 GMT-0400 (Eastern Daylight Time)","588093","Match,No Match","","null","","","","","","<div class='trialBorder'><div class='vertical-center'><img src='img/fixation2_sml.jpg'</img></div></div>","null","DELAY","","","","","","","","","","",""
"html-keyboard-response","88","255712","0.0-7.0-4.10","63d7a9346e833b93500723d4","bdp_wmem","Tue Mar 14 2023 21:02:32 GMT-0400 (Eastern Daylight Time)","588093","Match,No Match","","743","","","","","","<div class='trialBorder'><div class='targDiv'><div class='tc'><img class='introPic' src='trustrating_stim/white_mw092.bmp'><br><font color='red'><strong>Keep</strong></font></div></div><div class='respDiv'><div class='respDivL'>Match<br>(e)</div><div class='respDivR'>No Match<br>(i)</div></div></div>","i","TARGET","3","trustrating_stim/white_mw092.bmp,trustrating_stim/white_mw042.bmp,trustrating_stim/white_mw070.bmp","0,0,1","Match","e","4500","trustrating_stim/white_mw092.bmp","red","Keep","REAL","0"
"html-keyboard-response","89","256212","0.0-7.0-5.10","63d7a9346e833b93500723d4","bdp_wmem","Tue Mar 14 2023 21:02:32 GMT-0400 (Eastern Daylight Time)","588093","Match,No Match","","null","","","","","","<div class='trialBorder'><div class='vertical-center'><img src='img/error.jpg'></div><div class='respDiv'><div class='respDivL'>Match<br>(e)</div><div class='respDivR'><font style='color:orange'>No Match<br>(i)</font></div></div></div>","null","FEEDBACK","","","","","","","","","","",""
"html-keyboard-response","90","256714","0.0-7.0-1.11","63d7a9346e833b93500723d4","bdp_wmem","Tue Mar 14 2023 21:02:32 GMT-0400 (Eastern Daylight Time)","588093","Match,No Match","","null","","","","","","<div class='trialBorder'><div class='vertical-center'><img src='img/fixation2_sml.jpg'</img></div></div>","null","FIX","","","","","","","","","","",""
"html-keyboard-response","91","259716","0.0-7.0-2.11","63d7a9346e833b93500723d4","bdp_wmem","Tue Mar 14 2023 21:02:32 GMT-0400 (Eastern Daylight Time)","588093","Match,No Match","","null","","","","","","<div class='trialBorder'><div class='vertical-center'><img style='vertical-align:center; align:center' src='img/fixation2_sml.jpg'></div><div class='arrayDiv2'><div class='tl'><img class='introPic' src='trustrating_stim/white_mw042.bmp'><br><font color='red'><strong>Keep</strong></font></div><div class='tr'><img class='introPic' src='trustrating_stim/white_mw078.bmp'><br><font color='green'><strong>Share</strong></font></div></div></div>","null","ARRAY","2","trustrating_stim/white_mw042.bmp,trustrating_stim/white_mw078.bmp","0,1","noMatchFace","i","3000","","","","",""
"html-keyboard-response","92","263717","0.0-7.0-3.11","63d7a9346e833b93500723d4","bdp_wmem","Tue Mar 14 2023 21:02:32 GMT-0400 (Eastern Daylight Time)","588093","Match,No Match","","null","","","","","","<div class='trialBorder'><div class='vertical-center'><img src='img/fixation2_sml.jpg'</img></div></div>","null","DELAY","","","","","","","","","","",""
"html-keyboard-response","93","264720","0.0-7.0-4.11","63d7a9346e833b93500723d4","bdp_wmem","Tue Mar 14 2023 21:02:32 GMT-0400 (Eastern Daylight Time)","588093","Match,No Match","","1001","","","","","","<div class='trialBorder'><div class='targDiv'><div class='tc'><img class='introPic' src='trustrating_stim/white_mw010.bmp'><br><font color='red'><strong>Keep</strong></font></div></div><div class='respDiv'><div class='respDivL'>Match<br>(e)</div><div class='respDivR'>No Match<br>(i)</div></div></div>","i","TARGET","2","trustrating_stim/white_mw042.bmp,trustrating_stim/white_mw078.bmp","0,1","noMatchFace","i","3000","trustrating_stim/white_mw010.bmp","red","Keep","REAL","1"
"html-keyboard-response","94","265222","0.0-7.0-5.11","63d7a9346e833b93500723d4","bdp_wmem","Tue Mar 14 2023 21:02:32 GMT-0400 (Eastern Daylight Time)","588093","Match,No Match","","null","","","","","","<div class='trialBorder'><div class='vertical-center'><img src='img/correct.jpg'></div><div class='respDiv'><div class='respDivL'>Match<br>(e)</div><div class='respDivR'><font style='color:orange'>No Match<br>(i)</font></div></div></div>","null","FEEDBACK","","","","","","","","","","",""
"html-keyboard-response","95","265722","0.0-7.0-1.12","63d7a9346e833b93500723d4","bdp_wmem","Tue Mar 14 2023 21:02:32 GMT-0400 (Eastern Daylight Time)","588093","Match,No Match","","null","","","","","","<div class='trialBorder'><div class='vertical-center'><img src='img/fixation2_sml.jpg'</img></div></div>","null","FIX","","","","","","","","","","",""
"html-keyboard-response","96","267224","0.0-7.0-2.12","63d7a9346e833b93500723d4","bdp_wmem","Tue Mar 14 2023 21:02:32 GMT-0400 (Eastern Daylight Time)","588093","Match,No Match","","null","","","","","","<div class='trialBorder'><div class='vertical-center'><img style='vertical-align:center; align:center' src='img/fixation2_sml.jpg'></div><div class='arrayDiv1'><div class='tc'><img class='introPic' src='trustrating_stim/white_mw091.bmp'><br><font color='green'><strong>Share</strong></font></div></div></div>","null","ARRAY","1","trustrating_stim/white_mw091.bmp","1","Match","e","1500","","","","",""
"html-keyboard-response","97","271225","0.0-7.0-3.12","63d7a9346e833b93500723d4","bdp_wmem","Tue Mar 14 2023 21:02:32 GMT-0400 (Eastern Daylight Time)","588093","Match,No Match","","null","","","","","","<div class='trialBorder'><div class='vertical-center'><img src='img/fixation2_sml.jpg'</img></div></div>","null","DELAY","","","","","","","","","","",""
"html-keyboard-response","98","271664","0.0-7.0-4.12","63d7a9346e833b93500723d4","bdp_wmem","Tue Mar 14 2023 21:02:32 GMT-0400 (Eastern Daylight Time)","588093","Match,No Match","","438","","","","","","<div class='trialBorder'><div class='targDiv'><div class='tc'><img class='introPic' src='trustrating_stim/white_mw091.bmp'><br><font color='green'><strong>Share</strong></font></div></div><div class='respDiv'><div class='respDivL'>Match<br>(e)</div><div class='respDivR'>No Match<br>(i)</div></div></div>","e","TARGET","1","trustrating_stim/white_mw091.bmp","1","Match","e","1500","trustrating_stim/white_mw091.bmp","green","Share","REAL","1"
"html-keyboard-response","99","272165","0.0-7.0-5.12","63d7a9346e833b93500723d4","bdp_wmem","Tue Mar 14 2023 21:02:32 GMT-0400 (Eastern Daylight Time)","588093","Match,No Match","","null","","","","","","<div class='trialBorder'><div class='vertical-center'><img src='img/correct.jpg'></div><div class='respDiv'><div class='respDivL'><font style='color:orange'>Match<br>(e)</font></div><div class='respDivR'>No Match<br>(i)</div></div></div>","null","FEEDBACK","","","","","","","","","","",""
"html-keyboard-response","100","272666","0.0-7.0-1.13","63d7a9346e833b93500723d4","bdp_wmem","Tue Mar 14 2023 21:02:32 GMT-0400 (Eastern Daylight Time)","588093","Match,No Match","","null","","","","","","<div class='trialBorder'><div class='vertical-center'><img src='img/fixation2_sml.jpg'</img></div></div>","null","FIX","","","","","","","","","","",""
"html-keyboard-response","101","274168","0.0-7.0-2.13","63d7a9346e833b93500723d4","bdp_wmem","Tue Mar 14 2023 21:02:32 GMT-0400 (Eastern Daylight Time)","588093","Match,No Match","","null","","","","","","<div class='trialBorder'><div class='vertical-center'><img style='vertical-align:center; align:center' src='img/fixation2_sml.jpg'></div><div class='arrayDiv1'><div class='tc'><img class='introPic' src='trustrating_stim/white_mw092.bmp'><br><font color='green'><strong>Share</strong></font></div></div></div>","null","ARRAY","1","trustrating_stim/white_mw092.bmp","1","Match","e","1500","","","","",""
"html-keyboard-response","102","278169","0.0-7.0-3.13","63d7a9346e833b93500723d4","bdp_wmem","Tue Mar 14 2023 21:02:32 GMT-0400 (Eastern Daylight Time)","588093","Match,No Match","","null","","","","","","<div class='trialBorder'><div class='vertical-center'><img src='img/fixation2_sml.jpg'</img></div></div>","null","DELAY","","","","","","","","","","",""
"html-keyboard-response","103","278920","0.0-7.0-4.13","63d7a9346e833b93500723d4","bdp_wmem","Tue Mar 14 2023 21:02:32 GMT-0400 (Eastern Daylight Time)","588093","Match,No Match","","750","","","","","","<div class='trialBorder'><div class='targDiv'><div class='tc'><img class='introPic' src='trustrating_stim/white_mw092.bmp'><br><font color='green'><strong>Share</strong></font></div></div><div class='respDiv'><div class='respDivL'>Match<br>(e)</div><div class='respDivR'>No Match<br>(i)</div></div></div>","e","TARGET","1","trustrating_stim/white_mw092.bmp","1","Match","e","1500","trustrating_stim/white_mw092.bmp","green","Share","REAL","1"
"html-keyboard-response","104","279422","0.0-7.0-5.13","63d7a9346e833b93500723d4","bdp_wmem","Tue Mar 14 2023 21:02:32 GMT-0400 (Eastern Daylight Time)","588093","Match,No Match","","null","","","","","","<div class='trialBorder'><div class='vertical-center'><img src='img/correct.jpg'></div><div class='respDiv'><div class='respDivL'><font style='color:orange'>Match<br>(e)</font></div><div class='respDivR'>No Match<br>(i)</div></div></div>","null","FEEDBACK","","","","","","","","","","",""
"html-keyboard-response","105","279925","0.0-7.0-1.14","63d7a9346e833b93500723d4","bdp_wmem","Tue Mar 14 2023 21:02:32 GMT-0400 (Eastern Daylight Time)","588093","Match,No Match","","null","","","","","","<div class='trialBorder'><div class='vertical-center'><img src='img/fixation2_sml.jpg'</img></div></div>","null","FIX","","","","","","","","","","",""
"html-keyboard-response","106","284426","0.0-7.0-2.14","63d7a9346e833b93500723d4","bdp_wmem","Tue Mar 14 2023 21:02:32 GMT-0400 (Eastern Daylight Time)","588093","Match,No Match","","null","","","","","","<div class='trialBorder'><div class='vertical-center'><img style='vertical-align:center; align:center' src='img/fixation2_sml.jpg'></div><div class='arrayDiv3'><div class='tl'><img class='introPic' src='trustrating_stim/white_mw091.bmp'><br><font color='green'><strong>Share</strong></font></div><div class='tc'><img class='introPic' src='trustrating_stim/white_mw040.bmp'><br><font color='red'><strong>Keep</strong></font></div><div class='tr'><img class='introPic' src='trustrating_stim/white_mw070.bmp'><br><font color='green'><strong>Share</strong></font></div></div></div>","null","ARRAY","3","trustrating_stim/white_mw091.bmp,trustrating_stim/white_mw040.bmp,trustrating_stim/white_mw070.bmp","1,0,1","noMatchOutcome","i","4500","","","","",""
"html-keyboard-response","107","288428","0.0-7.0-3.14","63d7a9346e833b93500723d4","bdp_wmem","Tue Mar 14 2023 21:02:32 GMT-0400 (Eastern Daylight Time)","588093","Match,No Match","","null","","","","","","<div class='trialBorder'><div class='vertical-center'><img src='img/fixation2_sml.jpg'</img></div></div>","null","DELAY","","","","","","","","","","",""
"html-keyboard-response","108","289200","0.0-7.0-4.14","63d7a9346e833b93500723d4","bdp_wmem","Tue Mar 14 2023 21:02:32 GMT-0400 (Eastern Daylight Time)","588093","Match,No Match","","770","","","","","","<div class='trialBorder'><div class='targDiv'><div class='tc'><img class='introPic' src='trustrating_stim/white_mw070.bmp'><br><font color='red'><strong>Keep</strong></font></div></div><div class='respDiv'><div class='respDivL'>Match<br>(e)</div><div class='respDivR'>No Match<br>(i)</div></div></div>","e","TARGET","3","trustrating_stim/white_mw091.bmp,trustrating_stim/white_mw040.bmp,trustrating_stim/white_mw070.bmp","1,0,1","noMatchOutcome","i","4500","trustrating_stim/white_mw070.bmp","red","Keep","REAL","0"
"html-keyboard-response","109","289700","0.0-7.0-5.14","63d7a9346e833b93500723d4","bdp_wmem","Tue Mar 14 2023 21:02:32 GMT-0400 (Eastern Daylight Time)","588093","Match,No Match","","null","","","","","","<div class='trialBorder'><div class='vertical-center'><img src='img/error.jpg'></div><div class='respDiv'><div class='respDivL'><font style='color:orange'>Match<br>(e)</font></div><div class='respDivR'>No Match<br>(i)</div></div></div>","null","FEEDBACK","","","","","","","","","","",""
"html-keyboard-response","110","290202","0.0-7.0-1.15","63d7a9346e833b93500723d4","bdp_wmem","Tue Mar 14 2023 21:02:32 GMT-0400 (Eastern Daylight Time)","588093","Match,No Match","","null","","","","","","<div class='trialBorder'><div class='vertical-center'><img src='img/fixation2_sml.jpg'</img></div></div>","null","FIX","","","","","","","","","","",""
"html-keyboard-response","111","294703","0.0-7.0-2.15","63d7a9346e833b93500723d4","bdp_wmem","Tue Mar 14 2023 21:02:32 GMT-0400 (Eastern Daylight Time)","588093","Match,No Match","","null","","","","","","<div class='trialBorder'><div class='vertical-center'><img style='vertical-align:center; align:center' src='img/fixation2_sml.jpg'></div><div class='arrayDiv3'><div class='tl'><img class='introPic' src='trustrating_stim/white_mw078.bmp'><br><font color='red'><strong>Keep</strong></font></div><div class='tc'><img class='introPic' src='trustrating_stim/white_mw012.bmp'><br><font color='green'><strong>Share</strong></font></div><div class='tr'><img class='introPic' src='trustrating_stim/white_mw040.bmp'><br><font color='green'><strong>Share</strong></font></div></div></div>","null","ARRAY","3","trustrating_stim/white_mw078.bmp,trustrating_stim/white_mw012.bmp,trustrating_stim/white_mw040.bmp","0,1,1","Match","e","4500","","","","",""
"html-keyboard-response","112","298704","0.0-7.0-3.15","63d7a9346e833b93500723d4","bdp_wmem","Tue Mar 14 2023 21:02:32 GMT-0400 (Eastern Daylight Time)","588093","Match,No Match","","null","","","","","","<div class='trialBorder'><div class='vertical-center'><img src='img/fixation2_sml.jpg'</img></div></div>","null","DELAY","","","","","","","","","","",""
"html-keyboard-response","113","299712","0.0-7.0-4.15","63d7a9346e833b93500723d4","bdp_wmem","Tue Mar 14 2023 21:02:32 GMT-0400 (Eastern Daylight Time)","588093","Match,No Match","","1007","","","","","","<div class='trialBorder'><div class='targDiv'><div class='tc'><img class='introPic' src='trustrating_stim/white_mw040.bmp'><br><font color='green'><strong>Share</strong></font></div></div><div class='respDiv'><div class='respDivL'>Match<br>(e)</div><div class='respDivR'>No Match<br>(i)</div></div></div>","e","TARGET","3","trustrating_stim/white_mw078.bmp,trustrating_stim/white_mw012.bmp,trustrating_stim/white_mw040.bmp","0,1,1","Match","e","4500","trustrating_stim/white_mw040.bmp","green","Share","REAL","1"
"html-keyboard-response","114","300212","0.0-7.0-5.15","63d7a9346e833b93500723d4","bdp_wmem","Tue Mar 14 2023 21:02:32 GMT-0400 (Eastern Daylight Time)","588093","Match,No Match","","null","","","","","","<div class='trialBorder'><div class='vertical-center'><img src='img/correct.jpg'></div><div class='respDiv'><div class='respDivL'><font style='color:orange'>Match<br>(e)</font></div><div class='respDivR'>No Match<br>(i)</div></div></div>","null","FEEDBACK","","","","","","","","","","",""
"html-keyboard-response","115","300715","0.0-7.0-1.16","63d7a9346e833b93500723d4","bdp_wmem","Tue Mar 14 2023 21:02:32 GMT-0400 (Eastern Daylight Time)","588093","Match,No Match","","null","","","","","","<div class='trialBorder'><div class='vertical-center'><img src='img/fixation2_sml.jpg'</img></div></div>","null","FIX","","","","","","","","","","",""
"html-keyboard-response","116","302216","0.0-7.0-2.16","63d7a9346e833b93500723d4","bdp_wmem","Tue Mar 14 2023 21:02:32 GMT-0400 (Eastern Daylight Time)","588093","Match,No Match","","null","","","","","","<div class='trialBorder'><div class='vertical-center'><img style='vertical-align:center; align:center' src='img/fixation2_sml.jpg'></div><div class='arrayDiv1'><div class='tc'><img class='introPic' src='trustrating_stim/white_mw012.bmp'><br><font color='red'><strong>Keep</strong></font></div></div></div>","null","ARRAY","1","trustrating_stim/white_mw012.bmp","0","noMatchFace","i","1500","","","","",""
"html-keyboard-response","117","306217","0.0-7.0-3.16","63d7a9346e833b93500723d4","bdp_wmem","Tue Mar 14 2023 21:02:32 GMT-0400 (Eastern Daylight Time)","588093","Match,No Match","","null","","","","","","<div class='trialBorder'><div class='vertical-center'><img src='img/fixation2_sml.jpg'</img></div></div>","null","DELAY","","","","","","","","","","",""
"html-keyboard-response","118","306927","0.0-7.0-4.16","63d7a9346e833b93500723d4","bdp_wmem","Tue Mar 14 2023 21:02:32 GMT-0400 (Eastern Daylight Time)","588093","Match,No Match","","710","","","","","","<div class='trialBorder'><div class='targDiv'><div class='tc'><img class='introPic' src='trustrating_stim/white_mw042.bmp'><br><font color='red'><strong>Keep</strong></font></div></div><div class='respDiv'><div class='respDivL'>Match<br>(e)</div><div class='respDivR'>No Match<br>(i)</div></div></div>","i","TARGET","1","trustrating_stim/white_mw012.bmp","0","noMatchFace","i","1500","trustrating_stim/white_mw042.bmp","red","Keep","REAL","1"
"html-keyboard-response","119","307429","0.0-7.0-5.16","63d7a9346e833b93500723d4","bdp_wmem","Tue Mar 14 2023 21:02:32 GMT-0400 (Eastern Daylight Time)","588093","Match,No Match","","null","","","","","","<div class='trialBorder'><div class='vertical-center'><img src='img/correct.jpg'></div><div class='respDiv'><div class='respDivL'>Match<br>(e)</div><div class='respDivR'><font style='color:orange'>No Match<br>(i)</font></div></div></div>","null","FEEDBACK","","","","","","","","","","",""
"html-keyboard-response","120","307931","0.0-7.0-1.17","63d7a9346e833b93500723d4","bdp_wmem","Tue Mar 14 2023 21:02:32 GMT-0400 (Eastern Daylight Time)","588093","Match,No Match","","null","","","","","","<div class='trialBorder'><div class='vertical-center'><img src='img/fixation2_sml.jpg'</img></div></div>","null","FIX","","","","","","","","","","",""
"html-keyboard-response","121","310932","0.0-7.0-2.17","63d7a9346e833b93500723d4","bdp_wmem","Tue Mar 14 2023 21:02:32 GMT-0400 (Eastern Daylight Time)","588093","Match,No Match","","null","","","","","","<div class='trialBorder'><div class='vertical-center'><img style='vertical-align:center; align:center' src='img/fixation2_sml.jpg'></div><div class='arrayDiv2'><div class='tl'><img class='introPic' src='trustrating_stim/white_mw038.bmp'><br><font color='green'><strong>Share</strong></font></div><div class='tr'><img class='introPic' src='trustrating_stim/white_mw042.bmp'><br><font color='red'><strong>Keep</strong></font></div></div></div>","null","ARRAY","2","trustrating_stim/white_mw038.bmp,trustrating_stim/white_mw042.bmp","1,0","Match","e","3000","","","","",""
"html-keyboard-response","122","314933","0.0-7.0-3.17","63d7a9346e833b93500723d4","bdp_wmem","Tue Mar 14 2023 21:02:32 GMT-0400 (Eastern Daylight Time)","588093","Match,No Match","","null","","","","","","<div class='trialBorder'><div class='vertical-center'><img src='img/fixation2_sml.jpg'</img></div></div>","null","DELAY","","","","","","","","","","",""
"html-keyboard-response","123","315665","0.0-7.0-4.17","63d7a9346e833b93500723d4","bdp_wmem","Tue Mar 14 2023 21:02:32 GMT-0400 (Eastern Daylight Time)","588093","Match,No Match","","731","","","","","","<div class='trialBorder'><div class='targDiv'><div class='tc'><img class='introPic' src='trustrating_stim/white_mw042.bmp'><br><font color='red'><strong>Keep</strong></font></div></div><div class='respDiv'><div class='respDivL'>Match<br>(e)</div><div class='respDivR'>No Match<br>(i)</div></div></div>","i","TARGET","2","trustrating_stim/white_mw038.bmp,trustrating_stim/white_mw042.bmp","1,0","Match","e","3000","trustrating_stim/white_mw042.bmp","red","Keep","REAL","0"
"html-keyboard-response","124","316167","0.0-7.0-5.17","63d7a9346e833b93500723d4","bdp_wmem","Tue Mar 14 2023 21:02:32 GMT-0400 (Eastern Daylight Time)","588093","Match,No Match","","null","","","","","","<div class='trialBorder'><div class='vertical-center'><img src='img/error.jpg'></div><div class='respDiv'><div class='respDivL'>Match<br>(e)</div><div class='respDivR'><font style='color:orange'>No Match<br>(i)</font></div></div></div>","null","FEEDBACK","","","","","","","","","","",""
"html-keyboard-response","125","316668","0.0-7.0-1.18","63d7a9346e833b93500723d4","bdp_wmem","Tue Mar 14 2023 21:02:32 GMT-0400 (Eastern Daylight Time)","588093","Match,No Match","","null","","","","","","<div class='trialBorder'><div class='vertical-center'><img src='img/fixation2_sml.jpg'</img></div></div>","null","FIX","","","","","","","","","","",""
"html-keyboard-response","126","318169","0.0-7.0-2.18","63d7a9346e833b93500723d4","bdp_wmem","Tue Mar 14 2023 21:02:32 GMT-0400 (Eastern Daylight Time)","588093","Match,No Match","","null","","","","","","<div class='trialBorder'><div class='vertical-center'><img style='vertical-align:center; align:center' src='img/fixation2_sml.jpg'></div><div class='arrayDiv1'><div class='tc'><img class='introPic' src='trustrating_stim/white_mw078.bmp'><br><font color='green'><strong>Share</strong></font></div></div></div>","null","ARRAY","1","trustrating_stim/white_mw078.bmp","1","noMatchOutcome","i","1500","","","","",""
"html-keyboard-response","127","322171","0.0-7.0-3.18","63d7a9346e833b93500723d4","bdp_wmem","Tue Mar 14 2023 21:02:32 GMT-0400 (Eastern Daylight Time)","588093","Match,No Match","","null","","","","","","<div class='trialBorder'><div class='vertical-center'><img src='img/fixation2_sml.jpg'</img></div></div>","null","DELAY","","","","","","","","","","",""
"html-keyboard-response","128","323159","0.0-7.0-4.18","63d7a9346e833b93500723d4","bdp_wmem","Tue Mar 14 2023 21:02:32 GMT-0400 (Eastern Daylight Time)","588093","Match,No Match","","986","","","","","","<div class='trialBorder'><div class='targDiv'><div class='tc'><img class='introPic' src='trustrating_stim/white_mw078.bmp'><br><font color='red'><strong>Keep</strong></font></div></div><div class='respDiv'><div class='respDivL'>Match<br>(e)</div><div class='respDivR'>No Match<br>(i)</div></div></div>","e","TARGET","1","trustrating_stim/white_mw078.bmp","1","noMatchOutcome","i","1500","trustrating_stim/white_mw078.bmp","red","Keep","REAL","0"
"html-keyboard-response","129","323660","0.0-7.0-5.18","63d7a9346e833b93500723d4","bdp_wmem","Tue Mar 14 2023 21:02:32 GMT-0400 (Eastern Daylight Time)","588093","Match,No Match","","null","","","","","","<div class='trialBorder'><div class='vertical-center'><img src='img/error.jpg'></div><div class='respDiv'><div class='respDivL'><font style='color:orange'>Match<br>(e)</font></div><div class='respDivR'>No Match<br>(i)</div></div></div>","null","FEEDBACK","","","","","","","","","","",""
"html-keyboard-response","130","324162","0.0-7.0-1.19","63d7a9346e833b93500723d4","bdp_wmem","Tue Mar 14 2023 21:02:32 GMT-0400 (Eastern Daylight Time)","588093","Match,No Match","","null","","","","","","<div class='trialBorder'><div class='vertical-center'><img src='img/fixation2_sml.jpg'</img></div></div>","null","FIX","","","","","","","","","","",""
"html-keyboard-response","131","327163","0.0-7.0-2.19","63d7a9346e833b93500723d4","bdp_wmem","Tue Mar 14 2023 21:02:32 GMT-0400 (Eastern Daylight Time)","588093","Match,No Match","","null","","","","","","<div class='trialBorder'><div class='vertical-center'><img style='vertical-align:center; align:center' src='img/fixation2_sml.jpg'></div><div class='arrayDiv2'><div class='tl'><img class='introPic' src='trustrating_stim/white_mw092.bmp'><br><font color='red'><strong>Keep</strong></font></div><div class='tr'><img class='introPic' src='trustrating_stim/white_mw038.bmp'><br><font color='green'><strong>Share</strong></font></div></div></div>","null","ARRAY","2","trustrating_stim/white_mw092.bmp,trustrating_stim/white_mw038.bmp","0,1","Match","e","3000","","","","",""
"html-keyboard-response","132","331164","0.0-7.0-3.19","63d7a9346e833b93500723d4","bdp_wmem","Tue Mar 14 2023 21:02:32 GMT-0400 (Eastern Daylight Time)","588093","Match,No Match","","null","","","","","","<div class='trialBorder'><div class='vertical-center'><img src='img/fixation2_sml.jpg'</img></div></div>","null","DELAY","","","","","","","","","","",""
"html-keyboard-response","133","332671","0.0-7.0-4.19","63d7a9346e833b93500723d4","bdp_wmem","Tue Mar 14 2023 21:02:32 GMT-0400 (Eastern Daylight Time)","588093","Match,No Match","","1506","","","","","","<div class='trialBorder'><div class='targDiv'><div class='tc'><img class='introPic' src='trustrating_stim/white_mw092.bmp'><br><font color='red'><strong>Keep</strong></font></div></div><div class='respDiv'><div class='respDivL'>Match<br>(e)</div><div class='respDivR'>No Match<br>(i)</div></div></div>","e","TARGET","2","trustrating_stim/white_mw092.bmp,trustrating_stim/white_mw038.bmp","0,1","Match","e","3000","trustrating_stim/white_mw092.bmp","red","Keep","REAL","1"
"html-keyboard-response","134","333172","0.0-7.0-5.19","63d7a9346e833b93500723d4","bdp_wmem","Tue Mar 14 2023 21:02:32 GMT-0400 (Eastern Daylight Time)","588093","Match,No Match","","null","","","","","","<div class='trialBorder'><div class='vertical-center'><img src='img/correct.jpg'></div><div class='respDiv'><div class='respDivL'><font style='color:orange'>Match<br>(e)</font></div><div class='respDivR'>No Match<br>(i)</div></div></div>","null","FEEDBACK","","","","","","","","","","",""
"html-keyboard-response","135","333674","0.0-7.0-1.20","63d7a9346e833b93500723d4","bdp_wmem","Tue Mar 14 2023 21:02:32 GMT-0400 (Eastern Daylight Time)","588093","Match,No Match","","null","","","","","","<div class='trialBorder'><div class='vertical-center'><img src='img/fixation2_sml.jpg'</img></div></div>","null","FIX","","","","","","","","","","",""
"html-keyboard-response","136","335174","0.0-7.0-2.20","63d7a9346e833b93500723d4","bdp_wmem","Tue Mar 14 2023 21:02:32 GMT-0400 (Eastern Daylight Time)","588093","Match,No Match","","null","","","","","","<div class='trialBorder'><div class='vertical-center'><img style='vertical-align:center; align:center' src='img/fixation2_sml.jpg'></div><div class='arrayDiv1'><div class='tc'><img class='introPic' src='trustrating_stim/white_mw010.bmp'><br><font color='red'><strong>Keep</strong></font></div></div></div>","null","ARRAY","1","trustrating_stim/white_mw010.bmp","0","Match","e","1500","","","","",""
"html-keyboard-response","137","339176","0.0-7.0-3.20","63d7a9346e833b93500723d4","bdp_wmem","Tue Mar 14 2023 21:02:32 GMT-0400 (Eastern Daylight Time)","588093","Match,No Match","","null","","","","","","<div class='trialBorder'><div class='vertical-center'><img src='img/fixation2_sml.jpg'</img></div></div>","null","DELAY","","","","","","","","","","",""
"html-keyboard-response","138","339974","0.0-7.0-4.20","63d7a9346e833b93500723d4","bdp_wmem","Tue Mar 14 2023 21:02:32 GMT-0400 (Eastern Daylight Time)","588093","Match,No Match","","798","","","","","","<div class='trialBorder'><div class='targDiv'><div class='tc'><img class='introPic' src='trustrating_stim/white_mw010.bmp'><br><font color='red'><strong>Keep</strong></font></div></div><div class='respDiv'><div class='respDivL'>Match<br>(e)</div><div class='respDivR'>No Match<br>(i)</div></div></div>","e","TARGET","1","trustrating_stim/white_mw010.bmp","0","Match","e","1500","trustrating_stim/white_mw010.bmp","red","Keep","REAL","1"
"html-keyboard-response","139","340476","0.0-7.0-5.20","63d7a9346e833b93500723d4","bdp_wmem","Tue Mar 14 2023 21:02:32 GMT-0400 (Eastern Daylight Time)","588093","Match,No Match","","null","","","","","","<div class='trialBorder'><div class='vertical-center'><img src='img/correct.jpg'></div><div class='respDiv'><div class='respDivL'><font style='color:orange'>Match<br>(e)</font></div><div class='respDivR'>No Match<br>(i)</div></div></div>","null","FEEDBACK","","","","","","","","","","",""
"html-keyboard-response","140","340978","0.0-7.0-1.21","63d7a9346e833b93500723d4","bdp_wmem","Tue Mar 14 2023 21:02:32 GMT-0400 (Eastern Daylight Time)","588093","Match,No Match","","null","","","","","","<div class='trialBorder'><div class='vertical-center'><img src='img/fixation2_sml.jpg'</img></div></div>","null","FIX","","","","","","","","","","",""
"html-keyboard-response","141","345479","0.0-7.0-2.21","63d7a9346e833b93500723d4","bdp_wmem","Tue Mar 14 2023 21:02:32 GMT-0400 (Eastern Daylight Time)","588093","Match,No Match","","null","","","","","","<div class='trialBorder'><div class='vertical-center'><img style='vertical-align:center; align:center' src='img/fixation2_sml.jpg'></div><div class='arrayDiv3'><div class='tl'><img class='introPic' src='trustrating_stim/white_mw070.bmp'><br><font color='green'><strong>Share</strong></font></div><div class='tc'><img class='introPic' src='trustrating_stim/white_mw078.bmp'><br><font color='red'><strong>Keep</strong></font></div><div class='tr'><img class='introPic' src='trustrating_stim/white_mw010.bmp'><br><font color='green'><strong>Share</strong></font></div></div></div>","null","ARRAY","3","trustrating_stim/white_mw070.bmp,trustrating_stim/white_mw078.bmp,trustrating_stim/white_mw010.bmp","1,0,1","noMatchFace","i","4500","","","","",""
"html-keyboard-response","142","349481","0.0-7.0-3.21","63d7a9346e833b93500723d4","bdp_wmem","Tue Mar 14 2023 21:02:32 GMT-0400 (Eastern Daylight Time)","588093","Match,No Match","","null","","","","","","<div class='trialBorder'><div class='vertical-center'><img src='img/fixation2_sml.jpg'</img></div></div>","null","DELAY","","","","","","","","","","",""
"html-keyboard-response","143","350463","0.0-7.0-4.21","63d7a9346e833b93500723d4","bdp_wmem","Tue Mar 14 2023 21:02:32 GMT-0400 (Eastern Daylight Time)","588093","Match,No Match","","981","","","","","","<div class='trialBorder'><div class='targDiv'><div class='tc'><img class='introPic' src='trustrating_stim/white_mw040.bmp'><br><font color='green'><strong>Share</strong></font></div></div><div class='respDiv'><div class='respDivL'>Match<br>(e)</div><div class='respDivR'>No Match<br>(i)</div></div></div>","e","TARGET","3","trustrating_stim/white_mw070.bmp,trustrating_stim/white_mw078.bmp,trustrating_stim/white_mw010.bmp","1,0,1","noMatchFace","i","4500","trustrating_stim/white_mw040.bmp","green","Share","REAL","0"
"html-keyboard-response","144","350964","0.0-7.0-5.21","63d7a9346e833b93500723d4","bdp_wmem","Tue Mar 14 2023 21:02:32 GMT-0400 (Eastern Daylight Time)","588093","Match,No Match","","null","","","","","","<div class='trialBorder'><div class='vertical-center'><img src='img/error.jpg'></div><div class='respDiv'><div class='respDivL'><font style='color:orange'>Match<br>(e)</font></div><div class='respDivR'>No Match<br>(i)</div></div></div>","null","FEEDBACK","","","","","","","","","","",""
"html-keyboard-response","145","351466","0.0-7.0-1.22","63d7a9346e833b93500723d4","bdp_wmem","Tue Mar 14 2023 21:02:32 GMT-0400 (Eastern Daylight Time)","588093","Match,No Match","","null","","","","","","<div class='trialBorder'><div class='vertical-center'><img src='img/fixation2_sml.jpg'</img></div></div>","null","FIX","","","","","","","","","","",""
"html-keyboard-response","146","352967","0.0-7.0-2.22","63d7a9346e833b93500723d4","bdp_wmem","Tue Mar 14 2023 21:02:32 GMT-0400 (Eastern Daylight Time)","588093","Match,No Match","","null","","","","","","<div class='trialBorder'><div class='vertical-center'><img style='vertical-align:center; align:center' src='img/fixation2_sml.jpg'></div><div class='arrayDiv1'><div class='tc'><img class='introPic' src='trustrating_stim/white_mw091.bmp'><br><font color='green'><strong>Share</strong></font></div></div></div>","null","ARRAY","1","trustrating_stim/white_mw091.bmp","1","noMatchOutcome","i","1500","","","","",""
"html-keyboard-response","147","356969","0.0-7.0-3.22","63d7a9346e833b93500723d4","bdp_wmem","Tue Mar 14 2023 21:02:32 GMT-0400 (Eastern Daylight Time)","588093","Match,No Match","","null","","","","","","<div class='trialBorder'><div class='vertical-center'><img src='img/fixation2_sml.jpg'</img></div></div>","null","DELAY","","","","","","","","","","",""
"html-keyboard-response","148","357623","0.0-7.0-4.22","63d7a9346e833b93500723d4","bdp_wmem","Tue Mar 14 2023 21:02:32 GMT-0400 (Eastern Daylight Time)","588093","Match,No Match","","652","","","","","","<div class='trialBorder'><div class='targDiv'><div class='tc'><img class='introPic' src='trustrating_stim/white_mw091.bmp'><br><font color='red'><strong>Keep</strong></font></div></div><div class='respDiv'><div class='respDivL'>Match<br>(e)</div><div class='respDivR'>No Match<br>(i)</div></div></div>","e","TARGET","1","trustrating_stim/white_mw091.bmp","1","noMatchOutcome","i","1500","trustrating_stim/white_mw091.bmp","red","Keep","REAL","0"
"html-keyboard-response","149","358124","0.0-7.0-5.22","63d7a9346e833b93500723d4","bdp_wmem","Tue Mar 14 2023 21:02:32 GMT-0400 (Eastern Daylight Time)","588093","Match,No Match","","null","","","","","","<div class='trialBorder'><div class='vertical-center'><img src='img/error.jpg'></div><div class='respDiv'><div class='respDivL'><font style='color:orange'>Match<br>(e)</font></div><div class='respDivR'>No Match<br>(i)</div></div></div>","null","FEEDBACK","","","","","","","","","","",""
"html-keyboard-response","150","358625","0.0-7.0-1.23","63d7a9346e833b93500723d4","bdp_wmem","Tue Mar 14 2023 21:02:32 GMT-0400 (Eastern Daylight Time)","588093","Match,No Match","","null","","","","","","<div class='trialBorder'><div class='vertical-center'><img src='img/fixation2_sml.jpg'</img></div></div>","null","FIX","","","","","","","","","","",""
"html-keyboard-response","151","361627","0.0-7.0-2.23","63d7a9346e833b93500723d4","bdp_wmem","Tue Mar 14 2023 21:02:32 GMT-0400 (Eastern Daylight Time)","588093","Match,No Match","","null","","","","","","<div class='trialBorder'><div class='vertical-center'><img style='vertical-align:center; align:center' src='img/fixation2_sml.jpg'></div><div class='arrayDiv2'><div class='tl'><img class='introPic' src='trustrating_stim/white_mw042.bmp'><br><font color='green'><strong>Share</strong></font></div><div class='tr'><img class='introPic' src='trustrating_stim/white_mw012.bmp'><br><font color='red'><strong>Keep</strong></font></div></div></div>","null","ARRAY","2","trustrating_stim/white_mw042.bmp,trustrating_stim/white_mw012.bmp","1,0","noMatchOutcome","i","3000","","","","",""
"html-keyboard-response","152","365628","0.0-7.0-3.23","63d7a9346e833b93500723d4","bdp_wmem","Tue Mar 14 2023 21:02:32 GMT-0400 (Eastern Daylight Time)","588093","Match,No Match","","null","","","","","","<div class='trialBorder'><div class='vertical-center'><img src='img/fixation2_sml.jpg'</img></div></div>","null","DELAY","","","","","","","","","","",""
"html-keyboard-response","153","366711","0.0-7.0-4.23","63d7a9346e833b93500723d4","bdp_wmem","Tue Mar 14 2023 21:02:32 GMT-0400 (Eastern Daylight Time)","588093","Match,No Match","","1082","","","","","","<div class='trialBorder'><div class='targDiv'><div class='tc'><img class='introPic' src='trustrating_stim/white_mw012.bmp'><br><font color='green'><strong>Share</strong></font></div></div><div class='respDiv'><div class='respDivL'>Match<br>(e)</div><div class='respDivR'>No Match<br>(i)</div></div></div>","i","TARGET","2","trustrating_stim/white_mw042.bmp,trustrating_stim/white_mw012.bmp","1,0","noMatchOutcome","i","3000","trustrating_stim/white_mw012.bmp","green","Share","REAL","1"
"html-keyboard-response","154","367212","0.0-7.0-5.23","63d7a9346e833b93500723d4","bdp_wmem","Tue Mar 14 2023 21:02:32 GMT-0400 (Eastern Daylight Time)","588093","Match,No Match","","null","","","","","","<div class='trialBorder'><div class='vertical-center'><img src='img/correct.jpg'></div><div class='respDiv'><div class='respDivL'>Match<br>(e)</div><div class='respDivR'><font style='color:orange'>No Match<br>(i)</font></div></div></div>","null","FEEDBACK","","","","","","","","","","",""
"html-keyboard-response","155","367713","0.0-7.0-1.24","63d7a9346e833b93500723d4","bdp_wmem","Tue Mar 14 2023 21:02:32 GMT-0400 (Eastern Daylight Time)","588093","Match,No Match","","null","","","","","","<div class='trialBorder'><div class='vertical-center'><img src='img/fixation2_sml.jpg'</img></div></div>","null","FIX","","","","","","","","","","",""
"html-keyboard-response","156","369214","0.0-7.0-2.24","63d7a9346e833b93500723d4","bdp_wmem","Tue Mar 14 2023 21:02:32 GMT-0400 (Eastern Daylight Time)","588093","Match,No Match","","null","","","","","","<div class='trialBorder'><div class='vertical-center'><img style='vertical-align:center; align:center' src='img/fixation2_sml.jpg'></div><div class='arrayDiv1'><div class='tc'><img class='introPic' src='trustrating_stim/white_mw085.bmp'><br><font color='red'><strong>Keep</strong></font></div></div></div>","null","ARRAY","1","trustrating_stim/white_mw085.bmp","0","noMatchFace","i","1500","","","","",""
"html-keyboard-response","157","373215","0.0-7.0-3.24","63d7a9346e833b93500723d4","bdp_wmem","Tue Mar 14 2023 21:02:32 GMT-0400 (Eastern Daylight Time)","588093","Match,No Match","","null","","","","","","<div class='trialBorder'><div class='vertical-center'><img src='img/fixation2_sml.jpg'</img></div></div>","null","DELAY","","","","","","","","","","",""
"html-keyboard-response","158","374126","0.0-7.0-4.24","63d7a9346e833b93500723d4","bdp_wmem","Tue Mar 14 2023 21:02:32 GMT-0400 (Eastern Daylight Time)","588093","Match,No Match","","911","","","","","","<div class='trialBorder'><div class='targDiv'><div class='tc'><img class='introPic' src='trustrating_stim/white_mw003.bmp'><br><font color='red'><strong>Keep</strong></font></div></div><div class='respDiv'><div class='respDivL'>Match<br>(e)</div><div class='respDivR'>No Match<br>(i)</div></div></div>","e","TARGET","1","trustrating_stim/white_mw085.bmp","0","noMatchFace","i","1500","trustrating_stim/white_mw003.bmp","red","Keep","REAL","0"
"html-keyboard-response","159","374628","0.0-7.0-5.24","63d7a9346e833b93500723d4","bdp_wmem","Tue Mar 14 2023 21:02:32 GMT-0400 (Eastern Daylight Time)","588093","Match,No Match","","null","","","","","","<div class='trialBorder'><div class='vertical-center'><img src='img/error.jpg'></div><div class='respDiv'><div class='respDivL'><font style='color:orange'>Match<br>(e)</font></div><div class='respDivR'>No Match<br>(i)</div></div></div>","null","FEEDBACK","","","","","","","","","","",""
"html-keyboard-response","160","375129","0.0-7.0-1.25","63d7a9346e833b93500723d4","bdp_wmem","Tue Mar 14 2023 21:02:32 GMT-0400 (Eastern Daylight Time)","588093","Match,No Match","","null","","","","","","<div class='trialBorder'><div class='vertical-center'><img src='img/fixation2_sml.jpg'</img></div></div>","null","FIX","","","","","","","","","","",""
"html-keyboard-response","161","379632","0.0-7.0-2.25","63d7a9346e833b93500723d4","bdp_wmem","Tue Mar 14 2023 21:02:32 GMT-0400 (Eastern Daylight Time)","588093","Match,No Match","","null","","","","","","<div class='trialBorder'><div class='vertical-center'><img style='vertical-align:center; align:center' src='img/fixation2_sml.jpg'></div><div class='arrayDiv3'><div class='tl'><img class='introPic' src='trustrating_stim/white_mw038.bmp'><br><font color='green'><strong>Share</strong></font></div><div class='tc'><img class='introPic' src='trustrating_stim/white_mw078.bmp'><br><font color='red'><strong>Keep</strong></font></div><div class='tr'><img class='introPic' src='trustrating_stim/white_mw070.bmp'><br><font color='green'><strong>Share</strong></font></div></div></div>","null","ARRAY","3","trustrating_stim/white_mw038.bmp,trustrating_stim/white_mw078.bmp,trustrating_stim/white_mw070.bmp","1,0,1","Match","e","4500","","","","",""
"html-keyboard-response","162","383634","0.0-7.0-3.25","63d7a9346e833b93500723d4","bdp_wmem","Tue Mar 14 2023 21:02:32 GMT-0400 (Eastern Daylight Time)","588093","Match,No Match","","null","","","","","","<div class='trialBorder'><div class='vertical-center'><img src='img/fixation2_sml.jpg'</img></div></div>","null","DELAY","","","","","","","","","","",""
"html-keyboard-response","163","384527","0.0-7.0-4.25","63d7a9346e833b93500723d4","bdp_wmem","Tue Mar 14 2023 21:02:32 GMT-0400 (Eastern Daylight Time)","588093","Match,No Match","","892","","","","","","<div class='trialBorder'><div class='targDiv'><div class='tc'><img class='introPic' src='trustrating_stim/white_mw078.bmp'><br><font color='red'><strong>Keep</strong></font></div></div><div class='respDiv'><div class='respDivL'>Match<br>(e)</div><div class='respDivR'>No Match<br>(i)</div></div></div>","e","TARGET","3","trustrating_stim/white_mw038.bmp,trustrating_stim/white_mw078.bmp,trustrating_stim/white_mw070.bmp","1,0,1","Match","e","4500","trustrating_stim/white_mw078.bmp","red","Keep","REAL","1"
"html-keyboard-response","164","385028","0.0-7.0-5.25","63d7a9346e833b93500723d4","bdp_wmem","Tue Mar 14 2023 21:02:32 GMT-0400 (Eastern Daylight Time)","588093","Match,No Match","","null","","","","","","<div class='trialBorder'><div class='vertical-center'><img src='img/correct.jpg'></div><div class='respDiv'><div class='respDivL'><font style='color:orange'>Match<br>(e)</font></div><div class='respDivR'>No Match<br>(i)</div></div></div>","null","FEEDBACK","","","","","","","","","","",""
"html-keyboard-response","165","385529","0.0-7.0-1.26","63d7a9346e833b93500723d4","bdp_wmem","Tue Mar 14 2023 21:02:32 GMT-0400 (Eastern Daylight Time)","588093","Match,No Match","","null","","","","","","<div class='trialBorder'><div class='vertical-center'><img src='img/fixation2_sml.jpg'</img></div></div>","null","FIX","","","","","","","","","","",""
"html-keyboard-response","166","388530","0.0-7.0-2.26","63d7a9346e833b93500723d4","bdp_wmem","Tue Mar 14 2023 21:02:32 GMT-0400 (Eastern Daylight Time)","588093","Match,No Match","","null","","","","","","<div class='trialBorder'><div class='vertical-center'><img style='vertical-align:center; align:center' src='img/fixation2_sml.jpg'></div><div class='arrayDiv2'><div class='tl'><img class='introPic' src='trustrating_stim/white_mw078.bmp'><br><font color='green'><strong>Share</strong></font></div><div class='tr'><img class='introPic' src='trustrating_stim/white_mw040.bmp'><br><font color='red'><strong>Keep</strong></font></div></div></div>","null","ARRAY","2","trustrating_stim/white_mw078.bmp,trustrating_stim/white_mw040.bmp","1,0","Match","e","3000","","","","",""
"html-keyboard-response","167","392532","0.0-7.0-3.26","63d7a9346e833b93500723d4","bdp_wmem","Tue Mar 14 2023 21:02:32 GMT-0400 (Eastern Daylight Time)","588093","Match,No Match","","null","","","","","","<div class='trialBorder'><div class='vertical-center'><img src='img/fixation2_sml.jpg'</img></div></div>","null","DELAY","","","","","","","","","","",""
"html-keyboard-response","168","393551","0.0-7.0-4.26","63d7a9346e833b93500723d4","bdp_wmem","Tue Mar 14 2023 21:02:32 GMT-0400 (Eastern Daylight Time)","588093","Match,No Match","","1019","","","","","","<div class='trialBorder'><div class='targDiv'><div class='tc'><img class='introPic' src='trustrating_stim/white_mw040.bmp'><br><font color='red'><strong>Keep</strong></font></div></div><div class='respDiv'><div class='respDivL'>Match<br>(e)</div><div class='respDivR'>No Match<br>(i)</div></div></div>","e","TARGET","2","trustrating_stim/white_mw078.bmp,trustrating_stim/white_mw040.bmp","1,0","Match","e","3000","trustrating_stim/white_mw040.bmp","red","Keep","REAL","1"
"html-keyboard-response","169","394052","0.0-7.0-5.26","63d7a9346e833b93500723d4","bdp_wmem","Tue Mar 14 2023 21:02:32 GMT-0400 (Eastern Daylight Time)","588093","Match,No Match","","null","","","","","","<div class='trialBorder'><div class='vertical-center'><img src='img/correct.jpg'></div><div class='respDiv'><div class='respDivL'><font style='color:orange'>Match<br>(e)</font></div><div class='respDivR'>No Match<br>(i)</div></div></div>","null","FEEDBACK","","","","","","","","","","",""
"html-keyboard-response","170","394554","0.0-7.0-1.27","63d7a9346e833b93500723d4","bdp_wmem","Tue Mar 14 2023 21:02:32 GMT-0400 (Eastern Daylight Time)","588093","Match,No Match","","null","","","","","","<div class='trialBorder'><div class='vertical-center'><img src='img/fixation2_sml.jpg'</img></div></div>","null","FIX","","","","","","","","","","",""
"html-keyboard-response","171","399055","0.0-7.0-2.27","63d7a9346e833b93500723d4","bdp_wmem","Tue Mar 14 2023 21:02:32 GMT-0400 (Eastern Daylight Time)","588093","Match,No Match","","null","","","","","","<div class='trialBorder'><div class='vertical-center'><img style='vertical-align:center; align:center' src='img/fixation2_sml.jpg'></div><div class='arrayDiv3'><div class='tl'><img class='introPic' src='trustrating_stim/white_mw091.bmp'><br><font color='green'><strong>Share</strong></font></div><div class='tc'><img class='introPic' src='trustrating_stim/white_mw010.bmp'><br><font color='green'><strong>Share</strong></font></div><div class='tr'><img class='introPic' src='trustrating_stim/white_mw040.bmp'><br><font color='red'><strong>Keep</strong></font></div></div></div>","null","ARRAY","3","trustrating_stim/white_mw091.bmp,trustrating_stim/white_mw010.bmp,trustrating_stim/white_mw040.bmp","1,1,0","Match","e","4500","","","","",""
"html-keyboard-response","172","403056","0.0-7.0-3.27","63d7a9346e833b93500723d4","bdp_wmem","Tue Mar 14 2023 21:02:32 GMT-0400 (Eastern Daylight Time)","588093","Match,No Match","","null","","","","","","<div class='trialBorder'><div class='vertical-center'><img src='img/fixation2_sml.jpg'</img></div></div>","null","DELAY","","","","","","","","","","",""
"html-keyboard-response","173","404735","0.0-7.0-4.27","63d7a9346e833b93500723d4","bdp_wmem","Tue Mar 14 2023 21:02:32 GMT-0400 (Eastern Daylight Time)","588093","Match,No Match","","1679","","","","","","<div class='trialBorder'><div class='targDiv'><div class='tc'><img class='introPic' src='trustrating_stim/white_mw091.bmp'><br><font color='green'><strong>Share</strong></font></div></div><div class='respDiv'><div class='respDivL'>Match<br>(e)</div><div class='respDivR'>No Match<br>(i)</div></div></div>","e","TARGET","3","trustrating_stim/white_mw091.bmp,trustrating_stim/white_mw010.bmp,trustrating_stim/white_mw040.bmp","1,1,0","Match","e","4500","trustrating_stim/white_mw091.bmp","green","Share","REAL","1"
"html-keyboard-response","174","405237","0.0-7.0-5.27","63d7a9346e833b93500723d4","bdp_wmem","Tue Mar 14 2023 21:02:32 GMT-0400 (Eastern Daylight Time)","588093","Match,No Match","","null","","","","","","<div class='trialBorder'><div class='vertical-center'><img src='img/correct.jpg'></div><div class='respDiv'><div class='respDivL'><font style='color:orange'>Match<br>(e)</font></div><div class='respDivR'>No Match<br>(i)</div></div></div>","null","FEEDBACK","","","","","","","","","","",""
"html-keyboard-response","175","405738","0.0-7.0-1.28","63d7a9346e833b93500723d4","bdp_wmem","Tue Mar 14 2023 21:02:32 GMT-0400 (Eastern Daylight Time)","588093","Match,No Match","","null","","","","","","<div class='trialBorder'><div class='vertical-center'><img src='img/fixation2_sml.jpg'</img></div></div>","null","FIX","","","","","","","","","","",""
"html-keyboard-response","176","410240","0.0-7.0-2.28","63d7a9346e833b93500723d4","bdp_wmem","Tue Mar 14 2023 21:02:32 GMT-0400 (Eastern Daylight Time)","588093","Match,No Match","","null","","","","","","<div class='trialBorder'><div class='vertical-center'><img style='vertical-align:center; align:center' src='img/fixation2_sml.jpg'></div><div class='arrayDiv3'><div class='tl'><img class='introPic' src='trustrating_stim/white_mw092.bmp'><br><font color='green'><strong>Share</strong></font></div><div class='tc'><img class='introPic' src='trustrating_stim/white_mw085.bmp'><br><font color='red'><strong>Keep</strong></font></div><div class='tr'><img class='introPic' src='trustrating_stim/white_mw038.bmp'><br><font color='red'><strong>Keep</strong></font></div></div></div>","null","ARRAY","3","trustrating_stim/white_mw092.bmp,trustrating_stim/white_mw085.bmp,trustrating_stim/white_mw038.bmp","1,0,0","noMatchOutcome","i","4500","","","","",""
"html-keyboard-response","177","414242","0.0-7.0-3.28","63d7a9346e833b93500723d4","bdp_wmem","Tue Mar 14 2023 21:02:32 GMT-0400 (Eastern Daylight Time)","588093","Match,No Match","","null","","","","","","<div class='trialBorder'><div class='vertical-center'><img src='img/fixation2_sml.jpg'</img></div></div>","null","DELAY","","","","","","","","","","",""
"html-keyboard-response","178","415607","0.0-7.0-4.28","63d7a9346e833b93500723d4","bdp_wmem","Tue Mar 14 2023 21:02:32 GMT-0400 (Eastern Daylight Time)","588093","Match,No Match","","1365","","","","","","<div class='trialBorder'><div class='targDiv'><div class='tc'><img class='introPic' src='trustrating_stim/white_mw092.bmp'><br><font color='red'><strong>Keep</strong></font></div></div><div class='respDiv'><div class='respDivL'>Match<br>(e)</div><div class='respDivR'>No Match<br>(i)</div></div></div>","i","TARGET","3","trustrating_stim/white_mw092.bmp,trustrating_stim/white_mw085.bmp,trustrating_stim/white_mw038.bmp","1,0,0","noMatchOutcome","i","4500","trustrating_stim/white_mw092.bmp","red","Keep","REAL","1"
"html-keyboard-response","179","416108","0.0-7.0-5.28","63d7a9346e833b93500723d4","bdp_wmem","Tue Mar 14 2023 21:02:32 GMT-0400 (Eastern Daylight Time)","588093","Match,No Match","","null","","","","","","<div class='trialBorder'><div class='vertical-center'><img src='img/correct.jpg'></div><div class='respDiv'><div class='respDivL'>Match<br>(e)</div><div class='respDivR'><font style='color:orange'>No Match<br>(i)</font></div></div></div>","null","FEEDBACK","","","","","","","","","","",""
"html-keyboard-response","180","416611","0.0-7.0-1.29","63d7a9346e833b93500723d4","bdp_wmem","Tue Mar 14 2023 21:02:32 GMT-0400 (Eastern Daylight Time)","588093","Match,No Match","","null","","","","","","<div class='trialBorder'><div class='vertical-center'><img src='img/fixation2_sml.jpg'</img></div></div>","null","FIX","","","","","","","","","","",""
"html-keyboard-response","181","421114","0.0-7.0-2.29","63d7a9346e833b93500723d4","bdp_wmem","Tue Mar 14 2023 21:02:32 GMT-0400 (Eastern Daylight Time)","588093","Match,No Match","","null","","","","","","<div class='trialBorder'><div class='vertical-center'><img style='vertical-align:center; align:center' src='img/fixation2_sml.jpg'></div><div class='arrayDiv3'><div class='tl'><img class='introPic' src='trustrating_stim/white_mw010.bmp'><br><font color='red'><strong>Keep</strong></font></div><div class='tc'><img class='introPic' src='trustrating_stim/white_mw038.bmp'><br><font color='green'><strong>Share</strong></font></div><div class='tr'><img class='introPic' src='trustrating_stim/white_mw091.bmp'><br><font color='red'><strong>Keep</strong></font></div></div></div>","null","ARRAY","3","trustrating_stim/white_mw010.bmp,trustrating_stim/white_mw038.bmp,trustrating_stim/white_mw091.bmp","0,1,0","noMatchOutcome","i","4500","","","","",""
"html-keyboard-response","182","425115","0.0-7.0-3.29","63d7a9346e833b93500723d4","bdp_wmem","Tue Mar 14 2023 21:02:32 GMT-0400 (Eastern Daylight Time)","588093","Match,No Match","","null","","","","","","<div class='trialBorder'><div class='vertical-center'><img src='img/fixation2_sml.jpg'</img></div></div>","null","DELAY","","","","","","","","","","",""
"html-keyboard-response","183","427384","0.0-7.0-4.29","63d7a9346e833b93500723d4","bdp_wmem","Tue Mar 14 2023 21:02:32 GMT-0400 (Eastern Daylight Time)","588093","Match,No Match","","2268","","","","","","<div class='trialBorder'><div class='targDiv'><div class='tc'><img class='introPic' src='trustrating_stim/white_mw010.bmp'><br><font color='green'><strong>Share</strong></font></div></div><div class='respDiv'><div class='respDivL'>Match<br>(e)</div><div class='respDivR'>No Match<br>(i)</div></div></div>","i","TARGET","3","trustrating_stim/white_mw010.bmp,trustrating_stim/white_mw038.bmp,trustrating_stim/white_mw091.bmp","0,1,0","noMatchOutcome","i","4500","trustrating_stim/white_mw010.bmp","green","Share","REAL","1"
"html-keyboard-response","184","427886","0.0-7.0-5.29","63d7a9346e833b93500723d4","bdp_wmem","Tue Mar 14 2023 21:02:32 GMT-0400 (Eastern Daylight Time)","588093","Match,No Match","","null","","","","","","<div class='trialBorder'><div class='vertical-center'><img src='img/correct.jpg'></div><div class='respDiv'><div class='respDivL'>Match<br>(e)</div><div class='respDivR'><font style='color:orange'>No Match<br>(i)</font></div></div></div>","null","FEEDBACK","","","","","","","","","","",""
"html-keyboard-response","185","428388","0.0-7.0-1.30","63d7a9346e833b93500723d4","bdp_wmem","Tue Mar 14 2023 21:02:32 GMT-0400 (Eastern Daylight Time)","588093","Match,No Match","","null","","","","","","<div class='trialBorder'><div class='vertical-center'><img src='img/fixation2_sml.jpg'</img></div></div>","null","FIX","","","","","","","","","","",""
