"event","trial","time","trialtype","subject_id","task","startTime","totalTime","labels","trial_type","trial_index","time_elapsed","internal_node_id","view_history","rt","success","stimulus","key_press","stimType","arraySize","arrayFaces","arrayOutcomes","matchType","corrResp","arrayDur","targFace","targCol","targOutcome","trialType","corr"
"focus","0","0","focusevent","6404fb7b9a7b3cfb4179d185","bdp_wmem","Tue Mar 14 2023 00:48:23 GMT-0400 (Eastern Daylight Time)","799240","Match,No Match","","","","","","","","","","","","","","","","","","","","",""
"","","","","6404fb7b9a7b3cfb4179d185","bdp_wmem","Tue Mar 14 2023 00:48:23 GMT-0400 (Eastern Daylight Time)","799240","Match,No Match","pavlovia","0","6","0.0-0.0","","","","","","","","","","","","","","","","",""
"","","","","6404fb7b9a7b3cfb4179d185","bdp_wmem","Tue Mar 14 2023 00:48:23 GMT-0400 (Eastern Daylight Time)","799240","Match,No Match","instructions","1","7719","0.0-1.0","[{""page_index"":0,""viewing_time"":7713}]","7713","","","","","","","","","","","","","","",""
"fullscreenexit","2","11163","fullscreenexit","6404fb7b9a7b3cfb4179d185","bdp_wmem","Tue Mar 14 2023 00:48:23 GMT-0400 (Eastern Daylight Time)","799240","Match,No Match","","","","","","","","","","","","","","","","","","","","",""
"","","","","6404fb7b9a7b3cfb4179d185","bdp_wmem","Tue Mar 14 2023 00:48:23 GMT-0400 (Eastern Daylight Time)","799240","Match,No Match","fullscreen","2","12151","0.0-2.0","","","true","","","","","","","","","","","","","",""
"","","","fullscreenfail","6404fb7b9a7b3cfb4179d185","bdp_wmem","Tue Mar 14 2023 00:48:23 GMT-0400 (Eastern Daylight Time)","799240","Match,No Match","image-keyboard-response","3","17073","0.0-3.0-0.0","","4921","","","32","","","","","","","","","","","",""
"","","","","6404fb7b9a7b3cfb4179d185","bdp_wmem","Tue Mar 14 2023 00:48:23 GMT-0400 (Eastern Daylight Time)","799240","Match,No Match","instructions","4","230442","0.0-4.0","[{""page_index"":0,""viewing_time"":43919},{""page_index"":1,""viewing_time"":114193},{""page_index"":2,""viewing_time"":13395},{""page_index"":3,""viewing_time"":18930},{""page_index"":4,""viewing_time"":22673}]","213110","","","","","","","","","","","","","","",""
"","","","","6404fb7b9a7b3cfb4179d185","bdp_wmem","Tue Mar 14 2023 00:48:23 GMT-0400 (Eastern Daylight Time)","799240","Match,No Match","html-keyboard-response","5","230952","0.0-5.0-1.0","","null","","<div class='trialBorder'><div class='vertical-center'><img src='img/fixation2_sml.jpg'</img></div></div>","null","FIX","","","","","","","","","","",""
"","","","","6404fb7b9a7b3cfb4179d185","bdp_wmem","Tue Mar 14 2023 00:48:23 GMT-0400 (Eastern Daylight Time)","799240","Match,No Match","html-keyboard-response","6","233968","0.0-5.0-2.0","","null","","<div class='trialBorder'><div class='vertical-center'><img style='vertical-align:center; align:center' src='img/fixation2_sml.jpg'></div><div class='arrayDiv2'><div class='tl'><img class='introPic' src='trustrating_stim/white_mw038.bmp'><br><font color='red'><strong>Keep</strong></font></div><div class='tr'><img class='introPic' src='trustrating_stim/white_mw012.bmp'><br><font color='green'><strong>Share</strong></font></div></div></div>","null","ARRAY","2","trustrating_stim/white_mw038.bmp,trustrating_stim/white_mw012.bmp","0,1","Match","e","3000","","","","",""
"","","","","6404fb7b9a7b3cfb4179d185","bdp_wmem","Tue Mar 14 2023 00:48:23 GMT-0400 (Eastern Daylight Time)","799240","Match,No Match","html-keyboard-response","7","237974","0.0-5.0-3.0","","null","","<div class='trialBorder'><div class='vertical-center'><img src='img/fixation2_sml.jpg'</img></div></div>","null","DELAY","","","","","","","","","","",""
"","","","","6404fb7b9a7b3cfb4179d185","bdp_wmem","Tue Mar 14 2023 00:48:23 GMT-0400 (Eastern Daylight Time)","799240","Match,No Match","html-keyboard-response","8","241188","0.0-5.0-4.0","","3213","","<div class='trialBorder'><div class='targDiv'><div class='tc'><img class='introPic' src='trustrating_stim/white_mw038.bmp'><br><font color='red'><strong>Keep</strong></font></div></div><div class='respDiv'><div class='respDivL'>Match<br>(e)</div><div class='respDivR'>No Match<br>(i)</div></div></div>","i","TARGET","2","trustrating_stim/white_mw038.bmp,trustrating_stim/white_mw012.bmp","0,1","Match","e","3000","trustrating_stim/white_mw038.bmp","red","Keep","PRACTICE","0"
"","","","","6404fb7b9a7b3cfb4179d185","bdp_wmem","Tue Mar 14 2023 00:48:23 GMT-0400 (Eastern Daylight Time)","799240","Match,No Match","html-keyboard-response","9","241690","0.0-5.0-5.0","","null","","<div class='trialBorder'><div class='vertical-center'><img src='img/error.jpg'></div><div class='respDiv'><div class='respDivL'>Match<br>(e)</div><div class='respDivR'><font style='color:orange'>No Match<br>(i)</font></div></div></div>","null","FEEDBACK","","","","","","","","","","",""
"","","","","6404fb7b9a7b3cfb4179d185","bdp_wmem","Tue Mar 14 2023 00:48:23 GMT-0400 (Eastern Daylight Time)","799240","Match,No Match","html-keyboard-response","10","242202","0.0-5.0-1.1","","null","","<div class='trialBorder'><div class='vertical-center'><img src='img/fixation2_sml.jpg'</img></div></div>","null","FIX","","","","","","","","","","",""
"","","","","6404fb7b9a7b3cfb4179d185","bdp_wmem","Tue Mar 14 2023 00:48:23 GMT-0400 (Eastern Daylight Time)","799240","Match,No Match","html-keyboard-response","11","245212","0.0-5.0-2.1","","null","","<div class='trialBorder'><div class='vertical-center'><img style='vertical-align:center; align:center' src='img/fixation2_sml.jpg'></div><div class='arrayDiv2'><div class='tl'><img class='introPic' src='trustrating_stim/white_mw012.bmp'><br><font color='green'><strong>Share</strong></font></div><div class='tr'><img class='introPic' src='trustrating_stim/white_mw091.bmp'><br><font color='red'><strong>Keep</strong></font></div></div></div>","null","ARRAY","2","trustrating_stim/white_mw012.bmp,trustrating_stim/white_mw091.bmp","1,0","noMatchFace","i","3000","","","","",""
"","","","","6404fb7b9a7b3cfb4179d185","bdp_wmem","Tue Mar 14 2023 00:48:23 GMT-0400 (Eastern Daylight Time)","799240","Match,No Match","html-keyboard-response","12","249213","0.0-5.0-3.1","","null","","<div class='trialBorder'><div class='vertical-center'><img src='img/fixation2_sml.jpg'</img></div></div>","null","DELAY","","","","","","","","","","",""
"","","","","6404fb7b9a7b3cfb4179d185","bdp_wmem","Tue Mar 14 2023 00:48:23 GMT-0400 (Eastern Daylight Time)","799240","Match,No Match","html-keyboard-response","13","251760","0.0-5.0-4.1","","2545","","<div class='trialBorder'><div class='targDiv'><div class='tc'><img class='introPic' src='trustrating_stim/white_mw042.bmp'><br><font color='green'><strong>Share</strong></font></div></div><div class='respDiv'><div class='respDivL'>Match<br>(e)</div><div class='respDivR'>No Match<br>(i)</div></div></div>","e","TARGET","2","trustrating_stim/white_mw012.bmp,trustrating_stim/white_mw091.bmp","1,0","noMatchFace","i","3000","trustrating_stim/white_mw042.bmp","green","Share","PRACTICE","0"
"","","","","6404fb7b9a7b3cfb4179d185","bdp_wmem","Tue Mar 14 2023 00:48:23 GMT-0400 (Eastern Daylight Time)","799240","Match,No Match","html-keyboard-response","14","252260","0.0-5.0-5.1","","null","","<div class='trialBorder'><div class='vertical-center'><img src='img/error.jpg'></div><div class='respDiv'><div class='respDivL'><font style='color:orange'>Match<br>(e)</font></div><div class='respDivR'>No Match<br>(i)</div></div></div>","null","FEEDBACK","","","","","","","","","","",""
"","","","","6404fb7b9a7b3cfb4179d185","bdp_wmem","Tue Mar 14 2023 00:48:23 GMT-0400 (Eastern Daylight Time)","799240","Match,No Match","html-keyboard-response","15","252768","0.0-5.0-1.2","","null","","<div class='trialBorder'><div class='vertical-center'><img src='img/fixation2_sml.jpg'</img></div></div>","null","FIX","","","","","","","","","","",""
"","","","","6404fb7b9a7b3cfb4179d185","bdp_wmem","Tue Mar 14 2023 00:48:23 GMT-0400 (Eastern Daylight Time)","799240","Match,No Match","html-keyboard-response","16","257272","0.0-5.0-2.2","","null","","<div class='trialBorder'><div class='vertical-center'><img style='vertical-align:center; align:center' src='img/fixation2_sml.jpg'></div><div class='arrayDiv3'><div class='tl'><img class='introPic' src='trustrating_stim/white_mw038.bmp'><br><font color='green'><strong>Share</strong></font></div><div class='tc'><img class='introPic' src='trustrating_stim/white_mw010.bmp'><br><font color='red'><strong>Keep</strong></font></div><div class='tr'><img class='introPic' src='trustrating_stim/white_mw070.bmp'><br><font color='red'><strong>Keep</strong></font></div></div></div>","null","ARRAY","3","trustrating_stim/white_mw038.bmp,trustrating_stim/white_mw010.bmp,trustrating_stim/white_mw070.bmp","1,0,0","Match","e","4500","","","","",""
"","","","","6404fb7b9a7b3cfb4179d185","bdp_wmem","Tue Mar 14 2023 00:48:23 GMT-0400 (Eastern Daylight Time)","799240","Match,No Match","html-keyboard-response","17","261280","0.0-5.0-3.2","","null","","<div class='trialBorder'><div class='vertical-center'><img src='img/fixation2_sml.jpg'</img></div></div>","null","DELAY","","","","","","","","","","",""
"","","","","6404fb7b9a7b3cfb4179d185","bdp_wmem","Tue Mar 14 2023 00:48:23 GMT-0400 (Eastern Daylight Time)","799240","Match,No Match","html-keyboard-response","18","263978","0.0-5.0-4.2","","2698","","<div class='trialBorder'><div class='targDiv'><div class='tc'><img class='introPic' src='trustrating_stim/white_mw010.bmp'><br><font color='red'><strong>Keep</strong></font></div></div><div class='respDiv'><div class='respDivL'>Match<br>(e)</div><div class='respDivR'>No Match<br>(i)</div></div></div>","e","TARGET","3","trustrating_stim/white_mw038.bmp,trustrating_stim/white_mw010.bmp,trustrating_stim/white_mw070.bmp","1,0,0","Match","e","4500","trustrating_stim/white_mw010.bmp","red","Keep","PRACTICE","1"
"","","","","6404fb7b9a7b3cfb4179d185","bdp_wmem","Tue Mar 14 2023 00:48:23 GMT-0400 (Eastern Daylight Time)","799240","Match,No Match","html-keyboard-response","19","264479","0.0-5.0-5.2","","null","","<div class='trialBorder'><div class='vertical-center'><img src='img/correct.jpg'></div><div class='respDiv'><div class='respDivL'><font style='color:orange'>Match<br>(e)</font></div><div class='respDivR'>No Match<br>(i)</div></div></div>","null","FEEDBACK","","","","","","","","","","",""
"","","","","6404fb7b9a7b3cfb4179d185","bdp_wmem","Tue Mar 14 2023 00:48:23 GMT-0400 (Eastern Daylight Time)","799240","Match,No Match","html-keyboard-response","20","264995","0.0-5.0-1.3","","null","","<div class='trialBorder'><div class='vertical-center'><img src='img/fixation2_sml.jpg'</img></div></div>","null","FIX","","","","","","","","","","",""
"","","","","6404fb7b9a7b3cfb4179d185","bdp_wmem","Tue Mar 14 2023 00:48:23 GMT-0400 (Eastern Daylight Time)","799240","Match,No Match","html-keyboard-response","21","266498","0.0-5.0-2.3","","null","","<div class='trialBorder'><div class='vertical-center'><img style='vertical-align:center; align:center' src='img/fixation2_sml.jpg'></div><div class='arrayDiv1'><div class='tc'><img class='introPic' src='trustrating_stim/white_mw038.bmp'><br><font color='red'><strong>Keep</strong></font></div></div></div>","null","ARRAY","1","trustrating_stim/white_mw038.bmp","0","Match","e","1500","","","","",""
"","","","","6404fb7b9a7b3cfb4179d185","bdp_wmem","Tue Mar 14 2023 00:48:23 GMT-0400 (Eastern Daylight Time)","799240","Match,No Match","html-keyboard-response","22","270506","0.0-5.0-3.3","","null","","<div class='trialBorder'><div class='vertical-center'><img src='img/fixation2_sml.jpg'</img></div></div>","null","DELAY","","","","","","","","","","",""
"","","","","6404fb7b9a7b3cfb4179d185","bdp_wmem","Tue Mar 14 2023 00:48:23 GMT-0400 (Eastern Daylight Time)","799240","Match,No Match","html-keyboard-response","23","274107","0.0-5.0-4.3","","3600","","<div class='trialBorder'><div class='targDiv'><div class='tc'><img class='introPic' src='trustrating_stim/white_mw038.bmp'><br><font color='red'><strong>Keep</strong></font></div></div><div class='respDiv'><div class='respDivL'>Match<br>(e)</div><div class='respDivR'>No Match<br>(i)</div></div></div>","i","TARGET","1","trustrating_stim/white_mw038.bmp","0","Match","e","1500","trustrating_stim/white_mw038.bmp","red","Keep","PRACTICE","0"
"","","","","6404fb7b9a7b3cfb4179d185","bdp_wmem","Tue Mar 14 2023 00:48:23 GMT-0400 (Eastern Daylight Time)","799240","Match,No Match","html-keyboard-response","24","274609","0.0-5.0-5.3","","null","","<div class='trialBorder'><div class='vertical-center'><img src='img/error.jpg'></div><div class='respDiv'><div class='respDivL'>Match<br>(e)</div><div class='respDivR'><font style='color:orange'>No Match<br>(i)</font></div></div></div>","null","FEEDBACK","","","","","","","","","","",""
"","","","","6404fb7b9a7b3cfb4179d185","bdp_wmem","Tue Mar 14 2023 00:48:23 GMT-0400 (Eastern Daylight Time)","799240","Match,No Match","html-keyboard-response","25","275125","0.0-5.0-1.4","","null","","<div class='trialBorder'><div class='vertical-center'><img src='img/fixation2_sml.jpg'</img></div></div>","null","FIX","","","","","","","","","","",""
"","","","","6404fb7b9a7b3cfb4179d185","bdp_wmem","Tue Mar 14 2023 00:48:23 GMT-0400 (Eastern Daylight Time)","799240","Match,No Match","html-keyboard-response","26","276634","0.0-5.0-2.4","","null","","<div class='trialBorder'><div class='vertical-center'><img style='vertical-align:center; align:center' src='img/fixation2_sml.jpg'></div><div class='arrayDiv1'><div class='tc'><img class='introPic' src='trustrating_stim/white_mw078.bmp'><br><font color='red'><strong>Keep</strong></font></div></div></div>","null","ARRAY","1","trustrating_stim/white_mw078.bmp","0","noMatchFace","i","1500","","","","",""
"","","","","6404fb7b9a7b3cfb4179d185","bdp_wmem","Tue Mar 14 2023 00:48:23 GMT-0400 (Eastern Daylight Time)","799240","Match,No Match","html-keyboard-response","27","280639","0.0-5.0-3.4","","null","","<div class='trialBorder'><div class='vertical-center'><img src='img/fixation2_sml.jpg'</img></div></div>","null","DELAY","","","","","","","","","","",""
"","","","","6404fb7b9a7b3cfb4179d185","bdp_wmem","Tue Mar 14 2023 00:48:23 GMT-0400 (Eastern Daylight Time)","799240","Match,No Match","html-keyboard-response","28","283424","0.0-5.0-4.4","","2784","","<div class='trialBorder'><div class='targDiv'><div class='tc'><img class='introPic' src='trustrating_stim/white_mw038.bmp'><br><font color='red'><strong>Keep</strong></font></div></div><div class='respDiv'><div class='respDivL'>Match<br>(e)</div><div class='respDivR'>No Match<br>(i)</div></div></div>","e","TARGET","1","trustrating_stim/white_mw078.bmp","0","noMatchFace","i","1500","trustrating_stim/white_mw038.bmp","red","Keep","PRACTICE","0"
"","","","","6404fb7b9a7b3cfb4179d185","bdp_wmem","Tue Mar 14 2023 00:48:23 GMT-0400 (Eastern Daylight Time)","799240","Match,No Match","html-keyboard-response","29","283935","0.0-5.0-5.4","","null","","<div class='trialBorder'><div class='vertical-center'><img src='img/error.jpg'></div><div class='respDiv'><div class='respDivL'><font style='color:orange'>Match<br>(e)</font></div><div class='respDivR'>No Match<br>(i)</div></div></div>","null","FEEDBACK","","","","","","","","","","",""
"","","","","6404fb7b9a7b3cfb4179d185","bdp_wmem","Tue Mar 14 2023 00:48:23 GMT-0400 (Eastern Daylight Time)","799240","Match,No Match","html-keyboard-response","30","284450","0.0-5.0-1.5","","null","","<div class='trialBorder'><div class='vertical-center'><img src='img/fixation2_sml.jpg'</img></div></div>","null","FIX","","","","","","","","","","",""
"","","","","6404fb7b9a7b3cfb4179d185","bdp_wmem","Tue Mar 14 2023 00:48:23 GMT-0400 (Eastern Daylight Time)","799240","Match,No Match","html-keyboard-response","31","288958","0.0-5.0-2.5","","null","","<div class='trialBorder'><div class='vertical-center'><img style='vertical-align:center; align:center' src='img/fixation2_sml.jpg'></div><div class='arrayDiv3'><div class='tl'><img class='introPic' src='trustrating_stim/white_mw013.bmp'><br><font color='red'><strong>Keep</strong></font></div><div class='tc'><img class='introPic' src='trustrating_stim/white_mw038.bmp'><br><font color='green'><strong>Share</strong></font></div><div class='tr'><img class='introPic' src='trustrating_stim/white_mw085.bmp'><br><font color='green'><strong>Share</strong></font></div></div></div>","null","ARRAY","3","trustrating_stim/white_mw013.bmp,trustrating_stim/white_mw038.bmp,trustrating_stim/white_mw085.bmp","0,1,1","noMatchOutcome","i","4500","","","","",""
"","","","","6404fb7b9a7b3cfb4179d185","bdp_wmem","Tue Mar 14 2023 00:48:23 GMT-0400 (Eastern Daylight Time)","799240","Match,No Match","html-keyboard-response","32","292959","0.0-5.0-3.5","","null","","<div class='trialBorder'><div class='vertical-center'><img src='img/fixation2_sml.jpg'</img></div></div>","null","DELAY","","","","","","","","","","",""
"","","","","6404fb7b9a7b3cfb4179d185","bdp_wmem","Tue Mar 14 2023 00:48:23 GMT-0400 (Eastern Daylight Time)","799240","Match,No Match","html-keyboard-response","33","295565","0.0-5.0-4.5","","2605","","<div class='trialBorder'><div class='targDiv'><div class='tc'><img class='introPic' src='trustrating_stim/white_mw038.bmp'><br><font color='red'><strong>Keep</strong></font></div></div><div class='respDiv'><div class='respDivL'>Match<br>(e)</div><div class='respDivR'>No Match<br>(i)</div></div></div>","i","TARGET","3","trustrating_stim/white_mw013.bmp,trustrating_stim/white_mw038.bmp,trustrating_stim/white_mw085.bmp","0,1,1","noMatchOutcome","i","4500","trustrating_stim/white_mw038.bmp","red","Keep","PRACTICE","1"
"","","","","6404fb7b9a7b3cfb4179d185","bdp_wmem","Tue Mar 14 2023 00:48:23 GMT-0400 (Eastern Daylight Time)","799240","Match,No Match","html-keyboard-response","34","296081","0.0-5.0-5.5","","null","","<div class='trialBorder'><div class='vertical-center'><img src='img/correct.jpg'></div><div class='respDiv'><div class='respDivL'>Match<br>(e)</div><div class='respDivR'><font style='color:orange'>No Match<br>(i)</font></div></div></div>","null","FEEDBACK","","","","","","","","","","",""
"","","","","6404fb7b9a7b3cfb4179d185","bdp_wmem","Tue Mar 14 2023 00:48:23 GMT-0400 (Eastern Daylight Time)","799240","Match,No Match","instructions","35","317350","0.0-6.0","[{""page_index"":0,""viewing_time"":21269}]","21269","","","","","","","","","","","","","","",""
"","","","","6404fb7b9a7b3cfb4179d185","bdp_wmem","Tue Mar 14 2023 00:48:23 GMT-0400 (Eastern Daylight Time)","799240","Match,No Match","html-keyboard-response","36","317854","0.0-7.0-1.0","","null","","<div class='trialBorder'><div class='vertical-center'><img src='img/fixation2_sml.jpg'</img></div></div>","null","FIX","","","","","","","","","","",""
"","","","","6404fb7b9a7b3cfb4179d185","bdp_wmem","Tue Mar 14 2023 00:48:23 GMT-0400 (Eastern Daylight Time)","799240","Match,No Match","html-keyboard-response","37","322369","0.0-7.0-2.0","","null","","<div class='trialBorder'><div class='vertical-center'><img style='vertical-align:center; align:center' src='img/fixation2_sml.jpg'></div><div class='arrayDiv3'><div class='tl'><img class='introPic' src='trustrating_stim/white_mw042.bmp'><br><font color='red'><strong>Keep</strong></font></div><div class='tc'><img class='introPic' src='trustrating_stim/white_mw013.bmp'><br><font color='green'><strong>Share</strong></font></div><div class='tr'><img class='introPic' src='trustrating_stim/white_mw092.bmp'><br><font color='red'><strong>Keep</strong></font></div></div></div>","null","ARRAY","3","trustrating_stim/white_mw042.bmp,trustrating_stim/white_mw013.bmp,trustrating_stim/white_mw092.bmp","0,1,0","noMatchOutcome","i","4500","","","","",""
"","","","","6404fb7b9a7b3cfb4179d185","bdp_wmem","Tue Mar 14 2023 00:48:23 GMT-0400 (Eastern Daylight Time)","799240","Match,No Match","html-keyboard-response","38","326369","0.0-7.0-3.0","","null","","<div class='trialBorder'><div class='vertical-center'><img src='img/fixation2_sml.jpg'</img></div></div>","null","DELAY","","","","","","","","","","",""
"","","","","6404fb7b9a7b3cfb4179d185","bdp_wmem","Tue Mar 14 2023 00:48:23 GMT-0400 (Eastern Daylight Time)","799240","Match,No Match","html-keyboard-response","39","328950","0.0-7.0-4.0","","2580","","<div class='trialBorder'><div class='targDiv'><div class='tc'><img class='introPic' src='trustrating_stim/white_mw013.bmp'><br><font color='red'><strong>Keep</strong></font></div></div><div class='respDiv'><div class='respDivL'>Match<br>(e)</div><div class='respDivR'>No Match<br>(i)</div></div></div>","e","TARGET","3","trustrating_stim/white_mw042.bmp,trustrating_stim/white_mw013.bmp,trustrating_stim/white_mw092.bmp","0,1,0","noMatchOutcome","i","4500","trustrating_stim/white_mw013.bmp","red","Keep","REAL","0"
"","","","","6404fb7b9a7b3cfb4179d185","bdp_wmem","Tue Mar 14 2023 00:48:23 GMT-0400 (Eastern Daylight Time)","799240","Match,No Match","html-keyboard-response","40","329464","0.0-7.0-5.0","","null","","<div class='trialBorder'><div class='vertical-center'><img src='img/error.jpg'></div><div class='respDiv'><div class='respDivL'><font style='color:orange'>Match<br>(e)</font></div><div class='respDivR'>No Match<br>(i)</div></div></div>","null","FEEDBACK","","","","","","","","","","",""
"","","","","6404fb7b9a7b3cfb4179d185","bdp_wmem","Tue Mar 14 2023 00:48:23 GMT-0400 (Eastern Daylight Time)","799240","Match,No Match","html-keyboard-response","41","329966","0.0-7.0-1.1","","null","","<div class='trialBorder'><div class='vertical-center'><img src='img/fixation2_sml.jpg'</img></div></div>","null","FIX","","","","","","","","","","",""
"","","","","6404fb7b9a7b3cfb4179d185","bdp_wmem","Tue Mar 14 2023 00:48:23 GMT-0400 (Eastern Daylight Time)","799240","Match,No Match","html-keyboard-response","42","331481","0.0-7.0-2.1","","null","","<div class='trialBorder'><div class='vertical-center'><img style='vertical-align:center; align:center' src='img/fixation2_sml.jpg'></div><div class='arrayDiv1'><div class='tc'><img class='introPic' src='trustrating_stim/white_mw078.bmp'><br><font color='red'><strong>Keep</strong></font></div></div></div>","null","ARRAY","1","trustrating_stim/white_mw078.bmp","0","Match","e","1500","","","","",""
"","","","","6404fb7b9a7b3cfb4179d185","bdp_wmem","Tue Mar 14 2023 00:48:23 GMT-0400 (Eastern Daylight Time)","799240","Match,No Match","html-keyboard-response","43","335493","0.0-7.0-3.1","","null","","<div class='trialBorder'><div class='vertical-center'><img src='img/fixation2_sml.jpg'</img></div></div>","null","DELAY","","","","","","","","","","",""
"","","","","6404fb7b9a7b3cfb4179d185","bdp_wmem","Tue Mar 14 2023 00:48:23 GMT-0400 (Eastern Daylight Time)","799240","Match,No Match","html-keyboard-response","44","337130","0.0-7.0-4.1","","1635","","<div class='trialBorder'><div class='targDiv'><div class='tc'><img class='introPic' src='trustrating_stim/white_mw078.bmp'><br><font color='red'><strong>Keep</strong></font></div></div><div class='respDiv'><div class='respDivL'>Match<br>(e)</div><div class='respDivR'>No Match<br>(i)</div></div></div>","e","TARGET","1","trustrating_stim/white_mw078.bmp","0","Match","e","1500","trustrating_stim/white_mw078.bmp","red","Keep","REAL","1"
"","","","","6404fb7b9a7b3cfb4179d185","bdp_wmem","Tue Mar 14 2023 00:48:23 GMT-0400 (Eastern Daylight Time)","799240","Match,No Match","html-keyboard-response","45","337644","0.0-7.0-5.1","","null","","<div class='trialBorder'><div class='vertical-center'><img src='img/correct.jpg'></div><div class='respDiv'><div class='respDivL'><font style='color:orange'>Match<br>(e)</font></div><div class='respDivR'>No Match<br>(i)</div></div></div>","null","FEEDBACK","","","","","","","","","","",""
"","","","","6404fb7b9a7b3cfb4179d185","bdp_wmem","Tue Mar 14 2023 00:48:23 GMT-0400 (Eastern Daylight Time)","799240","Match,No Match","html-keyboard-response","46","338146","0.0-7.0-1.2","","null","","<div class='trialBorder'><div class='vertical-center'><img src='img/fixation2_sml.jpg'</img></div></div>","null","FIX","","","","","","","","","","",""
"","","","","6404fb7b9a7b3cfb4179d185","bdp_wmem","Tue Mar 14 2023 00:48:23 GMT-0400 (Eastern Daylight Time)","799240","Match,No Match","html-keyboard-response","47","342658","0.0-7.0-2.2","","null","","<div class='trialBorder'><div class='vertical-center'><img style='vertical-align:center; align:center' src='img/fixation2_sml.jpg'></div><div class='arrayDiv3'><div class='tl'><img class='introPic' src='trustrating_stim/white_mw040.bmp'><br><font color='red'><strong>Keep</strong></font></div><div class='tc'><img class='introPic' src='trustrating_stim/white_mw010.bmp'><br><font color='green'><strong>Share</strong></font></div><div class='tr'><img class='introPic' src='trustrating_stim/white_mw085.bmp'><br><font color='red'><strong>Keep</strong></font></div></div></div>","null","ARRAY","3","trustrating_stim/white_mw040.bmp,trustrating_stim/white_mw010.bmp,trustrating_stim/white_mw085.bmp","0,1,0","Match","e","4500","","","","",""
"","","","","6404fb7b9a7b3cfb4179d185","bdp_wmem","Tue Mar 14 2023 00:48:23 GMT-0400 (Eastern Daylight Time)","799240","Match,No Match","html-keyboard-response","48","346659","0.0-7.0-3.2","","null","","<div class='trialBorder'><div class='vertical-center'><img src='img/fixation2_sml.jpg'</img></div></div>","null","DELAY","","","","","","","","","","",""
"","","","","6404fb7b9a7b3cfb4179d185","bdp_wmem","Tue Mar 14 2023 00:48:23 GMT-0400 (Eastern Daylight Time)","799240","Match,No Match","html-keyboard-response","49","348361","0.0-7.0-4.2","","1701","","<div class='trialBorder'><div class='targDiv'><div class='tc'><img class='introPic' src='trustrating_stim/white_mw040.bmp'><br><font color='red'><strong>Keep</strong></font></div></div><div class='respDiv'><div class='respDivL'>Match<br>(e)</div><div class='respDivR'>No Match<br>(i)</div></div></div>","e","TARGET","3","trustrating_stim/white_mw040.bmp,trustrating_stim/white_mw010.bmp,trustrating_stim/white_mw085.bmp","0,1,0","Match","e","4500","trustrating_stim/white_mw040.bmp","red","Keep","REAL","1"
"","","","","6404fb7b9a7b3cfb4179d185","bdp_wmem","Tue Mar 14 2023 00:48:23 GMT-0400 (Eastern Daylight Time)","799240","Match,No Match","html-keyboard-response","50","348873","0.0-7.0-5.2","","null","","<div class='trialBorder'><div class='vertical-center'><img src='img/correct.jpg'></div><div class='respDiv'><div class='respDivL'><font style='color:orange'>Match<br>(e)</font></div><div class='respDivR'>No Match<br>(i)</div></div></div>","null","FEEDBACK","","","","","","","","","","",""
"","","","","6404fb7b9a7b3cfb4179d185","bdp_wmem","Tue Mar 14 2023 00:48:23 GMT-0400 (Eastern Daylight Time)","799240","Match,No Match","html-keyboard-response","51","349375","0.0-7.0-1.3","","null","","<div class='trialBorder'><div class='vertical-center'><img src='img/fixation2_sml.jpg'</img></div></div>","null","FIX","","","","","","","","","","",""
"","","","","6404fb7b9a7b3cfb4179d185","bdp_wmem","Tue Mar 14 2023 00:48:23 GMT-0400 (Eastern Daylight Time)","799240","Match,No Match","html-keyboard-response","52","352389","0.0-7.0-2.3","","null","","<div class='trialBorder'><div class='vertical-center'><img style='vertical-align:center; align:center' src='img/fixation2_sml.jpg'></div><div class='arrayDiv2'><div class='tl'><img class='introPic' src='trustrating_stim/white_mw040.bmp'><br><font color='green'><strong>Share</strong></font></div><div class='tr'><img class='introPic' src='trustrating_stim/white_mw070.bmp'><br><font color='red'><strong>Keep</strong></font></div></div></div>","null","ARRAY","2","trustrating_stim/white_mw040.bmp,trustrating_stim/white_mw070.bmp","1,0","noMatchOutcome","i","3000","","","","",""
"","","","","6404fb7b9a7b3cfb4179d185","bdp_wmem","Tue Mar 14 2023 00:48:23 GMT-0400 (Eastern Daylight Time)","799240","Match,No Match","html-keyboard-response","53","356404","0.0-7.0-3.3","","null","","<div class='trialBorder'><div class='vertical-center'><img src='img/fixation2_sml.jpg'</img></div></div>","null","DELAY","","","","","","","","","","",""
"","","","","6404fb7b9a7b3cfb4179d185","bdp_wmem","Tue Mar 14 2023 00:48:23 GMT-0400 (Eastern Daylight Time)","799240","Match,No Match","html-keyboard-response","54","357868","0.0-7.0-4.3","","1463","","<div class='trialBorder'><div class='targDiv'><div class='tc'><img class='introPic' src='trustrating_stim/white_mw040.bmp'><br><font color='red'><strong>Keep</strong></font></div></div><div class='respDiv'><div class='respDivL'>Match<br>(e)</div><div class='respDivR'>No Match<br>(i)</div></div></div>","i","TARGET","2","trustrating_stim/white_mw040.bmp,trustrating_stim/white_mw070.bmp","1,0","noMatchOutcome","i","3000","trustrating_stim/white_mw040.bmp","red","Keep","REAL","1"
"","","","","6404fb7b9a7b3cfb4179d185","bdp_wmem","Tue Mar 14 2023 00:48:23 GMT-0400 (Eastern Daylight Time)","799240","Match,No Match","html-keyboard-response","55","358384","0.0-7.0-5.3","","null","","<div class='trialBorder'><div class='vertical-center'><img src='img/correct.jpg'></div><div class='respDiv'><div class='respDivL'>Match<br>(e)</div><div class='respDivR'><font style='color:orange'>No Match<br>(i)</font></div></div></div>","null","FEEDBACK","","","","","","","","","","",""
"","","","","6404fb7b9a7b3cfb4179d185","bdp_wmem","Tue Mar 14 2023 00:48:23 GMT-0400 (Eastern Daylight Time)","799240","Match,No Match","html-keyboard-response","56","358886","0.0-7.0-1.4","","null","","<div class='trialBorder'><div class='vertical-center'><img src='img/fixation2_sml.jpg'</img></div></div>","null","FIX","","","","","","","","","","",""
"","","","","6404fb7b9a7b3cfb4179d185","bdp_wmem","Tue Mar 14 2023 00:48:23 GMT-0400 (Eastern Daylight Time)","799240","Match,No Match","html-keyboard-response","57","360398","0.0-7.0-2.4","","null","","<div class='trialBorder'><div class='vertical-center'><img style='vertical-align:center; align:center' src='img/fixation2_sml.jpg'></div><div class='arrayDiv1'><div class='tc'><img class='introPic' src='trustrating_stim/white_mw042.bmp'><br><font color='green'><strong>Share</strong></font></div></div></div>","null","ARRAY","1","trustrating_stim/white_mw042.bmp","1","Match","e","1500","","","","",""
"","","","","6404fb7b9a7b3cfb4179d185","bdp_wmem","Tue Mar 14 2023 00:48:23 GMT-0400 (Eastern Daylight Time)","799240","Match,No Match","html-keyboard-response","58","364399","0.0-7.0-3.4","","null","","<div class='trialBorder'><div class='vertical-center'><img src='img/fixation2_sml.jpg'</img></div></div>","null","DELAY","","","","","","","","","","",""
"","","","","6404fb7b9a7b3cfb4179d185","bdp_wmem","Tue Mar 14 2023 00:48:23 GMT-0400 (Eastern Daylight Time)","799240","Match,No Match","html-keyboard-response","59","366143","0.0-7.0-4.4","","1743","","<div class='trialBorder'><div class='targDiv'><div class='tc'><img class='introPic' src='trustrating_stim/white_mw042.bmp'><br><font color='green'><strong>Share</strong></font></div></div><div class='respDiv'><div class='respDivL'>Match<br>(e)</div><div class='respDivR'>No Match<br>(i)</div></div></div>","e","TARGET","1","trustrating_stim/white_mw042.bmp","1","Match","e","1500","trustrating_stim/white_mw042.bmp","green","Share","REAL","1"
"","","","","6404fb7b9a7b3cfb4179d185","bdp_wmem","Tue Mar 14 2023 00:48:23 GMT-0400 (Eastern Daylight Time)","799240","Match,No Match","html-keyboard-response","60","366649","0.0-7.0-5.4","","null","","<div class='trialBorder'><div class='vertical-center'><img src='img/correct.jpg'></div><div class='respDiv'><div class='respDivL'><font style='color:orange'>Match<br>(e)</font></div><div class='respDivR'>No Match<br>(i)</div></div></div>","null","FEEDBACK","","","","","","","","","","",""
"","","","","6404fb7b9a7b3cfb4179d185","bdp_wmem","Tue Mar 14 2023 00:48:23 GMT-0400 (Eastern Daylight Time)","799240","Match,No Match","html-keyboard-response","61","367160","0.0-7.0-1.5","","null","","<div class='trialBorder'><div class='vertical-center'><img src='img/fixation2_sml.jpg'</img></div></div>","null","FIX","","","","","","","","","","",""
"","","","","6404fb7b9a7b3cfb4179d185","bdp_wmem","Tue Mar 14 2023 00:48:23 GMT-0400 (Eastern Daylight Time)","799240","Match,No Match","html-keyboard-response","62","371664","0.0-7.0-2.5","","null","","<div class='trialBorder'><div class='vertical-center'><img style='vertical-align:center; align:center' src='img/fixation2_sml.jpg'></div><div class='arrayDiv3'><div class='tl'><img class='introPic' src='trustrating_stim/white_mw012.bmp'><br><font color='green'><strong>Share</strong></font></div><div class='tc'><img class='introPic' src='trustrating_stim/white_mw091.bmp'><br><font color='red'><strong>Keep</strong></font></div><div class='tr'><img class='introPic' src='trustrating_stim/white_mw078.bmp'><br><font color='red'><strong>Keep</strong></font></div></div></div>","null","ARRAY","3","trustrating_stim/white_mw012.bmp,trustrating_stim/white_mw091.bmp,trustrating_stim/white_mw078.bmp","1,0,0","noMatchFace","i","4500","","","","",""
"","","","","6404fb7b9a7b3cfb4179d185","bdp_wmem","Tue Mar 14 2023 00:48:23 GMT-0400 (Eastern Daylight Time)","799240","Match,No Match","html-keyboard-response","63","375678","0.0-7.0-3.5","","null","","<div class='trialBorder'><div class='vertical-center'><img src='img/fixation2_sml.jpg'</img></div></div>","null","DELAY","","","","","","","","","","",""
"","","","","6404fb7b9a7b3cfb4179d185","bdp_wmem","Tue Mar 14 2023 00:48:23 GMT-0400 (Eastern Daylight Time)","799240","Match,No Match","html-keyboard-response","64","377169","0.0-7.0-4.5","","1491","","<div class='trialBorder'><div class='targDiv'><div class='tc'><img class='introPic' src='trustrating_stim/white_mw003.bmp'><br><font color='red'><strong>Keep</strong></font></div></div><div class='respDiv'><div class='respDivL'>Match<br>(e)</div><div class='respDivR'>No Match<br>(i)</div></div></div>","e","TARGET","3","trustrating_stim/white_mw012.bmp,trustrating_stim/white_mw091.bmp,trustrating_stim/white_mw078.bmp","1,0,0","noMatchFace","i","4500","trustrating_stim/white_mw003.bmp","red","Keep","REAL","0"
"","","","","6404fb7b9a7b3cfb4179d185","bdp_wmem","Tue Mar 14 2023 00:48:23 GMT-0400 (Eastern Daylight Time)","799240","Match,No Match","html-keyboard-response","65","377677","0.0-7.0-5.5","","null","","<div class='trialBorder'><div class='vertical-center'><img src='img/error.jpg'></div><div class='respDiv'><div class='respDivL'><font style='color:orange'>Match<br>(e)</font></div><div class='respDivR'>No Match<br>(i)</div></div></div>","null","FEEDBACK","","","","","","","","","","",""
"","","","","6404fb7b9a7b3cfb4179d185","bdp_wmem","Tue Mar 14 2023 00:48:23 GMT-0400 (Eastern Daylight Time)","799240","Match,No Match","html-keyboard-response","66","378193","0.0-7.0-1.6","","null","","<div class='trialBorder'><div class='vertical-center'><img src='img/fixation2_sml.jpg'</img></div></div>","null","FIX","","","","","","","","","","",""
"","","","","6404fb7b9a7b3cfb4179d185","bdp_wmem","Tue Mar 14 2023 00:48:23 GMT-0400 (Eastern Daylight Time)","799240","Match,No Match","html-keyboard-response","67","379694","0.0-7.0-2.6","","null","","<div class='trialBorder'><div class='vertical-center'><img style='vertical-align:center; align:center' src='img/fixation2_sml.jpg'></div><div class='arrayDiv1'><div class='tc'><img class='introPic' src='trustrating_stim/white_mw013.bmp'><br><font color='green'><strong>Share</strong></font></div></div></div>","null","ARRAY","1","trustrating_stim/white_mw013.bmp","1","noMatchOutcome","i","1500","","","","",""
"","","","","6404fb7b9a7b3cfb4179d185","bdp_wmem","Tue Mar 14 2023 00:48:23 GMT-0400 (Eastern Daylight Time)","799240","Match,No Match","html-keyboard-response","68","383694","0.0-7.0-3.6","","null","","<div class='trialBorder'><div class='vertical-center'><img src='img/fixation2_sml.jpg'</img></div></div>","null","DELAY","","","","","","","","","","",""
"","","","","6404fb7b9a7b3cfb4179d185","bdp_wmem","Tue Mar 14 2023 00:48:23 GMT-0400 (Eastern Daylight Time)","799240","Match,No Match","html-keyboard-response","69","385226","0.0-7.0-4.6","","1532","","<div class='trialBorder'><div class='targDiv'><div class='tc'><img class='introPic' src='trustrating_stim/white_mw013.bmp'><br><font color='red'><strong>Keep</strong></font></div></div><div class='respDiv'><div class='respDivL'>Match<br>(e)</div><div class='respDivR'>No Match<br>(i)</div></div></div>","i","TARGET","1","trustrating_stim/white_mw013.bmp","1","noMatchOutcome","i","1500","trustrating_stim/white_mw013.bmp","red","Keep","REAL","1"
"","","","","6404fb7b9a7b3cfb4179d185","bdp_wmem","Tue Mar 14 2023 00:48:23 GMT-0400 (Eastern Daylight Time)","799240","Match,No Match","html-keyboard-response","70","385734","0.0-7.0-5.6","","null","","<div class='trialBorder'><div class='vertical-center'><img src='img/correct.jpg'></div><div class='respDiv'><div class='respDivL'>Match<br>(e)</div><div class='respDivR'><font style='color:orange'>No Match<br>(i)</font></div></div></div>","null","FEEDBACK","","","","","","","","","","",""
"","","","","6404fb7b9a7b3cfb4179d185","bdp_wmem","Tue Mar 14 2023 00:48:23 GMT-0400 (Eastern Daylight Time)","799240","Match,No Match","html-keyboard-response","71","386239","0.0-7.0-1.7","","null","","<div class='trialBorder'><div class='vertical-center'><img src='img/fixation2_sml.jpg'</img></div></div>","null","FIX","","","","","","","","","","",""
"","","","","6404fb7b9a7b3cfb4179d185","bdp_wmem","Tue Mar 14 2023 00:48:23 GMT-0400 (Eastern Daylight Time)","799240","Match,No Match","html-keyboard-response","72","387740","0.0-7.0-2.7","","null","","<div class='trialBorder'><div class='vertical-center'><img style='vertical-align:center; align:center' src='img/fixation2_sml.jpg'></div><div class='arrayDiv1'><div class='tc'><img class='introPic' src='trustrating_stim/white_mw013.bmp'><br><font color='green'><strong>Share</strong></font></div></div></div>","null","ARRAY","1","trustrating_stim/white_mw013.bmp","1","noMatchOutcome","i","1500","","","","",""
"","","","","6404fb7b9a7b3cfb4179d185","bdp_wmem","Tue Mar 14 2023 00:48:23 GMT-0400 (Eastern Daylight Time)","799240","Match,No Match","html-keyboard-response","73","391754","0.0-7.0-3.7","","null","","<div class='trialBorder'><div class='vertical-center'><img src='img/fixation2_sml.jpg'</img></div></div>","null","DELAY","","","","","","","","","","",""
"","","","","6404fb7b9a7b3cfb4179d185","bdp_wmem","Tue Mar 14 2023 00:48:23 GMT-0400 (Eastern Daylight Time)","799240","Match,No Match","html-keyboard-response","74","393354","0.0-7.0-4.7","","1599","","<div class='trialBorder'><div class='targDiv'><div class='tc'><img class='introPic' src='trustrating_stim/white_mw013.bmp'><br><font color='red'><strong>Keep</strong></font></div></div><div class='respDiv'><div class='respDivL'>Match<br>(e)</div><div class='respDivR'>No Match<br>(i)</div></div></div>","i","TARGET","1","trustrating_stim/white_mw013.bmp","1","noMatchOutcome","i","1500","trustrating_stim/white_mw013.bmp","red","Keep","REAL","1"
"","","","","6404fb7b9a7b3cfb4179d185","bdp_wmem","Tue Mar 14 2023 00:48:23 GMT-0400 (Eastern Daylight Time)","799240","Match,No Match","html-keyboard-response","75","393869","0.0-7.0-5.7","","null","","<div class='trialBorder'><div class='vertical-center'><img src='img/correct.jpg'></div><div class='respDiv'><div class='respDivL'>Match<br>(e)</div><div class='respDivR'><font style='color:orange'>No Match<br>(i)</font></div></div></div>","null","FEEDBACK","","","","","","","","","","",""
"","","","","6404fb7b9a7b3cfb4179d185","bdp_wmem","Tue Mar 14 2023 00:48:23 GMT-0400 (Eastern Daylight Time)","799240","Match,No Match","html-keyboard-response","76","394385","0.0-7.0-1.8","","null","","<div class='trialBorder'><div class='vertical-center'><img src='img/fixation2_sml.jpg'</img></div></div>","null","FIX","","","","","","","","","","",""
"","","","","6404fb7b9a7b3cfb4179d185","bdp_wmem","Tue Mar 14 2023 00:48:23 GMT-0400 (Eastern Daylight Time)","799240","Match,No Match","html-keyboard-response","77","398899","0.0-7.0-2.8","","null","","<div class='trialBorder'><div class='vertical-center'><img style='vertical-align:center; align:center' src='img/fixation2_sml.jpg'></div><div class='arrayDiv3'><div class='tl'><img class='introPic' src='trustrating_stim/white_mw091.bmp'><br><font color='red'><strong>Keep</strong></font></div><div class='tc'><img class='introPic' src='trustrating_stim/white_mw070.bmp'><br><font color='green'><strong>Share</strong></font></div><div class='tr'><img class='introPic' src='trustrating_stim/white_mw092.bmp'><br><font color='red'><strong>Keep</strong></font></div></div></div>","null","ARRAY","3","trustrating_stim/white_mw091.bmp,trustrating_stim/white_mw070.bmp,trustrating_stim/white_mw092.bmp","0,1,0","Match","e","4500","","","","",""
"","","","","6404fb7b9a7b3cfb4179d185","bdp_wmem","Tue Mar 14 2023 00:48:23 GMT-0400 (Eastern Daylight Time)","799240","Match,No Match","html-keyboard-response","78","402900","0.0-7.0-3.8","","null","","<div class='trialBorder'><div class='vertical-center'><img src='img/fixation2_sml.jpg'</img></div></div>","null","DELAY","","","","","","","","","","",""
"","","","","6404fb7b9a7b3cfb4179d185","bdp_wmem","Tue Mar 14 2023 00:48:23 GMT-0400 (Eastern Daylight Time)","799240","Match,No Match","html-keyboard-response","79","405211","0.0-7.0-4.8","","2311","","<div class='trialBorder'><div class='targDiv'><div class='tc'><img class='introPic' src='trustrating_stim/white_mw092.bmp'><br><font color='red'><strong>Keep</strong></font></div></div><div class='respDiv'><div class='respDivL'>Match<br>(e)</div><div class='respDivR'>No Match<br>(i)</div></div></div>","e","TARGET","3","trustrating_stim/white_mw091.bmp,trustrating_stim/white_mw070.bmp,trustrating_stim/white_mw092.bmp","0,1,0","Match","e","4500","trustrating_stim/white_mw092.bmp","red","Keep","REAL","1"
"","","","","6404fb7b9a7b3cfb4179d185","bdp_wmem","Tue Mar 14 2023 00:48:23 GMT-0400 (Eastern Daylight Time)","799240","Match,No Match","html-keyboard-response","80","405715","0.0-7.0-5.8","","null","","<div class='trialBorder'><div class='vertical-center'><img src='img/correct.jpg'></div><div class='respDiv'><div class='respDivL'><font style='color:orange'>Match<br>(e)</font></div><div class='respDivR'>No Match<br>(i)</div></div></div>","null","FEEDBACK","","","","","","","","","","",""
"","","","","6404fb7b9a7b3cfb4179d185","bdp_wmem","Tue Mar 14 2023 00:48:23 GMT-0400 (Eastern Daylight Time)","799240","Match,No Match","html-keyboard-response","81","406229","0.0-7.0-1.9","","null","","<div class='trialBorder'><div class='vertical-center'><img src='img/fixation2_sml.jpg'</img></div></div>","null","FIX","","","","","","","","","","",""
"","","","","6404fb7b9a7b3cfb4179d185","bdp_wmem","Tue Mar 14 2023 00:48:23 GMT-0400 (Eastern Daylight Time)","799240","Match,No Match","html-keyboard-response","82","410730","0.0-7.0-2.9","","null","","<div class='trialBorder'><div class='vertical-center'><img style='vertical-align:center; align:center' src='img/fixation2_sml.jpg'></div><div class='arrayDiv3'><div class='tl'><img class='introPic' src='trustrating_stim/white_mw092.bmp'><br><font color='red'><strong>Keep</strong></font></div><div class='tc'><img class='introPic' src='trustrating_stim/white_mw013.bmp'><br><font color='green'><strong>Share</strong></font></div><div class='tr'><img class='introPic' src='trustrating_stim/white_mw038.bmp'><br><font color='green'><strong>Share</strong></font></div></div></div>","null","ARRAY","3","trustrating_stim/white_mw092.bmp,trustrating_stim/white_mw013.bmp,trustrating_stim/white_mw038.bmp","0,1,1","noMatchFace","i","4500","","","","",""
"","","","","6404fb7b9a7b3cfb4179d185","bdp_wmem","Tue Mar 14 2023 00:48:23 GMT-0400 (Eastern Daylight Time)","799240","Match,No Match","html-keyboard-response","83","414746","0.0-7.0-3.9","","null","","<div class='trialBorder'><div class='vertical-center'><img src='img/fixation2_sml.jpg'</img></div></div>","null","DELAY","","","","","","","","","","",""
"","","","","6404fb7b9a7b3cfb4179d185","bdp_wmem","Tue Mar 14 2023 00:48:23 GMT-0400 (Eastern Daylight Time)","799240","Match,No Match","html-keyboard-response","84","417394","0.0-7.0-4.9","","2648","","<div class='trialBorder'><div class='targDiv'><div class='tc'><img class='introPic' src='trustrating_stim/white_mw042.bmp'><br><font color='green'><strong>Share</strong></font></div></div><div class='respDiv'><div class='respDivL'>Match<br>(e)</div><div class='respDivR'>No Match<br>(i)</div></div></div>","e","TARGET","3","trustrating_stim/white_mw092.bmp,trustrating_stim/white_mw013.bmp,trustrating_stim/white_mw038.bmp","0,1,1","noMatchFace","i","4500","trustrating_stim/white_mw042.bmp","green","Share","REAL","0"
"","","","","6404fb7b9a7b3cfb4179d185","bdp_wmem","Tue Mar 14 2023 00:48:23 GMT-0400 (Eastern Daylight Time)","799240","Match,No Match","html-keyboard-response","85","417908","0.0-7.0-5.9","","null","","<div class='trialBorder'><div class='vertical-center'><img src='img/error.jpg'></div><div class='respDiv'><div class='respDivL'><font style='color:orange'>Match<br>(e)</font></div><div class='respDivR'>No Match<br>(i)</div></div></div>","null","FEEDBACK","","","","","","","","","","",""
"","","","","6404fb7b9a7b3cfb4179d185","bdp_wmem","Tue Mar 14 2023 00:48:23 GMT-0400 (Eastern Daylight Time)","799240","Match,No Match","html-keyboard-response","86","418416","0.0-7.0-1.10","","null","","<div class='trialBorder'><div class='vertical-center'><img src='img/fixation2_sml.jpg'</img></div></div>","null","FIX","","","","","","","","","","",""
"","","","","6404fb7b9a7b3cfb4179d185","bdp_wmem","Tue Mar 14 2023 00:48:23 GMT-0400 (Eastern Daylight Time)","799240","Match,No Match","html-keyboard-response","87","422925","0.0-7.0-2.10","","null","","<div class='trialBorder'><div class='vertical-center'><img style='vertical-align:center; align:center' src='img/fixation2_sml.jpg'></div><div class='arrayDiv3'><div class='tl'><img class='introPic' src='trustrating_stim/white_mw078.bmp'><br><font color='red'><strong>Keep</strong></font></div><div class='tc'><img class='introPic' src='trustrating_stim/white_mw013.bmp'><br><font color='red'><strong>Keep</strong></font></div><div class='tr'><img class='introPic' src='trustrating_stim/white_mw003.bmp'><br><font color='green'><strong>Share</strong></font></div></div></div>","null","ARRAY","3","trustrating_stim/white_mw078.bmp,trustrating_stim/white_mw013.bmp,trustrating_stim/white_mw003.bmp","0,0,1","Match","e","4500","","","","",""
"","","","","6404fb7b9a7b3cfb4179d185","bdp_wmem","Tue Mar 14 2023 00:48:23 GMT-0400 (Eastern Daylight Time)","799240","Match,No Match","html-keyboard-response","88","426936","0.0-7.0-3.10","","null","","<div class='trialBorder'><div class='vertical-center'><img src='img/fixation2_sml.jpg'</img></div></div>","null","DELAY","","","","","","","","","","",""
"","","","","6404fb7b9a7b3cfb4179d185","bdp_wmem","Tue Mar 14 2023 00:48:23 GMT-0400 (Eastern Daylight Time)","799240","Match,No Match","html-keyboard-response","89","428715","0.0-7.0-4.10","","1778","","<div class='trialBorder'><div class='targDiv'><div class='tc'><img class='introPic' src='trustrating_stim/white_mw078.bmp'><br><font color='red'><strong>Keep</strong></font></div></div><div class='respDiv'><div class='respDivL'>Match<br>(e)</div><div class='respDivR'>No Match<br>(i)</div></div></div>","e","TARGET","3","trustrating_stim/white_mw078.bmp,trustrating_stim/white_mw013.bmp,trustrating_stim/white_mw003.bmp","0,0,1","Match","e","4500","trustrating_stim/white_mw078.bmp","red","Keep","REAL","1"
"","","","","6404fb7b9a7b3cfb4179d185","bdp_wmem","Tue Mar 14 2023 00:48:23 GMT-0400 (Eastern Daylight Time)","799240","Match,No Match","html-keyboard-response","90","429220","0.0-7.0-5.10","","null","","<div class='trialBorder'><div class='vertical-center'><img src='img/correct.jpg'></div><div class='respDiv'><div class='respDivL'><font style='color:orange'>Match<br>(e)</font></div><div class='respDivR'>No Match<br>(i)</div></div></div>","null","FEEDBACK","","","","","","","","","","",""
"","","","","6404fb7b9a7b3cfb4179d185","bdp_wmem","Tue Mar 14 2023 00:48:23 GMT-0400 (Eastern Daylight Time)","799240","Match,No Match","html-keyboard-response","91","429721","0.0-7.0-1.11","","null","","<div class='trialBorder'><div class='vertical-center'><img src='img/fixation2_sml.jpg'</img></div></div>","null","FIX","","","","","","","","","","",""
"","","","","6404fb7b9a7b3cfb4179d185","bdp_wmem","Tue Mar 14 2023 00:48:23 GMT-0400 (Eastern Daylight Time)","799240","Match,No Match","html-keyboard-response","92","431229","0.0-7.0-2.11","","null","","<div class='trialBorder'><div class='vertical-center'><img style='vertical-align:center; align:center' src='img/fixation2_sml.jpg'></div><div class='arrayDiv1'><div class='tc'><img class='introPic' src='trustrating_stim/white_mw010.bmp'><br><font color='red'><strong>Keep</strong></font></div></div></div>","null","ARRAY","1","trustrating_stim/white_mw010.bmp","0","noMatchFace","i","1500","","","","",""
"","","","","6404fb7b9a7b3cfb4179d185","bdp_wmem","Tue Mar 14 2023 00:48:23 GMT-0400 (Eastern Daylight Time)","799240","Match,No Match","html-keyboard-response","93","435235","0.0-7.0-3.11","","null","","<div class='trialBorder'><div class='vertical-center'><img src='img/fixation2_sml.jpg'</img></div></div>","null","DELAY","","","","","","","","","","",""
"","","","","6404fb7b9a7b3cfb4179d185","bdp_wmem","Tue Mar 14 2023 00:48:23 GMT-0400 (Eastern Daylight Time)","799240","Match,No Match","html-keyboard-response","94","438157","0.0-7.0-4.11","","2921","","<div class='trialBorder'><div class='targDiv'><div class='tc'><img class='introPic' src='trustrating_stim/white_mw085.bmp'><br><font color='red'><strong>Keep</strong></font></div></div><div class='respDiv'><div class='respDivL'>Match<br>(e)</div><div class='respDivR'>No Match<br>(i)</div></div></div>","e","TARGET","1","trustrating_stim/white_mw010.bmp","0","noMatchFace","i","1500","trustrating_stim/white_mw085.bmp","red","Keep","REAL","0"
"","","","","6404fb7b9a7b3cfb4179d185","bdp_wmem","Tue Mar 14 2023 00:48:23 GMT-0400 (Eastern Daylight Time)","799240","Match,No Match","html-keyboard-response","95","438662","0.0-7.0-5.11","","null","","<div class='trialBorder'><div class='vertical-center'><img src='img/error.jpg'></div><div class='respDiv'><div class='respDivL'><font style='color:orange'>Match<br>(e)</font></div><div class='respDivR'>No Match<br>(i)</div></div></div>","null","FEEDBACK","","","","","","","","","","",""
"","","","","6404fb7b9a7b3cfb4179d185","bdp_wmem","Tue Mar 14 2023 00:48:23 GMT-0400 (Eastern Daylight Time)","799240","Match,No Match","html-keyboard-response","96","439164","0.0-7.0-1.12","","null","","<div class='trialBorder'><div class='vertical-center'><img src='img/fixation2_sml.jpg'</img></div></div>","null","FIX","","","","","","","","","","",""
"","","","","6404fb7b9a7b3cfb4179d185","bdp_wmem","Tue Mar 14 2023 00:48:23 GMT-0400 (Eastern Daylight Time)","799240","Match,No Match","html-keyboard-response","97","442174","0.0-7.0-2.12","","null","","<div class='trialBorder'><div class='vertical-center'><img style='vertical-align:center; align:center' src='img/fixation2_sml.jpg'></div><div class='arrayDiv2'><div class='tl'><img class='introPic' src='trustrating_stim/white_mw003.bmp'><br><font color='red'><strong>Keep</strong></font></div><div class='tr'><img class='introPic' src='trustrating_stim/white_mw092.bmp'><br><font color='green'><strong>Share</strong></font></div></div></div>","null","ARRAY","2","trustrating_stim/white_mw003.bmp,trustrating_stim/white_mw092.bmp","0,1","Match","e","3000","","","","",""
"","","","","6404fb7b9a7b3cfb4179d185","bdp_wmem","Tue Mar 14 2023 00:48:23 GMT-0400 (Eastern Daylight Time)","799240","Match,No Match","html-keyboard-response","98","446178","0.0-7.0-3.12","","null","","<div class='trialBorder'><div class='vertical-center'><img src='img/fixation2_sml.jpg'</img></div></div>","null","DELAY","","","","","","","","","","",""
"","","","","6404fb7b9a7b3cfb4179d185","bdp_wmem","Tue Mar 14 2023 00:48:23 GMT-0400 (Eastern Daylight Time)","799240","Match,No Match","html-keyboard-response","99","448859","0.0-7.0-4.12","","2680","","<div class='trialBorder'><div class='targDiv'><div class='tc'><img class='introPic' src='trustrating_stim/white_mw003.bmp'><br><font color='red'><strong>Keep</strong></font></div></div><div class='respDiv'><div class='respDivL'>Match<br>(e)</div><div class='respDivR'>No Match<br>(i)</div></div></div>","e","TARGET","2","trustrating_stim/white_mw003.bmp,trustrating_stim/white_mw092.bmp","0,1","Match","e","3000","trustrating_stim/white_mw003.bmp","red","Keep","REAL","1"
"","","","","6404fb7b9a7b3cfb4179d185","bdp_wmem","Tue Mar 14 2023 00:48:23 GMT-0400 (Eastern Daylight Time)","799240","Match,No Match","html-keyboard-response","100","449361","0.0-7.0-5.12","","null","","<div class='trialBorder'><div class='vertical-center'><img src='img/correct.jpg'></div><div class='respDiv'><div class='respDivL'><font style='color:orange'>Match<br>(e)</font></div><div class='respDivR'>No Match<br>(i)</div></div></div>","null","FEEDBACK","","","","","","","","","","",""
"","","","","6404fb7b9a7b3cfb4179d185","bdp_wmem","Tue Mar 14 2023 00:48:23 GMT-0400 (Eastern Daylight Time)","799240","Match,No Match","html-keyboard-response","101","449862","0.0-7.0-1.13","","null","","<div class='trialBorder'><div class='vertical-center'><img src='img/fixation2_sml.jpg'</img></div></div>","null","FIX","","","","","","","","","","",""
"","","","","6404fb7b9a7b3cfb4179d185","bdp_wmem","Tue Mar 14 2023 00:48:23 GMT-0400 (Eastern Daylight Time)","799240","Match,No Match","html-keyboard-response","102","452878","0.0-7.0-2.13","","null","","<div class='trialBorder'><div class='vertical-center'><img style='vertical-align:center; align:center' src='img/fixation2_sml.jpg'></div><div class='arrayDiv2'><div class='tl'><img class='introPic' src='trustrating_stim/white_mw012.bmp'><br><font color='green'><strong>Share</strong></font></div><div class='tr'><img class='introPic' src='trustrating_stim/white_mw091.bmp'><br><font color='red'><strong>Keep</strong></font></div></div></div>","null","ARRAY","2","trustrating_stim/white_mw012.bmp,trustrating_stim/white_mw091.bmp","1,0","Match","e","3000","","","","",""
"","","","","6404fb7b9a7b3cfb4179d185","bdp_wmem","Tue Mar 14 2023 00:48:23 GMT-0400 (Eastern Daylight Time)","799240","Match,No Match","html-keyboard-response","103","456891","0.0-7.0-3.13","","null","","<div class='trialBorder'><div class='vertical-center'><img src='img/fixation2_sml.jpg'</img></div></div>","null","DELAY","","","","","","","","","","",""
"","","","","6404fb7b9a7b3cfb4179d185","bdp_wmem","Tue Mar 14 2023 00:48:23 GMT-0400 (Eastern Daylight Time)","799240","Match,No Match","html-keyboard-response","104","458821","0.0-7.0-4.13","","1930","","<div class='trialBorder'><div class='targDiv'><div class='tc'><img class='introPic' src='trustrating_stim/white_mw012.bmp'><br><font color='green'><strong>Share</strong></font></div></div><div class='respDiv'><div class='respDivL'>Match<br>(e)</div><div class='respDivR'>No Match<br>(i)</div></div></div>","e","TARGET","2","trustrating_stim/white_mw012.bmp,trustrating_stim/white_mw091.bmp","1,0","Match","e","3000","trustrating_stim/white_mw012.bmp","green","Share","REAL","1"
"","","","","6404fb7b9a7b3cfb4179d185","bdp_wmem","Tue Mar 14 2023 00:48:23 GMT-0400 (Eastern Daylight Time)","799240","Match,No Match","html-keyboard-response","105","459322","0.0-7.0-5.13","","null","","<div class='trialBorder'><div class='vertical-center'><img src='img/correct.jpg'></div><div class='respDiv'><div class='respDivL'><font style='color:orange'>Match<br>(e)</font></div><div class='respDivR'>No Match<br>(i)</div></div></div>","null","FEEDBACK","","","","","","","","","","",""
"","","","","6404fb7b9a7b3cfb4179d185","bdp_wmem","Tue Mar 14 2023 00:48:23 GMT-0400 (Eastern Daylight Time)","799240","Match,No Match","html-keyboard-response","106","459824","0.0-7.0-1.14","","null","","<div class='trialBorder'><div class='vertical-center'><img src='img/fixation2_sml.jpg'</img></div></div>","null","FIX","","","","","","","","","","",""
"","","","","6404fb7b9a7b3cfb4179d185","bdp_wmem","Tue Mar 14 2023 00:48:23 GMT-0400 (Eastern Daylight Time)","799240","Match,No Match","html-keyboard-response","107","462840","0.0-7.0-2.14","","null","","<div class='trialBorder'><div class='vertical-center'><img style='vertical-align:center; align:center' src='img/fixation2_sml.jpg'></div><div class='arrayDiv2'><div class='tl'><img class='introPic' src='trustrating_stim/white_mw040.bmp'><br><font color='red'><strong>Keep</strong></font></div><div class='tr'><img class='introPic' src='trustrating_stim/white_mw078.bmp'><br><font color='green'><strong>Share</strong></font></div></div></div>","null","ARRAY","2","trustrating_stim/white_mw040.bmp,trustrating_stim/white_mw078.bmp","0,1","noMatchFace","i","3000","","","","",""
"","","","","6404fb7b9a7b3cfb4179d185","bdp_wmem","Tue Mar 14 2023 00:48:23 GMT-0400 (Eastern Daylight Time)","799240","Match,No Match","html-keyboard-response","108","466848","0.0-7.0-3.14","","null","","<div class='trialBorder'><div class='vertical-center'><img src='img/fixation2_sml.jpg'</img></div></div>","null","DELAY","","","","","","","","","","",""
"","","","","6404fb7b9a7b3cfb4179d185","bdp_wmem","Tue Mar 14 2023 00:48:23 GMT-0400 (Eastern Daylight Time)","799240","Match,No Match","html-keyboard-response","109","469154","0.0-7.0-4.14","","2305","","<div class='trialBorder'><div class='targDiv'><div class='tc'><img class='introPic' src='trustrating_stim/white_mw092.bmp'><br><font color='red'><strong>Keep</strong></font></div></div><div class='respDiv'><div class='respDivL'>Match<br>(e)</div><div class='respDivR'>No Match<br>(i)</div></div></div>","e","TARGET","2","trustrating_stim/white_mw040.bmp,trustrating_stim/white_mw078.bmp","0,1","noMatchFace","i","3000","trustrating_stim/white_mw092.bmp","red","Keep","REAL","0"
"","","","","6404fb7b9a7b3cfb4179d185","bdp_wmem","Tue Mar 14 2023 00:48:23 GMT-0400 (Eastern Daylight Time)","799240","Match,No Match","html-keyboard-response","110","469669","0.0-7.0-5.14","","null","","<div class='trialBorder'><div class='vertical-center'><img src='img/error.jpg'></div><div class='respDiv'><div class='respDivL'><font style='color:orange'>Match<br>(e)</font></div><div class='respDivR'>No Match<br>(i)</div></div></div>","null","FEEDBACK","","","","","","","","","","",""
"","","","","6404fb7b9a7b3cfb4179d185","bdp_wmem","Tue Mar 14 2023 00:48:23 GMT-0400 (Eastern Daylight Time)","799240","Match,No Match","html-keyboard-response","111","470185","0.0-7.0-1.15","","null","","<div class='trialBorder'><div class='vertical-center'><img src='img/fixation2_sml.jpg'</img></div></div>","null","FIX","","","","","","","","","","",""
"","","","","6404fb7b9a7b3cfb4179d185","bdp_wmem","Tue Mar 14 2023 00:48:23 GMT-0400 (Eastern Daylight Time)","799240","Match,No Match","html-keyboard-response","112","473198","0.0-7.0-2.15","","null","","<div class='trialBorder'><div class='vertical-center'><img style='vertical-align:center; align:center' src='img/fixation2_sml.jpg'></div><div class='arrayDiv2'><div class='tl'><img class='introPic' src='trustrating_stim/white_mw013.bmp'><br><font color='red'><strong>Keep</strong></font></div><div class='tr'><img class='introPic' src='trustrating_stim/white_mw085.bmp'><br><font color='green'><strong>Share</strong></font></div></div></div>","null","ARRAY","2","trustrating_stim/white_mw013.bmp,trustrating_stim/white_mw085.bmp","0,1","Match","e","3000","","","","",""
"","","","","6404fb7b9a7b3cfb4179d185","bdp_wmem","Tue Mar 14 2023 00:48:23 GMT-0400 (Eastern Daylight Time)","799240","Match,No Match","html-keyboard-response","113","477199","0.0-7.0-3.15","","null","","<div class='trialBorder'><div class='vertical-center'><img src='img/fixation2_sml.jpg'</img></div></div>","null","DELAY","","","","","","","","","","",""
"","","","","6404fb7b9a7b3cfb4179d185","bdp_wmem","Tue Mar 14 2023 00:48:23 GMT-0400 (Eastern Daylight Time)","799240","Match,No Match","html-keyboard-response","114","479040","0.0-7.0-4.15","","1841","","<div class='trialBorder'><div class='targDiv'><div class='tc'><img class='introPic' src='trustrating_stim/white_mw013.bmp'><br><font color='red'><strong>Keep</strong></font></div></div><div class='respDiv'><div class='respDivL'>Match<br>(e)</div><div class='respDivR'>No Match<br>(i)</div></div></div>","e","TARGET","2","trustrating_stim/white_mw013.bmp,trustrating_stim/white_mw085.bmp","0,1","Match","e","3000","trustrating_stim/white_mw013.bmp","red","Keep","REAL","1"
"","","","","6404fb7b9a7b3cfb4179d185","bdp_wmem","Tue Mar 14 2023 00:48:23 GMT-0400 (Eastern Daylight Time)","799240","Match,No Match","html-keyboard-response","115","479549","0.0-7.0-5.15","","null","","<div class='trialBorder'><div class='vertical-center'><img src='img/correct.jpg'></div><div class='respDiv'><div class='respDivL'><font style='color:orange'>Match<br>(e)</font></div><div class='respDivR'>No Match<br>(i)</div></div></div>","null","FEEDBACK","","","","","","","","","","",""
"","","","","6404fb7b9a7b3cfb4179d185","bdp_wmem","Tue Mar 14 2023 00:48:23 GMT-0400 (Eastern Daylight Time)","799240","Match,No Match","html-keyboard-response","116","480063","0.0-7.0-1.16","","null","","<div class='trialBorder'><div class='vertical-center'><img src='img/fixation2_sml.jpg'</img></div></div>","null","FIX","","","","","","","","","","",""
"","","","","6404fb7b9a7b3cfb4179d185","bdp_wmem","Tue Mar 14 2023 00:48:23 GMT-0400 (Eastern Daylight Time)","799240","Match,No Match","html-keyboard-response","117","481563","0.0-7.0-2.16","","null","","<div class='trialBorder'><div class='vertical-center'><img style='vertical-align:center; align:center' src='img/fixation2_sml.jpg'></div><div class='arrayDiv1'><div class='tc'><img class='introPic' src='trustrating_stim/white_mw070.bmp'><br><font color='red'><strong>Keep</strong></font></div></div></div>","null","ARRAY","1","trustrating_stim/white_mw070.bmp","0","noMatchFace","i","1500","","","","",""
"","","","","6404fb7b9a7b3cfb4179d185","bdp_wmem","Tue Mar 14 2023 00:48:23 GMT-0400 (Eastern Daylight Time)","799240","Match,No Match","html-keyboard-response","118","485579","0.0-7.0-3.16","","null","","<div class='trialBorder'><div class='vertical-center'><img src='img/fixation2_sml.jpg'</img></div></div>","null","DELAY","","","","","","","","","","",""
"","","","","6404fb7b9a7b3cfb4179d185","bdp_wmem","Tue Mar 14 2023 00:48:23 GMT-0400 (Eastern Daylight Time)","799240","Match,No Match","html-keyboard-response","119","488163","0.0-7.0-4.16","","2584","","<div class='trialBorder'><div class='targDiv'><div class='tc'><img class='introPic' src='trustrating_stim/white_mw012.bmp'><br><font color='red'><strong>Keep</strong></font></div></div><div class='respDiv'><div class='respDivL'>Match<br>(e)</div><div class='respDivR'>No Match<br>(i)</div></div></div>","i","TARGET","1","trustrating_stim/white_mw070.bmp","0","noMatchFace","i","1500","trustrating_stim/white_mw012.bmp","red","Keep","REAL","1"
"","","","","6404fb7b9a7b3cfb4179d185","bdp_wmem","Tue Mar 14 2023 00:48:23 GMT-0400 (Eastern Daylight Time)","799240","Match,No Match","html-keyboard-response","120","488678","0.0-7.0-5.16","","null","","<div class='trialBorder'><div class='vertical-center'><img src='img/correct.jpg'></div><div class='respDiv'><div class='respDivL'>Match<br>(e)</div><div class='respDivR'><font style='color:orange'>No Match<br>(i)</font></div></div></div>","null","FEEDBACK","","","","","","","","","","",""
"","","","","6404fb7b9a7b3cfb4179d185","bdp_wmem","Tue Mar 14 2023 00:48:23 GMT-0400 (Eastern Daylight Time)","799240","Match,No Match","html-keyboard-response","121","489191","0.0-7.0-1.17","","null","","<div class='trialBorder'><div class='vertical-center'><img src='img/fixation2_sml.jpg'</img></div></div>","null","FIX","","","","","","","","","","",""
"","","","","6404fb7b9a7b3cfb4179d185","bdp_wmem","Tue Mar 14 2023 00:48:23 GMT-0400 (Eastern Daylight Time)","799240","Match,No Match","html-keyboard-response","122","492206","0.0-7.0-2.17","","null","","<div class='trialBorder'><div class='vertical-center'><img style='vertical-align:center; align:center' src='img/fixation2_sml.jpg'></div><div class='arrayDiv2'><div class='tl'><img class='introPic' src='trustrating_stim/white_mw092.bmp'><br><font color='red'><strong>Keep</strong></font></div><div class='tr'><img class='introPic' src='trustrating_stim/white_mw038.bmp'><br><font color='green'><strong>Share</strong></font></div></div></div>","null","ARRAY","2","trustrating_stim/white_mw092.bmp,trustrating_stim/white_mw038.bmp","0,1","Match","e","3000","","","","",""
"","","","","6404fb7b9a7b3cfb4179d185","bdp_wmem","Tue Mar 14 2023 00:48:23 GMT-0400 (Eastern Daylight Time)","799240","Match,No Match","html-keyboard-response","123","496221","0.0-7.0-3.17","","null","","<div class='trialBorder'><div class='vertical-center'><img src='img/fixation2_sml.jpg'</img></div></div>","null","DELAY","","","","","","","","","","",""
"","","","","6404fb7b9a7b3cfb4179d185","bdp_wmem","Tue Mar 14 2023 00:48:23 GMT-0400 (Eastern Daylight Time)","799240","Match,No Match","html-keyboard-response","124","497985","0.0-7.0-4.17","","1762","","<div class='trialBorder'><div class='targDiv'><div class='tc'><img class='introPic' src='trustrating_stim/white_mw038.bmp'><br><font color='green'><strong>Share</strong></font></div></div><div class='respDiv'><div class='respDivL'>Match<br>(e)</div><div class='respDivR'>No Match<br>(i)</div></div></div>","e","TARGET","2","trustrating_stim/white_mw092.bmp,trustrating_stim/white_mw038.bmp","0,1","Match","e","3000","trustrating_stim/white_mw038.bmp","green","Share","REAL","1"
"","","","","6404fb7b9a7b3cfb4179d185","bdp_wmem","Tue Mar 14 2023 00:48:23 GMT-0400 (Eastern Daylight Time)","799240","Match,No Match","html-keyboard-response","125","498487","0.0-7.0-5.17","","null","","<div class='trialBorder'><div class='vertical-center'><img src='img/correct.jpg'></div><div class='respDiv'><div class='respDivL'><font style='color:orange'>Match<br>(e)</font></div><div class='respDivR'>No Match<br>(i)</div></div></div>","null","FEEDBACK","","","","","","","","","","",""
"","","","","6404fb7b9a7b3cfb4179d185","bdp_wmem","Tue Mar 14 2023 00:48:23 GMT-0400 (Eastern Daylight Time)","799240","Match,No Match","html-keyboard-response","126","498990","0.0-7.0-1.18","","null","","<div class='trialBorder'><div class='vertical-center'><img src='img/fixation2_sml.jpg'</img></div></div>","null","FIX","","","","","","","","","","",""
"","","","","6404fb7b9a7b3cfb4179d185","bdp_wmem","Tue Mar 14 2023 00:48:23 GMT-0400 (Eastern Daylight Time)","799240","Match,No Match","html-keyboard-response","127","502004","0.0-7.0-2.18","","null","","<div class='trialBorder'><div class='vertical-center'><img style='vertical-align:center; align:center' src='img/fixation2_sml.jpg'></div><div class='arrayDiv2'><div class='tl'><img class='introPic' src='trustrating_stim/white_mw013.bmp'><br><font color='red'><strong>Keep</strong></font></div><div class='tr'><img class='introPic' src='trustrating_stim/white_mw010.bmp'><br><font color='green'><strong>Share</strong></font></div></div></div>","null","ARRAY","2","trustrating_stim/white_mw013.bmp,trustrating_stim/white_mw010.bmp","0,1","Match","e","3000","","","","",""
"","","","","6404fb7b9a7b3cfb4179d185","bdp_wmem","Tue Mar 14 2023 00:48:23 GMT-0400 (Eastern Daylight Time)","799240","Match,No Match","html-keyboard-response","128","506017","0.0-7.0-3.18","","null","","<div class='trialBorder'><div class='vertical-center'><img src='img/fixation2_sml.jpg'</img></div></div>","null","DELAY","","","","","","","","","","",""
"","","","","6404fb7b9a7b3cfb4179d185","bdp_wmem","Tue Mar 14 2023 00:48:23 GMT-0400 (Eastern Daylight Time)","799240","Match,No Match","html-keyboard-response","129","507980","0.0-7.0-4.18","","1963","","<div class='trialBorder'><div class='targDiv'><div class='tc'><img class='introPic' src='trustrating_stim/white_mw013.bmp'><br><font color='red'><strong>Keep</strong></font></div></div><div class='respDiv'><div class='respDivL'>Match<br>(e)</div><div class='respDivR'>No Match<br>(i)</div></div></div>","e","TARGET","2","trustrating_stim/white_mw013.bmp,trustrating_stim/white_mw010.bmp","0,1","Match","e","3000","trustrating_stim/white_mw013.bmp","red","Keep","REAL","1"
"","","","","6404fb7b9a7b3cfb4179d185","bdp_wmem","Tue Mar 14 2023 00:48:23 GMT-0400 (Eastern Daylight Time)","799240","Match,No Match","html-keyboard-response","130","508484","0.0-7.0-5.18","","null","","<div class='trialBorder'><div class='vertical-center'><img src='img/correct.jpg'></div><div class='respDiv'><div class='respDivL'><font style='color:orange'>Match<br>(e)</font></div><div class='respDivR'>No Match<br>(i)</div></div></div>","null","FEEDBACK","","","","","","","","","","",""
"","","","","6404fb7b9a7b3cfb4179d185","bdp_wmem","Tue Mar 14 2023 00:48:23 GMT-0400 (Eastern Daylight Time)","799240","Match,No Match","html-keyboard-response","131","508996","0.0-7.0-1.19","","null","","<div class='trialBorder'><div class='vertical-center'><img src='img/fixation2_sml.jpg'</img></div></div>","null","FIX","","","","","","","","","","",""
"","","","","6404fb7b9a7b3cfb4179d185","bdp_wmem","Tue Mar 14 2023 00:48:23 GMT-0400 (Eastern Daylight Time)","799240","Match,No Match","html-keyboard-response","132","510500","0.0-7.0-2.19","","null","","<div class='trialBorder'><div class='vertical-center'><img style='vertical-align:center; align:center' src='img/fixation2_sml.jpg'></div><div class='arrayDiv1'><div class='tc'><img class='introPic' src='trustrating_stim/white_mw038.bmp'><br><font color='red'><strong>Keep</strong></font></div></div></div>","null","ARRAY","1","trustrating_stim/white_mw038.bmp","0","Match","e","1500","","","","",""
"","","","","6404fb7b9a7b3cfb4179d185","bdp_wmem","Tue Mar 14 2023 00:48:23 GMT-0400 (Eastern Daylight Time)","799240","Match,No Match","html-keyboard-response","133","514515","0.0-7.0-3.19","","null","","<div class='trialBorder'><div class='vertical-center'><img src='img/fixation2_sml.jpg'</img></div></div>","null","DELAY","","","","","","","","","","",""
"","","","","6404fb7b9a7b3cfb4179d185","bdp_wmem","Tue Mar 14 2023 00:48:23 GMT-0400 (Eastern Daylight Time)","799240","Match,No Match","html-keyboard-response","134","516206","0.0-7.0-4.19","","1690","","<div class='trialBorder'><div class='targDiv'><div class='tc'><img class='introPic' src='trustrating_stim/white_mw038.bmp'><br><font color='red'><strong>Keep</strong></font></div></div><div class='respDiv'><div class='respDivL'>Match<br>(e)</div><div class='respDivR'>No Match<br>(i)</div></div></div>","e","TARGET","1","trustrating_stim/white_mw038.bmp","0","Match","e","1500","trustrating_stim/white_mw038.bmp","red","Keep","REAL","1"
"","","","","6404fb7b9a7b3cfb4179d185","bdp_wmem","Tue Mar 14 2023 00:48:23 GMT-0400 (Eastern Daylight Time)","799240","Match,No Match","html-keyboard-response","135","516708","0.0-7.0-5.19","","null","","<div class='trialBorder'><div class='vertical-center'><img src='img/correct.jpg'></div><div class='respDiv'><div class='respDivL'><font style='color:orange'>Match<br>(e)</font></div><div class='respDivR'>No Match<br>(i)</div></div></div>","null","FEEDBACK","","","","","","","","","","",""
"","","","","6404fb7b9a7b3cfb4179d185","bdp_wmem","Tue Mar 14 2023 00:48:23 GMT-0400 (Eastern Daylight Time)","799240","Match,No Match","html-keyboard-response","136","517223","0.0-7.0-1.20","","null","","<div class='trialBorder'><div class='vertical-center'><img src='img/fixation2_sml.jpg'</img></div></div>","null","FIX","","","","","","","","","","",""
"","","","","6404fb7b9a7b3cfb4179d185","bdp_wmem","Tue Mar 14 2023 00:48:23 GMT-0400 (Eastern Daylight Time)","799240","Match,No Match","html-keyboard-response","137","521728","0.0-7.0-2.20","","null","","<div class='trialBorder'><div class='vertical-center'><img style='vertical-align:center; align:center' src='img/fixation2_sml.jpg'></div><div class='arrayDiv3'><div class='tl'><img class='introPic' src='trustrating_stim/white_mw070.bmp'><br><font color='red'><strong>Keep</strong></font></div><div class='tc'><img class='introPic' src='trustrating_stim/white_mw003.bmp'><br><font color='green'><strong>Share</strong></font></div><div class='tr'><img class='introPic' src='trustrating_stim/white_mw085.bmp'><br><font color='red'><strong>Keep</strong></font></div></div></div>","null","ARRAY","3","trustrating_stim/white_mw070.bmp,trustrating_stim/white_mw003.bmp,trustrating_stim/white_mw085.bmp","0,1,0","Match","e","4500","","","","",""
"","","","","6404fb7b9a7b3cfb4179d185","bdp_wmem","Tue Mar 14 2023 00:48:23 GMT-0400 (Eastern Daylight Time)","799240","Match,No Match","html-keyboard-response","138","525738","0.0-7.0-3.20","","null","","<div class='trialBorder'><div class='vertical-center'><img src='img/fixation2_sml.jpg'</img></div></div>","null","DELAY","","","","","","","","","","",""
"","","","","6404fb7b9a7b3cfb4179d185","bdp_wmem","Tue Mar 14 2023 00:48:23 GMT-0400 (Eastern Daylight Time)","799240","Match,No Match","html-keyboard-response","139","528632","0.0-7.0-4.20","","2894","","<div class='trialBorder'><div class='targDiv'><div class='tc'><img class='introPic' src='trustrating_stim/white_mw003.bmp'><br><font color='green'><strong>Share</strong></font></div></div><div class='respDiv'><div class='respDivL'>Match<br>(e)</div><div class='respDivR'>No Match<br>(i)</div></div></div>","i","TARGET","3","trustrating_stim/white_mw070.bmp,trustrating_stim/white_mw003.bmp,trustrating_stim/white_mw085.bmp","0,1,0","Match","e","4500","trustrating_stim/white_mw003.bmp","green","Share","REAL","0"
"","","","","6404fb7b9a7b3cfb4179d185","bdp_wmem","Tue Mar 14 2023 00:48:23 GMT-0400 (Eastern Daylight Time)","799240","Match,No Match","html-keyboard-response","140","529141","0.0-7.0-5.20","","null","","<div class='trialBorder'><div class='vertical-center'><img src='img/error.jpg'></div><div class='respDiv'><div class='respDivL'>Match<br>(e)</div><div class='respDivR'><font style='color:orange'>No Match<br>(i)</font></div></div></div>","null","FEEDBACK","","","","","","","","","","",""
"","","","","6404fb7b9a7b3cfb4179d185","bdp_wmem","Tue Mar 14 2023 00:48:23 GMT-0400 (Eastern Daylight Time)","799240","Match,No Match","html-keyboard-response","141","529657","0.0-7.0-1.21","","null","","<div class='trialBorder'><div class='vertical-center'><img src='img/fixation2_sml.jpg'</img></div></div>","null","FIX","","","","","","","","","","",""
"","","","","6404fb7b9a7b3cfb4179d185","bdp_wmem","Tue Mar 14 2023 00:48:23 GMT-0400 (Eastern Daylight Time)","799240","Match,No Match","html-keyboard-response","142","534163","0.0-7.0-2.21","","null","","<div class='trialBorder'><div class='vertical-center'><img style='vertical-align:center; align:center' src='img/fixation2_sml.jpg'></div><div class='arrayDiv3'><div class='tl'><img class='introPic' src='trustrating_stim/white_mw091.bmp'><br><font color='green'><strong>Share</strong></font></div><div class='tc'><img class='introPic' src='trustrating_stim/white_mw038.bmp'><br><font color='red'><strong>Keep</strong></font></div><div class='tr'><img class='introPic' src='trustrating_stim/white_mw012.bmp'><br><font color='green'><strong>Share</strong></font></div></div></div>","null","ARRAY","3","trustrating_stim/white_mw091.bmp,trustrating_stim/white_mw038.bmp,trustrating_stim/white_mw012.bmp","1,0,1","noMatchOutcome","i","4500","","","","",""
"","","","","6404fb7b9a7b3cfb4179d185","bdp_wmem","Tue Mar 14 2023 00:48:23 GMT-0400 (Eastern Daylight Time)","799240","Match,No Match","html-keyboard-response","143","538166","0.0-7.0-3.21","","null","","<div class='trialBorder'><div class='vertical-center'><img src='img/fixation2_sml.jpg'</img></div></div>","null","DELAY","","","","","","","","","","",""
"","","","","6404fb7b9a7b3cfb4179d185","bdp_wmem","Tue Mar 14 2023 00:48:23 GMT-0400 (Eastern Daylight Time)","799240","Match,No Match","html-keyboard-response","144","539903","0.0-7.0-4.21","","1736","","<div class='trialBorder'><div class='targDiv'><div class='tc'><img class='introPic' src='trustrating_stim/white_mw012.bmp'><br><font color='red'><strong>Keep</strong></font></div></div><div class='respDiv'><div class='respDivL'>Match<br>(e)</div><div class='respDivR'>No Match<br>(i)</div></div></div>","i","TARGET","3","trustrating_stim/white_mw091.bmp,trustrating_stim/white_mw038.bmp,trustrating_stim/white_mw012.bmp","1,0,1","noMatchOutcome","i","4500","trustrating_stim/white_mw012.bmp","red","Keep","REAL","1"
"","","","","6404fb7b9a7b3cfb4179d185","bdp_wmem","Tue Mar 14 2023 00:48:23 GMT-0400 (Eastern Daylight Time)","799240","Match,No Match","html-keyboard-response","145","540410","0.0-7.0-5.21","","null","","<div class='trialBorder'><div class='vertical-center'><img src='img/correct.jpg'></div><div class='respDiv'><div class='respDivL'>Match<br>(e)</div><div class='respDivR'><font style='color:orange'>No Match<br>(i)</font></div></div></div>","null","FEEDBACK","","","","","","","","","","",""
"","","","","6404fb7b9a7b3cfb4179d185","bdp_wmem","Tue Mar 14 2023 00:48:23 GMT-0400 (Eastern Daylight Time)","799240","Match,No Match","html-keyboard-response","146","540919","0.0-7.0-1.22","","null","","<div class='trialBorder'><div class='vertical-center'><img src='img/fixation2_sml.jpg'</img></div></div>","null","FIX","","","","","","","","","","",""
"","","","","6404fb7b9a7b3cfb4179d185","bdp_wmem","Tue Mar 14 2023 00:48:23 GMT-0400 (Eastern Daylight Time)","799240","Match,No Match","html-keyboard-response","147","542428","0.0-7.0-2.22","","null","","<div class='trialBorder'><div class='vertical-center'><img style='vertical-align:center; align:center' src='img/fixation2_sml.jpg'></div><div class='arrayDiv1'><div class='tc'><img class='introPic' src='trustrating_stim/white_mw085.bmp'><br><font color='red'><strong>Keep</strong></font></div></div></div>","null","ARRAY","1","trustrating_stim/white_mw085.bmp","0","Match","e","1500","","","","",""
"","","","","6404fb7b9a7b3cfb4179d185","bdp_wmem","Tue Mar 14 2023 00:48:23 GMT-0400 (Eastern Daylight Time)","799240","Match,No Match","html-keyboard-response","148","546428","0.0-7.0-3.22","","null","","<div class='trialBorder'><div class='vertical-center'><img src='img/fixation2_sml.jpg'</img></div></div>","null","DELAY","","","","","","","","","","",""
"","","","","6404fb7b9a7b3cfb4179d185","bdp_wmem","Tue Mar 14 2023 00:48:23 GMT-0400 (Eastern Daylight Time)","799240","Match,No Match","html-keyboard-response","149","548361","0.0-7.0-4.22","","1933","","<div class='trialBorder'><div class='targDiv'><div class='tc'><img class='introPic' src='trustrating_stim/white_mw085.bmp'><br><font color='red'><strong>Keep</strong></font></div></div><div class='respDiv'><div class='respDivL'>Match<br>(e)</div><div class='respDivR'>No Match<br>(i)</div></div></div>","e","TARGET","1","trustrating_stim/white_mw085.bmp","0","Match","e","1500","trustrating_stim/white_mw085.bmp","red","Keep","REAL","1"
"","","","","6404fb7b9a7b3cfb4179d185","bdp_wmem","Tue Mar 14 2023 00:48:23 GMT-0400 (Eastern Daylight Time)","799240","Match,No Match","html-keyboard-response","150","548875","0.0-7.0-5.22","","null","","<div class='trialBorder'><div class='vertical-center'><img src='img/correct.jpg'></div><div class='respDiv'><div class='respDivL'><font style='color:orange'>Match<br>(e)</font></div><div class='respDivR'>No Match<br>(i)</div></div></div>","null","FEEDBACK","","","","","","","","","","",""
"","","","","6404fb7b9a7b3cfb4179d185","bdp_wmem","Tue Mar 14 2023 00:48:23 GMT-0400 (Eastern Daylight Time)","799240","Match,No Match","html-keyboard-response","151","549378","0.0-7.0-1.23","","null","","<div class='trialBorder'><div class='vertical-center'><img src='img/fixation2_sml.jpg'</img></div></div>","null","FIX","","","","","","","","","","",""
"","","","","6404fb7b9a7b3cfb4179d185","bdp_wmem","Tue Mar 14 2023 00:48:23 GMT-0400 (Eastern Daylight Time)","799240","Match,No Match","html-keyboard-response","152","552385","0.0-7.0-2.23","","null","","<div class='trialBorder'><div class='vertical-center'><img style='vertical-align:center; align:center' src='img/fixation2_sml.jpg'></div><div class='arrayDiv2'><div class='tl'><img class='introPic' src='trustrating_stim/white_mw042.bmp'><br><font color='green'><strong>Share</strong></font></div><div class='tr'><img class='introPic' src='trustrating_stim/white_mw038.bmp'><br><font color='red'><strong>Keep</strong></font></div></div></div>","null","ARRAY","2","trustrating_stim/white_mw042.bmp,trustrating_stim/white_mw038.bmp","1,0","noMatchOutcome","i","3000","","","","",""
"","","","","6404fb7b9a7b3cfb4179d185","bdp_wmem","Tue Mar 14 2023 00:48:23 GMT-0400 (Eastern Daylight Time)","799240","Match,No Match","html-keyboard-response","153","556394","0.0-7.0-3.23","","null","","<div class='trialBorder'><div class='vertical-center'><img src='img/fixation2_sml.jpg'</img></div></div>","null","DELAY","","","","","","","","","","",""
"","","","","6404fb7b9a7b3cfb4179d185","bdp_wmem","Tue Mar 14 2023 00:48:23 GMT-0400 (Eastern Daylight Time)","799240","Match,No Match","html-keyboard-response","154","557787","0.0-7.0-4.23","","1392","","<div class='trialBorder'><div class='targDiv'><div class='tc'><img class='introPic' src='trustrating_stim/white_mw042.bmp'><br><font color='red'><strong>Keep</strong></font></div></div><div class='respDiv'><div class='respDivL'>Match<br>(e)</div><div class='respDivR'>No Match<br>(i)</div></div></div>","i","TARGET","2","trustrating_stim/white_mw042.bmp,trustrating_stim/white_mw038.bmp","1,0","noMatchOutcome","i","3000","trustrating_stim/white_mw042.bmp","red","Keep","REAL","1"
"","","","","6404fb7b9a7b3cfb4179d185","bdp_wmem","Tue Mar 14 2023 00:48:23 GMT-0400 (Eastern Daylight Time)","799240","Match,No Match","html-keyboard-response","155","558288","0.0-7.0-5.23","","null","","<div class='trialBorder'><div class='vertical-center'><img src='img/correct.jpg'></div><div class='respDiv'><div class='respDivL'>Match<br>(e)</div><div class='respDivR'><font style='color:orange'>No Match<br>(i)</font></div></div></div>","null","FEEDBACK","","","","","","","","","","",""
"","","","","6404fb7b9a7b3cfb4179d185","bdp_wmem","Tue Mar 14 2023 00:48:23 GMT-0400 (Eastern Daylight Time)","799240","Match,No Match","html-keyboard-response","156","558804","0.0-7.0-1.24","","null","","<div class='trialBorder'><div class='vertical-center'><img src='img/fixation2_sml.jpg'</img></div></div>","null","FIX","","","","","","","","","","",""
"","","","","6404fb7b9a7b3cfb4179d185","bdp_wmem","Tue Mar 14 2023 00:48:23 GMT-0400 (Eastern Daylight Time)","799240","Match,No Match","html-keyboard-response","157","560319","0.0-7.0-2.24","","null","","<div class='trialBorder'><div class='vertical-center'><img style='vertical-align:center; align:center' src='img/fixation2_sml.jpg'></div><div class='arrayDiv1'><div class='tc'><img class='introPic' src='trustrating_stim/white_mw091.bmp'><br><font color='red'><strong>Keep</strong></font></div></div></div>","null","ARRAY","1","trustrating_stim/white_mw091.bmp","0","noMatchFace","i","1500","","","","",""
"","","","","6404fb7b9a7b3cfb4179d185","bdp_wmem","Tue Mar 14 2023 00:48:23 GMT-0400 (Eastern Daylight Time)","799240","Match,No Match","html-keyboard-response","158","564322","0.0-7.0-3.24","","null","","<div class='trialBorder'><div class='vertical-center'><img src='img/fixation2_sml.jpg'</img></div></div>","null","DELAY","","","","","","","","","","",""
"","","","","6404fb7b9a7b3cfb4179d185","bdp_wmem","Tue Mar 14 2023 00:48:23 GMT-0400 (Eastern Daylight Time)","799240","Match,No Match","html-keyboard-response","159","566291","0.0-7.0-4.24","","1969","","<div class='trialBorder'><div class='targDiv'><div class='tc'><img class='introPic' src='trustrating_stim/white_mw042.bmp'><br><font color='red'><strong>Keep</strong></font></div></div><div class='respDiv'><div class='respDivL'>Match<br>(e)</div><div class='respDivR'>No Match<br>(i)</div></div></div>","e","TARGET","1","trustrating_stim/white_mw091.bmp","0","noMatchFace","i","1500","trustrating_stim/white_mw042.bmp","red","Keep","REAL","0"
"","","","","6404fb7b9a7b3cfb4179d185","bdp_wmem","Tue Mar 14 2023 00:48:23 GMT-0400 (Eastern Daylight Time)","799240","Match,No Match","html-keyboard-response","160","566792","0.0-7.0-5.24","","null","","<div class='trialBorder'><div class='vertical-center'><img src='img/error.jpg'></div><div class='respDiv'><div class='respDivL'><font style='color:orange'>Match<br>(e)</font></div><div class='respDivR'>No Match<br>(i)</div></div></div>","null","FEEDBACK","","","","","","","","","","",""
"","","","","6404fb7b9a7b3cfb4179d185","bdp_wmem","Tue Mar 14 2023 00:48:23 GMT-0400 (Eastern Daylight Time)","799240","Match,No Match","html-keyboard-response","161","567307","0.0-7.0-1.25","","null","","<div class='trialBorder'><div class='vertical-center'><img src='img/fixation2_sml.jpg'</img></div></div>","null","FIX","","","","","","","","","","",""
"","","","","6404fb7b9a7b3cfb4179d185","bdp_wmem","Tue Mar 14 2023 00:48:23 GMT-0400 (Eastern Daylight Time)","799240","Match,No Match","html-keyboard-response","162","570322","0.0-7.0-2.25","","null","","<div class='trialBorder'><div class='vertical-center'><img style='vertical-align:center; align:center' src='img/fixation2_sml.jpg'></div><div class='arrayDiv2'><div class='tl'><img class='introPic' src='trustrating_stim/white_mw012.bmp'><br><font color='red'><strong>Keep</strong></font></div><div class='tr'><img class='introPic' src='trustrating_stim/white_mw078.bmp'><br><font color='green'><strong>Share</strong></font></div></div></div>","null","ARRAY","2","trustrating_stim/white_mw012.bmp,trustrating_stim/white_mw078.bmp","0,1","noMatchOutcome","i","3000","","","","",""
"","","","","6404fb7b9a7b3cfb4179d185","bdp_wmem","Tue Mar 14 2023 00:48:23 GMT-0400 (Eastern Daylight Time)","799240","Match,No Match","html-keyboard-response","163","574323","0.0-7.0-3.25","","null","","<div class='trialBorder'><div class='vertical-center'><img src='img/fixation2_sml.jpg'</img></div></div>","null","DELAY","","","","","","","","","","",""
"","","","","6404fb7b9a7b3cfb4179d185","bdp_wmem","Tue Mar 14 2023 00:48:23 GMT-0400 (Eastern Daylight Time)","799240","Match,No Match","html-keyboard-response","164","576307","0.0-7.0-4.25","","1983","","<div class='trialBorder'><div class='targDiv'><div class='tc'><img class='introPic' src='trustrating_stim/white_mw078.bmp'><br><font color='red'><strong>Keep</strong></font></div></div><div class='respDiv'><div class='respDivL'>Match<br>(e)</div><div class='respDivR'>No Match<br>(i)</div></div></div>","i","TARGET","2","trustrating_stim/white_mw012.bmp,trustrating_stim/white_mw078.bmp","0,1","noMatchOutcome","i","3000","trustrating_stim/white_mw078.bmp","red","Keep","REAL","1"
"","","","","6404fb7b9a7b3cfb4179d185","bdp_wmem","Tue Mar 14 2023 00:48:23 GMT-0400 (Eastern Daylight Time)","799240","Match,No Match","html-keyboard-response","165","576813","0.0-7.0-5.25","","null","","<div class='trialBorder'><div class='vertical-center'><img src='img/correct.jpg'></div><div class='respDiv'><div class='respDivL'>Match<br>(e)</div><div class='respDivR'><font style='color:orange'>No Match<br>(i)</font></div></div></div>","null","FEEDBACK","","","","","","","","","","",""
"","","","","6404fb7b9a7b3cfb4179d185","bdp_wmem","Tue Mar 14 2023 00:48:23 GMT-0400 (Eastern Daylight Time)","799240","Match,No Match","html-keyboard-response","166","577327","0.0-7.0-1.26","","null","","<div class='trialBorder'><div class='vertical-center'><img src='img/fixation2_sml.jpg'</img></div></div>","null","FIX","","","","","","","","","","",""
"","","","","6404fb7b9a7b3cfb4179d185","bdp_wmem","Tue Mar 14 2023 00:48:23 GMT-0400 (Eastern Daylight Time)","799240","Match,No Match","html-keyboard-response","167","581828","0.0-7.0-2.26","","null","","<div class='trialBorder'><div class='vertical-center'><img style='vertical-align:center; align:center' src='img/fixation2_sml.jpg'></div><div class='arrayDiv3'><div class='tl'><img class='introPic' src='trustrating_stim/white_mw091.bmp'><br><font color='green'><strong>Share</strong></font></div><div class='tc'><img class='introPic' src='trustrating_stim/white_mw092.bmp'><br><font color='red'><strong>Keep</strong></font></div><div class='tr'><img class='introPic' src='trustrating_stim/white_mw085.bmp'><br><font color='red'><strong>Keep</strong></font></div></div></div>","null","ARRAY","3","trustrating_stim/white_mw091.bmp,trustrating_stim/white_mw092.bmp,trustrating_stim/white_mw085.bmp","1,0,0","Match","e","4500","","","","",""
"","","","","6404fb7b9a7b3cfb4179d185","bdp_wmem","Tue Mar 14 2023 00:48:23 GMT-0400 (Eastern Daylight Time)","799240","Match,No Match","html-keyboard-response","168","585832","0.0-7.0-3.26","","null","","<div class='trialBorder'><div class='vertical-center'><img src='img/fixation2_sml.jpg'</img></div></div>","null","DELAY","","","","","","","","","","",""
"","","","","6404fb7b9a7b3cfb4179d185","bdp_wmem","Tue Mar 14 2023 00:48:23 GMT-0400 (Eastern Daylight Time)","799240","Match,No Match","html-keyboard-response","169","588187","0.0-7.0-4.26","","2355","","<div class='trialBorder'><div class='targDiv'><div class='tc'><img class='introPic' src='trustrating_stim/white_mw092.bmp'><br><font color='red'><strong>Keep</strong></font></div></div><div class='respDiv'><div class='respDivL'>Match<br>(e)</div><div class='respDivR'>No Match<br>(i)</div></div></div>","e","TARGET","3","trustrating_stim/white_mw091.bmp,trustrating_stim/white_mw092.bmp,trustrating_stim/white_mw085.bmp","1,0,0","Match","e","4500","trustrating_stim/white_mw092.bmp","red","Keep","REAL","1"
"","","","","6404fb7b9a7b3cfb4179d185","bdp_wmem","Tue Mar 14 2023 00:48:23 GMT-0400 (Eastern Daylight Time)","799240","Match,No Match","html-keyboard-response","170","588699","0.0-7.0-5.26","","null","","<div class='trialBorder'><div class='vertical-center'><img src='img/correct.jpg'></div><div class='respDiv'><div class='respDivL'><font style='color:orange'>Match<br>(e)</font></div><div class='respDivR'>No Match<br>(i)</div></div></div>","null","FEEDBACK","","","","","","","","","","",""
"","","","","6404fb7b9a7b3cfb4179d185","bdp_wmem","Tue Mar 14 2023 00:48:23 GMT-0400 (Eastern Daylight Time)","799240","Match,No Match","html-keyboard-response","171","589216","0.0-7.0-1.27","","null","","<div class='trialBorder'><div class='vertical-center'><img src='img/fixation2_sml.jpg'</img></div></div>","null","FIX","","","","","","","","","","",""
"","","","","6404fb7b9a7b3cfb4179d185","bdp_wmem","Tue Mar 14 2023 00:48:23 GMT-0400 (Eastern Daylight Time)","799240","Match,No Match","html-keyboard-response","172","593727","0.0-7.0-2.27","","null","","<div class='trialBorder'><div class='vertical-center'><img style='vertical-align:center; align:center' src='img/fixation2_sml.jpg'></div><div class='arrayDiv3'><div class='tl'><img class='introPic' src='trustrating_stim/white_mw038.bmp'><br><font color='green'><strong>Share</strong></font></div><div class='tc'><img class='introPic' src='trustrating_stim/white_mw042.bmp'><br><font color='red'><strong>Keep</strong></font></div><div class='tr'><img class='introPic' src='trustrating_stim/white_mw010.bmp'><br><font color='red'><strong>Keep</strong></font></div></div></div>","null","ARRAY","3","trustrating_stim/white_mw038.bmp,trustrating_stim/white_mw042.bmp,trustrating_stim/white_mw010.bmp","1,0,0","Match","e","4500","","","","",""
"","","","","6404fb7b9a7b3cfb4179d185","bdp_wmem","Tue Mar 14 2023 00:48:23 GMT-0400 (Eastern Daylight Time)","799240","Match,No Match","html-keyboard-response","173","597742","0.0-7.0-3.27","","null","","<div class='trialBorder'><div class='vertical-center'><img src='img/fixation2_sml.jpg'</img></div></div>","null","DELAY","","","","","","","","","","",""
"","","","","6404fb7b9a7b3cfb4179d185","bdp_wmem","Tue Mar 14 2023 00:48:23 GMT-0400 (Eastern Daylight Time)","799240","Match,No Match","html-keyboard-response","174","599790","0.0-7.0-4.27","","2047","","<div class='trialBorder'><div class='targDiv'><div class='tc'><img class='introPic' src='trustrating_stim/white_mw042.bmp'><br><font color='red'><strong>Keep</strong></font></div></div><div class='respDiv'><div class='respDivL'>Match<br>(e)</div><div class='respDivR'>No Match<br>(i)</div></div></div>","e","TARGET","3","trustrating_stim/white_mw038.bmp,trustrating_stim/white_mw042.bmp,trustrating_stim/white_mw010.bmp","1,0,0","Match","e","4500","trustrating_stim/white_mw042.bmp","red","Keep","REAL","1"
"","","","","6404fb7b9a7b3cfb4179d185","bdp_wmem","Tue Mar 14 2023 00:48:23 GMT-0400 (Eastern Daylight Time)","799240","Match,No Match","html-keyboard-response","175","600304","0.0-7.0-5.27","","null","","<div class='trialBorder'><div class='vertical-center'><img src='img/correct.jpg'></div><div class='respDiv'><div class='respDivL'><font style='color:orange'>Match<br>(e)</font></div><div class='respDivR'>No Match<br>(i)</div></div></div>","null","FEEDBACK","","","","","","","","","","",""
"","","","","6404fb7b9a7b3cfb4179d185","bdp_wmem","Tue Mar 14 2023 00:48:23 GMT-0400 (Eastern Daylight Time)","799240","Match,No Match","html-keyboard-response","176","600807","0.0-7.0-1.28","","null","","<div class='trialBorder'><div class='vertical-center'><img src='img/fixation2_sml.jpg'</img></div></div>","null","FIX","","","","","","","","","","",""
"","","","","6404fb7b9a7b3cfb4179d185","bdp_wmem","Tue Mar 14 2023 00:48:23 GMT-0400 (Eastern Daylight Time)","799240","Match,No Match","html-keyboard-response","177","605322","0.0-7.0-2.28","","null","","<div class='trialBorder'><div class='vertical-center'><img style='vertical-align:center; align:center' src='img/fixation2_sml.jpg'></div><div class='arrayDiv3'><div class='tl'><img class='introPic' src='trustrating_stim/white_mw092.bmp'><br><font color='red'><strong>Keep</strong></font></div><div class='tc'><img class='introPic' src='trustrating_stim/white_mw038.bmp'><br><font color='red'><strong>Keep</strong></font></div><div class='tr'><img class='introPic' src='trustrating_stim/white_mw003.bmp'><br><font color='green'><strong>Share</strong></font></div></div></div>","null","ARRAY","3","trustrating_stim/white_mw092.bmp,trustrating_stim/white_mw038.bmp,trustrating_stim/white_mw003.bmp","0,0,1","noMatchOutcome","i","4500","","","","",""
"","","","","6404fb7b9a7b3cfb4179d185","bdp_wmem","Tue Mar 14 2023 00:48:23 GMT-0400 (Eastern Daylight Time)","799240","Match,No Match","html-keyboard-response","178","609334","0.0-7.0-3.28","","null","","<div class='trialBorder'><div class='vertical-center'><img src='img/fixation2_sml.jpg'</img></div></div>","null","DELAY","","","","","","","","","","",""
"","","","","6404fb7b9a7b3cfb4179d185","bdp_wmem","Tue Mar 14 2023 00:48:23 GMT-0400 (Eastern Daylight Time)","799240","Match,No Match","html-keyboard-response","179","610917","0.0-7.0-4.28","","1583","","<div class='trialBorder'><div class='targDiv'><div class='tc'><img class='introPic' src='trustrating_stim/white_mw038.bmp'><br><font color='green'><strong>Share</strong></font></div></div><div class='respDiv'><div class='respDivL'>Match<br>(e)</div><div class='respDivR'>No Match<br>(i)</div></div></div>","i","TARGET","3","trustrating_stim/white_mw092.bmp,trustrating_stim/white_mw038.bmp,trustrating_stim/white_mw003.bmp","0,0,1","noMatchOutcome","i","4500","trustrating_stim/white_mw038.bmp","green","Share","REAL","1"
"","","","","6404fb7b9a7b3cfb4179d185","bdp_wmem","Tue Mar 14 2023 00:48:23 GMT-0400 (Eastern Daylight Time)","799240","Match,No Match","html-keyboard-response","180","611421","0.0-7.0-5.28","","null","","<div class='trialBorder'><div class='vertical-center'><img src='img/correct.jpg'></div><div class='respDiv'><div class='respDivL'>Match<br>(e)</div><div class='respDivR'><font style='color:orange'>No Match<br>(i)</font></div></div></div>","null","FEEDBACK","","","","","","","","","","",""
"","","","","6404fb7b9a7b3cfb4179d185","bdp_wmem","Tue Mar 14 2023 00:48:23 GMT-0400 (Eastern Daylight Time)","799240","Match,No Match","html-keyboard-response","181","611922","0.0-7.0-1.29","","null","","<div class='trialBorder'><div class='vertical-center'><img src='img/fixation2_sml.jpg'</img></div></div>","null","FIX","","","","","","","","","","",""
"","","","","6404fb7b9a7b3cfb4179d185","bdp_wmem","Tue Mar 14 2023 00:48:23 GMT-0400 (Eastern Daylight Time)","799240","Match,No Match","html-keyboard-response","182","614933","0.0-7.0-2.29","","null","","<div class='trialBorder'><div class='vertical-center'><img style='vertical-align:center; align:center' src='img/fixation2_sml.jpg'></div><div class='arrayDiv2'><div class='tl'><img class='introPic' src='trustrating_stim/white_mw012.bmp'><br><font color='green'><strong>Share</strong></font></div><div class='tr'><img class='introPic' src='trustrating_stim/white_mw070.bmp'><br><font color='red'><strong>Keep</strong></font></div></div></div>","null","ARRAY","2","trustrating_stim/white_mw012.bmp,trustrating_stim/white_mw070.bmp","1,0","Match","e","3000","","","","",""
"","","","","6404fb7b9a7b3cfb4179d185","bdp_wmem","Tue Mar 14 2023 00:48:23 GMT-0400 (Eastern Daylight Time)","799240","Match,No Match","html-keyboard-response","183","618934","0.0-7.0-3.29","","null","","<div class='trialBorder'><div class='vertical-center'><img src='img/fixation2_sml.jpg'</img></div></div>","null","DELAY","","","","","","","","","","",""
"","","","","6404fb7b9a7b3cfb4179d185","bdp_wmem","Tue Mar 14 2023 00:48:23 GMT-0400 (Eastern Daylight Time)","799240","Match,No Match","html-keyboard-response","184","621095","0.0-7.0-4.29","","2161","","<div class='trialBorder'><div class='targDiv'><div class='tc'><img class='introPic' src='trustrating_stim/white_mw012.bmp'><br><font color='green'><strong>Share</strong></font></div></div><div class='respDiv'><div class='respDivL'>Match<br>(e)</div><div class='respDivR'>No Match<br>(i)</div></div></div>","e","TARGET","2","trustrating_stim/white_mw012.bmp,trustrating_stim/white_mw070.bmp","1,0","Match","e","3000","trustrating_stim/white_mw012.bmp","green","Share","REAL","1"
"","","","","6404fb7b9a7b3cfb4179d185","bdp_wmem","Tue Mar 14 2023 00:48:23 GMT-0400 (Eastern Daylight Time)","799240","Match,No Match","html-keyboard-response","185","621600","0.0-7.0-5.29","","null","","<div class='trialBorder'><div class='vertical-center'><img src='img/correct.jpg'></div><div class='respDiv'><div class='respDivL'><font style='color:orange'>Match<br>(e)</font></div><div class='respDivR'>No Match<br>(i)</div></div></div>","null","FEEDBACK","","","","","","","","","","",""
"","","","","6404fb7b9a7b3cfb4179d185","bdp_wmem","Tue Mar 14 2023 00:48:23 GMT-0400 (Eastern Daylight Time)","799240","Match,No Match","html-keyboard-response","186","622115","0.0-7.0-1.30","","null","","<div class='trialBorder'><div class='vertical-center'><img src='img/fixation2_sml.jpg'</img></div></div>","null","FIX","","","","","","","","","","",""
"","","","","6404fb7b9a7b3cfb4179d185","bdp_wmem","Tue Mar 14 2023 00:48:23 GMT-0400 (Eastern Daylight Time)","799240","Match,No Match","html-keyboard-response","187","623617","0.0-7.0-2.30","","null","","<div class='trialBorder'><div class='vertical-center'><img style='vertical-align:center; align:center' src='img/fixation2_sml.jpg'></div><div class='arrayDiv1'><div class='tc'><img class='introPic' src='trustrating_stim/white_mw042.bmp'><br><font color='green'><strong>Share</strong></font></div></div></div>","null","ARRAY","1","trustrating_stim/white_mw042.bmp","1","Match","e","1500","","","","",""
