"trial_type","trial_index","time_elapsed","internal_node_id","subject_id","task","startTime","totalTime","labels","view_history","rt","event","trial","time","trialtype","success","stimulus","key_press","stimType","arraySize","arrayFaces","arrayOutcomes","matchType","corrResp","arrayDur","targFace","targCol","targOutcome","trialType","corr"
"pavlovia","0","3","0.0-0.0","5adfcb03f6b58c0001fa9083","bdp_wmem","Mon Mar 13 2023 13:49:04 GMT-0600 (Mountain Daylight Time)","569930","Match,No Match","","","","","","","","","","","","","","","","","","","","",""
"instructions","1","1794","0.0-1.0","5adfcb03f6b58c0001fa9083","bdp_wmem","Mon Mar 13 2023 13:49:04 GMT-0600 (Mountain Daylight Time)","569930","Match,No Match","[{""page_index"":0,""viewing_time"":1790}]","1790","","","","","","","","","","","","","","","","","","",""
"","","","","5adfcb03f6b58c0001fa9083","bdp_wmem","Mon Mar 13 2023 13:49:04 GMT-0600 (Mountain Daylight Time)","569930","Match,No Match","","","fullscreenenter","2","3692","fullscreenenter","","","","","","","","","","","","","","",""
"fullscreen","2","4688","0.0-2.0","5adfcb03f6b58c0001fa9083","bdp_wmem","Mon Mar 13 2023 13:49:04 GMT-0600 (Mountain Daylight Time)","569930","Match,No Match","","","","","","","true","","","","","","","","","","","","","",""
"instructions","3","71714","0.0-4.0","5adfcb03f6b58c0001fa9083","bdp_wmem","Mon Mar 13 2023 13:49:04 GMT-0600 (Mountain Daylight Time)","569930","Match,No Match","[{""page_index"":0,""viewing_time"":12170},{""page_index"":1,""viewing_time"":18168},{""page_index"":2,""viewing_time"":22236},{""page_index"":3,""viewing_time"":7789},{""page_index"":4,""viewing_time"":6662}]","67025","","","","","","","","","","","","","","","","","","",""
"html-keyboard-response","4","72216","0.0-5.0-1.0","5adfcb03f6b58c0001fa9083","bdp_wmem","Mon Mar 13 2023 13:49:04 GMT-0600 (Mountain Daylight Time)","569930","Match,No Match","","null","","","","","","<div class='trialBorder'><div class='vertical-center'><img src='img/fixation2_sml.jpg'</img></div></div>","null","FIX","","","","","","","","","","",""
"html-keyboard-response","5","73719","0.0-5.0-2.0","5adfcb03f6b58c0001fa9083","bdp_wmem","Mon Mar 13 2023 13:49:04 GMT-0600 (Mountain Daylight Time)","569930","Match,No Match","","null","","","","","","<div class='trialBorder'><div class='vertical-center'><img style='vertical-align:center; align:center' src='img/fixation2_sml.jpg'></div><div class='arrayDiv1'><div class='tc'><img class='introPic' src='trustrating_stim/white_mw092.bmp'><br><font color='red'><strong>Keep</strong></font></div></div></div>","null","ARRAY","1","trustrating_stim/white_mw092.bmp","0","noMatchFace","i","1500","","","","",""
"html-keyboard-response","6","77720","0.0-5.0-3.0","5adfcb03f6b58c0001fa9083","bdp_wmem","Mon Mar 13 2023 13:49:04 GMT-0600 (Mountain Daylight Time)","569930","Match,No Match","","null","","","","","","<div class='trialBorder'><div class='vertical-center'><img src='img/fixation2_sml.jpg'</img></div></div>","null","DELAY","","","","","","","","","","",""
"html-keyboard-response","7","81377","0.0-5.0-4.0","5adfcb03f6b58c0001fa9083","bdp_wmem","Mon Mar 13 2023 13:49:04 GMT-0600 (Mountain Daylight Time)","569930","Match,No Match","","3655","","","","","","<div class='trialBorder'><div class='targDiv'><div class='tc'><img class='introPic' src='trustrating_stim/white_mw085.bmp'><br><font color='red'><strong>Keep</strong></font></div></div><div class='respDiv'><div class='respDivL'>Match<br>(e)</div><div class='respDivR'>No Match<br>(i)</div></div></div>","i","TARGET","1","trustrating_stim/white_mw092.bmp","0","noMatchFace","i","1500","trustrating_stim/white_mw085.bmp","red","Keep","PRACTICE","1"
"html-keyboard-response","8","81880","0.0-5.0-5.0","5adfcb03f6b58c0001fa9083","bdp_wmem","Mon Mar 13 2023 13:49:04 GMT-0600 (Mountain Daylight Time)","569930","Match,No Match","","null","","","","","","<div class='trialBorder'><div class='vertical-center'><img src='img/correct.jpg'></div><div class='respDiv'><div class='respDivL'>Match<br>(e)</div><div class='respDivR'><font style='color:orange'>No Match<br>(i)</font></div></div></div>","null","FEEDBACK","","","","","","","","","","",""
"html-keyboard-response","9","82383","0.0-5.0-1.1","5adfcb03f6b58c0001fa9083","bdp_wmem","Mon Mar 13 2023 13:49:04 GMT-0600 (Mountain Daylight Time)","569930","Match,No Match","","null","","","","","","<div class='trialBorder'><div class='vertical-center'><img src='img/fixation2_sml.jpg'</img></div></div>","null","FIX","","","","","","","","","","",""
"html-keyboard-response","10","86885","0.0-5.0-2.1","5adfcb03f6b58c0001fa9083","bdp_wmem","Mon Mar 13 2023 13:49:04 GMT-0600 (Mountain Daylight Time)","569930","Match,No Match","","null","","","","","","<div class='trialBorder'><div class='vertical-center'><img style='vertical-align:center; align:center' src='img/fixation2_sml.jpg'></div><div class='arrayDiv3'><div class='tl'><img class='introPic' src='trustrating_stim/white_mw038.bmp'><br><font color='red'><strong>Keep</strong></font></div><div class='tc'><img class='introPic' src='trustrating_stim/white_mw070.bmp'><br><font color='green'><strong>Share</strong></font></div><div class='tr'><img class='introPic' src='trustrating_stim/white_mw012.bmp'><br><font color='green'><strong>Share</strong></font></div></div></div>","null","ARRAY","3","trustrating_stim/white_mw038.bmp,trustrating_stim/white_mw070.bmp,trustrating_stim/white_mw012.bmp","0,1,1","Match","e","4500","","","","",""
"html-keyboard-response","11","90887","0.0-5.0-3.1","5adfcb03f6b58c0001fa9083","bdp_wmem","Mon Mar 13 2023 13:49:04 GMT-0600 (Mountain Daylight Time)","569930","Match,No Match","","null","","","","","","<div class='trialBorder'><div class='vertical-center'><img src='img/fixation2_sml.jpg'</img></div></div>","null","DELAY","","","","","","","","","","",""
"html-keyboard-response","12","92351","0.0-5.0-4.1","5adfcb03f6b58c0001fa9083","bdp_wmem","Mon Mar 13 2023 13:49:04 GMT-0600 (Mountain Daylight Time)","569930","Match,No Match","","1462","","","","","","<div class='trialBorder'><div class='targDiv'><div class='tc'><img class='introPic' src='trustrating_stim/white_mw038.bmp'><br><font color='red'><strong>Keep</strong></font></div></div><div class='respDiv'><div class='respDivL'>Match<br>(e)</div><div class='respDivR'>No Match<br>(i)</div></div></div>","e","TARGET","3","trustrating_stim/white_mw038.bmp,trustrating_stim/white_mw070.bmp,trustrating_stim/white_mw012.bmp","0,1,1","Match","e","4500","trustrating_stim/white_mw038.bmp","red","Keep","PRACTICE","1"
"html-keyboard-response","13","92853","0.0-5.0-5.1","5adfcb03f6b58c0001fa9083","bdp_wmem","Mon Mar 13 2023 13:49:04 GMT-0600 (Mountain Daylight Time)","569930","Match,No Match","","null","","","","","","<div class='trialBorder'><div class='vertical-center'><img src='img/correct.jpg'></div><div class='respDiv'><div class='respDivL'><font style='color:orange'>Match<br>(e)</font></div><div class='respDivR'>No Match<br>(i)</div></div></div>","null","FEEDBACK","","","","","","","","","","",""
"html-keyboard-response","14","93355","0.0-5.0-1.2","5adfcb03f6b58c0001fa9083","bdp_wmem","Mon Mar 13 2023 13:49:04 GMT-0600 (Mountain Daylight Time)","569930","Match,No Match","","null","","","","","","<div class='trialBorder'><div class='vertical-center'><img src='img/fixation2_sml.jpg'</img></div></div>","null","FIX","","","","","","","","","","",""
"html-keyboard-response","15","97856","0.0-5.0-2.2","5adfcb03f6b58c0001fa9083","bdp_wmem","Mon Mar 13 2023 13:49:04 GMT-0600 (Mountain Daylight Time)","569930","Match,No Match","","null","","","","","","<div class='trialBorder'><div class='vertical-center'><img style='vertical-align:center; align:center' src='img/fixation2_sml.jpg'></div><div class='arrayDiv3'><div class='tl'><img class='introPic' src='trustrating_stim/white_mw040.bmp'><br><font color='green'><strong>Share</strong></font></div><div class='tc'><img class='introPic' src='trustrating_stim/white_mw085.bmp'><br><font color='red'><strong>Keep</strong></font></div><div class='tr'><img class='introPic' src='trustrating_stim/white_mw010.bmp'><br><font color='green'><strong>Share</strong></font></div></div></div>","null","ARRAY","3","trustrating_stim/white_mw040.bmp,trustrating_stim/white_mw085.bmp,trustrating_stim/white_mw010.bmp","1,0,1","noMatchOutcome","i","4500","","","","",""
"html-keyboard-response","16","101858","0.0-5.0-3.2","5adfcb03f6b58c0001fa9083","bdp_wmem","Mon Mar 13 2023 13:49:04 GMT-0600 (Mountain Daylight Time)","569930","Match,No Match","","null","","","","","","<div class='trialBorder'><div class='vertical-center'><img src='img/fixation2_sml.jpg'</img></div></div>","null","DELAY","","","","","","","","","","",""
"html-keyboard-response","17","103054","0.0-5.0-4.2","5adfcb03f6b58c0001fa9083","bdp_wmem","Mon Mar 13 2023 13:49:04 GMT-0600 (Mountain Daylight Time)","569930","Match,No Match","","1194","","","","","","<div class='trialBorder'><div class='targDiv'><div class='tc'><img class='introPic' src='trustrating_stim/white_mw085.bmp'><br><font color='green'><strong>Share</strong></font></div></div><div class='respDiv'><div class='respDivL'>Match<br>(e)</div><div class='respDivR'>No Match<br>(i)</div></div></div>","i","TARGET","3","trustrating_stim/white_mw040.bmp,trustrating_stim/white_mw085.bmp,trustrating_stim/white_mw010.bmp","1,0,1","noMatchOutcome","i","4500","trustrating_stim/white_mw085.bmp","green","Share","PRACTICE","1"
"html-keyboard-response","18","103555","0.0-5.0-5.2","5adfcb03f6b58c0001fa9083","bdp_wmem","Mon Mar 13 2023 13:49:04 GMT-0600 (Mountain Daylight Time)","569930","Match,No Match","","null","","","","","","<div class='trialBorder'><div class='vertical-center'><img src='img/correct.jpg'></div><div class='respDiv'><div class='respDivL'>Match<br>(e)</div><div class='respDivR'><font style='color:orange'>No Match<br>(i)</font></div></div></div>","null","FEEDBACK","","","","","","","","","","",""
"html-keyboard-response","19","104057","0.0-5.0-1.3","5adfcb03f6b58c0001fa9083","bdp_wmem","Mon Mar 13 2023 13:49:04 GMT-0600 (Mountain Daylight Time)","569930","Match,No Match","","null","","","","","","<div class='trialBorder'><div class='vertical-center'><img src='img/fixation2_sml.jpg'</img></div></div>","null","FIX","","","","","","","","","","",""
"html-keyboard-response","20","107060","0.0-5.0-2.3","5adfcb03f6b58c0001fa9083","bdp_wmem","Mon Mar 13 2023 13:49:04 GMT-0600 (Mountain Daylight Time)","569930","Match,No Match","","null","","","","","","<div class='trialBorder'><div class='vertical-center'><img style='vertical-align:center; align:center' src='img/fixation2_sml.jpg'></div><div class='arrayDiv2'><div class='tl'><img class='introPic' src='trustrating_stim/white_mw038.bmp'><br><font color='green'><strong>Share</strong></font></div><div class='tr'><img class='introPic' src='trustrating_stim/white_mw010.bmp'><br><font color='red'><strong>Keep</strong></font></div></div></div>","null","ARRAY","2","trustrating_stim/white_mw038.bmp,trustrating_stim/white_mw010.bmp","1,0","Match","e","3000","","","","",""
"html-keyboard-response","21","111062","0.0-5.0-3.3","5adfcb03f6b58c0001fa9083","bdp_wmem","Mon Mar 13 2023 13:49:04 GMT-0600 (Mountain Daylight Time)","569930","Match,No Match","","null","","","","","","<div class='trialBorder'><div class='vertical-center'><img src='img/fixation2_sml.jpg'</img></div></div>","null","DELAY","","","","","","","","","","",""
"html-keyboard-response","22","112201","0.0-5.0-4.3","5adfcb03f6b58c0001fa9083","bdp_wmem","Mon Mar 13 2023 13:49:04 GMT-0600 (Mountain Daylight Time)","569930","Match,No Match","","1137","","","","","","<div class='trialBorder'><div class='targDiv'><div class='tc'><img class='introPic' src='trustrating_stim/white_mw010.bmp'><br><font color='red'><strong>Keep</strong></font></div></div><div class='respDiv'><div class='respDivL'>Match<br>(e)</div><div class='respDivR'>No Match<br>(i)</div></div></div>","i","TARGET","2","trustrating_stim/white_mw038.bmp,trustrating_stim/white_mw010.bmp","1,0","Match","e","3000","trustrating_stim/white_mw010.bmp","red","Keep","PRACTICE","0"
"html-keyboard-response","23","112703","0.0-5.0-5.3","5adfcb03f6b58c0001fa9083","bdp_wmem","Mon Mar 13 2023 13:49:04 GMT-0600 (Mountain Daylight Time)","569930","Match,No Match","","null","","","","","","<div class='trialBorder'><div class='vertical-center'><img src='img/error.jpg'></div><div class='respDiv'><div class='respDivL'>Match<br>(e)</div><div class='respDivR'><font style='color:orange'>No Match<br>(i)</font></div></div></div>","null","FEEDBACK","","","","","","","","","","",""
"html-keyboard-response","24","113206","0.0-5.0-1.4","5adfcb03f6b58c0001fa9083","bdp_wmem","Mon Mar 13 2023 13:49:04 GMT-0600 (Mountain Daylight Time)","569930","Match,No Match","","null","","","","","","<div class='trialBorder'><div class='vertical-center'><img src='img/fixation2_sml.jpg'</img></div></div>","null","FIX","","","","","","","","","","",""
"html-keyboard-response","25","116208","0.0-5.0-2.4","5adfcb03f6b58c0001fa9083","bdp_wmem","Mon Mar 13 2023 13:49:04 GMT-0600 (Mountain Daylight Time)","569930","Match,No Match","","null","","","","","","<div class='trialBorder'><div class='vertical-center'><img style='vertical-align:center; align:center' src='img/fixation2_sml.jpg'></div><div class='arrayDiv2'><div class='tl'><img class='introPic' src='trustrating_stim/white_mw092.bmp'><br><font color='green'><strong>Share</strong></font></div><div class='tr'><img class='introPic' src='trustrating_stim/white_mw040.bmp'><br><font color='red'><strong>Keep</strong></font></div></div></div>","null","ARRAY","2","trustrating_stim/white_mw092.bmp,trustrating_stim/white_mw040.bmp","1,0","noMatchOutcome","i","3000","","","","",""
"html-keyboard-response","26","120209","0.0-5.0-3.4","5adfcb03f6b58c0001fa9083","bdp_wmem","Mon Mar 13 2023 13:49:04 GMT-0600 (Mountain Daylight Time)","569930","Match,No Match","","null","","","","","","<div class='trialBorder'><div class='vertical-center'><img src='img/fixation2_sml.jpg'</img></div></div>","null","DELAY","","","","","","","","","","",""
"html-keyboard-response","27","121225","0.0-5.0-4.4","5adfcb03f6b58c0001fa9083","bdp_wmem","Mon Mar 13 2023 13:49:04 GMT-0600 (Mountain Daylight Time)","569930","Match,No Match","","1013","","","","","","<div class='trialBorder'><div class='targDiv'><div class='tc'><img class='introPic' src='trustrating_stim/white_mw040.bmp'><br><font color='green'><strong>Share</strong></font></div></div><div class='respDiv'><div class='respDivL'>Match<br>(e)</div><div class='respDivR'>No Match<br>(i)</div></div></div>","e","TARGET","2","trustrating_stim/white_mw092.bmp,trustrating_stim/white_mw040.bmp","1,0","noMatchOutcome","i","3000","trustrating_stim/white_mw040.bmp","green","Share","PRACTICE","0"
"html-keyboard-response","28","121727","0.0-5.0-5.4","5adfcb03f6b58c0001fa9083","bdp_wmem","Mon Mar 13 2023 13:49:04 GMT-0600 (Mountain Daylight Time)","569930","Match,No Match","","null","","","","","","<div class='trialBorder'><div class='vertical-center'><img src='img/error.jpg'></div><div class='respDiv'><div class='respDivL'><font style='color:orange'>Match<br>(e)</font></div><div class='respDivR'>No Match<br>(i)</div></div></div>","null","FEEDBACK","","","","","","","","","","",""
"html-keyboard-response","29","122228","0.0-5.0-1.5","5adfcb03f6b58c0001fa9083","bdp_wmem","Mon Mar 13 2023 13:49:04 GMT-0600 (Mountain Daylight Time)","569930","Match,No Match","","null","","","","","","<div class='trialBorder'><div class='vertical-center'><img src='img/fixation2_sml.jpg'</img></div></div>","null","FIX","","","","","","","","","","",""
"html-keyboard-response","30","123730","0.0-5.0-2.5","5adfcb03f6b58c0001fa9083","bdp_wmem","Mon Mar 13 2023 13:49:04 GMT-0600 (Mountain Daylight Time)","569930","Match,No Match","","null","","","","","","<div class='trialBorder'><div class='vertical-center'><img style='vertical-align:center; align:center' src='img/fixation2_sml.jpg'></div><div class='arrayDiv1'><div class='tc'><img class='introPic' src='trustrating_stim/white_mw078.bmp'><br><font color='green'><strong>Share</strong></font></div></div></div>","null","ARRAY","1","trustrating_stim/white_mw078.bmp","1","Match","e","1500","","","","",""
"html-keyboard-response","31","127732","0.0-5.0-3.5","5adfcb03f6b58c0001fa9083","bdp_wmem","Mon Mar 13 2023 13:49:04 GMT-0600 (Mountain Daylight Time)","569930","Match,No Match","","null","","","","","","<div class='trialBorder'><div class='vertical-center'><img src='img/fixation2_sml.jpg'</img></div></div>","null","DELAY","","","","","","","","","","",""
"html-keyboard-response","32","128631","0.0-5.0-4.5","5adfcb03f6b58c0001fa9083","bdp_wmem","Mon Mar 13 2023 13:49:04 GMT-0600 (Mountain Daylight Time)","569930","Match,No Match","","897","","","","","","<div class='trialBorder'><div class='targDiv'><div class='tc'><img class='introPic' src='trustrating_stim/white_mw078.bmp'><br><font color='green'><strong>Share</strong></font></div></div><div class='respDiv'><div class='respDivL'>Match<br>(e)</div><div class='respDivR'>No Match<br>(i)</div></div></div>","e","TARGET","1","trustrating_stim/white_mw078.bmp","1","Match","e","1500","trustrating_stim/white_mw078.bmp","green","Share","PRACTICE","1"
"html-keyboard-response","33","129133","0.0-5.0-5.5","5adfcb03f6b58c0001fa9083","bdp_wmem","Mon Mar 13 2023 13:49:04 GMT-0600 (Mountain Daylight Time)","569930","Match,No Match","","null","","","","","","<div class='trialBorder'><div class='vertical-center'><img src='img/correct.jpg'></div><div class='respDiv'><div class='respDivL'><font style='color:orange'>Match<br>(e)</font></div><div class='respDivR'>No Match<br>(i)</div></div></div>","null","FEEDBACK","","","","","","","","","","",""
"instructions","34","133609","0.0-6.0","5adfcb03f6b58c0001fa9083","bdp_wmem","Mon Mar 13 2023 13:49:04 GMT-0600 (Mountain Daylight Time)","569930","Match,No Match","[{""page_index"":0,""viewing_time"":4474}]","4475","","","","","","","","","","","","","","","","","","",""
"html-keyboard-response","35","134111","0.0-7.0-1.0","5adfcb03f6b58c0001fa9083","bdp_wmem","Mon Mar 13 2023 13:49:04 GMT-0600 (Mountain Daylight Time)","569930","Match,No Match","","null","","","","","","<div class='trialBorder'><div class='vertical-center'><img src='img/fixation2_sml.jpg'</img></div></div>","null","FIX","","","","","","","","","","",""
"html-keyboard-response","36","135613","0.0-7.0-2.0","5adfcb03f6b58c0001fa9083","bdp_wmem","Mon Mar 13 2023 13:49:04 GMT-0600 (Mountain Daylight Time)","569930","Match,No Match","","null","","","","","","<div class='trialBorder'><div class='vertical-center'><img style='vertical-align:center; align:center' src='img/fixation2_sml.jpg'></div><div class='arrayDiv1'><div class='tc'><img class='introPic' src='trustrating_stim/white_mw078.bmp'><br><font color='red'><strong>Keep</strong></font></div></div></div>","null","ARRAY","1","trustrating_stim/white_mw078.bmp","0","Match","e","1500","","","","",""
"html-keyboard-response","37","139615","0.0-7.0-3.0","5adfcb03f6b58c0001fa9083","bdp_wmem","Mon Mar 13 2023 13:49:04 GMT-0600 (Mountain Daylight Time)","569930","Match,No Match","","null","","","","","","<div class='trialBorder'><div class='vertical-center'><img src='img/fixation2_sml.jpg'</img></div></div>","null","DELAY","","","","","","","","","","",""
"html-keyboard-response","38","141018","0.0-7.0-4.0","5adfcb03f6b58c0001fa9083","bdp_wmem","Mon Mar 13 2023 13:49:04 GMT-0600 (Mountain Daylight Time)","569930","Match,No Match","","1402","","","","","","<div class='trialBorder'><div class='targDiv'><div class='tc'><img class='introPic' src='trustrating_stim/white_mw078.bmp'><br><font color='red'><strong>Keep</strong></font></div></div><div class='respDiv'><div class='respDivL'>Match<br>(e)</div><div class='respDivR'>No Match<br>(i)</div></div></div>","e","TARGET","1","trustrating_stim/white_mw078.bmp","0","Match","e","1500","trustrating_stim/white_mw078.bmp","red","Keep","REAL","1"
"html-keyboard-response","39","141519","0.0-7.0-5.0","5adfcb03f6b58c0001fa9083","bdp_wmem","Mon Mar 13 2023 13:49:04 GMT-0600 (Mountain Daylight Time)","569930","Match,No Match","","null","","","","","","<div class='trialBorder'><div class='vertical-center'><img src='img/correct.jpg'></div><div class='respDiv'><div class='respDivL'><font style='color:orange'>Match<br>(e)</font></div><div class='respDivR'>No Match<br>(i)</div></div></div>","null","FEEDBACK","","","","","","","","","","",""
"html-keyboard-response","40","142021","0.0-7.0-1.1","5adfcb03f6b58c0001fa9083","bdp_wmem","Mon Mar 13 2023 13:49:04 GMT-0600 (Mountain Daylight Time)","569930","Match,No Match","","null","","","","","","<div class='trialBorder'><div class='vertical-center'><img src='img/fixation2_sml.jpg'</img></div></div>","null","FIX","","","","","","","","","","",""
"html-keyboard-response","41","146524","0.0-7.0-2.1","5adfcb03f6b58c0001fa9083","bdp_wmem","Mon Mar 13 2023 13:49:04 GMT-0600 (Mountain Daylight Time)","569930","Match,No Match","","null","","","","","","<div class='trialBorder'><div class='vertical-center'><img style='vertical-align:center; align:center' src='img/fixation2_sml.jpg'></div><div class='arrayDiv3'><div class='tl'><img class='introPic' src='trustrating_stim/white_mw078.bmp'><br><font color='red'><strong>Keep</strong></font></div><div class='tc'><img class='introPic' src='trustrating_stim/white_mw010.bmp'><br><font color='green'><strong>Share</strong></font></div><div class='tr'><img class='introPic' src='trustrating_stim/white_mw013.bmp'><br><font color='green'><strong>Share</strong></font></div></div></div>","null","ARRAY","3","trustrating_stim/white_mw078.bmp,trustrating_stim/white_mw010.bmp,trustrating_stim/white_mw013.bmp","0,1,1","Match","e","4500","","","","",""
"html-keyboard-response","42","150527","0.0-7.0-3.1","5adfcb03f6b58c0001fa9083","bdp_wmem","Mon Mar 13 2023 13:49:04 GMT-0600 (Mountain Daylight Time)","569930","Match,No Match","","null","","","","","","<div class='trialBorder'><div class='vertical-center'><img src='img/fixation2_sml.jpg'</img></div></div>","null","DELAY","","","","","","","","","","",""
"html-keyboard-response","43","152574","0.0-7.0-4.1","5adfcb03f6b58c0001fa9083","bdp_wmem","Mon Mar 13 2023 13:49:04 GMT-0600 (Mountain Daylight Time)","569930","Match,No Match","","2044","","","","","","<div class='trialBorder'><div class='targDiv'><div class='tc'><img class='introPic' src='trustrating_stim/white_mw078.bmp'><br><font color='red'><strong>Keep</strong></font></div></div><div class='respDiv'><div class='respDivL'>Match<br>(e)</div><div class='respDivR'>No Match<br>(i)</div></div></div>","e","TARGET","3","trustrating_stim/white_mw078.bmp,trustrating_stim/white_mw010.bmp,trustrating_stim/white_mw013.bmp","0,1,1","Match","e","4500","trustrating_stim/white_mw078.bmp","red","Keep","REAL","1"
"html-keyboard-response","44","153075","0.0-7.0-5.1","5adfcb03f6b58c0001fa9083","bdp_wmem","Mon Mar 13 2023 13:49:04 GMT-0600 (Mountain Daylight Time)","569930","Match,No Match","","null","","","","","","<div class='trialBorder'><div class='vertical-center'><img src='img/correct.jpg'></div><div class='respDiv'><div class='respDivL'><font style='color:orange'>Match<br>(e)</font></div><div class='respDivR'>No Match<br>(i)</div></div></div>","null","FEEDBACK","","","","","","","","","","",""
"html-keyboard-response","45","153578","0.0-7.0-1.2","5adfcb03f6b58c0001fa9083","bdp_wmem","Mon Mar 13 2023 13:49:04 GMT-0600 (Mountain Daylight Time)","569930","Match,No Match","","null","","","","","","<div class='trialBorder'><div class='vertical-center'><img src='img/fixation2_sml.jpg'</img></div></div>","null","FIX","","","","","","","","","","",""
"html-keyboard-response","46","156580","0.0-7.0-2.2","5adfcb03f6b58c0001fa9083","bdp_wmem","Mon Mar 13 2023 13:49:04 GMT-0600 (Mountain Daylight Time)","569930","Match,No Match","","null","","","","","","<div class='trialBorder'><div class='vertical-center'><img style='vertical-align:center; align:center' src='img/fixation2_sml.jpg'></div><div class='arrayDiv2'><div class='tl'><img class='introPic' src='trustrating_stim/white_mw012.bmp'><br><font color='green'><strong>Share</strong></font></div><div class='tr'><img class='introPic' src='trustrating_stim/white_mw078.bmp'><br><font color='red'><strong>Keep</strong></font></div></div></div>","null","ARRAY","2","trustrating_stim/white_mw012.bmp,trustrating_stim/white_mw078.bmp","1,0","Match","e","3000","","","","",""
"html-keyboard-response","47","160582","0.0-7.0-3.2","5adfcb03f6b58c0001fa9083","bdp_wmem","Mon Mar 13 2023 13:49:04 GMT-0600 (Mountain Daylight Time)","569930","Match,No Match","","null","","","","","","<div class='trialBorder'><div class='vertical-center'><img src='img/fixation2_sml.jpg'</img></div></div>","null","DELAY","","","","","","","","","","",""
"html-keyboard-response","48","161974","0.0-7.0-4.2","5adfcb03f6b58c0001fa9083","bdp_wmem","Mon Mar 13 2023 13:49:04 GMT-0600 (Mountain Daylight Time)","569930","Match,No Match","","1391","","","","","","<div class='trialBorder'><div class='targDiv'><div class='tc'><img class='introPic' src='trustrating_stim/white_mw078.bmp'><br><font color='red'><strong>Keep</strong></font></div></div><div class='respDiv'><div class='respDivL'>Match<br>(e)</div><div class='respDivR'>No Match<br>(i)</div></div></div>","e","TARGET","2","trustrating_stim/white_mw012.bmp,trustrating_stim/white_mw078.bmp","1,0","Match","e","3000","trustrating_stim/white_mw078.bmp","red","Keep","REAL","1"
"html-keyboard-response","49","162476","0.0-7.0-5.2","5adfcb03f6b58c0001fa9083","bdp_wmem","Mon Mar 13 2023 13:49:04 GMT-0600 (Mountain Daylight Time)","569930","Match,No Match","","null","","","","","","<div class='trialBorder'><div class='vertical-center'><img src='img/correct.jpg'></div><div class='respDiv'><div class='respDivL'><font style='color:orange'>Match<br>(e)</font></div><div class='respDivR'>No Match<br>(i)</div></div></div>","null","FEEDBACK","","","","","","","","","","",""
"html-keyboard-response","50","162978","0.0-7.0-1.3","5adfcb03f6b58c0001fa9083","bdp_wmem","Mon Mar 13 2023 13:49:04 GMT-0600 (Mountain Daylight Time)","569930","Match,No Match","","null","","","","","","<div class='trialBorder'><div class='vertical-center'><img src='img/fixation2_sml.jpg'</img></div></div>","null","FIX","","","","","","","","","","",""
"html-keyboard-response","51","167480","0.0-7.0-2.3","5adfcb03f6b58c0001fa9083","bdp_wmem","Mon Mar 13 2023 13:49:04 GMT-0600 (Mountain Daylight Time)","569930","Match,No Match","","null","","","","","","<div class='trialBorder'><div class='vertical-center'><img style='vertical-align:center; align:center' src='img/fixation2_sml.jpg'></div><div class='arrayDiv3'><div class='tl'><img class='introPic' src='trustrating_stim/white_mw013.bmp'><br><font color='red'><strong>Keep</strong></font></div><div class='tc'><img class='introPic' src='trustrating_stim/white_mw042.bmp'><br><font color='green'><strong>Share</strong></font></div><div class='tr'><img class='introPic' src='trustrating_stim/white_mw003.bmp'><br><font color='red'><strong>Keep</strong></font></div></div></div>","null","ARRAY","3","trustrating_stim/white_mw013.bmp,trustrating_stim/white_mw042.bmp,trustrating_stim/white_mw003.bmp","0,1,0","noMatchOutcome","i","4500","","","","",""
"html-keyboard-response","52","171482","0.0-7.0-3.3","5adfcb03f6b58c0001fa9083","bdp_wmem","Mon Mar 13 2023 13:49:04 GMT-0600 (Mountain Daylight Time)","569930","Match,No Match","","null","","","","","","<div class='trialBorder'><div class='vertical-center'><img src='img/fixation2_sml.jpg'</img></div></div>","null","DELAY","","","","","","","","","","",""
"html-keyboard-response","53","172714","0.0-7.0-4.3","5adfcb03f6b58c0001fa9083","bdp_wmem","Mon Mar 13 2023 13:49:04 GMT-0600 (Mountain Daylight Time)","569930","Match,No Match","","1230","","","","","","<div class='trialBorder'><div class='targDiv'><div class='tc'><img class='introPic' src='trustrating_stim/white_mw042.bmp'><br><font color='red'><strong>Keep</strong></font></div></div><div class='respDiv'><div class='respDivL'>Match<br>(e)</div><div class='respDivR'>No Match<br>(i)</div></div></div>","e","TARGET","3","trustrating_stim/white_mw013.bmp,trustrating_stim/white_mw042.bmp,trustrating_stim/white_mw003.bmp","0,1,0","noMatchOutcome","i","4500","trustrating_stim/white_mw042.bmp","red","Keep","REAL","0"
"html-keyboard-response","54","173216","0.0-7.0-5.3","5adfcb03f6b58c0001fa9083","bdp_wmem","Mon Mar 13 2023 13:49:04 GMT-0600 (Mountain Daylight Time)","569930","Match,No Match","","null","","","","","","<div class='trialBorder'><div class='vertical-center'><img src='img/error.jpg'></div><div class='respDiv'><div class='respDivL'><font style='color:orange'>Match<br>(e)</font></div><div class='respDivR'>No Match<br>(i)</div></div></div>","null","FEEDBACK","","","","","","","","","","",""
"html-keyboard-response","55","173718","0.0-7.0-1.4","5adfcb03f6b58c0001fa9083","bdp_wmem","Mon Mar 13 2023 13:49:04 GMT-0600 (Mountain Daylight Time)","569930","Match,No Match","","null","","","","","","<div class='trialBorder'><div class='vertical-center'><img src='img/fixation2_sml.jpg'</img></div></div>","null","FIX","","","","","","","","","","",""
"html-keyboard-response","56","176721","0.0-7.0-2.4","5adfcb03f6b58c0001fa9083","bdp_wmem","Mon Mar 13 2023 13:49:04 GMT-0600 (Mountain Daylight Time)","569930","Match,No Match","","null","","","","","","<div class='trialBorder'><div class='vertical-center'><img style='vertical-align:center; align:center' src='img/fixation2_sml.jpg'></div><div class='arrayDiv2'><div class='tl'><img class='introPic' src='trustrating_stim/white_mw012.bmp'><br><font color='red'><strong>Keep</strong></font></div><div class='tr'><img class='introPic' src='trustrating_stim/white_mw013.bmp'><br><font color='green'><strong>Share</strong></font></div></div></div>","null","ARRAY","2","trustrating_stim/white_mw012.bmp,trustrating_stim/white_mw013.bmp","0,1","noMatchFace","i","3000","","","","",""
"html-keyboard-response","57","180723","0.0-7.0-3.4","5adfcb03f6b58c0001fa9083","bdp_wmem","Mon Mar 13 2023 13:49:04 GMT-0600 (Mountain Daylight Time)","569930","Match,No Match","","null","","","","","","<div class='trialBorder'><div class='vertical-center'><img src='img/fixation2_sml.jpg'</img></div></div>","null","DELAY","","","","","","","","","","",""
"html-keyboard-response","58","181811","0.0-7.0-4.4","5adfcb03f6b58c0001fa9083","bdp_wmem","Mon Mar 13 2023 13:49:04 GMT-0600 (Mountain Daylight Time)","569930","Match,No Match","","1087","","","","","","<div class='trialBorder'><div class='targDiv'><div class='tc'><img class='introPic' src='trustrating_stim/white_mw038.bmp'><br><font color='red'><strong>Keep</strong></font></div></div><div class='respDiv'><div class='respDivL'>Match<br>(e)</div><div class='respDivR'>No Match<br>(i)</div></div></div>","i","TARGET","2","trustrating_stim/white_mw012.bmp,trustrating_stim/white_mw013.bmp","0,1","noMatchFace","i","3000","trustrating_stim/white_mw038.bmp","red","Keep","REAL","1"
"html-keyboard-response","59","182314","0.0-7.0-5.4","5adfcb03f6b58c0001fa9083","bdp_wmem","Mon Mar 13 2023 13:49:04 GMT-0600 (Mountain Daylight Time)","569930","Match,No Match","","null","","","","","","<div class='trialBorder'><div class='vertical-center'><img src='img/correct.jpg'></div><div class='respDiv'><div class='respDivL'>Match<br>(e)</div><div class='respDivR'><font style='color:orange'>No Match<br>(i)</font></div></div></div>","null","FEEDBACK","","","","","","","","","","",""
"html-keyboard-response","60","182816","0.0-7.0-1.5","5adfcb03f6b58c0001fa9083","bdp_wmem","Mon Mar 13 2023 13:49:04 GMT-0600 (Mountain Daylight Time)","569930","Match,No Match","","null","","","","","","<div class='trialBorder'><div class='vertical-center'><img src='img/fixation2_sml.jpg'</img></div></div>","null","FIX","","","","","","","","","","",""
"html-keyboard-response","61","184318","0.0-7.0-2.5","5adfcb03f6b58c0001fa9083","bdp_wmem","Mon Mar 13 2023 13:49:04 GMT-0600 (Mountain Daylight Time)","569930","Match,No Match","","null","","","","","","<div class='trialBorder'><div class='vertical-center'><img style='vertical-align:center; align:center' src='img/fixation2_sml.jpg'></div><div class='arrayDiv1'><div class='tc'><img class='introPic' src='trustrating_stim/white_mw070.bmp'><br><font color='green'><strong>Share</strong></font></div></div></div>","null","ARRAY","1","trustrating_stim/white_mw070.bmp","1","noMatchFace","i","1500","","","","",""
"html-keyboard-response","62","188319","0.0-7.0-3.5","5adfcb03f6b58c0001fa9083","bdp_wmem","Mon Mar 13 2023 13:49:04 GMT-0600 (Mountain Daylight Time)","569930","Match,No Match","","null","","","","","","<div class='trialBorder'><div class='vertical-center'><img src='img/fixation2_sml.jpg'</img></div></div>","null","DELAY","","","","","","","","","","",""
"html-keyboard-response","63","190080","0.0-7.0-4.5","5adfcb03f6b58c0001fa9083","bdp_wmem","Mon Mar 13 2023 13:49:04 GMT-0600 (Mountain Daylight Time)","569930","Match,No Match","","1758","","","","","","<div class='trialBorder'><div class='targDiv'><div class='tc'><img class='introPic' src='trustrating_stim/white_mw085.bmp'><br><font color='green'><strong>Share</strong></font></div></div><div class='respDiv'><div class='respDivL'>Match<br>(e)</div><div class='respDivR'>No Match<br>(i)</div></div></div>","i","TARGET","1","trustrating_stim/white_mw070.bmp","1","noMatchFace","i","1500","trustrating_stim/white_mw085.bmp","green","Share","REAL","1"
"html-keyboard-response","64","190581","0.0-7.0-5.5","5adfcb03f6b58c0001fa9083","bdp_wmem","Mon Mar 13 2023 13:49:04 GMT-0600 (Mountain Daylight Time)","569930","Match,No Match","","null","","","","","","<div class='trialBorder'><div class='vertical-center'><img src='img/correct.jpg'></div><div class='respDiv'><div class='respDivL'>Match<br>(e)</div><div class='respDivR'><font style='color:orange'>No Match<br>(i)</font></div></div></div>","null","FEEDBACK","","","","","","","","","","",""
"html-keyboard-response","65","191084","0.0-7.0-1.6","5adfcb03f6b58c0001fa9083","bdp_wmem","Mon Mar 13 2023 13:49:04 GMT-0600 (Mountain Daylight Time)","569930","Match,No Match","","null","","","","","","<div class='trialBorder'><div class='vertical-center'><img src='img/fixation2_sml.jpg'</img></div></div>","null","FIX","","","","","","","","","","",""
"html-keyboard-response","66","195586","0.0-7.0-2.6","5adfcb03f6b58c0001fa9083","bdp_wmem","Mon Mar 13 2023 13:49:04 GMT-0600 (Mountain Daylight Time)","569930","Match,No Match","","null","","","","","","<div class='trialBorder'><div class='vertical-center'><img style='vertical-align:center; align:center' src='img/fixation2_sml.jpg'></div><div class='arrayDiv3'><div class='tl'><img class='introPic' src='trustrating_stim/white_mw042.bmp'><br><font color='green'><strong>Share</strong></font></div><div class='tc'><img class='introPic' src='trustrating_stim/white_mw040.bmp'><br><font color='green'><strong>Share</strong></font></div><div class='tr'><img class='introPic' src='trustrating_stim/white_mw070.bmp'><br><font color='red'><strong>Keep</strong></font></div></div></div>","null","ARRAY","3","trustrating_stim/white_mw042.bmp,trustrating_stim/white_mw040.bmp,trustrating_stim/white_mw070.bmp","1,1,0","Match","e","4500","","","","",""
"html-keyboard-response","67","199588","0.0-7.0-3.6","5adfcb03f6b58c0001fa9083","bdp_wmem","Mon Mar 13 2023 13:49:04 GMT-0600 (Mountain Daylight Time)","569930","Match,No Match","","null","","","","","","<div class='trialBorder'><div class='vertical-center'><img src='img/fixation2_sml.jpg'</img></div></div>","null","DELAY","","","","","","","","","","",""
"html-keyboard-response","68","200460","0.0-7.0-4.6","5adfcb03f6b58c0001fa9083","bdp_wmem","Mon Mar 13 2023 13:49:04 GMT-0600 (Mountain Daylight Time)","569930","Match,No Match","","870","","","","","","<div class='trialBorder'><div class='targDiv'><div class='tc'><img class='introPic' src='trustrating_stim/white_mw070.bmp'><br><font color='red'><strong>Keep</strong></font></div></div><div class='respDiv'><div class='respDivL'>Match<br>(e)</div><div class='respDivR'>No Match<br>(i)</div></div></div>","i","TARGET","3","trustrating_stim/white_mw042.bmp,trustrating_stim/white_mw040.bmp,trustrating_stim/white_mw070.bmp","1,1,0","Match","e","4500","trustrating_stim/white_mw070.bmp","red","Keep","REAL","0"
"html-keyboard-response","69","200963","0.0-7.0-5.6","5adfcb03f6b58c0001fa9083","bdp_wmem","Mon Mar 13 2023 13:49:04 GMT-0600 (Mountain Daylight Time)","569930","Match,No Match","","null","","","","","","<div class='trialBorder'><div class='vertical-center'><img src='img/error.jpg'></div><div class='respDiv'><div class='respDivL'>Match<br>(e)</div><div class='respDivR'><font style='color:orange'>No Match<br>(i)</font></div></div></div>","null","FEEDBACK","","","","","","","","","","",""
"html-keyboard-response","70","201465","0.0-7.0-1.7","5adfcb03f6b58c0001fa9083","bdp_wmem","Mon Mar 13 2023 13:49:04 GMT-0600 (Mountain Daylight Time)","569930","Match,No Match","","null","","","","","","<div class='trialBorder'><div class='vertical-center'><img src='img/fixation2_sml.jpg'</img></div></div>","null","FIX","","","","","","","","","","",""
"html-keyboard-response","71","205968","0.0-7.0-2.7","5adfcb03f6b58c0001fa9083","bdp_wmem","Mon Mar 13 2023 13:49:04 GMT-0600 (Mountain Daylight Time)","569930","Match,No Match","","null","","","","","","<div class='trialBorder'><div class='vertical-center'><img style='vertical-align:center; align:center' src='img/fixation2_sml.jpg'></div><div class='arrayDiv3'><div class='tl'><img class='introPic' src='trustrating_stim/white_mw070.bmp'><br><font color='green'><strong>Share</strong></font></div><div class='tc'><img class='introPic' src='trustrating_stim/white_mw085.bmp'><br><font color='red'><strong>Keep</strong></font></div><div class='tr'><img class='introPic' src='trustrating_stim/white_mw013.bmp'><br><font color='green'><strong>Share</strong></font></div></div></div>","null","ARRAY","3","trustrating_stim/white_mw070.bmp,trustrating_stim/white_mw085.bmp,trustrating_stim/white_mw013.bmp","1,0,1","noMatchOutcome","i","4500","","","","",""
"html-keyboard-response","72","209969","0.0-7.0-3.7","5adfcb03f6b58c0001fa9083","bdp_wmem","Mon Mar 13 2023 13:49:04 GMT-0600 (Mountain Daylight Time)","569930","Match,No Match","","null","","","","","","<div class='trialBorder'><div class='vertical-center'><img src='img/fixation2_sml.jpg'</img></div></div>","null","DELAY","","","","","","","","","","",""
"html-keyboard-response","73","210759","0.0-7.0-4.7","5adfcb03f6b58c0001fa9083","bdp_wmem","Mon Mar 13 2023 13:49:04 GMT-0600 (Mountain Daylight Time)","569930","Match,No Match","","788","","","","","","<div class='trialBorder'><div class='targDiv'><div class='tc'><img class='introPic' src='trustrating_stim/white_mw013.bmp'><br><font color='red'><strong>Keep</strong></font></div></div><div class='respDiv'><div class='respDivL'>Match<br>(e)</div><div class='respDivR'>No Match<br>(i)</div></div></div>","e","TARGET","3","trustrating_stim/white_mw070.bmp,trustrating_stim/white_mw085.bmp,trustrating_stim/white_mw013.bmp","1,0,1","noMatchOutcome","i","4500","trustrating_stim/white_mw013.bmp","red","Keep","REAL","0"
"html-keyboard-response","74","211262","0.0-7.0-5.7","5adfcb03f6b58c0001fa9083","bdp_wmem","Mon Mar 13 2023 13:49:04 GMT-0600 (Mountain Daylight Time)","569930","Match,No Match","","null","","","","","","<div class='trialBorder'><div class='vertical-center'><img src='img/error.jpg'></div><div class='respDiv'><div class='respDivL'><font style='color:orange'>Match<br>(e)</font></div><div class='respDivR'>No Match<br>(i)</div></div></div>","null","FEEDBACK","","","","","","","","","","",""
"html-keyboard-response","75","211765","0.0-7.0-1.8","5adfcb03f6b58c0001fa9083","bdp_wmem","Mon Mar 13 2023 13:49:04 GMT-0600 (Mountain Daylight Time)","569930","Match,No Match","","null","","","","","","<div class='trialBorder'><div class='vertical-center'><img src='img/fixation2_sml.jpg'</img></div></div>","null","FIX","","","","","","","","","","",""
"html-keyboard-response","76","213268","0.0-7.0-2.8","5adfcb03f6b58c0001fa9083","bdp_wmem","Mon Mar 13 2023 13:49:04 GMT-0600 (Mountain Daylight Time)","569930","Match,No Match","","null","","","","","","<div class='trialBorder'><div class='vertical-center'><img style='vertical-align:center; align:center' src='img/fixation2_sml.jpg'></div><div class='arrayDiv1'><div class='tc'><img class='introPic' src='trustrating_stim/white_mw010.bmp'><br><font color='red'><strong>Keep</strong></font></div></div></div>","null","ARRAY","1","trustrating_stim/white_mw010.bmp","0","Match","e","1500","","","","",""
"html-keyboard-response","77","217270","0.0-7.0-3.8","5adfcb03f6b58c0001fa9083","bdp_wmem","Mon Mar 13 2023 13:49:04 GMT-0600 (Mountain Daylight Time)","569930","Match,No Match","","null","","","","","","<div class='trialBorder'><div class='vertical-center'><img src='img/fixation2_sml.jpg'</img></div></div>","null","DELAY","","","","","","","","","","",""
"html-keyboard-response","78","218472","0.0-7.0-4.8","5adfcb03f6b58c0001fa9083","bdp_wmem","Mon Mar 13 2023 13:49:04 GMT-0600 (Mountain Daylight Time)","569930","Match,No Match","","1200","","","","","","<div class='trialBorder'><div class='targDiv'><div class='tc'><img class='introPic' src='trustrating_stim/white_mw010.bmp'><br><font color='red'><strong>Keep</strong></font></div></div><div class='respDiv'><div class='respDivL'>Match<br>(e)</div><div class='respDivR'>No Match<br>(i)</div></div></div>","e","TARGET","1","trustrating_stim/white_mw010.bmp","0","Match","e","1500","trustrating_stim/white_mw010.bmp","red","Keep","REAL","1"
"html-keyboard-response","79","218975","0.0-7.0-5.8","5adfcb03f6b58c0001fa9083","bdp_wmem","Mon Mar 13 2023 13:49:04 GMT-0600 (Mountain Daylight Time)","569930","Match,No Match","","null","","","","","","<div class='trialBorder'><div class='vertical-center'><img src='img/correct.jpg'></div><div class='respDiv'><div class='respDivL'><font style='color:orange'>Match<br>(e)</font></div><div class='respDivR'>No Match<br>(i)</div></div></div>","null","FEEDBACK","","","","","","","","","","",""
"html-keyboard-response","80","219477","0.0-7.0-1.9","5adfcb03f6b58c0001fa9083","bdp_wmem","Mon Mar 13 2023 13:49:04 GMT-0600 (Mountain Daylight Time)","569930","Match,No Match","","null","","","","","","<div class='trialBorder'><div class='vertical-center'><img src='img/fixation2_sml.jpg'</img></div></div>","null","FIX","","","","","","","","","","",""
"html-keyboard-response","81","223980","0.0-7.0-2.9","5adfcb03f6b58c0001fa9083","bdp_wmem","Mon Mar 13 2023 13:49:04 GMT-0600 (Mountain Daylight Time)","569930","Match,No Match","","null","","","","","","<div class='trialBorder'><div class='vertical-center'><img style='vertical-align:center; align:center' src='img/fixation2_sml.jpg'></div><div class='arrayDiv3'><div class='tl'><img class='introPic' src='trustrating_stim/white_mw070.bmp'><br><font color='red'><strong>Keep</strong></font></div><div class='tc'><img class='introPic' src='trustrating_stim/white_mw092.bmp'><br><font color='green'><strong>Share</strong></font></div><div class='tr'><img class='introPic' src='trustrating_stim/white_mw091.bmp'><br><font color='red'><strong>Keep</strong></font></div></div></div>","null","ARRAY","3","trustrating_stim/white_mw070.bmp,trustrating_stim/white_mw092.bmp,trustrating_stim/white_mw091.bmp","0,1,0","Match","e","4500","","","","",""
"html-keyboard-response","82","227982","0.0-7.0-3.9","5adfcb03f6b58c0001fa9083","bdp_wmem","Mon Mar 13 2023 13:49:04 GMT-0600 (Mountain Daylight Time)","569930","Match,No Match","","null","","","","","","<div class='trialBorder'><div class='vertical-center'><img src='img/fixation2_sml.jpg'</img></div></div>","null","DELAY","","","","","","","","","","",""
"html-keyboard-response","83","229025","0.0-7.0-4.9","5adfcb03f6b58c0001fa9083","bdp_wmem","Mon Mar 13 2023 13:49:04 GMT-0600 (Mountain Daylight Time)","569930","Match,No Match","","1042","","","","","","<div class='trialBorder'><div class='targDiv'><div class='tc'><img class='introPic' src='trustrating_stim/white_mw091.bmp'><br><font color='red'><strong>Keep</strong></font></div></div><div class='respDiv'><div class='respDivL'>Match<br>(e)</div><div class='respDivR'>No Match<br>(i)</div></div></div>","i","TARGET","3","trustrating_stim/white_mw070.bmp,trustrating_stim/white_mw092.bmp,trustrating_stim/white_mw091.bmp","0,1,0","Match","e","4500","trustrating_stim/white_mw091.bmp","red","Keep","REAL","0"
"html-keyboard-response","84","229527","0.0-7.0-5.9","5adfcb03f6b58c0001fa9083","bdp_wmem","Mon Mar 13 2023 13:49:04 GMT-0600 (Mountain Daylight Time)","569930","Match,No Match","","null","","","","","","<div class='trialBorder'><div class='vertical-center'><img src='img/error.jpg'></div><div class='respDiv'><div class='respDivL'>Match<br>(e)</div><div class='respDivR'><font style='color:orange'>No Match<br>(i)</font></div></div></div>","null","FEEDBACK","","","","","","","","","","",""
"html-keyboard-response","85","230029","0.0-7.0-1.10","5adfcb03f6b58c0001fa9083","bdp_wmem","Mon Mar 13 2023 13:49:04 GMT-0600 (Mountain Daylight Time)","569930","Match,No Match","","null","","","","","","<div class='trialBorder'><div class='vertical-center'><img src='img/fixation2_sml.jpg'</img></div></div>","null","FIX","","","","","","","","","","",""
"html-keyboard-response","86","233031","0.0-7.0-2.10","5adfcb03f6b58c0001fa9083","bdp_wmem","Mon Mar 13 2023 13:49:04 GMT-0600 (Mountain Daylight Time)","569930","Match,No Match","","null","","","","","","<div class='trialBorder'><div class='vertical-center'><img style='vertical-align:center; align:center' src='img/fixation2_sml.jpg'></div><div class='arrayDiv2'><div class='tl'><img class='introPic' src='trustrating_stim/white_mw092.bmp'><br><font color='green'><strong>Share</strong></font></div><div class='tr'><img class='introPic' src='trustrating_stim/white_mw078.bmp'><br><font color='red'><strong>Keep</strong></font></div></div></div>","null","ARRAY","2","trustrating_stim/white_mw092.bmp,trustrating_stim/white_mw078.bmp","1,0","Match","e","3000","","","","",""
"html-keyboard-response","87","237033","0.0-7.0-3.10","5adfcb03f6b58c0001fa9083","bdp_wmem","Mon Mar 13 2023 13:49:04 GMT-0600 (Mountain Daylight Time)","569930","Match,No Match","","null","","","","","","<div class='trialBorder'><div class='vertical-center'><img src='img/fixation2_sml.jpg'</img></div></div>","null","DELAY","","","","","","","","","","",""
"html-keyboard-response","88","237698","0.0-7.0-4.10","5adfcb03f6b58c0001fa9083","bdp_wmem","Mon Mar 13 2023 13:49:04 GMT-0600 (Mountain Daylight Time)","569930","Match,No Match","","663","","","","","","<div class='trialBorder'><div class='targDiv'><div class='tc'><img class='introPic' src='trustrating_stim/white_mw092.bmp'><br><font color='green'><strong>Share</strong></font></div></div><div class='respDiv'><div class='respDivL'>Match<br>(e)</div><div class='respDivR'>No Match<br>(i)</div></div></div>","e","TARGET","2","trustrating_stim/white_mw092.bmp,trustrating_stim/white_mw078.bmp","1,0","Match","e","3000","trustrating_stim/white_mw092.bmp","green","Share","REAL","1"
"html-keyboard-response","89","238200","0.0-7.0-5.10","5adfcb03f6b58c0001fa9083","bdp_wmem","Mon Mar 13 2023 13:49:04 GMT-0600 (Mountain Daylight Time)","569930","Match,No Match","","null","","","","","","<div class='trialBorder'><div class='vertical-center'><img src='img/correct.jpg'></div><div class='respDiv'><div class='respDivL'><font style='color:orange'>Match<br>(e)</font></div><div class='respDivR'>No Match<br>(i)</div></div></div>","null","FEEDBACK","","","","","","","","","","",""
"html-keyboard-response","90","238701","0.0-7.0-1.11","5adfcb03f6b58c0001fa9083","bdp_wmem","Mon Mar 13 2023 13:49:04 GMT-0600 (Mountain Daylight Time)","569930","Match,No Match","","null","","","","","","<div class='trialBorder'><div class='vertical-center'><img src='img/fixation2_sml.jpg'</img></div></div>","null","FIX","","","","","","","","","","",""
"html-keyboard-response","91","243203","0.0-7.0-2.11","5adfcb03f6b58c0001fa9083","bdp_wmem","Mon Mar 13 2023 13:49:04 GMT-0600 (Mountain Daylight Time)","569930","Match,No Match","","null","","","","","","<div class='trialBorder'><div class='vertical-center'><img style='vertical-align:center; align:center' src='img/fixation2_sml.jpg'></div><div class='arrayDiv3'><div class='tl'><img class='introPic' src='trustrating_stim/white_mw070.bmp'><br><font color='green'><strong>Share</strong></font></div><div class='tc'><img class='introPic' src='trustrating_stim/white_mw085.bmp'><br><font color='red'><strong>Keep</strong></font></div><div class='tr'><img class='introPic' src='trustrating_stim/white_mw092.bmp'><br><font color='green'><strong>Share</strong></font></div></div></div>","null","ARRAY","3","trustrating_stim/white_mw070.bmp,trustrating_stim/white_mw085.bmp,trustrating_stim/white_mw092.bmp","1,0,1","Match","e","4500","","","","",""
"html-keyboard-response","92","247206","0.0-7.0-3.11","5adfcb03f6b58c0001fa9083","bdp_wmem","Mon Mar 13 2023 13:49:04 GMT-0600 (Mountain Daylight Time)","569930","Match,No Match","","null","","","","","","<div class='trialBorder'><div class='vertical-center'><img src='img/fixation2_sml.jpg'</img></div></div>","null","DELAY","","","","","","","","","","",""
"html-keyboard-response","93","248137","0.0-7.0-4.11","5adfcb03f6b58c0001fa9083","bdp_wmem","Mon Mar 13 2023 13:49:04 GMT-0600 (Mountain Daylight Time)","569930","Match,No Match","","930","","","","","","<div class='trialBorder'><div class='targDiv'><div class='tc'><img class='introPic' src='trustrating_stim/white_mw085.bmp'><br><font color='red'><strong>Keep</strong></font></div></div><div class='respDiv'><div class='respDivL'>Match<br>(e)</div><div class='respDivR'>No Match<br>(i)</div></div></div>","e","TARGET","3","trustrating_stim/white_mw070.bmp,trustrating_stim/white_mw085.bmp,trustrating_stim/white_mw092.bmp","1,0,1","Match","e","4500","trustrating_stim/white_mw085.bmp","red","Keep","REAL","1"
"html-keyboard-response","94","248639","0.0-7.0-5.11","5adfcb03f6b58c0001fa9083","bdp_wmem","Mon Mar 13 2023 13:49:04 GMT-0600 (Mountain Daylight Time)","569930","Match,No Match","","null","","","","","","<div class='trialBorder'><div class='vertical-center'><img src='img/correct.jpg'></div><div class='respDiv'><div class='respDivL'><font style='color:orange'>Match<br>(e)</font></div><div class='respDivR'>No Match<br>(i)</div></div></div>","null","FEEDBACK","","","","","","","","","","",""
"html-keyboard-response","95","249140","0.0-7.0-1.12","5adfcb03f6b58c0001fa9083","bdp_wmem","Mon Mar 13 2023 13:49:04 GMT-0600 (Mountain Daylight Time)","569930","Match,No Match","","null","","","","","","<div class='trialBorder'><div class='vertical-center'><img src='img/fixation2_sml.jpg'</img></div></div>","null","FIX","","","","","","","","","","",""
"html-keyboard-response","96","252142","0.0-7.0-2.12","5adfcb03f6b58c0001fa9083","bdp_wmem","Mon Mar 13 2023 13:49:04 GMT-0600 (Mountain Daylight Time)","569930","Match,No Match","","null","","","","","","<div class='trialBorder'><div class='vertical-center'><img style='vertical-align:center; align:center' src='img/fixation2_sml.jpg'></div><div class='arrayDiv2'><div class='tl'><img class='introPic' src='trustrating_stim/white_mw010.bmp'><br><font color='red'><strong>Keep</strong></font></div><div class='tr'><img class='introPic' src='trustrating_stim/white_mw091.bmp'><br><font color='green'><strong>Share</strong></font></div></div></div>","null","ARRAY","2","trustrating_stim/white_mw010.bmp,trustrating_stim/white_mw091.bmp","0,1","Match","e","3000","","","","",""
"html-keyboard-response","97","256144","0.0-7.0-3.12","5adfcb03f6b58c0001fa9083","bdp_wmem","Mon Mar 13 2023 13:49:04 GMT-0600 (Mountain Daylight Time)","569930","Match,No Match","","null","","","","","","<div class='trialBorder'><div class='vertical-center'><img src='img/fixation2_sml.jpg'</img></div></div>","null","DELAY","","","","","","","","","","",""
"html-keyboard-response","98","257351","0.0-7.0-4.12","5adfcb03f6b58c0001fa9083","bdp_wmem","Mon Mar 13 2023 13:49:04 GMT-0600 (Mountain Daylight Time)","569930","Match,No Match","","1206","","","","","","<div class='trialBorder'><div class='targDiv'><div class='tc'><img class='introPic' src='trustrating_stim/white_mw091.bmp'><br><font color='green'><strong>Share</strong></font></div></div><div class='respDiv'><div class='respDivL'>Match<br>(e)</div><div class='respDivR'>No Match<br>(i)</div></div></div>","e","TARGET","2","trustrating_stim/white_mw010.bmp,trustrating_stim/white_mw091.bmp","0,1","Match","e","3000","trustrating_stim/white_mw091.bmp","green","Share","REAL","1"
"html-keyboard-response","99","257853","0.0-7.0-5.12","5adfcb03f6b58c0001fa9083","bdp_wmem","Mon Mar 13 2023 13:49:04 GMT-0600 (Mountain Daylight Time)","569930","Match,No Match","","null","","","","","","<div class='trialBorder'><div class='vertical-center'><img src='img/correct.jpg'></div><div class='respDiv'><div class='respDivL'><font style='color:orange'>Match<br>(e)</font></div><div class='respDivR'>No Match<br>(i)</div></div></div>","null","FEEDBACK","","","","","","","","","","",""
"html-keyboard-response","100","258354","0.0-7.0-1.13","5adfcb03f6b58c0001fa9083","bdp_wmem","Mon Mar 13 2023 13:49:04 GMT-0600 (Mountain Daylight Time)","569930","Match,No Match","","null","","","","","","<div class='trialBorder'><div class='vertical-center'><img src='img/fixation2_sml.jpg'</img></div></div>","null","FIX","","","","","","","","","","",""
"html-keyboard-response","101","259856","0.0-7.0-2.13","5adfcb03f6b58c0001fa9083","bdp_wmem","Mon Mar 13 2023 13:49:04 GMT-0600 (Mountain Daylight Time)","569930","Match,No Match","","null","","","","","","<div class='trialBorder'><div class='vertical-center'><img style='vertical-align:center; align:center' src='img/fixation2_sml.jpg'></div><div class='arrayDiv1'><div class='tc'><img class='introPic' src='trustrating_stim/white_mw091.bmp'><br><font color='red'><strong>Keep</strong></font></div></div></div>","null","ARRAY","1","trustrating_stim/white_mw091.bmp","0","Match","e","1500","","","","",""
"html-keyboard-response","102","263859","0.0-7.0-3.13","5adfcb03f6b58c0001fa9083","bdp_wmem","Mon Mar 13 2023 13:49:04 GMT-0600 (Mountain Daylight Time)","569930","Match,No Match","","null","","","","","","<div class='trialBorder'><div class='vertical-center'><img src='img/fixation2_sml.jpg'</img></div></div>","null","DELAY","","","","","","","","","","",""
"html-keyboard-response","103","264739","0.0-7.0-4.13","5adfcb03f6b58c0001fa9083","bdp_wmem","Mon Mar 13 2023 13:49:04 GMT-0600 (Mountain Daylight Time)","569930","Match,No Match","","878","","","","","","<div class='trialBorder'><div class='targDiv'><div class='tc'><img class='introPic' src='trustrating_stim/white_mw091.bmp'><br><font color='red'><strong>Keep</strong></font></div></div><div class='respDiv'><div class='respDivL'>Match<br>(e)</div><div class='respDivR'>No Match<br>(i)</div></div></div>","e","TARGET","1","trustrating_stim/white_mw091.bmp","0","Match","e","1500","trustrating_stim/white_mw091.bmp","red","Keep","REAL","1"
"html-keyboard-response","104","265240","0.0-7.0-5.13","5adfcb03f6b58c0001fa9083","bdp_wmem","Mon Mar 13 2023 13:49:04 GMT-0600 (Mountain Daylight Time)","569930","Match,No Match","","null","","","","","","<div class='trialBorder'><div class='vertical-center'><img src='img/correct.jpg'></div><div class='respDiv'><div class='respDivL'><font style='color:orange'>Match<br>(e)</font></div><div class='respDivR'>No Match<br>(i)</div></div></div>","null","FEEDBACK","","","","","","","","","","",""
"html-keyboard-response","105","265742","0.0-7.0-1.14","5adfcb03f6b58c0001fa9083","bdp_wmem","Mon Mar 13 2023 13:49:04 GMT-0600 (Mountain Daylight Time)","569930","Match,No Match","","null","","","","","","<div class='trialBorder'><div class='vertical-center'><img src='img/fixation2_sml.jpg'</img></div></div>","null","FIX","","","","","","","","","","",""
"html-keyboard-response","106","268744","0.0-7.0-2.14","5adfcb03f6b58c0001fa9083","bdp_wmem","Mon Mar 13 2023 13:49:04 GMT-0600 (Mountain Daylight Time)","569930","Match,No Match","","null","","","","","","<div class='trialBorder'><div class='vertical-center'><img style='vertical-align:center; align:center' src='img/fixation2_sml.jpg'></div><div class='arrayDiv2'><div class='tl'><img class='introPic' src='trustrating_stim/white_mw013.bmp'><br><font color='green'><strong>Share</strong></font></div><div class='tr'><img class='introPic' src='trustrating_stim/white_mw085.bmp'><br><font color='red'><strong>Keep</strong></font></div></div></div>","null","ARRAY","2","trustrating_stim/white_mw013.bmp,trustrating_stim/white_mw085.bmp","1,0","noMatchOutcome","i","3000","","","","",""
"html-keyboard-response","107","272745","0.0-7.0-3.14","5adfcb03f6b58c0001fa9083","bdp_wmem","Mon Mar 13 2023 13:49:04 GMT-0600 (Mountain Daylight Time)","569930","Match,No Match","","null","","","","","","<div class='trialBorder'><div class='vertical-center'><img src='img/fixation2_sml.jpg'</img></div></div>","null","DELAY","","","","","","","","","","",""
"html-keyboard-response","108","273732","0.0-7.0-4.14","5adfcb03f6b58c0001fa9083","bdp_wmem","Mon Mar 13 2023 13:49:04 GMT-0600 (Mountain Daylight Time)","569930","Match,No Match","","986","","","","","","<div class='trialBorder'><div class='targDiv'><div class='tc'><img class='introPic' src='trustrating_stim/white_mw013.bmp'><br><font color='red'><strong>Keep</strong></font></div></div><div class='respDiv'><div class='respDivL'>Match<br>(e)</div><div class='respDivR'>No Match<br>(i)</div></div></div>","e","TARGET","2","trustrating_stim/white_mw013.bmp,trustrating_stim/white_mw085.bmp","1,0","noMatchOutcome","i","3000","trustrating_stim/white_mw013.bmp","red","Keep","REAL","0"
"html-keyboard-response","109","274233","0.0-7.0-5.14","5adfcb03f6b58c0001fa9083","bdp_wmem","Mon Mar 13 2023 13:49:04 GMT-0600 (Mountain Daylight Time)","569930","Match,No Match","","null","","","","","","<div class='trialBorder'><div class='vertical-center'><img src='img/error.jpg'></div><div class='respDiv'><div class='respDivL'><font style='color:orange'>Match<br>(e)</font></div><div class='respDivR'>No Match<br>(i)</div></div></div>","null","FEEDBACK","","","","","","","","","","",""
"html-keyboard-response","110","274734","0.0-7.0-1.15","5adfcb03f6b58c0001fa9083","bdp_wmem","Mon Mar 13 2023 13:49:04 GMT-0600 (Mountain Daylight Time)","569930","Match,No Match","","null","","","","","","<div class='trialBorder'><div class='vertical-center'><img src='img/fixation2_sml.jpg'</img></div></div>","null","FIX","","","","","","","","","","",""
"html-keyboard-response","111","276236","0.0-7.0-2.15","5adfcb03f6b58c0001fa9083","bdp_wmem","Mon Mar 13 2023 13:49:04 GMT-0600 (Mountain Daylight Time)","569930","Match,No Match","","null","","","","","","<div class='trialBorder'><div class='vertical-center'><img style='vertical-align:center; align:center' src='img/fixation2_sml.jpg'></div><div class='arrayDiv1'><div class='tc'><img class='introPic' src='trustrating_stim/white_mw042.bmp'><br><font color='red'><strong>Keep</strong></font></div></div></div>","null","ARRAY","1","trustrating_stim/white_mw042.bmp","0","noMatchOutcome","i","1500","","","","",""
"html-keyboard-response","112","280238","0.0-7.0-3.15","5adfcb03f6b58c0001fa9083","bdp_wmem","Mon Mar 13 2023 13:49:04 GMT-0600 (Mountain Daylight Time)","569930","Match,No Match","","null","","","","","","<div class='trialBorder'><div class='vertical-center'><img src='img/fixation2_sml.jpg'</img></div></div>","null","DELAY","","","","","","","","","","",""
"html-keyboard-response","113","281055","0.0-7.0-4.15","5adfcb03f6b58c0001fa9083","bdp_wmem","Mon Mar 13 2023 13:49:04 GMT-0600 (Mountain Daylight Time)","569930","Match,No Match","","816","","","","","","<div class='trialBorder'><div class='targDiv'><div class='tc'><img class='introPic' src='trustrating_stim/white_mw042.bmp'><br><font color='green'><strong>Share</strong></font></div></div><div class='respDiv'><div class='respDivL'>Match<br>(e)</div><div class='respDivR'>No Match<br>(i)</div></div></div>","e","TARGET","1","trustrating_stim/white_mw042.bmp","0","noMatchOutcome","i","1500","trustrating_stim/white_mw042.bmp","green","Share","REAL","0"
"html-keyboard-response","114","281558","0.0-7.0-5.15","5adfcb03f6b58c0001fa9083","bdp_wmem","Mon Mar 13 2023 13:49:04 GMT-0600 (Mountain Daylight Time)","569930","Match,No Match","","null","","","","","","<div class='trialBorder'><div class='vertical-center'><img src='img/error.jpg'></div><div class='respDiv'><div class='respDivL'><font style='color:orange'>Match<br>(e)</font></div><div class='respDivR'>No Match<br>(i)</div></div></div>","null","FEEDBACK","","","","","","","","","","",""
"html-keyboard-response","115","282061","0.0-7.0-1.16","5adfcb03f6b58c0001fa9083","bdp_wmem","Mon Mar 13 2023 13:49:04 GMT-0600 (Mountain Daylight Time)","569930","Match,No Match","","null","","","","","","<div class='trialBorder'><div class='vertical-center'><img src='img/fixation2_sml.jpg'</img></div></div>","null","FIX","","","","","","","","","","",""
"html-keyboard-response","116","286563","0.0-7.0-2.16","5adfcb03f6b58c0001fa9083","bdp_wmem","Mon Mar 13 2023 13:49:04 GMT-0600 (Mountain Daylight Time)","569930","Match,No Match","","null","","","","","","<div class='trialBorder'><div class='vertical-center'><img style='vertical-align:center; align:center' src='img/fixation2_sml.jpg'></div><div class='arrayDiv3'><div class='tl'><img class='introPic' src='trustrating_stim/white_mw078.bmp'><br><font color='green'><strong>Share</strong></font></div><div class='tc'><img class='introPic' src='trustrating_stim/white_mw042.bmp'><br><font color='red'><strong>Keep</strong></font></div><div class='tr'><img class='introPic' src='trustrating_stim/white_mw085.bmp'><br><font color='green'><strong>Share</strong></font></div></div></div>","null","ARRAY","3","trustrating_stim/white_mw078.bmp,trustrating_stim/white_mw042.bmp,trustrating_stim/white_mw085.bmp","1,0,1","noMatchFace","i","4500","","","","",""
"html-keyboard-response","117","290565","0.0-7.0-3.16","5adfcb03f6b58c0001fa9083","bdp_wmem","Mon Mar 13 2023 13:49:04 GMT-0600 (Mountain Daylight Time)","569930","Match,No Match","","null","","","","","","<div class='trialBorder'><div class='vertical-center'><img src='img/fixation2_sml.jpg'</img></div></div>","null","DELAY","","","","","","","","","","",""
"html-keyboard-response","118","291234","0.0-7.0-4.16","5adfcb03f6b58c0001fa9083","bdp_wmem","Mon Mar 13 2023 13:49:04 GMT-0600 (Mountain Daylight Time)","569930","Match,No Match","","667","","","","","","<div class='trialBorder'><div class='targDiv'><div class='tc'><img class='introPic' src='trustrating_stim/white_mw010.bmp'><br><font color='red'><strong>Keep</strong></font></div></div><div class='respDiv'><div class='respDivL'>Match<br>(e)</div><div class='respDivR'>No Match<br>(i)</div></div></div>","i","TARGET","3","trustrating_stim/white_mw078.bmp,trustrating_stim/white_mw042.bmp,trustrating_stim/white_mw085.bmp","1,0,1","noMatchFace","i","4500","trustrating_stim/white_mw010.bmp","red","Keep","REAL","1"
"html-keyboard-response","119","291736","0.0-7.0-5.16","5adfcb03f6b58c0001fa9083","bdp_wmem","Mon Mar 13 2023 13:49:04 GMT-0600 (Mountain Daylight Time)","569930","Match,No Match","","null","","","","","","<div class='trialBorder'><div class='vertical-center'><img src='img/correct.jpg'></div><div class='respDiv'><div class='respDivL'>Match<br>(e)</div><div class='respDivR'><font style='color:orange'>No Match<br>(i)</font></div></div></div>","null","FEEDBACK","","","","","","","","","","",""
"html-keyboard-response","120","292238","0.0-7.0-1.17","5adfcb03f6b58c0001fa9083","bdp_wmem","Mon Mar 13 2023 13:49:04 GMT-0600 (Mountain Daylight Time)","569930","Match,No Match","","null","","","","","","<div class='trialBorder'><div class='vertical-center'><img src='img/fixation2_sml.jpg'</img></div></div>","null","FIX","","","","","","","","","","",""
"html-keyboard-response","121","293741","0.0-7.0-2.17","5adfcb03f6b58c0001fa9083","bdp_wmem","Mon Mar 13 2023 13:49:04 GMT-0600 (Mountain Daylight Time)","569930","Match,No Match","","null","","","","","","<div class='trialBorder'><div class='vertical-center'><img style='vertical-align:center; align:center' src='img/fixation2_sml.jpg'></div><div class='arrayDiv1'><div class='tc'><img class='introPic' src='trustrating_stim/white_mw010.bmp'><br><font color='green'><strong>Share</strong></font></div></div></div>","null","ARRAY","1","trustrating_stim/white_mw010.bmp","1","noMatchOutcome","i","1500","","","","",""
"html-keyboard-response","122","297742","0.0-7.0-3.17","5adfcb03f6b58c0001fa9083","bdp_wmem","Mon Mar 13 2023 13:49:04 GMT-0600 (Mountain Daylight Time)","569930","Match,No Match","","null","","","","","","<div class='trialBorder'><div class='vertical-center'><img src='img/fixation2_sml.jpg'</img></div></div>","null","DELAY","","","","","","","","","","",""
"html-keyboard-response","123","298518","0.0-7.0-4.17","5adfcb03f6b58c0001fa9083","bdp_wmem","Mon Mar 13 2023 13:49:04 GMT-0600 (Mountain Daylight Time)","569930","Match,No Match","","773","","","","","","<div class='trialBorder'><div class='targDiv'><div class='tc'><img class='introPic' src='trustrating_stim/white_mw010.bmp'><br><font color='red'><strong>Keep</strong></font></div></div><div class='respDiv'><div class='respDivL'>Match<br>(e)</div><div class='respDivR'>No Match<br>(i)</div></div></div>","i","TARGET","1","trustrating_stim/white_mw010.bmp","1","noMatchOutcome","i","1500","trustrating_stim/white_mw010.bmp","red","Keep","REAL","1"
"html-keyboard-response","124","299021","0.0-7.0-5.17","5adfcb03f6b58c0001fa9083","bdp_wmem","Mon Mar 13 2023 13:49:04 GMT-0600 (Mountain Daylight Time)","569930","Match,No Match","","null","","","","","","<div class='trialBorder'><div class='vertical-center'><img src='img/correct.jpg'></div><div class='respDiv'><div class='respDivL'>Match<br>(e)</div><div class='respDivR'><font style='color:orange'>No Match<br>(i)</font></div></div></div>","null","FEEDBACK","","","","","","","","","","",""
"html-keyboard-response","125","299522","0.0-7.0-1.18","5adfcb03f6b58c0001fa9083","bdp_wmem","Mon Mar 13 2023 13:49:04 GMT-0600 (Mountain Daylight Time)","569930","Match,No Match","","null","","","","","","<div class='trialBorder'><div class='vertical-center'><img src='img/fixation2_sml.jpg'</img></div></div>","null","FIX","","","","","","","","","","",""
"html-keyboard-response","126","302524","0.0-7.0-2.18","5adfcb03f6b58c0001fa9083","bdp_wmem","Mon Mar 13 2023 13:49:04 GMT-0600 (Mountain Daylight Time)","569930","Match,No Match","","null","","","","","","<div class='trialBorder'><div class='vertical-center'><img style='vertical-align:center; align:center' src='img/fixation2_sml.jpg'></div><div class='arrayDiv2'><div class='tl'><img class='introPic' src='trustrating_stim/white_mw013.bmp'><br><font color='red'><strong>Keep</strong></font></div><div class='tr'><img class='introPic' src='trustrating_stim/white_mw085.bmp'><br><font color='green'><strong>Share</strong></font></div></div></div>","null","ARRAY","2","trustrating_stim/white_mw013.bmp,trustrating_stim/white_mw085.bmp","0,1","noMatchFace","i","3000","","","","",""
"html-keyboard-response","127","306526","0.0-7.0-3.18","5adfcb03f6b58c0001fa9083","bdp_wmem","Mon Mar 13 2023 13:49:04 GMT-0600 (Mountain Daylight Time)","569930","Match,No Match","","null","","","","","","<div class='trialBorder'><div class='vertical-center'><img src='img/fixation2_sml.jpg'</img></div></div>","null","DELAY","","","","","","","","","","",""
"html-keyboard-response","128","307956","0.0-7.0-4.18","5adfcb03f6b58c0001fa9083","bdp_wmem","Mon Mar 13 2023 13:49:04 GMT-0600 (Mountain Daylight Time)","569930","Match,No Match","","1429","","","","","","<div class='trialBorder'><div class='targDiv'><div class='tc'><img class='introPic' src='trustrating_stim/white_mw038.bmp'><br><font color='green'><strong>Share</strong></font></div></div><div class='respDiv'><div class='respDivL'>Match<br>(e)</div><div class='respDivR'>No Match<br>(i)</div></div></div>","i","TARGET","2","trustrating_stim/white_mw013.bmp,trustrating_stim/white_mw085.bmp","0,1","noMatchFace","i","3000","trustrating_stim/white_mw038.bmp","green","Share","REAL","1"
"html-keyboard-response","129","308458","0.0-7.0-5.18","5adfcb03f6b58c0001fa9083","bdp_wmem","Mon Mar 13 2023 13:49:04 GMT-0600 (Mountain Daylight Time)","569930","Match,No Match","","null","","","","","","<div class='trialBorder'><div class='vertical-center'><img src='img/correct.jpg'></div><div class='respDiv'><div class='respDivL'>Match<br>(e)</div><div class='respDivR'><font style='color:orange'>No Match<br>(i)</font></div></div></div>","null","FEEDBACK","","","","","","","","","","",""
"html-keyboard-response","130","308959","0.0-7.0-1.19","5adfcb03f6b58c0001fa9083","bdp_wmem","Mon Mar 13 2023 13:49:04 GMT-0600 (Mountain Daylight Time)","569930","Match,No Match","","null","","","","","","<div class='trialBorder'><div class='vertical-center'><img src='img/fixation2_sml.jpg'</img></div></div>","null","FIX","","","","","","","","","","",""
"html-keyboard-response","131","311962","0.0-7.0-2.19","5adfcb03f6b58c0001fa9083","bdp_wmem","Mon Mar 13 2023 13:49:04 GMT-0600 (Mountain Daylight Time)","569930","Match,No Match","","null","","","","","","<div class='trialBorder'><div class='vertical-center'><img style='vertical-align:center; align:center' src='img/fixation2_sml.jpg'></div><div class='arrayDiv2'><div class='tl'><img class='introPic' src='trustrating_stim/white_mw040.bmp'><br><font color='green'><strong>Share</strong></font></div><div class='tr'><img class='introPic' src='trustrating_stim/white_mw070.bmp'><br><font color='red'><strong>Keep</strong></font></div></div></div>","null","ARRAY","2","trustrating_stim/white_mw040.bmp,trustrating_stim/white_mw070.bmp","1,0","noMatchOutcome","i","3000","","","","",""
"html-keyboard-response","132","315964","0.0-7.0-3.19","5adfcb03f6b58c0001fa9083","bdp_wmem","Mon Mar 13 2023 13:49:04 GMT-0600 (Mountain Daylight Time)","569930","Match,No Match","","null","","","","","","<div class='trialBorder'><div class='vertical-center'><img src='img/fixation2_sml.jpg'</img></div></div>","null","DELAY","","","","","","","","","","",""
"html-keyboard-response","133","317143","0.0-7.0-4.19","5adfcb03f6b58c0001fa9083","bdp_wmem","Mon Mar 13 2023 13:49:04 GMT-0600 (Mountain Daylight Time)","569930","Match,No Match","","1177","","","","","","<div class='trialBorder'><div class='targDiv'><div class='tc'><img class='introPic' src='trustrating_stim/white_mw040.bmp'><br><font color='red'><strong>Keep</strong></font></div></div><div class='respDiv'><div class='respDivL'>Match<br>(e)</div><div class='respDivR'>No Match<br>(i)</div></div></div>","i","TARGET","2","trustrating_stim/white_mw040.bmp,trustrating_stim/white_mw070.bmp","1,0","noMatchOutcome","i","3000","trustrating_stim/white_mw040.bmp","red","Keep","REAL","1"
"html-keyboard-response","134","317645","0.0-7.0-5.19","5adfcb03f6b58c0001fa9083","bdp_wmem","Mon Mar 13 2023 13:49:04 GMT-0600 (Mountain Daylight Time)","569930","Match,No Match","","null","","","","","","<div class='trialBorder'><div class='vertical-center'><img src='img/correct.jpg'></div><div class='respDiv'><div class='respDivL'>Match<br>(e)</div><div class='respDivR'><font style='color:orange'>No Match<br>(i)</font></div></div></div>","null","FEEDBACK","","","","","","","","","","",""
"html-keyboard-response","135","318146","0.0-7.0-1.20","5adfcb03f6b58c0001fa9083","bdp_wmem","Mon Mar 13 2023 13:49:04 GMT-0600 (Mountain Daylight Time)","569930","Match,No Match","","null","","","","","","<div class='trialBorder'><div class='vertical-center'><img src='img/fixation2_sml.jpg'</img></div></div>","null","FIX","","","","","","","","","","",""
"html-keyboard-response","136","319648","0.0-7.0-2.20","5adfcb03f6b58c0001fa9083","bdp_wmem","Mon Mar 13 2023 13:49:04 GMT-0600 (Mountain Daylight Time)","569930","Match,No Match","","null","","","","","","<div class='trialBorder'><div class='vertical-center'><img style='vertical-align:center; align:center' src='img/fixation2_sml.jpg'></div><div class='arrayDiv1'><div class='tc'><img class='introPic' src='trustrating_stim/white_mw012.bmp'><br><font color='green'><strong>Share</strong></font></div></div></div>","null","ARRAY","1","trustrating_stim/white_mw012.bmp","1","noMatchOutcome","i","1500","","","","",""
"html-keyboard-response","137","323650","0.0-7.0-3.20","5adfcb03f6b58c0001fa9083","bdp_wmem","Mon Mar 13 2023 13:49:04 GMT-0600 (Mountain Daylight Time)","569930","Match,No Match","","null","","","","","","<div class='trialBorder'><div class='vertical-center'><img src='img/fixation2_sml.jpg'</img></div></div>","null","DELAY","","","","","","","","","","",""
"html-keyboard-response","138","324573","0.0-7.0-4.20","5adfcb03f6b58c0001fa9083","bdp_wmem","Mon Mar 13 2023 13:49:04 GMT-0600 (Mountain Daylight Time)","569930","Match,No Match","","922","","","","","","<div class='trialBorder'><div class='targDiv'><div class='tc'><img class='introPic' src='trustrating_stim/white_mw012.bmp'><br><font color='red'><strong>Keep</strong></font></div></div><div class='respDiv'><div class='respDivL'>Match<br>(e)</div><div class='respDivR'>No Match<br>(i)</div></div></div>","i","TARGET","1","trustrating_stim/white_mw012.bmp","1","noMatchOutcome","i","1500","trustrating_stim/white_mw012.bmp","red","Keep","REAL","1"
"html-keyboard-response","139","325076","0.0-7.0-5.20","5adfcb03f6b58c0001fa9083","bdp_wmem","Mon Mar 13 2023 13:49:04 GMT-0600 (Mountain Daylight Time)","569930","Match,No Match","","null","","","","","","<div class='trialBorder'><div class='vertical-center'><img src='img/correct.jpg'></div><div class='respDiv'><div class='respDivL'>Match<br>(e)</div><div class='respDivR'><font style='color:orange'>No Match<br>(i)</font></div></div></div>","null","FEEDBACK","","","","","","","","","","",""
"html-keyboard-response","140","325577","0.0-7.0-1.21","5adfcb03f6b58c0001fa9083","bdp_wmem","Mon Mar 13 2023 13:49:04 GMT-0600 (Mountain Daylight Time)","569930","Match,No Match","","null","","","","","","<div class='trialBorder'><div class='vertical-center'><img src='img/fixation2_sml.jpg'</img></div></div>","null","FIX","","","","","","","","","","",""
"html-keyboard-response","141","328579","0.0-7.0-2.21","5adfcb03f6b58c0001fa9083","bdp_wmem","Mon Mar 13 2023 13:49:04 GMT-0600 (Mountain Daylight Time)","569930","Match,No Match","","null","","","","","","<div class='trialBorder'><div class='vertical-center'><img style='vertical-align:center; align:center' src='img/fixation2_sml.jpg'></div><div class='arrayDiv2'><div class='tl'><img class='introPic' src='trustrating_stim/white_mw010.bmp'><br><font color='green'><strong>Share</strong></font></div><div class='tr'><img class='introPic' src='trustrating_stim/white_mw092.bmp'><br><font color='red'><strong>Keep</strong></font></div></div></div>","null","ARRAY","2","trustrating_stim/white_mw010.bmp,trustrating_stim/white_mw092.bmp","1,0","noMatchFace","i","3000","","","","",""
"html-keyboard-response","142","332580","0.0-7.0-3.21","5adfcb03f6b58c0001fa9083","bdp_wmem","Mon Mar 13 2023 13:49:04 GMT-0600 (Mountain Daylight Time)","569930","Match,No Match","","null","","","","","","<div class='trialBorder'><div class='vertical-center'><img src='img/fixation2_sml.jpg'</img></div></div>","null","DELAY","","","","","","","","","","",""
"html-keyboard-response","143","333454","0.0-7.0-4.21","5adfcb03f6b58c0001fa9083","bdp_wmem","Mon Mar 13 2023 13:49:04 GMT-0600 (Mountain Daylight Time)","569930","Match,No Match","","871","","","","","","<div class='trialBorder'><div class='targDiv'><div class='tc'><img class='introPic' src='trustrating_stim/white_mw091.bmp'><br><font color='red'><strong>Keep</strong></font></div></div><div class='respDiv'><div class='respDivL'>Match<br>(e)</div><div class='respDivR'>No Match<br>(i)</div></div></div>","i","TARGET","2","trustrating_stim/white_mw010.bmp,trustrating_stim/white_mw092.bmp","1,0","noMatchFace","i","3000","trustrating_stim/white_mw091.bmp","red","Keep","REAL","1"
"html-keyboard-response","144","333955","0.0-7.0-5.21","5adfcb03f6b58c0001fa9083","bdp_wmem","Mon Mar 13 2023 13:49:04 GMT-0600 (Mountain Daylight Time)","569930","Match,No Match","","null","","","","","","<div class='trialBorder'><div class='vertical-center'><img src='img/correct.jpg'></div><div class='respDiv'><div class='respDivL'>Match<br>(e)</div><div class='respDivR'><font style='color:orange'>No Match<br>(i)</font></div></div></div>","null","FEEDBACK","","","","","","","","","","",""
"html-keyboard-response","145","334458","0.0-7.0-1.22","5adfcb03f6b58c0001fa9083","bdp_wmem","Mon Mar 13 2023 13:49:04 GMT-0600 (Mountain Daylight Time)","569930","Match,No Match","","null","","","","","","<div class='trialBorder'><div class='vertical-center'><img src='img/fixation2_sml.jpg'</img></div></div>","null","FIX","","","","","","","","","","",""
"html-keyboard-response","146","335959","0.0-7.0-2.22","5adfcb03f6b58c0001fa9083","bdp_wmem","Mon Mar 13 2023 13:49:04 GMT-0600 (Mountain Daylight Time)","569930","Match,No Match","","null","","","","","","<div class='trialBorder'><div class='vertical-center'><img style='vertical-align:center; align:center' src='img/fixation2_sml.jpg'></div><div class='arrayDiv1'><div class='tc'><img class='introPic' src='trustrating_stim/white_mw042.bmp'><br><font color='red'><strong>Keep</strong></font></div></div></div>","null","ARRAY","1","trustrating_stim/white_mw042.bmp","0","noMatchFace","i","1500","","","","",""
"html-keyboard-response","147","339961","0.0-7.0-3.22","5adfcb03f6b58c0001fa9083","bdp_wmem","Mon Mar 13 2023 13:49:04 GMT-0600 (Mountain Daylight Time)","569930","Match,No Match","","null","","","","","","<div class='trialBorder'><div class='vertical-center'><img src='img/fixation2_sml.jpg'</img></div></div>","null","DELAY","","","","","","","","","","",""
"html-keyboard-response","148","340834","0.0-7.0-4.22","5adfcb03f6b58c0001fa9083","bdp_wmem","Mon Mar 13 2023 13:49:04 GMT-0600 (Mountain Daylight Time)","569930","Match,No Match","","871","","","","","","<div class='trialBorder'><div class='targDiv'><div class='tc'><img class='introPic' src='trustrating_stim/white_mw070.bmp'><br><font color='red'><strong>Keep</strong></font></div></div><div class='respDiv'><div class='respDivL'>Match<br>(e)</div><div class='respDivR'>No Match<br>(i)</div></div></div>","i","TARGET","1","trustrating_stim/white_mw042.bmp","0","noMatchFace","i","1500","trustrating_stim/white_mw070.bmp","red","Keep","REAL","1"
"html-keyboard-response","149","341336","0.0-7.0-5.22","5adfcb03f6b58c0001fa9083","bdp_wmem","Mon Mar 13 2023 13:49:04 GMT-0600 (Mountain Daylight Time)","569930","Match,No Match","","null","","","","","","<div class='trialBorder'><div class='vertical-center'><img src='img/correct.jpg'></div><div class='respDiv'><div class='respDivL'>Match<br>(e)</div><div class='respDivR'><font style='color:orange'>No Match<br>(i)</font></div></div></div>","null","FEEDBACK","","","","","","","","","","",""
"html-keyboard-response","150","341838","0.0-7.0-1.23","5adfcb03f6b58c0001fa9083","bdp_wmem","Mon Mar 13 2023 13:49:04 GMT-0600 (Mountain Daylight Time)","569930","Match,No Match","","null","","","","","","<div class='trialBorder'><div class='vertical-center'><img src='img/fixation2_sml.jpg'</img></div></div>","null","FIX","","","","","","","","","","",""
"html-keyboard-response","151","343339","0.0-7.0-2.23","5adfcb03f6b58c0001fa9083","bdp_wmem","Mon Mar 13 2023 13:49:04 GMT-0600 (Mountain Daylight Time)","569930","Match,No Match","","null","","","","","","<div class='trialBorder'><div class='vertical-center'><img style='vertical-align:center; align:center' src='img/fixation2_sml.jpg'></div><div class='arrayDiv1'><div class='tc'><img class='introPic' src='trustrating_stim/white_mw012.bmp'><br><font color='red'><strong>Keep</strong></font></div></div></div>","null","ARRAY","1","trustrating_stim/white_mw012.bmp","0","Match","e","1500","","","","",""
"html-keyboard-response","152","347340","0.0-7.0-3.23","5adfcb03f6b58c0001fa9083","bdp_wmem","Mon Mar 13 2023 13:49:04 GMT-0600 (Mountain Daylight Time)","569930","Match,No Match","","null","","","","","","<div class='trialBorder'><div class='vertical-center'><img src='img/fixation2_sml.jpg'</img></div></div>","null","DELAY","","","","","","","","","","",""
"html-keyboard-response","153","348416","0.0-7.0-4.23","5adfcb03f6b58c0001fa9083","bdp_wmem","Mon Mar 13 2023 13:49:04 GMT-0600 (Mountain Daylight Time)","569930","Match,No Match","","1075","","","","","","<div class='trialBorder'><div class='targDiv'><div class='tc'><img class='introPic' src='trustrating_stim/white_mw012.bmp'><br><font color='red'><strong>Keep</strong></font></div></div><div class='respDiv'><div class='respDivL'>Match<br>(e)</div><div class='respDivR'>No Match<br>(i)</div></div></div>","i","TARGET","1","trustrating_stim/white_mw012.bmp","0","Match","e","1500","trustrating_stim/white_mw012.bmp","red","Keep","REAL","0"
"html-keyboard-response","154","348919","0.0-7.0-5.23","5adfcb03f6b58c0001fa9083","bdp_wmem","Mon Mar 13 2023 13:49:04 GMT-0600 (Mountain Daylight Time)","569930","Match,No Match","","null","","","","","","<div class='trialBorder'><div class='vertical-center'><img src='img/error.jpg'></div><div class='respDiv'><div class='respDivL'>Match<br>(e)</div><div class='respDivR'><font style='color:orange'>No Match<br>(i)</font></div></div></div>","null","FEEDBACK","","","","","","","","","","",""
"html-keyboard-response","155","349421","0.0-7.0-1.24","5adfcb03f6b58c0001fa9083","bdp_wmem","Mon Mar 13 2023 13:49:04 GMT-0600 (Mountain Daylight Time)","569930","Match,No Match","","null","","","","","","<div class='trialBorder'><div class='vertical-center'><img src='img/fixation2_sml.jpg'</img></div></div>","null","FIX","","","","","","","","","","",""
"html-keyboard-response","156","352424","0.0-7.0-2.24","5adfcb03f6b58c0001fa9083","bdp_wmem","Mon Mar 13 2023 13:49:04 GMT-0600 (Mountain Daylight Time)","569930","Match,No Match","","null","","","","","","<div class='trialBorder'><div class='vertical-center'><img style='vertical-align:center; align:center' src='img/fixation2_sml.jpg'></div><div class='arrayDiv2'><div class='tl'><img class='introPic' src='trustrating_stim/white_mw042.bmp'><br><font color='green'><strong>Share</strong></font></div><div class='tr'><img class='introPic' src='trustrating_stim/white_mw012.bmp'><br><font color='red'><strong>Keep</strong></font></div></div></div>","null","ARRAY","2","trustrating_stim/white_mw042.bmp,trustrating_stim/white_mw012.bmp","1,0","noMatchOutcome","i","3000","","","","",""
"html-keyboard-response","157","356426","0.0-7.0-3.24","5adfcb03f6b58c0001fa9083","bdp_wmem","Mon Mar 13 2023 13:49:04 GMT-0600 (Mountain Daylight Time)","569930","Match,No Match","","null","","","","","","<div class='trialBorder'><div class='vertical-center'><img src='img/fixation2_sml.jpg'</img></div></div>","null","DELAY","","","","","","","","","","",""
"html-keyboard-response","158","357933","0.0-7.0-4.24","5adfcb03f6b58c0001fa9083","bdp_wmem","Mon Mar 13 2023 13:49:04 GMT-0600 (Mountain Daylight Time)","569930","Match,No Match","","1505","","","","","","<div class='trialBorder'><div class='targDiv'><div class='tc'><img class='introPic' src='trustrating_stim/white_mw012.bmp'><br><font color='green'><strong>Share</strong></font></div></div><div class='respDiv'><div class='respDivL'>Match<br>(e)</div><div class='respDivR'>No Match<br>(i)</div></div></div>","e","TARGET","2","trustrating_stim/white_mw042.bmp,trustrating_stim/white_mw012.bmp","1,0","noMatchOutcome","i","3000","trustrating_stim/white_mw012.bmp","green","Share","REAL","0"
"html-keyboard-response","159","358435","0.0-7.0-5.24","5adfcb03f6b58c0001fa9083","bdp_wmem","Mon Mar 13 2023 13:49:04 GMT-0600 (Mountain Daylight Time)","569930","Match,No Match","","null","","","","","","<div class='trialBorder'><div class='vertical-center'><img src='img/error.jpg'></div><div class='respDiv'><div class='respDivL'><font style='color:orange'>Match<br>(e)</font></div><div class='respDivR'>No Match<br>(i)</div></div></div>","null","FEEDBACK","","","","","","","","","","",""
"html-keyboard-response","160","358937","0.0-7.0-1.25","5adfcb03f6b58c0001fa9083","bdp_wmem","Mon Mar 13 2023 13:49:04 GMT-0600 (Mountain Daylight Time)","569930","Match,No Match","","null","","","","","","<div class='trialBorder'><div class='vertical-center'><img src='img/fixation2_sml.jpg'</img></div></div>","null","FIX","","","","","","","","","","",""
"html-keyboard-response","161","361940","0.0-7.0-2.25","5adfcb03f6b58c0001fa9083","bdp_wmem","Mon Mar 13 2023 13:49:04 GMT-0600 (Mountain Daylight Time)","569930","Match,No Match","","null","","","","","","<div class='trialBorder'><div class='vertical-center'><img style='vertical-align:center; align:center' src='img/fixation2_sml.jpg'></div><div class='arrayDiv2'><div class='tl'><img class='introPic' src='trustrating_stim/white_mw012.bmp'><br><font color='green'><strong>Share</strong></font></div><div class='tr'><img class='introPic' src='trustrating_stim/white_mw003.bmp'><br><font color='red'><strong>Keep</strong></font></div></div></div>","null","ARRAY","2","trustrating_stim/white_mw012.bmp,trustrating_stim/white_mw003.bmp","1,0","Match","e","3000","","","","",""
"html-keyboard-response","162","365941","0.0-7.0-3.25","5adfcb03f6b58c0001fa9083","bdp_wmem","Mon Mar 13 2023 13:49:04 GMT-0600 (Mountain Daylight Time)","569930","Match,No Match","","null","","","","","","<div class='trialBorder'><div class='vertical-center'><img src='img/fixation2_sml.jpg'</img></div></div>","null","DELAY","","","","","","","","","","",""
"html-keyboard-response","163","366872","0.0-7.0-4.25","5adfcb03f6b58c0001fa9083","bdp_wmem","Mon Mar 13 2023 13:49:04 GMT-0600 (Mountain Daylight Time)","569930","Match,No Match","","929","","","","","","<div class='trialBorder'><div class='targDiv'><div class='tc'><img class='introPic' src='trustrating_stim/white_mw012.bmp'><br><font color='green'><strong>Share</strong></font></div></div><div class='respDiv'><div class='respDivL'>Match<br>(e)</div><div class='respDivR'>No Match<br>(i)</div></div></div>","e","TARGET","2","trustrating_stim/white_mw012.bmp,trustrating_stim/white_mw003.bmp","1,0","Match","e","3000","trustrating_stim/white_mw012.bmp","green","Share","REAL","1"
"html-keyboard-response","164","367375","0.0-7.0-5.25","5adfcb03f6b58c0001fa9083","bdp_wmem","Mon Mar 13 2023 13:49:04 GMT-0600 (Mountain Daylight Time)","569930","Match,No Match","","null","","","","","","<div class='trialBorder'><div class='vertical-center'><img src='img/correct.jpg'></div><div class='respDiv'><div class='respDivL'><font style='color:orange'>Match<br>(e)</font></div><div class='respDivR'>No Match<br>(i)</div></div></div>","null","FEEDBACK","","","","","","","","","","",""
"html-keyboard-response","165","367876","0.0-7.0-1.26","5adfcb03f6b58c0001fa9083","bdp_wmem","Mon Mar 13 2023 13:49:04 GMT-0600 (Mountain Daylight Time)","569930","Match,No Match","","null","","","","","","<div class='trialBorder'><div class='vertical-center'><img src='img/fixation2_sml.jpg'</img></div></div>","null","FIX","","","","","","","","","","",""
"html-keyboard-response","166","372379","0.0-7.0-2.26","5adfcb03f6b58c0001fa9083","bdp_wmem","Mon Mar 13 2023 13:49:04 GMT-0600 (Mountain Daylight Time)","569930","Match,No Match","","null","","","","","","<div class='trialBorder'><div class='vertical-center'><img style='vertical-align:center; align:center' src='img/fixation2_sml.jpg'></div><div class='arrayDiv3'><div class='tl'><img class='introPic' src='trustrating_stim/white_mw091.bmp'><br><font color='red'><strong>Keep</strong></font></div><div class='tc'><img class='introPic' src='trustrating_stim/white_mw038.bmp'><br><font color='green'><strong>Share</strong></font></div><div class='tr'><img class='introPic' src='trustrating_stim/white_mw010.bmp'><br><font color='red'><strong>Keep</strong></font></div></div></div>","null","ARRAY","3","trustrating_stim/white_mw091.bmp,trustrating_stim/white_mw038.bmp,trustrating_stim/white_mw010.bmp","0,1,0","noMatchOutcome","i","4500","","","","",""
"html-keyboard-response","167","376380","0.0-7.0-3.26","5adfcb03f6b58c0001fa9083","bdp_wmem","Mon Mar 13 2023 13:49:04 GMT-0600 (Mountain Daylight Time)","569930","Match,No Match","","null","","","","","","<div class='trialBorder'><div class='vertical-center'><img src='img/fixation2_sml.jpg'</img></div></div>","null","DELAY","","","","","","","","","","",""
"html-keyboard-response","168","377557","0.0-7.0-4.26","5adfcb03f6b58c0001fa9083","bdp_wmem","Mon Mar 13 2023 13:49:04 GMT-0600 (Mountain Daylight Time)","569930","Match,No Match","","1176","","","","","","<div class='trialBorder'><div class='targDiv'><div class='tc'><img class='introPic' src='trustrating_stim/white_mw038.bmp'><br><font color='red'><strong>Keep</strong></font></div></div><div class='respDiv'><div class='respDivL'>Match<br>(e)</div><div class='respDivR'>No Match<br>(i)</div></div></div>","i","TARGET","3","trustrating_stim/white_mw091.bmp,trustrating_stim/white_mw038.bmp,trustrating_stim/white_mw010.bmp","0,1,0","noMatchOutcome","i","4500","trustrating_stim/white_mw038.bmp","red","Keep","REAL","1"
"html-keyboard-response","169","378059","0.0-7.0-5.26","5adfcb03f6b58c0001fa9083","bdp_wmem","Mon Mar 13 2023 13:49:04 GMT-0600 (Mountain Daylight Time)","569930","Match,No Match","","null","","","","","","<div class='trialBorder'><div class='vertical-center'><img src='img/correct.jpg'></div><div class='respDiv'><div class='respDivL'>Match<br>(e)</div><div class='respDivR'><font style='color:orange'>No Match<br>(i)</font></div></div></div>","null","FEEDBACK","","","","","","","","","","",""
"html-keyboard-response","170","378561","0.0-7.0-1.27","5adfcb03f6b58c0001fa9083","bdp_wmem","Mon Mar 13 2023 13:49:04 GMT-0600 (Mountain Daylight Time)","569930","Match,No Match","","null","","","","","","<div class='trialBorder'><div class='vertical-center'><img src='img/fixation2_sml.jpg'</img></div></div>","null","FIX","","","","","","","","","","",""
"html-keyboard-response","171","380063","0.0-7.0-2.27","5adfcb03f6b58c0001fa9083","bdp_wmem","Mon Mar 13 2023 13:49:04 GMT-0600 (Mountain Daylight Time)","569930","Match,No Match","","null","","","","","","<div class='trialBorder'><div class='vertical-center'><img style='vertical-align:center; align:center' src='img/fixation2_sml.jpg'></div><div class='arrayDiv1'><div class='tc'><img class='introPic' src='trustrating_stim/white_mw003.bmp'><br><font color='green'><strong>Share</strong></font></div></div></div>","null","ARRAY","1","trustrating_stim/white_mw003.bmp","1","noMatchOutcome","i","1500","","","","",""
"html-keyboard-response","172","384064","0.0-7.0-3.27","5adfcb03f6b58c0001fa9083","bdp_wmem","Mon Mar 13 2023 13:49:04 GMT-0600 (Mountain Daylight Time)","569930","Match,No Match","","null","","","","","","<div class='trialBorder'><div class='vertical-center'><img src='img/fixation2_sml.jpg'</img></div></div>","null","DELAY","","","","","","","","","","",""
"html-keyboard-response","173","385100","0.0-7.0-4.27","5adfcb03f6b58c0001fa9083","bdp_wmem","Mon Mar 13 2023 13:49:04 GMT-0600 (Mountain Daylight Time)","569930","Match,No Match","","1034","","","","","","<div class='trialBorder'><div class='targDiv'><div class='tc'><img class='introPic' src='trustrating_stim/white_mw003.bmp'><br><font color='red'><strong>Keep</strong></font></div></div><div class='respDiv'><div class='respDivL'>Match<br>(e)</div><div class='respDivR'>No Match<br>(i)</div></div></div>","i","TARGET","1","trustrating_stim/white_mw003.bmp","1","noMatchOutcome","i","1500","trustrating_stim/white_mw003.bmp","red","Keep","REAL","1"
"html-keyboard-response","174","385603","0.0-7.0-5.27","5adfcb03f6b58c0001fa9083","bdp_wmem","Mon Mar 13 2023 13:49:04 GMT-0600 (Mountain Daylight Time)","569930","Match,No Match","","null","","","","","","<div class='trialBorder'><div class='vertical-center'><img src='img/correct.jpg'></div><div class='respDiv'><div class='respDivL'>Match<br>(e)</div><div class='respDivR'><font style='color:orange'>No Match<br>(i)</font></div></div></div>","null","FEEDBACK","","","","","","","","","","",""
"html-keyboard-response","175","386105","0.0-7.0-1.28","5adfcb03f6b58c0001fa9083","bdp_wmem","Mon Mar 13 2023 13:49:04 GMT-0600 (Mountain Daylight Time)","569930","Match,No Match","","null","","","","","","<div class='trialBorder'><div class='vertical-center'><img src='img/fixation2_sml.jpg'</img></div></div>","null","FIX","","","","","","","","","","",""
"html-keyboard-response","176","389108","0.0-7.0-2.28","5adfcb03f6b58c0001fa9083","bdp_wmem","Mon Mar 13 2023 13:49:04 GMT-0600 (Mountain Daylight Time)","569930","Match,No Match","","null","","","","","","<div class='trialBorder'><div class='vertical-center'><img style='vertical-align:center; align:center' src='img/fixation2_sml.jpg'></div><div class='arrayDiv2'><div class='tl'><img class='introPic' src='trustrating_stim/white_mw085.bmp'><br><font color='green'><strong>Share</strong></font></div><div class='tr'><img class='introPic' src='trustrating_stim/white_mw092.bmp'><br><font color='red'><strong>Keep</strong></font></div></div></div>","null","ARRAY","2","trustrating_stim/white_mw085.bmp,trustrating_stim/white_mw092.bmp","1,0","Match","e","3000","","","","",""
"html-keyboard-response","177","393110","0.0-7.0-3.28","5adfcb03f6b58c0001fa9083","bdp_wmem","Mon Mar 13 2023 13:49:04 GMT-0600 (Mountain Daylight Time)","569930","Match,No Match","","null","","","","","","<div class='trialBorder'><div class='vertical-center'><img src='img/fixation2_sml.jpg'</img></div></div>","null","DELAY","","","","","","","","","","",""
"html-keyboard-response","178","394033","0.0-7.0-4.28","5adfcb03f6b58c0001fa9083","bdp_wmem","Mon Mar 13 2023 13:49:04 GMT-0600 (Mountain Daylight Time)","569930","Match,No Match","","922","","","","","","<div class='trialBorder'><div class='targDiv'><div class='tc'><img class='introPic' src='trustrating_stim/white_mw092.bmp'><br><font color='red'><strong>Keep</strong></font></div></div><div class='respDiv'><div class='respDivL'>Match<br>(e)</div><div class='respDivR'>No Match<br>(i)</div></div></div>","i","TARGET","2","trustrating_stim/white_mw085.bmp,trustrating_stim/white_mw092.bmp","1,0","Match","e","3000","trustrating_stim/white_mw092.bmp","red","Keep","REAL","0"
"html-keyboard-response","179","394535","0.0-7.0-5.28","5adfcb03f6b58c0001fa9083","bdp_wmem","Mon Mar 13 2023 13:49:04 GMT-0600 (Mountain Daylight Time)","569930","Match,No Match","","null","","","","","","<div class='trialBorder'><div class='vertical-center'><img src='img/error.jpg'></div><div class='respDiv'><div class='respDivL'>Match<br>(e)</div><div class='respDivR'><font style='color:orange'>No Match<br>(i)</font></div></div></div>","null","FEEDBACK","","","","","","","","","","",""
"html-keyboard-response","180","395036","0.0-7.0-1.29","5adfcb03f6b58c0001fa9083","bdp_wmem","Mon Mar 13 2023 13:49:04 GMT-0600 (Mountain Daylight Time)","569930","Match,No Match","","null","","","","","","<div class='trialBorder'><div class='vertical-center'><img src='img/fixation2_sml.jpg'</img></div></div>","null","FIX","","","","","","","","","","",""
"html-keyboard-response","181","396539","0.0-7.0-2.29","5adfcb03f6b58c0001fa9083","bdp_wmem","Mon Mar 13 2023 13:49:04 GMT-0600 (Mountain Daylight Time)","569930","Match,No Match","","null","","","","","","<div class='trialBorder'><div class='vertical-center'><img style='vertical-align:center; align:center' src='img/fixation2_sml.jpg'></div><div class='arrayDiv1'><div class='tc'><img class='introPic' src='trustrating_stim/white_mw040.bmp'><br><font color='green'><strong>Share</strong></font></div></div></div>","null","ARRAY","1","trustrating_stim/white_mw040.bmp","1","noMatchFace","i","1500","","","","",""
"html-keyboard-response","182","400541","0.0-7.0-3.29","5adfcb03f6b58c0001fa9083","bdp_wmem","Mon Mar 13 2023 13:49:04 GMT-0600 (Mountain Daylight Time)","569930","Match,No Match","","null","","","","","","<div class='trialBorder'><div class='vertical-center'><img src='img/fixation2_sml.jpg'</img></div></div>","null","DELAY","","","","","","","","","","",""
"html-keyboard-response","183","401455","0.0-7.0-4.29","5adfcb03f6b58c0001fa9083","bdp_wmem","Mon Mar 13 2023 13:49:04 GMT-0600 (Mountain Daylight Time)","569930","Match,No Match","","913","","","","","","<div class='trialBorder'><div class='targDiv'><div class='tc'><img class='introPic' src='trustrating_stim/white_mw091.bmp'><br><font color='green'><strong>Share</strong></font></div></div><div class='respDiv'><div class='respDivL'>Match<br>(e)</div><div class='respDivR'>No Match<br>(i)</div></div></div>","i","TARGET","1","trustrating_stim/white_mw040.bmp","1","noMatchFace","i","1500","trustrating_stim/white_mw091.bmp","green","Share","REAL","1"
"html-keyboard-response","184","401957","0.0-7.0-5.29","5adfcb03f6b58c0001fa9083","bdp_wmem","Mon Mar 13 2023 13:49:04 GMT-0600 (Mountain Daylight Time)","569930","Match,No Match","","null","","","","","","<div class='trialBorder'><div class='vertical-center'><img src='img/correct.jpg'></div><div class='respDiv'><div class='respDivL'>Match<br>(e)</div><div class='respDivR'><font style='color:orange'>No Match<br>(i)</font></div></div></div>","null","FEEDBACK","","","","","","","","","","",""
"html-keyboard-response","185","402458","0.0-7.0-1.30","5adfcb03f6b58c0001fa9083","bdp_wmem","Mon Mar 13 2023 13:49:04 GMT-0600 (Mountain Daylight Time)","569930","Match,No Match","","null","","","","","","<div class='trialBorder'><div class='vertical-center'><img src='img/fixation2_sml.jpg'</img></div></div>","null","FIX","","","","","","","","","","",""
"html-keyboard-response","186","406960","0.0-7.0-2.30","5adfcb03f6b58c0001fa9083","bdp_wmem","Mon Mar 13 2023 13:49:04 GMT-0600 (Mountain Daylight Time)","569930","Match,No Match","","null","","","","","","<div class='trialBorder'><div class='vertical-center'><img style='vertical-align:center; align:center' src='img/fixation2_sml.jpg'></div><div class='arrayDiv3'><div class='tl'><img class='introPic' src='trustrating_stim/white_mw092.bmp'><br><font color='green'><strong>Share</strong></font></div><div class='tc'><img class='introPic' src='trustrating_stim/white_mw070.bmp'><br><font color='green'><strong>Share</strong></font></div><div class='tr'><img class='introPic' src='trustrating_stim/white_mw078.bmp'><br><font color='red'><strong>Keep</strong></font></div></div></div>","null","ARRAY","3","trustrating_stim/white_mw092.bmp,trustrating_stim/white_mw070.bmp,trustrating_stim/white_mw078.bmp","1,1,0","Match","e","4500","","","","",""
"html-keyboard-response","187","410962","0.0-7.0-3.30","5adfcb03f6b58c0001fa9083","bdp_wmem","Mon Mar 13 2023 13:49:04 GMT-0600 (Mountain Daylight Time)","569930","Match,No Match","","null","","","","","","<div class='trialBorder'><div class='vertical-center'><img src='img/fixation2_sml.jpg'</img></div></div>","null","DELAY","","","","","","","","","","",""
"html-keyboard-response","188","411763","0.0-7.0-4.30","5adfcb03f6b58c0001fa9083","bdp_wmem","Mon Mar 13 2023 13:49:04 GMT-0600 (Mountain Daylight Time)","569930","Match,No Match","","798","","","","","","<div class='trialBorder'><div class='targDiv'><div class='tc'><img class='introPic' src='trustrating_stim/white_mw092.bmp'><br><font color='green'><strong>Share</strong></font></div></div><div class='respDiv'><div class='respDivL'>Match<br>(e)</div><div class='respDivR'>No Match<br>(i)</div></div></div>","i","TARGET","3","trustrating_stim/white_mw092.bmp,trustrating_stim/white_mw070.bmp,trustrating_stim/white_mw078.bmp","1,1,0","Match","e","4500","trustrating_stim/white_mw092.bmp","green","Share","REAL","0"
