"trial_type","trial_index","time_elapsed","internal_node_id","subject_id","task","startTime","totalTime","labels","view_history","rt","event","trial","time","trialtype","success","stimulus","key_press","stimType","arraySize","arrayFaces","arrayOutcomes","matchType","corrResp","arrayDur","targFace","targCol","targOutcome","trialType","corr","numBlurs"
"pavlovia","0","3","0.0-0.0","631bc422eec20143118ad66b","bdp_wmem","Fri Mar 10 2023 15:20:06 GMT-0500 (Eastern Standard Time)","670494","Match,No Match","","","","","","","","","","","","","","","","","","","","","",""
"instructions","1","2221","0.0-1.0","631bc422eec20143118ad66b","bdp_wmem","Fri Mar 10 2023 15:20:06 GMT-0500 (Eastern Standard Time)","670494","Match,No Match","[{""page_index"":0,""viewing_time"":2218}]","2218","","","","","","","","","","","","","","","","","","","",""
"","","","","631bc422eec20143118ad66b","bdp_wmem","Fri Mar 10 2023 15:20:06 GMT-0500 (Eastern Standard Time)","670494","Match,No Match","","","fullscreenenter","2","7385","fullscreenenter","","","","","","","","","","","","","","","",""
"fullscreen","2","8306","0.0-2.0","631bc422eec20143118ad66b","bdp_wmem","Fri Mar 10 2023 15:20:06 GMT-0500 (Eastern Standard Time)","670494","Match,No Match","","","","","","","true","","","","","","","","","","","","","","",""
"instructions","3","139416","0.0-4.0","631bc422eec20143118ad66b","bdp_wmem","Fri Mar 10 2023 15:20:06 GMT-0500 (Eastern Standard Time)","670494","Match,No Match","[{""page_index"":0,""viewing_time"":20690},{""page_index"":1,""viewing_time"":68696},{""page_index"":2,""viewing_time"":27762},{""page_index"":3,""viewing_time"":7130},{""page_index"":4,""viewing_time"":6830}]","131108","","","","","","","","","","","","","","","","","","","",""
"html-keyboard-response","4","139919","0.0-5.0-1.0","631bc422eec20143118ad66b","bdp_wmem","Fri Mar 10 2023 15:20:06 GMT-0500 (Eastern Standard Time)","670494","Match,No Match","","null","","","","","","<div class='trialBorder'><div class='vertical-center'><img src='img/fixation2_sml.jpg'</img></div></div>","null","FIX","","","","","","","","","","","",""
"html-keyboard-response","5","142922","0.0-5.0-2.0","631bc422eec20143118ad66b","bdp_wmem","Fri Mar 10 2023 15:20:06 GMT-0500 (Eastern Standard Time)","670494","Match,No Match","","null","","","","","","<div class='trialBorder'><div class='vertical-center'><img style='vertical-align:center; align:center' src='img/fixation2_sml.jpg'></div><div class='arrayDiv2'><div class='tl'><img class='introPic' src='trustrating_stim/white_mw010.bmp'><br><font color='red'><strong>Keep</strong></font></div><div class='tr'><img class='introPic' src='trustrating_stim/white_mw042.bmp'><br><font color='green'><strong>Share</strong></font></div></div></div>","null","ARRAY","2","trustrating_stim/white_mw010.bmp,trustrating_stim/white_mw042.bmp","0,1","Match","e","3000","","","","","",""
"html-keyboard-response","6","146925","0.0-5.0-3.0","631bc422eec20143118ad66b","bdp_wmem","Fri Mar 10 2023 15:20:06 GMT-0500 (Eastern Standard Time)","670494","Match,No Match","","null","","","","","","<div class='trialBorder'><div class='vertical-center'><img src='img/fixation2_sml.jpg'</img></div></div>","null","DELAY","","","","","","","","","","","",""
"html-keyboard-response","7","149358","0.0-5.0-4.0","631bc422eec20143118ad66b","bdp_wmem","Fri Mar 10 2023 15:20:06 GMT-0500 (Eastern Standard Time)","670494","Match,No Match","","2431","","","","","","<div class='trialBorder'><div class='targDiv'><div class='tc'><img class='introPic' src='trustrating_stim/white_mw010.bmp'><br><font color='red'><strong>Keep</strong></font></div></div><div class='respDiv'><div class='respDivL'>Match<br>(e)</div><div class='respDivR'>No Match<br>(i)</div></div></div>","i","TARGET","2","trustrating_stim/white_mw010.bmp,trustrating_stim/white_mw042.bmp","0,1","Match","e","3000","trustrating_stim/white_mw010.bmp","red","Keep","PRACTICE","0",""
"html-keyboard-response","8","149861","0.0-5.0-5.0","631bc422eec20143118ad66b","bdp_wmem","Fri Mar 10 2023 15:20:06 GMT-0500 (Eastern Standard Time)","670494","Match,No Match","","null","","","","","","<div class='trialBorder'><div class='vertical-center'><img src='img/error.jpg'></div><div class='respDiv'><div class='respDivL'>Match<br>(e)</div><div class='respDivR'><font style='color:orange'>No Match<br>(i)</font></div></div></div>","null","FEEDBACK","","","","","","","","","","","",""
"html-keyboard-response","9","150364","0.0-5.0-1.1","631bc422eec20143118ad66b","bdp_wmem","Fri Mar 10 2023 15:20:06 GMT-0500 (Eastern Standard Time)","670494","Match,No Match","","null","","","","","","<div class='trialBorder'><div class='vertical-center'><img src='img/fixation2_sml.jpg'</img></div></div>","null","FIX","","","","","","","","","","","",""
"html-keyboard-response","10","154867","0.0-5.0-2.1","631bc422eec20143118ad66b","bdp_wmem","Fri Mar 10 2023 15:20:06 GMT-0500 (Eastern Standard Time)","670494","Match,No Match","","null","","","","","","<div class='trialBorder'><div class='vertical-center'><img style='vertical-align:center; align:center' src='img/fixation2_sml.jpg'></div><div class='arrayDiv3'><div class='tl'><img class='introPic' src='trustrating_stim/white_mw042.bmp'><br><font color='green'><strong>Share</strong></font></div><div class='tc'><img class='introPic' src='trustrating_stim/white_mw038.bmp'><br><font color='red'><strong>Keep</strong></font></div><div class='tr'><img class='introPic' src='trustrating_stim/white_mw078.bmp'><br><font color='red'><strong>Keep</strong></font></div></div></div>","null","ARRAY","3","trustrating_stim/white_mw042.bmp,trustrating_stim/white_mw038.bmp,trustrating_stim/white_mw078.bmp","1,0,0","Match","e","4500","","","","","",""
"html-keyboard-response","11","158868","0.0-5.0-3.1","631bc422eec20143118ad66b","bdp_wmem","Fri Mar 10 2023 15:20:06 GMT-0500 (Eastern Standard Time)","670494","Match,No Match","","null","","","","","","<div class='trialBorder'><div class='vertical-center'><img src='img/fixation2_sml.jpg'</img></div></div>","null","DELAY","","","","","","","","","","","",""
"html-keyboard-response","12","161340","0.0-5.0-4.1","631bc422eec20143118ad66b","bdp_wmem","Fri Mar 10 2023 15:20:06 GMT-0500 (Eastern Standard Time)","670494","Match,No Match","","2470","","","","","","<div class='trialBorder'><div class='targDiv'><div class='tc'><img class='introPic' src='trustrating_stim/white_mw042.bmp'><br><font color='green'><strong>Share</strong></font></div></div><div class='respDiv'><div class='respDivL'>Match<br>(e)</div><div class='respDivR'>No Match<br>(i)</div></div></div>","i","TARGET","3","trustrating_stim/white_mw042.bmp,trustrating_stim/white_mw038.bmp,trustrating_stim/white_mw078.bmp","1,0,0","Match","e","4500","trustrating_stim/white_mw042.bmp","green","Share","PRACTICE","0",""
"html-keyboard-response","13","161843","0.0-5.0-5.1","631bc422eec20143118ad66b","bdp_wmem","Fri Mar 10 2023 15:20:06 GMT-0500 (Eastern Standard Time)","670494","Match,No Match","","null","","","","","","<div class='trialBorder'><div class='vertical-center'><img src='img/error.jpg'></div><div class='respDiv'><div class='respDivL'>Match<br>(e)</div><div class='respDivR'><font style='color:orange'>No Match<br>(i)</font></div></div></div>","null","FEEDBACK","","","","","","","","","","","",""
"html-keyboard-response","14","162345","0.0-5.0-1.2","631bc422eec20143118ad66b","bdp_wmem","Fri Mar 10 2023 15:20:06 GMT-0500 (Eastern Standard Time)","670494","Match,No Match","","null","","","","","","<div class='trialBorder'><div class='vertical-center'><img src='img/fixation2_sml.jpg'</img></div></div>","null","FIX","","","","","","","","","","","",""
"html-keyboard-response","15","163846","0.0-5.0-2.2","631bc422eec20143118ad66b","bdp_wmem","Fri Mar 10 2023 15:20:06 GMT-0500 (Eastern Standard Time)","670494","Match,No Match","","null","","","","","","<div class='trialBorder'><div class='vertical-center'><img style='vertical-align:center; align:center' src='img/fixation2_sml.jpg'></div><div class='arrayDiv1'><div class='tc'><img class='introPic' src='trustrating_stim/white_mw013.bmp'><br><font color='red'><strong>Keep</strong></font></div></div></div>","null","ARRAY","1","trustrating_stim/white_mw013.bmp","0","Match","e","1500","","","","","",""
"html-keyboard-response","16","167849","0.0-5.0-3.2","631bc422eec20143118ad66b","bdp_wmem","Fri Mar 10 2023 15:20:06 GMT-0500 (Eastern Standard Time)","670494","Match,No Match","","null","","","","","","<div class='trialBorder'><div class='vertical-center'><img src='img/fixation2_sml.jpg'</img></div></div>","null","DELAY","","","","","","","","","","","",""
"html-keyboard-response","17","170507","0.0-5.0-4.2","631bc422eec20143118ad66b","bdp_wmem","Fri Mar 10 2023 15:20:06 GMT-0500 (Eastern Standard Time)","670494","Match,No Match","","2656","","","","","","<div class='trialBorder'><div class='targDiv'><div class='tc'><img class='introPic' src='trustrating_stim/white_mw013.bmp'><br><font color='red'><strong>Keep</strong></font></div></div><div class='respDiv'><div class='respDivL'>Match<br>(e)</div><div class='respDivR'>No Match<br>(i)</div></div></div>","i","TARGET","1","trustrating_stim/white_mw013.bmp","0","Match","e","1500","trustrating_stim/white_mw013.bmp","red","Keep","PRACTICE","0",""
"html-keyboard-response","18","171009","0.0-5.0-5.2","631bc422eec20143118ad66b","bdp_wmem","Fri Mar 10 2023 15:20:06 GMT-0500 (Eastern Standard Time)","670494","Match,No Match","","null","","","","","","<div class='trialBorder'><div class='vertical-center'><img src='img/error.jpg'></div><div class='respDiv'><div class='respDivL'>Match<br>(e)</div><div class='respDivR'><font style='color:orange'>No Match<br>(i)</font></div></div></div>","null","FEEDBACK","","","","","","","","","","","",""
"html-keyboard-response","19","171510","0.0-5.0-1.3","631bc422eec20143118ad66b","bdp_wmem","Fri Mar 10 2023 15:20:06 GMT-0500 (Eastern Standard Time)","670494","Match,No Match","","null","","","","","","<div class='trialBorder'><div class='vertical-center'><img src='img/fixation2_sml.jpg'</img></div></div>","null","FIX","","","","","","","","","","","",""
"html-keyboard-response","20","173012","0.0-5.0-2.3","631bc422eec20143118ad66b","bdp_wmem","Fri Mar 10 2023 15:20:06 GMT-0500 (Eastern Standard Time)","670494","Match,No Match","","null","","","","","","<div class='trialBorder'><div class='vertical-center'><img style='vertical-align:center; align:center' src='img/fixation2_sml.jpg'></div><div class='arrayDiv1'><div class='tc'><img class='introPic' src='trustrating_stim/white_mw091.bmp'><br><font color='green'><strong>Share</strong></font></div></div></div>","null","ARRAY","1","trustrating_stim/white_mw091.bmp","1","noMatchFace","i","1500","","","","","",""
"html-keyboard-response","21","177014","0.0-5.0-3.3","631bc422eec20143118ad66b","bdp_wmem","Fri Mar 10 2023 15:20:06 GMT-0500 (Eastern Standard Time)","670494","Match,No Match","","null","","","","","","<div class='trialBorder'><div class='vertical-center'><img src='img/fixation2_sml.jpg'</img></div></div>","null","DELAY","","","","","","","","","","","",""
"html-keyboard-response","22","179344","0.0-5.0-4.3","631bc422eec20143118ad66b","bdp_wmem","Fri Mar 10 2023 15:20:06 GMT-0500 (Eastern Standard Time)","670494","Match,No Match","","2328","","","","","","<div class='trialBorder'><div class='targDiv'><div class='tc'><img class='introPic' src='trustrating_stim/white_mw012.bmp'><br><font color='green'><strong>Share</strong></font></div></div><div class='respDiv'><div class='respDivL'>Match<br>(e)</div><div class='respDivR'>No Match<br>(i)</div></div></div>","i","TARGET","1","trustrating_stim/white_mw091.bmp","1","noMatchFace","i","1500","trustrating_stim/white_mw012.bmp","green","Share","PRACTICE","1",""
"html-keyboard-response","23","179846","0.0-5.0-5.3","631bc422eec20143118ad66b","bdp_wmem","Fri Mar 10 2023 15:20:06 GMT-0500 (Eastern Standard Time)","670494","Match,No Match","","null","","","","","","<div class='trialBorder'><div class='vertical-center'><img src='img/correct.jpg'></div><div class='respDiv'><div class='respDivL'>Match<br>(e)</div><div class='respDivR'><font style='color:orange'>No Match<br>(i)</font></div></div></div>","null","FEEDBACK","","","","","","","","","","","",""
"html-keyboard-response","24","180348","0.0-5.0-1.4","631bc422eec20143118ad66b","bdp_wmem","Fri Mar 10 2023 15:20:06 GMT-0500 (Eastern Standard Time)","670494","Match,No Match","","null","","","","","","<div class='trialBorder'><div class='vertical-center'><img src='img/fixation2_sml.jpg'</img></div></div>","null","FIX","","","","","","","","","","","",""
"html-keyboard-response","25","184851","0.0-5.0-2.4","631bc422eec20143118ad66b","bdp_wmem","Fri Mar 10 2023 15:20:06 GMT-0500 (Eastern Standard Time)","670494","Match,No Match","","null","","","","","","<div class='trialBorder'><div class='vertical-center'><img style='vertical-align:center; align:center' src='img/fixation2_sml.jpg'></div><div class='arrayDiv3'><div class='tl'><img class='introPic' src='trustrating_stim/white_mw070.bmp'><br><font color='green'><strong>Share</strong></font></div><div class='tc'><img class='introPic' src='trustrating_stim/white_mw012.bmp'><br><font color='red'><strong>Keep</strong></font></div><div class='tr'><img class='introPic' src='trustrating_stim/white_mw042.bmp'><br><font color='red'><strong>Keep</strong></font></div></div></div>","null","ARRAY","3","trustrating_stim/white_mw070.bmp,trustrating_stim/white_mw012.bmp,trustrating_stim/white_mw042.bmp","1,0,0","noMatchOutcome","i","4500","","","","","",""
"html-keyboard-response","26","188853","0.0-5.0-3.4","631bc422eec20143118ad66b","bdp_wmem","Fri Mar 10 2023 15:20:06 GMT-0500 (Eastern Standard Time)","670494","Match,No Match","","null","","","","","","<div class='trialBorder'><div class='vertical-center'><img src='img/fixation2_sml.jpg'</img></div></div>","null","DELAY","","","","","","","","","","","",""
"html-keyboard-response","27","189610","0.0-5.0-4.4","631bc422eec20143118ad66b","bdp_wmem","Fri Mar 10 2023 15:20:06 GMT-0500 (Eastern Standard Time)","670494","Match,No Match","","755","","","","","","<div class='trialBorder'><div class='targDiv'><div class='tc'><img class='introPic' src='trustrating_stim/white_mw012.bmp'><br><font color='green'><strong>Share</strong></font></div></div><div class='respDiv'><div class='respDivL'>Match<br>(e)</div><div class='respDivR'>No Match<br>(i)</div></div></div>","i","TARGET","3","trustrating_stim/white_mw070.bmp,trustrating_stim/white_mw012.bmp,trustrating_stim/white_mw042.bmp","1,0,0","noMatchOutcome","i","4500","trustrating_stim/white_mw012.bmp","green","Share","PRACTICE","1",""
"html-keyboard-response","28","190113","0.0-5.0-5.4","631bc422eec20143118ad66b","bdp_wmem","Fri Mar 10 2023 15:20:06 GMT-0500 (Eastern Standard Time)","670494","Match,No Match","","null","","","","","","<div class='trialBorder'><div class='vertical-center'><img src='img/correct.jpg'></div><div class='respDiv'><div class='respDivL'>Match<br>(e)</div><div class='respDivR'><font style='color:orange'>No Match<br>(i)</font></div></div></div>","null","FEEDBACK","","","","","","","","","","","",""
"html-keyboard-response","29","190614","0.0-5.0-1.5","631bc422eec20143118ad66b","bdp_wmem","Fri Mar 10 2023 15:20:06 GMT-0500 (Eastern Standard Time)","670494","Match,No Match","","null","","","","","","<div class='trialBorder'><div class='vertical-center'><img src='img/fixation2_sml.jpg'</img></div></div>","null","FIX","","","","","","","","","","","",""
"html-keyboard-response","30","193617","0.0-5.0-2.5","631bc422eec20143118ad66b","bdp_wmem","Fri Mar 10 2023 15:20:06 GMT-0500 (Eastern Standard Time)","670494","Match,No Match","","null","","","","","","<div class='trialBorder'><div class='vertical-center'><img style='vertical-align:center; align:center' src='img/fixation2_sml.jpg'></div><div class='arrayDiv2'><div class='tl'><img class='introPic' src='trustrating_stim/white_mw003.bmp'><br><font color='green'><strong>Share</strong></font></div><div class='tr'><img class='introPic' src='trustrating_stim/white_mw013.bmp'><br><font color='red'><strong>Keep</strong></font></div></div></div>","null","ARRAY","2","trustrating_stim/white_mw003.bmp,trustrating_stim/white_mw013.bmp","1,0","noMatchOutcome","i","3000","","","","","",""
"html-keyboard-response","31","197620","0.0-5.0-3.5","631bc422eec20143118ad66b","bdp_wmem","Fri Mar 10 2023 15:20:06 GMT-0500 (Eastern Standard Time)","670494","Match,No Match","","null","","","","","","<div class='trialBorder'><div class='vertical-center'><img src='img/fixation2_sml.jpg'</img></div></div>","null","DELAY","","","","","","","","","","","",""
"html-keyboard-response","32","199297","0.0-5.0-4.5","631bc422eec20143118ad66b","bdp_wmem","Fri Mar 10 2023 15:20:06 GMT-0500 (Eastern Standard Time)","670494","Match,No Match","","1675","","","","","","<div class='trialBorder'><div class='targDiv'><div class='tc'><img class='introPic' src='trustrating_stim/white_mw013.bmp'><br><font color='green'><strong>Share</strong></font></div></div><div class='respDiv'><div class='respDivL'>Match<br>(e)</div><div class='respDivR'>No Match<br>(i)</div></div></div>","i","TARGET","2","trustrating_stim/white_mw003.bmp,trustrating_stim/white_mw013.bmp","1,0","noMatchOutcome","i","3000","trustrating_stim/white_mw013.bmp","green","Share","PRACTICE","1",""
"html-keyboard-response","33","199799","0.0-5.0-5.5","631bc422eec20143118ad66b","bdp_wmem","Fri Mar 10 2023 15:20:06 GMT-0500 (Eastern Standard Time)","670494","Match,No Match","","null","","","","","","<div class='trialBorder'><div class='vertical-center'><img src='img/correct.jpg'></div><div class='respDiv'><div class='respDivL'>Match<br>(e)</div><div class='respDivR'><font style='color:orange'>No Match<br>(i)</font></div></div></div>","null","FEEDBACK","","","","","","","","","","","",""
"instructions","34","201348","0.0-6.0","631bc422eec20143118ad66b","bdp_wmem","Fri Mar 10 2023 15:20:06 GMT-0500 (Eastern Standard Time)","670494","Match,No Match","[{""page_index"":0,""viewing_time"":1547}]","1548","","","","","","","","","","","","","","","","","","","",""
"html-keyboard-response","35","201850","0.0-7.0-1.0","631bc422eec20143118ad66b","bdp_wmem","Fri Mar 10 2023 15:20:06 GMT-0500 (Eastern Standard Time)","670494","Match,No Match","","null","","","","","","<div class='trialBorder'><div class='vertical-center'><img src='img/fixation2_sml.jpg'</img></div></div>","null","FIX","","","","","","","","","","","",""
"html-keyboard-response","36","203352","0.0-7.0-2.0","631bc422eec20143118ad66b","bdp_wmem","Fri Mar 10 2023 15:20:06 GMT-0500 (Eastern Standard Time)","670494","Match,No Match","","null","","","","","","<div class='trialBorder'><div class='vertical-center'><img style='vertical-align:center; align:center' src='img/fixation2_sml.jpg'></div><div class='arrayDiv1'><div class='tc'><img class='introPic' src='trustrating_stim/white_mw012.bmp'><br><font color='green'><strong>Share</strong></font></div></div></div>","null","ARRAY","1","trustrating_stim/white_mw012.bmp","1","noMatchFace","i","1500","","","","","",""
"html-keyboard-response","37","207355","0.0-7.0-3.0","631bc422eec20143118ad66b","bdp_wmem","Fri Mar 10 2023 15:20:06 GMT-0500 (Eastern Standard Time)","670494","Match,No Match","","null","","","","","","<div class='trialBorder'><div class='vertical-center'><img src='img/fixation2_sml.jpg'</img></div></div>","null","DELAY","","","","","","","","","","","",""
"html-keyboard-response","38","208802","0.0-7.0-4.0","631bc422eec20143118ad66b","bdp_wmem","Fri Mar 10 2023 15:20:06 GMT-0500 (Eastern Standard Time)","670494","Match,No Match","","1447","","","","","","<div class='trialBorder'><div class='targDiv'><div class='tc'><img class='introPic' src='trustrating_stim/white_mw070.bmp'><br><font color='green'><strong>Share</strong></font></div></div><div class='respDiv'><div class='respDivL'>Match<br>(e)</div><div class='respDivR'>No Match<br>(i)</div></div></div>","i","TARGET","1","trustrating_stim/white_mw012.bmp","1","noMatchFace","i","1500","trustrating_stim/white_mw070.bmp","green","Share","REAL","1",""
"html-keyboard-response","39","209305","0.0-7.0-5.0","631bc422eec20143118ad66b","bdp_wmem","Fri Mar 10 2023 15:20:06 GMT-0500 (Eastern Standard Time)","670494","Match,No Match","","null","","","","","","<div class='trialBorder'><div class='vertical-center'><img src='img/correct.jpg'></div><div class='respDiv'><div class='respDivL'>Match<br>(e)</div><div class='respDivR'><font style='color:orange'>No Match<br>(i)</font></div></div></div>","null","FEEDBACK","","","","","","","","","","","",""
"html-keyboard-response","40","209807","0.0-7.0-1.1","631bc422eec20143118ad66b","bdp_wmem","Fri Mar 10 2023 15:20:06 GMT-0500 (Eastern Standard Time)","670494","Match,No Match","","null","","","","","","<div class='trialBorder'><div class='vertical-center'><img src='img/fixation2_sml.jpg'</img></div></div>","null","FIX","","","","","","","","","","","",""
"html-keyboard-response","41","211310","0.0-7.0-2.1","631bc422eec20143118ad66b","bdp_wmem","Fri Mar 10 2023 15:20:06 GMT-0500 (Eastern Standard Time)","670494","Match,No Match","","null","","","","","","<div class='trialBorder'><div class='vertical-center'><img style='vertical-align:center; align:center' src='img/fixation2_sml.jpg'></div><div class='arrayDiv1'><div class='tc'><img class='introPic' src='trustrating_stim/white_mw038.bmp'><br><font color='green'><strong>Share</strong></font></div></div></div>","null","ARRAY","1","trustrating_stim/white_mw038.bmp","1","noMatchOutcome","i","1500","","","","","",""
"html-keyboard-response","42","215312","0.0-7.0-3.1","631bc422eec20143118ad66b","bdp_wmem","Fri Mar 10 2023 15:20:06 GMT-0500 (Eastern Standard Time)","670494","Match,No Match","","null","","","","","","<div class='trialBorder'><div class='vertical-center'><img src='img/fixation2_sml.jpg'</img></div></div>","null","DELAY","","","","","","","","","","","",""
"html-keyboard-response","43","217155","0.0-7.0-4.1","631bc422eec20143118ad66b","bdp_wmem","Fri Mar 10 2023 15:20:06 GMT-0500 (Eastern Standard Time)","670494","Match,No Match","","1842","","","","","","<div class='trialBorder'><div class='targDiv'><div class='tc'><img class='introPic' src='trustrating_stim/white_mw038.bmp'><br><font color='red'><strong>Keep</strong></font></div></div><div class='respDiv'><div class='respDivL'>Match<br>(e)</div><div class='respDivR'>No Match<br>(i)</div></div></div>","i","TARGET","1","trustrating_stim/white_mw038.bmp","1","noMatchOutcome","i","1500","trustrating_stim/white_mw038.bmp","red","Keep","REAL","1",""
"html-keyboard-response","44","217658","0.0-7.0-5.1","631bc422eec20143118ad66b","bdp_wmem","Fri Mar 10 2023 15:20:06 GMT-0500 (Eastern Standard Time)","670494","Match,No Match","","null","","","","","","<div class='trialBorder'><div class='vertical-center'><img src='img/correct.jpg'></div><div class='respDiv'><div class='respDivL'>Match<br>(e)</div><div class='respDivR'><font style='color:orange'>No Match<br>(i)</font></div></div></div>","null","FEEDBACK","","","","","","","","","","","",""
"html-keyboard-response","45","218160","0.0-7.0-1.2","631bc422eec20143118ad66b","bdp_wmem","Fri Mar 10 2023 15:20:06 GMT-0500 (Eastern Standard Time)","670494","Match,No Match","","null","","","","","","<div class='trialBorder'><div class='vertical-center'><img src='img/fixation2_sml.jpg'</img></div></div>","null","FIX","","","","","","","","","","","",""
"html-keyboard-response","46","222662","0.0-7.0-2.2","631bc422eec20143118ad66b","bdp_wmem","Fri Mar 10 2023 15:20:06 GMT-0500 (Eastern Standard Time)","670494","Match,No Match","","null","","","","","","<div class='trialBorder'><div class='vertical-center'><img style='vertical-align:center; align:center' src='img/fixation2_sml.jpg'></div><div class='arrayDiv3'><div class='tl'><img class='introPic' src='trustrating_stim/white_mw070.bmp'><br><font color='red'><strong>Keep</strong></font></div><div class='tc'><img class='introPic' src='trustrating_stim/white_mw040.bmp'><br><font color='green'><strong>Share</strong></font></div><div class='tr'><img class='introPic' src='trustrating_stim/white_mw042.bmp'><br><font color='green'><strong>Share</strong></font></div></div></div>","null","ARRAY","3","trustrating_stim/white_mw070.bmp,trustrating_stim/white_mw040.bmp,trustrating_stim/white_mw042.bmp","0,1,1","noMatchFace","i","4500","","","","","",""
"html-keyboard-response","47","226664","0.0-7.0-3.2","631bc422eec20143118ad66b","bdp_wmem","Fri Mar 10 2023 15:20:06 GMT-0500 (Eastern Standard Time)","670494","Match,No Match","","null","","","","","","<div class='trialBorder'><div class='vertical-center'><img src='img/fixation2_sml.jpg'</img></div></div>","null","DELAY","","","","","","","","","","","",""
"html-keyboard-response","48","228634","0.0-7.0-4.2","631bc422eec20143118ad66b","bdp_wmem","Fri Mar 10 2023 15:20:06 GMT-0500 (Eastern Standard Time)","670494","Match,No Match","","1969","","","","","","<div class='trialBorder'><div class='targDiv'><div class='tc'><img class='introPic' src='trustrating_stim/white_mw078.bmp'><br><font color='red'><strong>Keep</strong></font></div></div><div class='respDiv'><div class='respDivL'>Match<br>(e)</div><div class='respDivR'>No Match<br>(i)</div></div></div>","e","TARGET","3","trustrating_stim/white_mw070.bmp,trustrating_stim/white_mw040.bmp,trustrating_stim/white_mw042.bmp","0,1,1","noMatchFace","i","4500","trustrating_stim/white_mw078.bmp","red","Keep","REAL","0",""
"html-keyboard-response","49","229136","0.0-7.0-5.2","631bc422eec20143118ad66b","bdp_wmem","Fri Mar 10 2023 15:20:06 GMT-0500 (Eastern Standard Time)","670494","Match,No Match","","null","","","","","","<div class='trialBorder'><div class='vertical-center'><img src='img/error.jpg'></div><div class='respDiv'><div class='respDivL'><font style='color:orange'>Match<br>(e)</font></div><div class='respDivR'>No Match<br>(i)</div></div></div>","null","FEEDBACK","","","","","","","","","","","",""
"html-keyboard-response","50","229638","0.0-7.0-1.3","631bc422eec20143118ad66b","bdp_wmem","Fri Mar 10 2023 15:20:06 GMT-0500 (Eastern Standard Time)","670494","Match,No Match","","null","","","","","","<div class='trialBorder'><div class='vertical-center'><img src='img/fixation2_sml.jpg'</img></div></div>","null","FIX","","","","","","","","","","","",""
"html-keyboard-response","51","232640","0.0-7.0-2.3","631bc422eec20143118ad66b","bdp_wmem","Fri Mar 10 2023 15:20:06 GMT-0500 (Eastern Standard Time)","670494","Match,No Match","","null","","","","","","<div class='trialBorder'><div class='vertical-center'><img style='vertical-align:center; align:center' src='img/fixation2_sml.jpg'></div><div class='arrayDiv2'><div class='tl'><img class='introPic' src='trustrating_stim/white_mw013.bmp'><br><font color='green'><strong>Share</strong></font></div><div class='tr'><img class='introPic' src='trustrating_stim/white_mw040.bmp'><br><font color='red'><strong>Keep</strong></font></div></div></div>","null","ARRAY","2","trustrating_stim/white_mw013.bmp,trustrating_stim/white_mw040.bmp","1,0","noMatchOutcome","i","3000","","","","","",""
"html-keyboard-response","52","236642","0.0-7.0-3.3","631bc422eec20143118ad66b","bdp_wmem","Fri Mar 10 2023 15:20:06 GMT-0500 (Eastern Standard Time)","670494","Match,No Match","","null","","","","","","<div class='trialBorder'><div class='vertical-center'><img src='img/fixation2_sml.jpg'</img></div></div>","null","DELAY","","","","","","","","","","","",""
"html-keyboard-response","53","239129","0.0-7.0-4.3","631bc422eec20143118ad66b","bdp_wmem","Fri Mar 10 2023 15:20:06 GMT-0500 (Eastern Standard Time)","670494","Match,No Match","","2486","","","","","","<div class='trialBorder'><div class='targDiv'><div class='tc'><img class='introPic' src='trustrating_stim/white_mw040.bmp'><br><font color='green'><strong>Share</strong></font></div></div><div class='respDiv'><div class='respDivL'>Match<br>(e)</div><div class='respDivR'>No Match<br>(i)</div></div></div>","i","TARGET","2","trustrating_stim/white_mw013.bmp,trustrating_stim/white_mw040.bmp","1,0","noMatchOutcome","i","3000","trustrating_stim/white_mw040.bmp","green","Share","REAL","1",""
"html-keyboard-response","54","239632","0.0-7.0-5.3","631bc422eec20143118ad66b","bdp_wmem","Fri Mar 10 2023 15:20:06 GMT-0500 (Eastern Standard Time)","670494","Match,No Match","","null","","","","","","<div class='trialBorder'><div class='vertical-center'><img src='img/correct.jpg'></div><div class='respDiv'><div class='respDivL'>Match<br>(e)</div><div class='respDivR'><font style='color:orange'>No Match<br>(i)</font></div></div></div>","null","FEEDBACK","","","","","","","","","","","",""
"html-keyboard-response","55","240134","0.0-7.0-1.4","631bc422eec20143118ad66b","bdp_wmem","Fri Mar 10 2023 15:20:06 GMT-0500 (Eastern Standard Time)","670494","Match,No Match","","null","","","","","","<div class='trialBorder'><div class='vertical-center'><img src='img/fixation2_sml.jpg'</img></div></div>","null","FIX","","","","","","","","","","","",""
"html-keyboard-response","56","244637","0.0-7.0-2.4","631bc422eec20143118ad66b","bdp_wmem","Fri Mar 10 2023 15:20:06 GMT-0500 (Eastern Standard Time)","670494","Match,No Match","","null","","","","","","<div class='trialBorder'><div class='vertical-center'><img style='vertical-align:center; align:center' src='img/fixation2_sml.jpg'></div><div class='arrayDiv3'><div class='tl'><img class='introPic' src='trustrating_stim/white_mw040.bmp'><br><font color='green'><strong>Share</strong></font></div><div class='tc'><img class='introPic' src='trustrating_stim/white_mw070.bmp'><br><font color='red'><strong>Keep</strong></font></div><div class='tr'><img class='introPic' src='trustrating_stim/white_mw012.bmp'><br><font color='green'><strong>Share</strong></font></div></div></div>","null","ARRAY","3","trustrating_stim/white_mw040.bmp,trustrating_stim/white_mw070.bmp,trustrating_stim/white_mw012.bmp","1,0,1","Match","e","4500","","","","","",""
"html-keyboard-response","57","248639","0.0-7.0-3.4","631bc422eec20143118ad66b","bdp_wmem","Fri Mar 10 2023 15:20:06 GMT-0500 (Eastern Standard Time)","670494","Match,No Match","","null","","","","","","<div class='trialBorder'><div class='vertical-center'><img src='img/fixation2_sml.jpg'</img></div></div>","null","DELAY","","","","","","","","","","","",""
"html-keyboard-response","58","250762","0.0-7.0-4.4","631bc422eec20143118ad66b","bdp_wmem","Fri Mar 10 2023 15:20:06 GMT-0500 (Eastern Standard Time)","670494","Match,No Match","","2122","","","","","","<div class='trialBorder'><div class='targDiv'><div class='tc'><img class='introPic' src='trustrating_stim/white_mw070.bmp'><br><font color='red'><strong>Keep</strong></font></div></div><div class='respDiv'><div class='respDivL'>Match<br>(e)</div><div class='respDivR'>No Match<br>(i)</div></div></div>","e","TARGET","3","trustrating_stim/white_mw040.bmp,trustrating_stim/white_mw070.bmp,trustrating_stim/white_mw012.bmp","1,0,1","Match","e","4500","trustrating_stim/white_mw070.bmp","red","Keep","REAL","1",""
"html-keyboard-response","59","251264","0.0-7.0-5.4","631bc422eec20143118ad66b","bdp_wmem","Fri Mar 10 2023 15:20:06 GMT-0500 (Eastern Standard Time)","670494","Match,No Match","","null","","","","","","<div class='trialBorder'><div class='vertical-center'><img src='img/correct.jpg'></div><div class='respDiv'><div class='respDivL'><font style='color:orange'>Match<br>(e)</font></div><div class='respDivR'>No Match<br>(i)</div></div></div>","null","FEEDBACK","","","","","","","","","","","",""
"html-keyboard-response","60","251767","0.0-7.0-1.5","631bc422eec20143118ad66b","bdp_wmem","Fri Mar 10 2023 15:20:06 GMT-0500 (Eastern Standard Time)","670494","Match,No Match","","null","","","","","","<div class='trialBorder'><div class='vertical-center'><img src='img/fixation2_sml.jpg'</img></div></div>","null","FIX","","","","","","","","","","","",""
"html-keyboard-response","61","253269","0.0-7.0-2.5","631bc422eec20143118ad66b","bdp_wmem","Fri Mar 10 2023 15:20:06 GMT-0500 (Eastern Standard Time)","670494","Match,No Match","","null","","","","","","<div class='trialBorder'><div class='vertical-center'><img style='vertical-align:center; align:center' src='img/fixation2_sml.jpg'></div><div class='arrayDiv1'><div class='tc'><img class='introPic' src='trustrating_stim/white_mw085.bmp'><br><font color='red'><strong>Keep</strong></font></div></div></div>","null","ARRAY","1","trustrating_stim/white_mw085.bmp","0","Match","e","1500","","","","","",""
"html-keyboard-response","62","257271","0.0-7.0-3.5","631bc422eec20143118ad66b","bdp_wmem","Fri Mar 10 2023 15:20:06 GMT-0500 (Eastern Standard Time)","670494","Match,No Match","","null","","","","","","<div class='trialBorder'><div class='vertical-center'><img src='img/fixation2_sml.jpg'</img></div></div>","null","DELAY","","","","","","","","","","","",""
"html-keyboard-response","63","259315","0.0-7.0-4.5","631bc422eec20143118ad66b","bdp_wmem","Fri Mar 10 2023 15:20:06 GMT-0500 (Eastern Standard Time)","670494","Match,No Match","","2042","","","","","","<div class='trialBorder'><div class='targDiv'><div class='tc'><img class='introPic' src='trustrating_stim/white_mw085.bmp'><br><font color='red'><strong>Keep</strong></font></div></div><div class='respDiv'><div class='respDivL'>Match<br>(e)</div><div class='respDivR'>No Match<br>(i)</div></div></div>","i","TARGET","1","trustrating_stim/white_mw085.bmp","0","Match","e","1500","trustrating_stim/white_mw085.bmp","red","Keep","REAL","0",""
"html-keyboard-response","64","259817","0.0-7.0-5.5","631bc422eec20143118ad66b","bdp_wmem","Fri Mar 10 2023 15:20:06 GMT-0500 (Eastern Standard Time)","670494","Match,No Match","","null","","","","","","<div class='trialBorder'><div class='vertical-center'><img src='img/error.jpg'></div><div class='respDiv'><div class='respDivL'>Match<br>(e)</div><div class='respDivR'><font style='color:orange'>No Match<br>(i)</font></div></div></div>","null","FEEDBACK","","","","","","","","","","","",""
"html-keyboard-response","65","260320","0.0-7.0-1.6","631bc422eec20143118ad66b","bdp_wmem","Fri Mar 10 2023 15:20:06 GMT-0500 (Eastern Standard Time)","670494","Match,No Match","","null","","","","","","<div class='trialBorder'><div class='vertical-center'><img src='img/fixation2_sml.jpg'</img></div></div>","null","FIX","","","","","","","","","","","",""
"html-keyboard-response","66","264822","0.0-7.0-2.6","631bc422eec20143118ad66b","bdp_wmem","Fri Mar 10 2023 15:20:06 GMT-0500 (Eastern Standard Time)","670494","Match,No Match","","null","","","","","","<div class='trialBorder'><div class='vertical-center'><img style='vertical-align:center; align:center' src='img/fixation2_sml.jpg'></div><div class='arrayDiv3'><div class='tl'><img class='introPic' src='trustrating_stim/white_mw010.bmp'><br><font color='green'><strong>Share</strong></font></div><div class='tc'><img class='introPic' src='trustrating_stim/white_mw040.bmp'><br><font color='green'><strong>Share</strong></font></div><div class='tr'><img class='introPic' src='trustrating_stim/white_mw042.bmp'><br><font color='red'><strong>Keep</strong></font></div></div></div>","null","ARRAY","3","trustrating_stim/white_mw010.bmp,trustrating_stim/white_mw040.bmp,trustrating_stim/white_mw042.bmp","1,1,0","Match","e","4500","","","","","",""
"html-keyboard-response","67","268824","0.0-7.0-3.6","631bc422eec20143118ad66b","bdp_wmem","Fri Mar 10 2023 15:20:06 GMT-0500 (Eastern Standard Time)","670494","Match,No Match","","null","","","","","","<div class='trialBorder'><div class='vertical-center'><img src='img/fixation2_sml.jpg'</img></div></div>","null","DELAY","","","","","","","","","","","",""
"html-keyboard-response","68","270587","0.0-7.0-4.6","631bc422eec20143118ad66b","bdp_wmem","Fri Mar 10 2023 15:20:06 GMT-0500 (Eastern Standard Time)","670494","Match,No Match","","1762","","","","","","<div class='trialBorder'><div class='targDiv'><div class='tc'><img class='introPic' src='trustrating_stim/white_mw042.bmp'><br><font color='red'><strong>Keep</strong></font></div></div><div class='respDiv'><div class='respDivL'>Match<br>(e)</div><div class='respDivR'>No Match<br>(i)</div></div></div>","e","TARGET","3","trustrating_stim/white_mw010.bmp,trustrating_stim/white_mw040.bmp,trustrating_stim/white_mw042.bmp","1,1,0","Match","e","4500","trustrating_stim/white_mw042.bmp","red","Keep","REAL","1",""
"html-keyboard-response","69","271089","0.0-7.0-5.6","631bc422eec20143118ad66b","bdp_wmem","Fri Mar 10 2023 15:20:06 GMT-0500 (Eastern Standard Time)","670494","Match,No Match","","null","","","","","","<div class='trialBorder'><div class='vertical-center'><img src='img/correct.jpg'></div><div class='respDiv'><div class='respDivL'><font style='color:orange'>Match<br>(e)</font></div><div class='respDivR'>No Match<br>(i)</div></div></div>","null","FEEDBACK","","","","","","","","","","","",""
"html-keyboard-response","70","271592","0.0-7.0-1.7","631bc422eec20143118ad66b","bdp_wmem","Fri Mar 10 2023 15:20:06 GMT-0500 (Eastern Standard Time)","670494","Match,No Match","","null","","","","","","<div class='trialBorder'><div class='vertical-center'><img src='img/fixation2_sml.jpg'</img></div></div>","null","FIX","","","","","","","","","","","",""
"html-keyboard-response","71","276094","0.0-7.0-2.7","631bc422eec20143118ad66b","bdp_wmem","Fri Mar 10 2023 15:20:06 GMT-0500 (Eastern Standard Time)","670494","Match,No Match","","null","","","","","","<div class='trialBorder'><div class='vertical-center'><img style='vertical-align:center; align:center' src='img/fixation2_sml.jpg'></div><div class='arrayDiv3'><div class='tl'><img class='introPic' src='trustrating_stim/white_mw003.bmp'><br><font color='green'><strong>Share</strong></font></div><div class='tc'><img class='introPic' src='trustrating_stim/white_mw012.bmp'><br><font color='red'><strong>Keep</strong></font></div><div class='tr'><img class='introPic' src='trustrating_stim/white_mw092.bmp'><br><font color='red'><strong>Keep</strong></font></div></div></div>","null","ARRAY","3","trustrating_stim/white_mw003.bmp,trustrating_stim/white_mw012.bmp,trustrating_stim/white_mw092.bmp","1,0,0","Match","e","4500","","","","","",""
"html-keyboard-response","72","280097","0.0-7.0-3.7","631bc422eec20143118ad66b","bdp_wmem","Fri Mar 10 2023 15:20:06 GMT-0500 (Eastern Standard Time)","670494","Match,No Match","","null","","","","","","<div class='trialBorder'><div class='vertical-center'><img src='img/fixation2_sml.jpg'</img></div></div>","null","DELAY","","","","","","","","","","","",""
"html-keyboard-response","73","282155","0.0-7.0-4.7","631bc422eec20143118ad66b","bdp_wmem","Fri Mar 10 2023 15:20:06 GMT-0500 (Eastern Standard Time)","670494","Match,No Match","","2057","","","","","","<div class='trialBorder'><div class='targDiv'><div class='tc'><img class='introPic' src='trustrating_stim/white_mw012.bmp'><br><font color='red'><strong>Keep</strong></font></div></div><div class='respDiv'><div class='respDivL'>Match<br>(e)</div><div class='respDivR'>No Match<br>(i)</div></div></div>","e","TARGET","3","trustrating_stim/white_mw003.bmp,trustrating_stim/white_mw012.bmp,trustrating_stim/white_mw092.bmp","1,0,0","Match","e","4500","trustrating_stim/white_mw012.bmp","red","Keep","REAL","1",""
"html-keyboard-response","74","282658","0.0-7.0-5.7","631bc422eec20143118ad66b","bdp_wmem","Fri Mar 10 2023 15:20:06 GMT-0500 (Eastern Standard Time)","670494","Match,No Match","","null","","","","","","<div class='trialBorder'><div class='vertical-center'><img src='img/correct.jpg'></div><div class='respDiv'><div class='respDivL'><font style='color:orange'>Match<br>(e)</font></div><div class='respDivR'>No Match<br>(i)</div></div></div>","null","FEEDBACK","","","","","","","","","","","",""
"html-keyboard-response","75","283159","0.0-7.0-1.8","631bc422eec20143118ad66b","bdp_wmem","Fri Mar 10 2023 15:20:06 GMT-0500 (Eastern Standard Time)","670494","Match,No Match","","null","","","","","","<div class='trialBorder'><div class='vertical-center'><img src='img/fixation2_sml.jpg'</img></div></div>","null","FIX","","","","","","","","","","","",""
"html-keyboard-response","76","286161","0.0-7.0-2.8","631bc422eec20143118ad66b","bdp_wmem","Fri Mar 10 2023 15:20:06 GMT-0500 (Eastern Standard Time)","670494","Match,No Match","","null","","","","","","<div class='trialBorder'><div class='vertical-center'><img style='vertical-align:center; align:center' src='img/fixation2_sml.jpg'></div><div class='arrayDiv2'><div class='tl'><img class='introPic' src='trustrating_stim/white_mw012.bmp'><br><font color='green'><strong>Share</strong></font></div><div class='tr'><img class='introPic' src='trustrating_stim/white_mw085.bmp'><br><font color='red'><strong>Keep</strong></font></div></div></div>","null","ARRAY","2","trustrating_stim/white_mw012.bmp,trustrating_stim/white_mw085.bmp","1,0","Match","e","3000","","","","","",""
"html-keyboard-response","77","290164","0.0-7.0-3.8","631bc422eec20143118ad66b","bdp_wmem","Fri Mar 10 2023 15:20:06 GMT-0500 (Eastern Standard Time)","670494","Match,No Match","","null","","","","","","<div class='trialBorder'><div class='vertical-center'><img src='img/fixation2_sml.jpg'</img></div></div>","null","DELAY","","","","","","","","","","","",""
"html-keyboard-response","78","291273","0.0-7.0-4.8","631bc422eec20143118ad66b","bdp_wmem","Fri Mar 10 2023 15:20:06 GMT-0500 (Eastern Standard Time)","670494","Match,No Match","","1109","","","","","","<div class='trialBorder'><div class='targDiv'><div class='tc'><img class='introPic' src='trustrating_stim/white_mw012.bmp'><br><font color='green'><strong>Share</strong></font></div></div><div class='respDiv'><div class='respDivL'>Match<br>(e)</div><div class='respDivR'>No Match<br>(i)</div></div></div>","e","TARGET","2","trustrating_stim/white_mw012.bmp,trustrating_stim/white_mw085.bmp","1,0","Match","e","3000","trustrating_stim/white_mw012.bmp","green","Share","REAL","1",""
"html-keyboard-response","79","291776","0.0-7.0-5.8","631bc422eec20143118ad66b","bdp_wmem","Fri Mar 10 2023 15:20:06 GMT-0500 (Eastern Standard Time)","670494","Match,No Match","","null","","","","","","<div class='trialBorder'><div class='vertical-center'><img src='img/correct.jpg'></div><div class='respDiv'><div class='respDivL'><font style='color:orange'>Match<br>(e)</font></div><div class='respDivR'>No Match<br>(i)</div></div></div>","null","FEEDBACK","","","","","","","","","","","",""
"html-keyboard-response","80","292278","0.0-7.0-1.9","631bc422eec20143118ad66b","bdp_wmem","Fri Mar 10 2023 15:20:06 GMT-0500 (Eastern Standard Time)","670494","Match,No Match","","null","","","","","","<div class='trialBorder'><div class='vertical-center'><img src='img/fixation2_sml.jpg'</img></div></div>","null","FIX","","","","","","","","","","","",""
"html-keyboard-response","81","295280","0.0-7.0-2.9","631bc422eec20143118ad66b","bdp_wmem","Fri Mar 10 2023 15:20:06 GMT-0500 (Eastern Standard Time)","670494","Match,No Match","","null","","","","","","<div class='trialBorder'><div class='vertical-center'><img style='vertical-align:center; align:center' src='img/fixation2_sml.jpg'></div><div class='arrayDiv2'><div class='tl'><img class='introPic' src='trustrating_stim/white_mw012.bmp'><br><font color='green'><strong>Share</strong></font></div><div class='tr'><img class='introPic' src='trustrating_stim/white_mw092.bmp'><br><font color='red'><strong>Keep</strong></font></div></div></div>","null","ARRAY","2","trustrating_stim/white_mw012.bmp,trustrating_stim/white_mw092.bmp","1,0","Match","e","3000","","","","","",""
"html-keyboard-response","82","299282","0.0-7.0-3.9","631bc422eec20143118ad66b","bdp_wmem","Fri Mar 10 2023 15:20:06 GMT-0500 (Eastern Standard Time)","670494","Match,No Match","","null","","","","","","<div class='trialBorder'><div class='vertical-center'><img src='img/fixation2_sml.jpg'</img></div></div>","null","DELAY","","","","","","","","","","","",""
"html-keyboard-response","83","300193","0.0-7.0-4.9","631bc422eec20143118ad66b","bdp_wmem","Fri Mar 10 2023 15:20:06 GMT-0500 (Eastern Standard Time)","670494","Match,No Match","","910","","","","","","<div class='trialBorder'><div class='targDiv'><div class='tc'><img class='introPic' src='trustrating_stim/white_mw012.bmp'><br><font color='green'><strong>Share</strong></font></div></div><div class='respDiv'><div class='respDivL'>Match<br>(e)</div><div class='respDivR'>No Match<br>(i)</div></div></div>","e","TARGET","2","trustrating_stim/white_mw012.bmp,trustrating_stim/white_mw092.bmp","1,0","Match","e","3000","trustrating_stim/white_mw012.bmp","green","Share","REAL","1",""
"html-keyboard-response","84","300695","0.0-7.0-5.9","631bc422eec20143118ad66b","bdp_wmem","Fri Mar 10 2023 15:20:06 GMT-0500 (Eastern Standard Time)","670494","Match,No Match","","null","","","","","","<div class='trialBorder'><div class='vertical-center'><img src='img/correct.jpg'></div><div class='respDiv'><div class='respDivL'><font style='color:orange'>Match<br>(e)</font></div><div class='respDivR'>No Match<br>(i)</div></div></div>","null","FEEDBACK","","","","","","","","","","","",""
"html-keyboard-response","85","301197","0.0-7.0-1.10","631bc422eec20143118ad66b","bdp_wmem","Fri Mar 10 2023 15:20:06 GMT-0500 (Eastern Standard Time)","670494","Match,No Match","","null","","","","","","<div class='trialBorder'><div class='vertical-center'><img src='img/fixation2_sml.jpg'</img></div></div>","null","FIX","","","","","","","","","","","",""
"html-keyboard-response","86","302700","0.0-7.0-2.10","631bc422eec20143118ad66b","bdp_wmem","Fri Mar 10 2023 15:20:06 GMT-0500 (Eastern Standard Time)","670494","Match,No Match","","null","","","","","","<div class='trialBorder'><div class='vertical-center'><img style='vertical-align:center; align:center' src='img/fixation2_sml.jpg'></div><div class='arrayDiv1'><div class='tc'><img class='introPic' src='trustrating_stim/white_mw070.bmp'><br><font color='green'><strong>Share</strong></font></div></div></div>","null","ARRAY","1","trustrating_stim/white_mw070.bmp","1","noMatchFace","i","1500","","","","","",""
"html-keyboard-response","87","306702","0.0-7.0-3.10","631bc422eec20143118ad66b","bdp_wmem","Fri Mar 10 2023 15:20:06 GMT-0500 (Eastern Standard Time)","670494","Match,No Match","","null","","","","","","<div class='trialBorder'><div class='vertical-center'><img src='img/fixation2_sml.jpg'</img></div></div>","null","DELAY","","","","","","","","","","","",""
"html-keyboard-response","88","308673","0.0-7.0-4.10","631bc422eec20143118ad66b","bdp_wmem","Fri Mar 10 2023 15:20:06 GMT-0500 (Eastern Standard Time)","670494","Match,No Match","","1969","","","","","","<div class='trialBorder'><div class='targDiv'><div class='tc'><img class='introPic' src='trustrating_stim/white_mw085.bmp'><br><font color='green'><strong>Share</strong></font></div></div><div class='respDiv'><div class='respDivL'>Match<br>(e)</div><div class='respDivR'>No Match<br>(i)</div></div></div>","e","TARGET","1","trustrating_stim/white_mw070.bmp","1","noMatchFace","i","1500","trustrating_stim/white_mw085.bmp","green","Share","REAL","0",""
"html-keyboard-response","89","309175","0.0-7.0-5.10","631bc422eec20143118ad66b","bdp_wmem","Fri Mar 10 2023 15:20:06 GMT-0500 (Eastern Standard Time)","670494","Match,No Match","","null","","","","","","<div class='trialBorder'><div class='vertical-center'><img src='img/error.jpg'></div><div class='respDiv'><div class='respDivL'><font style='color:orange'>Match<br>(e)</font></div><div class='respDivR'>No Match<br>(i)</div></div></div>","null","FEEDBACK","","","","","","","","","","","",""
"html-keyboard-response","90","309678","0.0-7.0-1.11","631bc422eec20143118ad66b","bdp_wmem","Fri Mar 10 2023 15:20:06 GMT-0500 (Eastern Standard Time)","670494","Match,No Match","","null","","","","","","<div class='trialBorder'><div class='vertical-center'><img src='img/fixation2_sml.jpg'</img></div></div>","null","FIX","","","","","","","","","","","",""
"html-keyboard-response","91","312679","0.0-7.0-2.11","631bc422eec20143118ad66b","bdp_wmem","Fri Mar 10 2023 15:20:06 GMT-0500 (Eastern Standard Time)","670494","Match,No Match","","null","","","","","","<div class='trialBorder'><div class='vertical-center'><img style='vertical-align:center; align:center' src='img/fixation2_sml.jpg'></div><div class='arrayDiv2'><div class='tl'><img class='introPic' src='trustrating_stim/white_mw070.bmp'><br><font color='green'><strong>Share</strong></font></div><div class='tr'><img class='introPic' src='trustrating_stim/white_mw010.bmp'><br><font color='red'><strong>Keep</strong></font></div></div></div>","null","ARRAY","2","trustrating_stim/white_mw070.bmp,trustrating_stim/white_mw010.bmp","1,0","noMatchOutcome","i","3000","","","","","",""
"html-keyboard-response","92","316681","0.0-7.0-3.11","631bc422eec20143118ad66b","bdp_wmem","Fri Mar 10 2023 15:20:06 GMT-0500 (Eastern Standard Time)","670494","Match,No Match","","null","","","","","","<div class='trialBorder'><div class='vertical-center'><img src='img/fixation2_sml.jpg'</img></div></div>","null","DELAY","","","","","","","","","","","",""
"html-keyboard-response","93","318321","0.0-7.0-4.11","631bc422eec20143118ad66b","bdp_wmem","Fri Mar 10 2023 15:20:06 GMT-0500 (Eastern Standard Time)","670494","Match,No Match","","1639","","","","","","<div class='trialBorder'><div class='targDiv'><div class='tc'><img class='introPic' src='trustrating_stim/white_mw010.bmp'><br><font color='green'><strong>Share</strong></font></div></div><div class='respDiv'><div class='respDivL'>Match<br>(e)</div><div class='respDivR'>No Match<br>(i)</div></div></div>","i","TARGET","2","trustrating_stim/white_mw070.bmp,trustrating_stim/white_mw010.bmp","1,0","noMatchOutcome","i","3000","trustrating_stim/white_mw010.bmp","green","Share","REAL","1",""
"html-keyboard-response","94","318823","0.0-7.0-5.11","631bc422eec20143118ad66b","bdp_wmem","Fri Mar 10 2023 15:20:06 GMT-0500 (Eastern Standard Time)","670494","Match,No Match","","null","","","","","","<div class='trialBorder'><div class='vertical-center'><img src='img/correct.jpg'></div><div class='respDiv'><div class='respDivL'>Match<br>(e)</div><div class='respDivR'><font style='color:orange'>No Match<br>(i)</font></div></div></div>","null","FEEDBACK","","","","","","","","","","","",""
"html-keyboard-response","95","319326","0.0-7.0-1.12","631bc422eec20143118ad66b","bdp_wmem","Fri Mar 10 2023 15:20:06 GMT-0500 (Eastern Standard Time)","670494","Match,No Match","","null","","","","","","<div class='trialBorder'><div class='vertical-center'><img src='img/fixation2_sml.jpg'</img></div></div>","null","FIX","","","","","","","","","","","",""
"html-keyboard-response","96","323829","0.0-7.0-2.12","631bc422eec20143118ad66b","bdp_wmem","Fri Mar 10 2023 15:20:06 GMT-0500 (Eastern Standard Time)","670494","Match,No Match","","null","","","","","","<div class='trialBorder'><div class='vertical-center'><img style='vertical-align:center; align:center' src='img/fixation2_sml.jpg'></div><div class='arrayDiv3'><div class='tl'><img class='introPic' src='trustrating_stim/white_mw085.bmp'><br><font color='green'><strong>Share</strong></font></div><div class='tc'><img class='introPic' src='trustrating_stim/white_mw010.bmp'><br><font color='red'><strong>Keep</strong></font></div><div class='tr'><img class='introPic' src='trustrating_stim/white_mw070.bmp'><br><font color='red'><strong>Keep</strong></font></div></div></div>","null","ARRAY","3","trustrating_stim/white_mw085.bmp,trustrating_stim/white_mw010.bmp,trustrating_stim/white_mw070.bmp","1,0,0","noMatchFace","i","4500","","","","","",""
"html-keyboard-response","97","327831","0.0-7.0-3.12","631bc422eec20143118ad66b","bdp_wmem","Fri Mar 10 2023 15:20:06 GMT-0500 (Eastern Standard Time)","670494","Match,No Match","","null","","","","","","<div class='trialBorder'><div class='vertical-center'><img src='img/fixation2_sml.jpg'</img></div></div>","null","DELAY","","","","","","","","","","","",""
"html-keyboard-response","98","330515","0.0-7.0-4.12","631bc422eec20143118ad66b","bdp_wmem","Fri Mar 10 2023 15:20:06 GMT-0500 (Eastern Standard Time)","670494","Match,No Match","","2683","","","","","","<div class='trialBorder'><div class='targDiv'><div class='tc'><img class='introPic' src='trustrating_stim/white_mw012.bmp'><br><font color='red'><strong>Keep</strong></font></div></div><div class='respDiv'><div class='respDivL'>Match<br>(e)</div><div class='respDivR'>No Match<br>(i)</div></div></div>","e","TARGET","3","trustrating_stim/white_mw085.bmp,trustrating_stim/white_mw010.bmp,trustrating_stim/white_mw070.bmp","1,0,0","noMatchFace","i","4500","trustrating_stim/white_mw012.bmp","red","Keep","REAL","0",""
"html-keyboard-response","99","331017","0.0-7.0-5.12","631bc422eec20143118ad66b","bdp_wmem","Fri Mar 10 2023 15:20:06 GMT-0500 (Eastern Standard Time)","670494","Match,No Match","","null","","","","","","<div class='trialBorder'><div class='vertical-center'><img src='img/error.jpg'></div><div class='respDiv'><div class='respDivL'><font style='color:orange'>Match<br>(e)</font></div><div class='respDivR'>No Match<br>(i)</div></div></div>","null","FEEDBACK","","","","","","","","","","","",""
"html-keyboard-response","100","331519","0.0-7.0-1.13","631bc422eec20143118ad66b","bdp_wmem","Fri Mar 10 2023 15:20:06 GMT-0500 (Eastern Standard Time)","670494","Match,No Match","","null","","","","","","<div class='trialBorder'><div class='vertical-center'><img src='img/fixation2_sml.jpg'</img></div></div>","null","FIX","","","","","","","","","","","",""
"html-keyboard-response","101","336022","0.0-7.0-2.13","631bc422eec20143118ad66b","bdp_wmem","Fri Mar 10 2023 15:20:06 GMT-0500 (Eastern Standard Time)","670494","Match,No Match","","null","","","","","","<div class='trialBorder'><div class='vertical-center'><img style='vertical-align:center; align:center' src='img/fixation2_sml.jpg'></div><div class='arrayDiv3'><div class='tl'><img class='introPic' src='trustrating_stim/white_mw078.bmp'><br><font color='red'><strong>Keep</strong></font></div><div class='tc'><img class='introPic' src='trustrating_stim/white_mw012.bmp'><br><font color='green'><strong>Share</strong></font></div><div class='tr'><img class='introPic' src='trustrating_stim/white_mw038.bmp'><br><font color='red'><strong>Keep</strong></font></div></div></div>","null","ARRAY","3","trustrating_stim/white_mw078.bmp,trustrating_stim/white_mw012.bmp,trustrating_stim/white_mw038.bmp","0,1,0","Match","e","4500","","","","","",""
"html-keyboard-response","102","340024","0.0-7.0-3.13","631bc422eec20143118ad66b","bdp_wmem","Fri Mar 10 2023 15:20:06 GMT-0500 (Eastern Standard Time)","670494","Match,No Match","","null","","","","","","<div class='trialBorder'><div class='vertical-center'><img src='img/fixation2_sml.jpg'</img></div></div>","null","DELAY","","","","","","","","","","","",""
"html-keyboard-response","103","341770","0.0-7.0-4.13","631bc422eec20143118ad66b","bdp_wmem","Fri Mar 10 2023 15:20:06 GMT-0500 (Eastern Standard Time)","670494","Match,No Match","","1745","","","","","","<div class='trialBorder'><div class='targDiv'><div class='tc'><img class='introPic' src='trustrating_stim/white_mw078.bmp'><br><font color='red'><strong>Keep</strong></font></div></div><div class='respDiv'><div class='respDivL'>Match<br>(e)</div><div class='respDivR'>No Match<br>(i)</div></div></div>","e","TARGET","3","trustrating_stim/white_mw078.bmp,trustrating_stim/white_mw012.bmp,trustrating_stim/white_mw038.bmp","0,1,0","Match","e","4500","trustrating_stim/white_mw078.bmp","red","Keep","REAL","1",""
"html-keyboard-response","104","342273","0.0-7.0-5.13","631bc422eec20143118ad66b","bdp_wmem","Fri Mar 10 2023 15:20:06 GMT-0500 (Eastern Standard Time)","670494","Match,No Match","","null","","","","","","<div class='trialBorder'><div class='vertical-center'><img src='img/correct.jpg'></div><div class='respDiv'><div class='respDivL'><font style='color:orange'>Match<br>(e)</font></div><div class='respDivR'>No Match<br>(i)</div></div></div>","null","FEEDBACK","","","","","","","","","","","",""
"html-keyboard-response","105","342775","0.0-7.0-1.14","631bc422eec20143118ad66b","bdp_wmem","Fri Mar 10 2023 15:20:06 GMT-0500 (Eastern Standard Time)","670494","Match,No Match","","null","","","","","","<div class='trialBorder'><div class='vertical-center'><img src='img/fixation2_sml.jpg'</img></div></div>","null","FIX","","","","","","","","","","","",""
"html-keyboard-response","106","344277","0.0-7.0-2.14","631bc422eec20143118ad66b","bdp_wmem","Fri Mar 10 2023 15:20:06 GMT-0500 (Eastern Standard Time)","670494","Match,No Match","","null","","","","","","<div class='trialBorder'><div class='vertical-center'><img style='vertical-align:center; align:center' src='img/fixation2_sml.jpg'></div><div class='arrayDiv1'><div class='tc'><img class='introPic' src='trustrating_stim/white_mw012.bmp'><br><font color='red'><strong>Keep</strong></font></div></div></div>","null","ARRAY","1","trustrating_stim/white_mw012.bmp","0","noMatchFace","i","1500","","","","","",""
"html-keyboard-response","107","348281","0.0-7.0-3.14","631bc422eec20143118ad66b","bdp_wmem","Fri Mar 10 2023 15:20:06 GMT-0500 (Eastern Standard Time)","670494","Match,No Match","","null","","","","","","<div class='trialBorder'><div class='vertical-center'><img src='img/fixation2_sml.jpg'</img></div></div>","null","DELAY","","","","","","","","","","","",""
"html-keyboard-response","108","350307","0.0-7.0-4.14","631bc422eec20143118ad66b","bdp_wmem","Fri Mar 10 2023 15:20:06 GMT-0500 (Eastern Standard Time)","670494","Match,No Match","","2025","","","","","","<div class='trialBorder'><div class='targDiv'><div class='tc'><img class='introPic' src='trustrating_stim/white_mw040.bmp'><br><font color='red'><strong>Keep</strong></font></div></div><div class='respDiv'><div class='respDivL'>Match<br>(e)</div><div class='respDivR'>No Match<br>(i)</div></div></div>","i","TARGET","1","trustrating_stim/white_mw012.bmp","0","noMatchFace","i","1500","trustrating_stim/white_mw040.bmp","red","Keep","REAL","1",""
"html-keyboard-response","109","350809","0.0-7.0-5.14","631bc422eec20143118ad66b","bdp_wmem","Fri Mar 10 2023 15:20:06 GMT-0500 (Eastern Standard Time)","670494","Match,No Match","","null","","","","","","<div class='trialBorder'><div class='vertical-center'><img src='img/correct.jpg'></div><div class='respDiv'><div class='respDivL'>Match<br>(e)</div><div class='respDivR'><font style='color:orange'>No Match<br>(i)</font></div></div></div>","null","FEEDBACK","","","","","","","","","","","",""
"html-keyboard-response","110","351311","0.0-7.0-1.15","631bc422eec20143118ad66b","bdp_wmem","Fri Mar 10 2023 15:20:06 GMT-0500 (Eastern Standard Time)","670494","Match,No Match","","null","","","","","","<div class='trialBorder'><div class='vertical-center'><img src='img/fixation2_sml.jpg'</img></div></div>","null","FIX","","","","","","","","","","","",""
"html-keyboard-response","111","355813","0.0-7.0-2.15","631bc422eec20143118ad66b","bdp_wmem","Fri Mar 10 2023 15:20:06 GMT-0500 (Eastern Standard Time)","670494","Match,No Match","","null","","","","","","<div class='trialBorder'><div class='vertical-center'><img style='vertical-align:center; align:center' src='img/fixation2_sml.jpg'></div><div class='arrayDiv3'><div class='tl'><img class='introPic' src='trustrating_stim/white_mw013.bmp'><br><font color='red'><strong>Keep</strong></font></div><div class='tc'><img class='introPic' src='trustrating_stim/white_mw010.bmp'><br><font color='green'><strong>Share</strong></font></div><div class='tr'><img class='introPic' src='trustrating_stim/white_mw038.bmp'><br><font color='red'><strong>Keep</strong></font></div></div></div>","null","ARRAY","3","trustrating_stim/white_mw013.bmp,trustrating_stim/white_mw010.bmp,trustrating_stim/white_mw038.bmp","0,1,0","Match","e","4500","","","","","",""
"html-keyboard-response","112","359816","0.0-7.0-3.15","631bc422eec20143118ad66b","bdp_wmem","Fri Mar 10 2023 15:20:06 GMT-0500 (Eastern Standard Time)","670494","Match,No Match","","null","","","","","","<div class='trialBorder'><div class='vertical-center'><img src='img/fixation2_sml.jpg'</img></div></div>","null","DELAY","","","","","","","","","","","",""
"html-keyboard-response","113","361161","0.0-7.0-4.15","631bc422eec20143118ad66b","bdp_wmem","Fri Mar 10 2023 15:20:06 GMT-0500 (Eastern Standard Time)","670494","Match,No Match","","1344","","","","","","<div class='trialBorder'><div class='targDiv'><div class='tc'><img class='introPic' src='trustrating_stim/white_mw013.bmp'><br><font color='red'><strong>Keep</strong></font></div></div><div class='respDiv'><div class='respDivL'>Match<br>(e)</div><div class='respDivR'>No Match<br>(i)</div></div></div>","e","TARGET","3","trustrating_stim/white_mw013.bmp,trustrating_stim/white_mw010.bmp,trustrating_stim/white_mw038.bmp","0,1,0","Match","e","4500","trustrating_stim/white_mw013.bmp","red","Keep","REAL","1",""
"html-keyboard-response","114","361663","0.0-7.0-5.15","631bc422eec20143118ad66b","bdp_wmem","Fri Mar 10 2023 15:20:06 GMT-0500 (Eastern Standard Time)","670494","Match,No Match","","null","","","","","","<div class='trialBorder'><div class='vertical-center'><img src='img/correct.jpg'></div><div class='respDiv'><div class='respDivL'><font style='color:orange'>Match<br>(e)</font></div><div class='respDivR'>No Match<br>(i)</div></div></div>","null","FEEDBACK","","","","","","","","","","","",""
"html-keyboard-response","115","362165","0.0-7.0-1.16","631bc422eec20143118ad66b","bdp_wmem","Fri Mar 10 2023 15:20:06 GMT-0500 (Eastern Standard Time)","670494","Match,No Match","","null","","","","","","<div class='trialBorder'><div class='vertical-center'><img src='img/fixation2_sml.jpg'</img></div></div>","null","FIX","","","","","","","","","","","",""
"html-keyboard-response","116","365168","0.0-7.0-2.16","631bc422eec20143118ad66b","bdp_wmem","Fri Mar 10 2023 15:20:06 GMT-0500 (Eastern Standard Time)","670494","Match,No Match","","null","","","","","","<div class='trialBorder'><div class='vertical-center'><img style='vertical-align:center; align:center' src='img/fixation2_sml.jpg'></div><div class='arrayDiv2'><div class='tl'><img class='introPic' src='trustrating_stim/white_mw012.bmp'><br><font color='red'><strong>Keep</strong></font></div><div class='tr'><img class='introPic' src='trustrating_stim/white_mw091.bmp'><br><font color='green'><strong>Share</strong></font></div></div></div>","null","ARRAY","2","trustrating_stim/white_mw012.bmp,trustrating_stim/white_mw091.bmp","0,1","noMatchFace","i","3000","","","","","",""
"html-keyboard-response","117","369170","0.0-7.0-3.16","631bc422eec20143118ad66b","bdp_wmem","Fri Mar 10 2023 15:20:06 GMT-0500 (Eastern Standard Time)","670494","Match,No Match","","null","","","","","","<div class='trialBorder'><div class='vertical-center'><img src='img/fixation2_sml.jpg'</img></div></div>","null","DELAY","","","","","","","","","","","",""
"html-keyboard-response","118","371193","0.0-7.0-4.16","631bc422eec20143118ad66b","bdp_wmem","Fri Mar 10 2023 15:20:06 GMT-0500 (Eastern Standard Time)","670494","Match,No Match","","2022","","","","","","<div class='trialBorder'><div class='targDiv'><div class='tc'><img class='introPic' src='trustrating_stim/white_mw042.bmp'><br><font color='green'><strong>Share</strong></font></div></div><div class='respDiv'><div class='respDivL'>Match<br>(e)</div><div class='respDivR'>No Match<br>(i)</div></div></div>","i","TARGET","2","trustrating_stim/white_mw012.bmp,trustrating_stim/white_mw091.bmp","0,1","noMatchFace","i","3000","trustrating_stim/white_mw042.bmp","green","Share","REAL","1",""
"html-keyboard-response","119","371696","0.0-7.0-5.16","631bc422eec20143118ad66b","bdp_wmem","Fri Mar 10 2023 15:20:06 GMT-0500 (Eastern Standard Time)","670494","Match,No Match","","null","","","","","","<div class='trialBorder'><div class='vertical-center'><img src='img/correct.jpg'></div><div class='respDiv'><div class='respDivL'>Match<br>(e)</div><div class='respDivR'><font style='color:orange'>No Match<br>(i)</font></div></div></div>","null","FEEDBACK","","","","","","","","","","","",""
"html-keyboard-response","120","372198","0.0-7.0-1.17","631bc422eec20143118ad66b","bdp_wmem","Fri Mar 10 2023 15:20:06 GMT-0500 (Eastern Standard Time)","670494","Match,No Match","","null","","","","","","<div class='trialBorder'><div class='vertical-center'><img src='img/fixation2_sml.jpg'</img></div></div>","null","FIX","","","","","","","","","","","",""
"html-keyboard-response","121","376701","0.0-7.0-2.17","631bc422eec20143118ad66b","bdp_wmem","Fri Mar 10 2023 15:20:06 GMT-0500 (Eastern Standard Time)","670494","Match,No Match","","null","","","","","","<div class='trialBorder'><div class='vertical-center'><img style='vertical-align:center; align:center' src='img/fixation2_sml.jpg'></div><div class='arrayDiv3'><div class='tl'><img class='introPic' src='trustrating_stim/white_mw042.bmp'><br><font color='red'><strong>Keep</strong></font></div><div class='tc'><img class='introPic' src='trustrating_stim/white_mw092.bmp'><br><font color='green'><strong>Share</strong></font></div><div class='tr'><img class='introPic' src='trustrating_stim/white_mw078.bmp'><br><font color='green'><strong>Share</strong></font></div></div></div>","null","ARRAY","3","trustrating_stim/white_mw042.bmp,trustrating_stim/white_mw092.bmp,trustrating_stim/white_mw078.bmp","0,1,1","noMatchOutcome","i","4500","","","","","",""
"html-keyboard-response","122","380703","0.0-7.0-3.17","631bc422eec20143118ad66b","bdp_wmem","Fri Mar 10 2023 15:20:06 GMT-0500 (Eastern Standard Time)","670494","Match,No Match","","null","","","","","","<div class='trialBorder'><div class='vertical-center'><img src='img/fixation2_sml.jpg'</img></div></div>","null","DELAY","","","","","","","","","","","",""
"html-keyboard-response","123","382570","0.0-7.0-4.17","631bc422eec20143118ad66b","bdp_wmem","Fri Mar 10 2023 15:20:06 GMT-0500 (Eastern Standard Time)","670494","Match,No Match","","1866","","","","","","<div class='trialBorder'><div class='targDiv'><div class='tc'><img class='introPic' src='trustrating_stim/white_mw092.bmp'><br><font color='red'><strong>Keep</strong></font></div></div><div class='respDiv'><div class='respDivL'>Match<br>(e)</div><div class='respDivR'>No Match<br>(i)</div></div></div>","e","TARGET","3","trustrating_stim/white_mw042.bmp,trustrating_stim/white_mw092.bmp,trustrating_stim/white_mw078.bmp","0,1,1","noMatchOutcome","i","4500","trustrating_stim/white_mw092.bmp","red","Keep","REAL","0",""
"html-keyboard-response","124","383073","0.0-7.0-5.17","631bc422eec20143118ad66b","bdp_wmem","Fri Mar 10 2023 15:20:06 GMT-0500 (Eastern Standard Time)","670494","Match,No Match","","null","","","","","","<div class='trialBorder'><div class='vertical-center'><img src='img/error.jpg'></div><div class='respDiv'><div class='respDivL'><font style='color:orange'>Match<br>(e)</font></div><div class='respDivR'>No Match<br>(i)</div></div></div>","null","FEEDBACK","","","","","","","","","","","",""
"html-keyboard-response","125","383575","0.0-7.0-1.18","631bc422eec20143118ad66b","bdp_wmem","Fri Mar 10 2023 15:20:06 GMT-0500 (Eastern Standard Time)","670494","Match,No Match","","null","","","","","","<div class='trialBorder'><div class='vertical-center'><img src='img/fixation2_sml.jpg'</img></div></div>","null","FIX","","","","","","","","","","","",""
"html-keyboard-response","126","385077","0.0-7.0-2.18","631bc422eec20143118ad66b","bdp_wmem","Fri Mar 10 2023 15:20:06 GMT-0500 (Eastern Standard Time)","670494","Match,No Match","","null","","","","","","<div class='trialBorder'><div class='vertical-center'><img style='vertical-align:center; align:center' src='img/fixation2_sml.jpg'></div><div class='arrayDiv1'><div class='tc'><img class='introPic' src='trustrating_stim/white_mw078.bmp'><br><font color='red'><strong>Keep</strong></font></div></div></div>","null","ARRAY","1","trustrating_stim/white_mw078.bmp","0","noMatchOutcome","i","1500","","","","","",""
"html-keyboard-response","127","389079","0.0-7.0-3.18","631bc422eec20143118ad66b","bdp_wmem","Fri Mar 10 2023 15:20:06 GMT-0500 (Eastern Standard Time)","670494","Match,No Match","","null","","","","","","<div class='trialBorder'><div class='vertical-center'><img src='img/fixation2_sml.jpg'</img></div></div>","null","DELAY","","","","","","","","","","","",""
"html-keyboard-response","128","390735","0.0-7.0-4.18","631bc422eec20143118ad66b","bdp_wmem","Fri Mar 10 2023 15:20:06 GMT-0500 (Eastern Standard Time)","670494","Match,No Match","","1656","","","","","","<div class='trialBorder'><div class='targDiv'><div class='tc'><img class='introPic' src='trustrating_stim/white_mw078.bmp'><br><font color='green'><strong>Share</strong></font></div></div><div class='respDiv'><div class='respDivL'>Match<br>(e)</div><div class='respDivR'>No Match<br>(i)</div></div></div>","i","TARGET","1","trustrating_stim/white_mw078.bmp","0","noMatchOutcome","i","1500","trustrating_stim/white_mw078.bmp","green","Share","REAL","1",""
"html-keyboard-response","129","391238","0.0-7.0-5.18","631bc422eec20143118ad66b","bdp_wmem","Fri Mar 10 2023 15:20:06 GMT-0500 (Eastern Standard Time)","670494","Match,No Match","","null","","","","","","<div class='trialBorder'><div class='vertical-center'><img src='img/correct.jpg'></div><div class='respDiv'><div class='respDivL'>Match<br>(e)</div><div class='respDivR'><font style='color:orange'>No Match<br>(i)</font></div></div></div>","null","FEEDBACK","","","","","","","","","","","",""
"html-keyboard-response","130","391740","0.0-7.0-1.19","631bc422eec20143118ad66b","bdp_wmem","Fri Mar 10 2023 15:20:06 GMT-0500 (Eastern Standard Time)","670494","Match,No Match","","null","","","","","","<div class='trialBorder'><div class='vertical-center'><img src='img/fixation2_sml.jpg'</img></div></div>","null","FIX","","","","","","","","","","","",""
"html-keyboard-response","131","396243","0.0-7.0-2.19","631bc422eec20143118ad66b","bdp_wmem","Fri Mar 10 2023 15:20:06 GMT-0500 (Eastern Standard Time)","670494","Match,No Match","","null","","","","","","<div class='trialBorder'><div class='vertical-center'><img style='vertical-align:center; align:center' src='img/fixation2_sml.jpg'></div><div class='arrayDiv3'><div class='tl'><img class='introPic' src='trustrating_stim/white_mw070.bmp'><br><font color='red'><strong>Keep</strong></font></div><div class='tc'><img class='introPic' src='trustrating_stim/white_mw091.bmp'><br><font color='green'><strong>Share</strong></font></div><div class='tr'><img class='introPic' src='trustrating_stim/white_mw038.bmp'><br><font color='green'><strong>Share</strong></font></div></div></div>","null","ARRAY","3","trustrating_stim/white_mw070.bmp,trustrating_stim/white_mw091.bmp,trustrating_stim/white_mw038.bmp","0,1,1","Match","e","4500","","","","","",""
"html-keyboard-response","132","400245","0.0-7.0-3.19","631bc422eec20143118ad66b","bdp_wmem","Fri Mar 10 2023 15:20:06 GMT-0500 (Eastern Standard Time)","670494","Match,No Match","","null","","","","","","<div class='trialBorder'><div class='vertical-center'><img src='img/fixation2_sml.jpg'</img></div></div>","null","DELAY","","","","","","","","","","","",""
"html-keyboard-response","133","401659","0.0-7.0-4.19","631bc422eec20143118ad66b","bdp_wmem","Fri Mar 10 2023 15:20:06 GMT-0500 (Eastern Standard Time)","670494","Match,No Match","","1412","","","","","","<div class='trialBorder'><div class='targDiv'><div class='tc'><img class='introPic' src='trustrating_stim/white_mw038.bmp'><br><font color='green'><strong>Share</strong></font></div></div><div class='respDiv'><div class='respDivL'>Match<br>(e)</div><div class='respDivR'>No Match<br>(i)</div></div></div>","e","TARGET","3","trustrating_stim/white_mw070.bmp,trustrating_stim/white_mw091.bmp,trustrating_stim/white_mw038.bmp","0,1,1","Match","e","4500","trustrating_stim/white_mw038.bmp","green","Share","REAL","1",""
"html-keyboard-response","134","402161","0.0-7.0-5.19","631bc422eec20143118ad66b","bdp_wmem","Fri Mar 10 2023 15:20:06 GMT-0500 (Eastern Standard Time)","670494","Match,No Match","","null","","","","","","<div class='trialBorder'><div class='vertical-center'><img src='img/correct.jpg'></div><div class='respDiv'><div class='respDivL'><font style='color:orange'>Match<br>(e)</font></div><div class='respDivR'>No Match<br>(i)</div></div></div>","null","FEEDBACK","","","","","","","","","","","",""
"html-keyboard-response","135","402663","0.0-7.0-1.20","631bc422eec20143118ad66b","bdp_wmem","Fri Mar 10 2023 15:20:06 GMT-0500 (Eastern Standard Time)","670494","Match,No Match","","null","","","","","","<div class='trialBorder'><div class='vertical-center'><img src='img/fixation2_sml.jpg'</img></div></div>","null","FIX","","","","","","","","","","","",""
"html-keyboard-response","136","405666","0.0-7.0-2.20","631bc422eec20143118ad66b","bdp_wmem","Fri Mar 10 2023 15:20:06 GMT-0500 (Eastern Standard Time)","670494","Match,No Match","","null","","","","","","<div class='trialBorder'><div class='vertical-center'><img style='vertical-align:center; align:center' src='img/fixation2_sml.jpg'></div><div class='arrayDiv2'><div class='tl'><img class='introPic' src='trustrating_stim/white_mw070.bmp'><br><font color='green'><strong>Share</strong></font></div><div class='tr'><img class='introPic' src='trustrating_stim/white_mw091.bmp'><br><font color='red'><strong>Keep</strong></font></div></div></div>","null","ARRAY","2","trustrating_stim/white_mw070.bmp,trustrating_stim/white_mw091.bmp","1,0","Match","e","3000","","","","","",""
"html-keyboard-response","137","409668","0.0-7.0-3.20","631bc422eec20143118ad66b","bdp_wmem","Fri Mar 10 2023 15:20:06 GMT-0500 (Eastern Standard Time)","670494","Match,No Match","","null","","","","","","<div class='trialBorder'><div class='vertical-center'><img src='img/fixation2_sml.jpg'</img></div></div>","null","DELAY","","","","","","","","","","","",""
"html-keyboard-response","138","411353","0.0-7.0-4.20","631bc422eec20143118ad66b","bdp_wmem","Fri Mar 10 2023 15:20:06 GMT-0500 (Eastern Standard Time)","670494","Match,No Match","","1683","","","","","","<div class='trialBorder'><div class='targDiv'><div class='tc'><img class='introPic' src='trustrating_stim/white_mw091.bmp'><br><font color='red'><strong>Keep</strong></font></div></div><div class='respDiv'><div class='respDivL'>Match<br>(e)</div><div class='respDivR'>No Match<br>(i)</div></div></div>","i","TARGET","2","trustrating_stim/white_mw070.bmp,trustrating_stim/white_mw091.bmp","1,0","Match","e","3000","trustrating_stim/white_mw091.bmp","red","Keep","REAL","0",""
"html-keyboard-response","139","411855","0.0-7.0-5.20","631bc422eec20143118ad66b","bdp_wmem","Fri Mar 10 2023 15:20:06 GMT-0500 (Eastern Standard Time)","670494","Match,No Match","","null","","","","","","<div class='trialBorder'><div class='vertical-center'><img src='img/error.jpg'></div><div class='respDiv'><div class='respDivL'>Match<br>(e)</div><div class='respDivR'><font style='color:orange'>No Match<br>(i)</font></div></div></div>","null","FEEDBACK","","","","","","","","","","","",""
"html-keyboard-response","140","412357","0.0-7.0-1.21","631bc422eec20143118ad66b","bdp_wmem","Fri Mar 10 2023 15:20:06 GMT-0500 (Eastern Standard Time)","670494","Match,No Match","","null","","","","","","<div class='trialBorder'><div class='vertical-center'><img src='img/fixation2_sml.jpg'</img></div></div>","null","FIX","","","","","","","","","","","",""
"html-keyboard-response","141","415360","0.0-7.0-2.21","631bc422eec20143118ad66b","bdp_wmem","Fri Mar 10 2023 15:20:06 GMT-0500 (Eastern Standard Time)","670494","Match,No Match","","null","","","","","","<div class='trialBorder'><div class='vertical-center'><img style='vertical-align:center; align:center' src='img/fixation2_sml.jpg'></div><div class='arrayDiv2'><div class='tl'><img class='introPic' src='trustrating_stim/white_mw091.bmp'><br><font color='green'><strong>Share</strong></font></div><div class='tr'><img class='introPic' src='trustrating_stim/white_mw012.bmp'><br><font color='red'><strong>Keep</strong></font></div></div></div>","null","ARRAY","2","trustrating_stim/white_mw091.bmp,trustrating_stim/white_mw012.bmp","1,0","noMatchFace","i","3000","","","","","",""
"html-keyboard-response","142","419361","0.0-7.0-3.21","631bc422eec20143118ad66b","bdp_wmem","Fri Mar 10 2023 15:20:06 GMT-0500 (Eastern Standard Time)","670494","Match,No Match","","null","","","","","","<div class='trialBorder'><div class='vertical-center'><img src='img/fixation2_sml.jpg'</img></div></div>","null","DELAY","","","","","","","","","","","",""
"html-keyboard-response","143","421765","0.0-7.0-4.21","631bc422eec20143118ad66b","bdp_wmem","Fri Mar 10 2023 15:20:06 GMT-0500 (Eastern Standard Time)","670494","Match,No Match","","2402","","","","","","<div class='trialBorder'><div class='targDiv'><div class='tc'><img class='introPic' src='trustrating_stim/white_mw013.bmp'><br><font color='green'><strong>Share</strong></font></div></div><div class='respDiv'><div class='respDivL'>Match<br>(e)</div><div class='respDivR'>No Match<br>(i)</div></div></div>","i","TARGET","2","trustrating_stim/white_mw091.bmp,trustrating_stim/white_mw012.bmp","1,0","noMatchFace","i","3000","trustrating_stim/white_mw013.bmp","green","Share","REAL","1",""
"html-keyboard-response","144","422267","0.0-7.0-5.21","631bc422eec20143118ad66b","bdp_wmem","Fri Mar 10 2023 15:20:06 GMT-0500 (Eastern Standard Time)","670494","Match,No Match","","null","","","","","","<div class='trialBorder'><div class='vertical-center'><img src='img/correct.jpg'></div><div class='respDiv'><div class='respDivL'>Match<br>(e)</div><div class='respDivR'><font style='color:orange'>No Match<br>(i)</font></div></div></div>","null","FEEDBACK","","","","","","","","","","","",""
"html-keyboard-response","145","422769","0.0-7.0-1.22","631bc422eec20143118ad66b","bdp_wmem","Fri Mar 10 2023 15:20:06 GMT-0500 (Eastern Standard Time)","670494","Match,No Match","","null","","","","","","<div class='trialBorder'><div class='vertical-center'><img src='img/fixation2_sml.jpg'</img></div></div>","null","FIX","","","","","","","","","","","",""
"html-keyboard-response","146","427272","0.0-7.0-2.22","631bc422eec20143118ad66b","bdp_wmem","Fri Mar 10 2023 15:20:06 GMT-0500 (Eastern Standard Time)","670494","Match,No Match","","null","","","","","","<div class='trialBorder'><div class='vertical-center'><img style='vertical-align:center; align:center' src='img/fixation2_sml.jpg'></div><div class='arrayDiv3'><div class='tl'><img class='introPic' src='trustrating_stim/white_mw012.bmp'><br><font color='green'><strong>Share</strong></font></div><div class='tc'><img class='introPic' src='trustrating_stim/white_mw070.bmp'><br><font color='green'><strong>Share</strong></font></div><div class='tr'><img class='introPic' src='trustrating_stim/white_mw013.bmp'><br><font color='red'><strong>Keep</strong></font></div></div></div>","null","ARRAY","3","trustrating_stim/white_mw012.bmp,trustrating_stim/white_mw070.bmp,trustrating_stim/white_mw013.bmp","1,1,0","Match","e","4500","","","","","",""
"html-keyboard-response","147","431274","0.0-7.0-3.22","631bc422eec20143118ad66b","bdp_wmem","Fri Mar 10 2023 15:20:06 GMT-0500 (Eastern Standard Time)","670494","Match,No Match","","null","","","","","","<div class='trialBorder'><div class='vertical-center'><img src='img/fixation2_sml.jpg'</img></div></div>","null","DELAY","","","","","","","","","","","",""
"html-keyboard-response","148","434350","0.0-7.0-4.22","631bc422eec20143118ad66b","bdp_wmem","Fri Mar 10 2023 15:20:06 GMT-0500 (Eastern Standard Time)","670494","Match,No Match","","3074","","","","","","<div class='trialBorder'><div class='targDiv'><div class='tc'><img class='introPic' src='trustrating_stim/white_mw070.bmp'><br><font color='green'><strong>Share</strong></font></div></div><div class='respDiv'><div class='respDivL'>Match<br>(e)</div><div class='respDivR'>No Match<br>(i)</div></div></div>","e","TARGET","3","trustrating_stim/white_mw012.bmp,trustrating_stim/white_mw070.bmp,trustrating_stim/white_mw013.bmp","1,1,0","Match","e","4500","trustrating_stim/white_mw070.bmp","green","Share","REAL","1",""
"html-keyboard-response","149","434852","0.0-7.0-5.22","631bc422eec20143118ad66b","bdp_wmem","Fri Mar 10 2023 15:20:06 GMT-0500 (Eastern Standard Time)","670494","Match,No Match","","null","","","","","","<div class='trialBorder'><div class='vertical-center'><img src='img/correct.jpg'></div><div class='respDiv'><div class='respDivL'><font style='color:orange'>Match<br>(e)</font></div><div class='respDivR'>No Match<br>(i)</div></div></div>","null","FEEDBACK","","","","","","","","","","","",""
"html-keyboard-response","150","435354","0.0-7.0-1.23","631bc422eec20143118ad66b","bdp_wmem","Fri Mar 10 2023 15:20:06 GMT-0500 (Eastern Standard Time)","670494","Match,No Match","","null","","","","","","<div class='trialBorder'><div class='vertical-center'><img src='img/fixation2_sml.jpg'</img></div></div>","null","FIX","","","","","","","","","","","",""
"html-keyboard-response","151","436856","0.0-7.0-2.23","631bc422eec20143118ad66b","bdp_wmem","Fri Mar 10 2023 15:20:06 GMT-0500 (Eastern Standard Time)","670494","Match,No Match","","null","","","","","","<div class='trialBorder'><div class='vertical-center'><img style='vertical-align:center; align:center' src='img/fixation2_sml.jpg'></div><div class='arrayDiv1'><div class='tc'><img class='introPic' src='trustrating_stim/white_mw078.bmp'><br><font color='green'><strong>Share</strong></font></div></div></div>","null","ARRAY","1","trustrating_stim/white_mw078.bmp","1","Match","e","1500","","","","","",""
"html-keyboard-response","152","440858","0.0-7.0-3.23","631bc422eec20143118ad66b","bdp_wmem","Fri Mar 10 2023 15:20:06 GMT-0500 (Eastern Standard Time)","670494","Match,No Match","","null","","","","","","<div class='trialBorder'><div class='vertical-center'><img src='img/fixation2_sml.jpg'</img></div></div>","null","DELAY","","","","","","","","","","","",""
"html-keyboard-response","153","441973","0.0-7.0-4.23","631bc422eec20143118ad66b","bdp_wmem","Fri Mar 10 2023 15:20:06 GMT-0500 (Eastern Standard Time)","670494","Match,No Match","","1114","","","","","","<div class='trialBorder'><div class='targDiv'><div class='tc'><img class='introPic' src='trustrating_stim/white_mw078.bmp'><br><font color='green'><strong>Share</strong></font></div></div><div class='respDiv'><div class='respDivL'>Match<br>(e)</div><div class='respDivR'>No Match<br>(i)</div></div></div>","e","TARGET","1","trustrating_stim/white_mw078.bmp","1","Match","e","1500","trustrating_stim/white_mw078.bmp","green","Share","REAL","1",""
"html-keyboard-response","154","442475","0.0-7.0-5.23","631bc422eec20143118ad66b","bdp_wmem","Fri Mar 10 2023 15:20:06 GMT-0500 (Eastern Standard Time)","670494","Match,No Match","","null","","","","","","<div class='trialBorder'><div class='vertical-center'><img src='img/correct.jpg'></div><div class='respDiv'><div class='respDivL'><font style='color:orange'>Match<br>(e)</font></div><div class='respDivR'>No Match<br>(i)</div></div></div>","null","FEEDBACK","","","","","","","","","","","",""
"html-keyboard-response","155","442977","0.0-7.0-1.24","631bc422eec20143118ad66b","bdp_wmem","Fri Mar 10 2023 15:20:06 GMT-0500 (Eastern Standard Time)","670494","Match,No Match","","null","","","","","","<div class='trialBorder'><div class='vertical-center'><img src='img/fixation2_sml.jpg'</img></div></div>","null","FIX","","","","","","","","","","","",""
"html-keyboard-response","156","445980","0.0-7.0-2.24","631bc422eec20143118ad66b","bdp_wmem","Fri Mar 10 2023 15:20:06 GMT-0500 (Eastern Standard Time)","670494","Match,No Match","","null","","","","","","<div class='trialBorder'><div class='vertical-center'><img style='vertical-align:center; align:center' src='img/fixation2_sml.jpg'></div><div class='arrayDiv2'><div class='tl'><img class='introPic' src='trustrating_stim/white_mw078.bmp'><br><font color='green'><strong>Share</strong></font></div><div class='tr'><img class='introPic' src='trustrating_stim/white_mw010.bmp'><br><font color='red'><strong>Keep</strong></font></div></div></div>","null","ARRAY","2","trustrating_stim/white_mw078.bmp,trustrating_stim/white_mw010.bmp","1,0","Match","e","3000","","","","","",""
"html-keyboard-response","157","449982","0.0-7.0-3.24","631bc422eec20143118ad66b","bdp_wmem","Fri Mar 10 2023 15:20:06 GMT-0500 (Eastern Standard Time)","670494","Match,No Match","","null","","","","","","<div class='trialBorder'><div class='vertical-center'><img src='img/fixation2_sml.jpg'</img></div></div>","null","DELAY","","","","","","","","","","","",""
"html-keyboard-response","158","451541","0.0-7.0-4.24","631bc422eec20143118ad66b","bdp_wmem","Fri Mar 10 2023 15:20:06 GMT-0500 (Eastern Standard Time)","670494","Match,No Match","","1558","","","","","","<div class='trialBorder'><div class='targDiv'><div class='tc'><img class='introPic' src='trustrating_stim/white_mw078.bmp'><br><font color='green'><strong>Share</strong></font></div></div><div class='respDiv'><div class='respDivL'>Match<br>(e)</div><div class='respDivR'>No Match<br>(i)</div></div></div>","e","TARGET","2","trustrating_stim/white_mw078.bmp,trustrating_stim/white_mw010.bmp","1,0","Match","e","3000","trustrating_stim/white_mw078.bmp","green","Share","REAL","1",""
"html-keyboard-response","159","452043","0.0-7.0-5.24","631bc422eec20143118ad66b","bdp_wmem","Fri Mar 10 2023 15:20:06 GMT-0500 (Eastern Standard Time)","670494","Match,No Match","","null","","","","","","<div class='trialBorder'><div class='vertical-center'><img src='img/correct.jpg'></div><div class='respDiv'><div class='respDivL'><font style='color:orange'>Match<br>(e)</font></div><div class='respDivR'>No Match<br>(i)</div></div></div>","null","FEEDBACK","","","","","","","","","","","",""
"html-keyboard-response","160","452546","0.0-7.0-1.25","631bc422eec20143118ad66b","bdp_wmem","Fri Mar 10 2023 15:20:06 GMT-0500 (Eastern Standard Time)","670494","Match,No Match","","null","","","","","","<div class='trialBorder'><div class='vertical-center'><img src='img/fixation2_sml.jpg'</img></div></div>","null","FIX","","","","","","","","","","","",""
"html-keyboard-response","161","457048","0.0-7.0-2.25","631bc422eec20143118ad66b","bdp_wmem","Fri Mar 10 2023 15:20:06 GMT-0500 (Eastern Standard Time)","670494","Match,No Match","","null","","","","","","<div class='trialBorder'><div class='vertical-center'><img style='vertical-align:center; align:center' src='img/fixation2_sml.jpg'></div><div class='arrayDiv3'><div class='tl'><img class='introPic' src='trustrating_stim/white_mw092.bmp'><br><font color='green'><strong>Share</strong></font></div><div class='tc'><img class='introPic' src='trustrating_stim/white_mw012.bmp'><br><font color='green'><strong>Share</strong></font></div><div class='tr'><img class='introPic' src='trustrating_stim/white_mw091.bmp'><br><font color='red'><strong>Keep</strong></font></div></div></div>","null","ARRAY","3","trustrating_stim/white_mw092.bmp,trustrating_stim/white_mw012.bmp,trustrating_stim/white_mw091.bmp","1,1,0","noMatchOutcome","i","4500","","","","","",""
"html-keyboard-response","162","461050","0.0-7.0-3.25","631bc422eec20143118ad66b","bdp_wmem","Fri Mar 10 2023 15:20:06 GMT-0500 (Eastern Standard Time)","670494","Match,No Match","","null","","","","","","<div class='trialBorder'><div class='vertical-center'><img src='img/fixation2_sml.jpg'</img></div></div>","null","DELAY","","","","","","","","","","","",""
"html-keyboard-response","163","462395","0.0-7.0-4.25","631bc422eec20143118ad66b","bdp_wmem","Fri Mar 10 2023 15:20:06 GMT-0500 (Eastern Standard Time)","670494","Match,No Match","","1344","","","","","","<div class='trialBorder'><div class='targDiv'><div class='tc'><img class='introPic' src='trustrating_stim/white_mw012.bmp'><br><font color='red'><strong>Keep</strong></font></div></div><div class='respDiv'><div class='respDivL'>Match<br>(e)</div><div class='respDivR'>No Match<br>(i)</div></div></div>","i","TARGET","3","trustrating_stim/white_mw092.bmp,trustrating_stim/white_mw012.bmp,trustrating_stim/white_mw091.bmp","1,1,0","noMatchOutcome","i","4500","trustrating_stim/white_mw012.bmp","red","Keep","REAL","1",""
"html-keyboard-response","164","462897","0.0-7.0-5.25","631bc422eec20143118ad66b","bdp_wmem","Fri Mar 10 2023 15:20:06 GMT-0500 (Eastern Standard Time)","670494","Match,No Match","","null","","","","","","<div class='trialBorder'><div class='vertical-center'><img src='img/correct.jpg'></div><div class='respDiv'><div class='respDivL'>Match<br>(e)</div><div class='respDivR'><font style='color:orange'>No Match<br>(i)</font></div></div></div>","null","FEEDBACK","","","","","","","","","","","",""
"html-keyboard-response","165","463399","0.0-7.0-1.26","631bc422eec20143118ad66b","bdp_wmem","Fri Mar 10 2023 15:20:06 GMT-0500 (Eastern Standard Time)","670494","Match,No Match","","null","","","","","","<div class='trialBorder'><div class='vertical-center'><img src='img/fixation2_sml.jpg'</img></div></div>","null","FIX","","","","","","","","","","","",""
"html-keyboard-response","166","466402","0.0-7.0-2.26","631bc422eec20143118ad66b","bdp_wmem","Fri Mar 10 2023 15:20:06 GMT-0500 (Eastern Standard Time)","670494","Match,No Match","","null","","","","","","<div class='trialBorder'><div class='vertical-center'><img style='vertical-align:center; align:center' src='img/fixation2_sml.jpg'></div><div class='arrayDiv2'><div class='tl'><img class='introPic' src='trustrating_stim/white_mw038.bmp'><br><font color='green'><strong>Share</strong></font></div><div class='tr'><img class='introPic' src='trustrating_stim/white_mw042.bmp'><br><font color='red'><strong>Keep</strong></font></div></div></div>","null","ARRAY","2","trustrating_stim/white_mw038.bmp,trustrating_stim/white_mw042.bmp","1,0","Match","e","3000","","","","","",""
"html-keyboard-response","167","470404","0.0-7.0-3.26","631bc422eec20143118ad66b","bdp_wmem","Fri Mar 10 2023 15:20:06 GMT-0500 (Eastern Standard Time)","670494","Match,No Match","","null","","","","","","<div class='trialBorder'><div class='vertical-center'><img src='img/fixation2_sml.jpg'</img></div></div>","null","DELAY","","","","","","","","","","","",""
"html-keyboard-response","168","472488","0.0-7.0-4.26","631bc422eec20143118ad66b","bdp_wmem","Fri Mar 10 2023 15:20:06 GMT-0500 (Eastern Standard Time)","670494","Match,No Match","","2082","","","","","","<div class='trialBorder'><div class='targDiv'><div class='tc'><img class='introPic' src='trustrating_stim/white_mw042.bmp'><br><font color='red'><strong>Keep</strong></font></div></div><div class='respDiv'><div class='respDivL'>Match<br>(e)</div><div class='respDivR'>No Match<br>(i)</div></div></div>","i","TARGET","2","trustrating_stim/white_mw038.bmp,trustrating_stim/white_mw042.bmp","1,0","Match","e","3000","trustrating_stim/white_mw042.bmp","red","Keep","REAL","0",""
"html-keyboard-response","169","472990","0.0-7.0-5.26","631bc422eec20143118ad66b","bdp_wmem","Fri Mar 10 2023 15:20:06 GMT-0500 (Eastern Standard Time)","670494","Match,No Match","","null","","","","","","<div class='trialBorder'><div class='vertical-center'><img src='img/error.jpg'></div><div class='respDiv'><div class='respDivL'>Match<br>(e)</div><div class='respDivR'><font style='color:orange'>No Match<br>(i)</font></div></div></div>","null","FEEDBACK","","","","","","","","","","","",""
"html-keyboard-response","170","473492","0.0-7.0-1.27","631bc422eec20143118ad66b","bdp_wmem","Fri Mar 10 2023 15:20:06 GMT-0500 (Eastern Standard Time)","670494","Match,No Match","","null","","","","","","<div class='trialBorder'><div class='vertical-center'><img src='img/fixation2_sml.jpg'</img></div></div>","null","FIX","","","","","","","","","","","",""
"html-keyboard-response","171","474994","0.0-7.0-2.27","631bc422eec20143118ad66b","bdp_wmem","Fri Mar 10 2023 15:20:06 GMT-0500 (Eastern Standard Time)","670494","Match,No Match","","null","","","","","","<div class='trialBorder'><div class='vertical-center'><img style='vertical-align:center; align:center' src='img/fixation2_sml.jpg'></div><div class='arrayDiv1'><div class='tc'><img class='introPic' src='trustrating_stim/white_mw038.bmp'><br><font color='green'><strong>Share</strong></font></div></div></div>","null","ARRAY","1","trustrating_stim/white_mw038.bmp","1","noMatchOutcome","i","1500","","","","","",""
"html-keyboard-response","172","478996","0.0-7.0-3.27","631bc422eec20143118ad66b","bdp_wmem","Fri Mar 10 2023 15:20:06 GMT-0500 (Eastern Standard Time)","670494","Match,No Match","","null","","","","","","<div class='trialBorder'><div class='vertical-center'><img src='img/fixation2_sml.jpg'</img></div></div>","null","DELAY","","","","","","","","","","","",""
"html-keyboard-response","173","480720","0.0-7.0-4.27","631bc422eec20143118ad66b","bdp_wmem","Fri Mar 10 2023 15:20:06 GMT-0500 (Eastern Standard Time)","670494","Match,No Match","","1723","","","","","","<div class='trialBorder'><div class='targDiv'><div class='tc'><img class='introPic' src='trustrating_stim/white_mw038.bmp'><br><font color='red'><strong>Keep</strong></font></div></div><div class='respDiv'><div class='respDivL'>Match<br>(e)</div><div class='respDivR'>No Match<br>(i)</div></div></div>","i","TARGET","1","trustrating_stim/white_mw038.bmp","1","noMatchOutcome","i","1500","trustrating_stim/white_mw038.bmp","red","Keep","REAL","1",""
"html-keyboard-response","174","481223","0.0-7.0-5.27","631bc422eec20143118ad66b","bdp_wmem","Fri Mar 10 2023 15:20:06 GMT-0500 (Eastern Standard Time)","670494","Match,No Match","","null","","","","","","<div class='trialBorder'><div class='vertical-center'><img src='img/correct.jpg'></div><div class='respDiv'><div class='respDivL'>Match<br>(e)</div><div class='respDivR'><font style='color:orange'>No Match<br>(i)</font></div></div></div>","null","FEEDBACK","","","","","","","","","","","",""
"html-keyboard-response","175","481725","0.0-7.0-1.28","631bc422eec20143118ad66b","bdp_wmem","Fri Mar 10 2023 15:20:06 GMT-0500 (Eastern Standard Time)","670494","Match,No Match","","null","","","","","","<div class='trialBorder'><div class='vertical-center'><img src='img/fixation2_sml.jpg'</img></div></div>","null","FIX","","","","","","","","","","","",""
"html-keyboard-response","176","486228","0.0-7.0-2.28","631bc422eec20143118ad66b","bdp_wmem","Fri Mar 10 2023 15:20:06 GMT-0500 (Eastern Standard Time)","670494","Match,No Match","","null","","","","","","<div class='trialBorder'><div class='vertical-center'><img style='vertical-align:center; align:center' src='img/fixation2_sml.jpg'></div><div class='arrayDiv3'><div class='tl'><img class='introPic' src='trustrating_stim/white_mw085.bmp'><br><font color='green'><strong>Share</strong></font></div><div class='tc'><img class='introPic' src='trustrating_stim/white_mw042.bmp'><br><font color='red'><strong>Keep</strong></font></div><div class='tr'><img class='introPic' src='trustrating_stim/white_mw013.bmp'><br><font color='red'><strong>Keep</strong></font></div></div></div>","null","ARRAY","3","trustrating_stim/white_mw085.bmp,trustrating_stim/white_mw042.bmp,trustrating_stim/white_mw013.bmp","1,0,0","Match","e","4500","","","","","",""
"html-keyboard-response","177","490230","0.0-7.0-3.28","631bc422eec20143118ad66b","bdp_wmem","Fri Mar 10 2023 15:20:06 GMT-0500 (Eastern Standard Time)","670494","Match,No Match","","null","","","","","","<div class='trialBorder'><div class='vertical-center'><img src='img/fixation2_sml.jpg'</img></div></div>","null","DELAY","","","","","","","","","","","",""
"html-keyboard-response","178","491790","0.0-7.0-4.28","631bc422eec20143118ad66b","bdp_wmem","Fri Mar 10 2023 15:20:06 GMT-0500 (Eastern Standard Time)","670494","Match,No Match","","1559","","","","","","<div class='trialBorder'><div class='targDiv'><div class='tc'><img class='introPic' src='trustrating_stim/white_mw085.bmp'><br><font color='green'><strong>Share</strong></font></div></div><div class='respDiv'><div class='respDivL'>Match<br>(e)</div><div class='respDivR'>No Match<br>(i)</div></div></div>","e","TARGET","3","trustrating_stim/white_mw085.bmp,trustrating_stim/white_mw042.bmp,trustrating_stim/white_mw013.bmp","1,0,0","Match","e","4500","trustrating_stim/white_mw085.bmp","green","Share","REAL","1",""
"html-keyboard-response","179","492292","0.0-7.0-5.28","631bc422eec20143118ad66b","bdp_wmem","Fri Mar 10 2023 15:20:06 GMT-0500 (Eastern Standard Time)","670494","Match,No Match","","null","","","","","","<div class='trialBorder'><div class='vertical-center'><img src='img/correct.jpg'></div><div class='respDiv'><div class='respDivL'><font style='color:orange'>Match<br>(e)</font></div><div class='respDivR'>No Match<br>(i)</div></div></div>","null","FEEDBACK","","","","","","","","","","","",""
"html-keyboard-response","180","492793","0.0-7.0-1.29","631bc422eec20143118ad66b","bdp_wmem","Fri Mar 10 2023 15:20:06 GMT-0500 (Eastern Standard Time)","670494","Match,No Match","","null","","","","","","<div class='trialBorder'><div class='vertical-center'><img src='img/fixation2_sml.jpg'</img></div></div>","null","FIX","","","","","","","","","","","",""
"html-keyboard-response","181","494295","0.0-7.0-2.29","631bc422eec20143118ad66b","bdp_wmem","Fri Mar 10 2023 15:20:06 GMT-0500 (Eastern Standard Time)","670494","Match,No Match","","null","","","","","","<div class='trialBorder'><div class='vertical-center'><img style='vertical-align:center; align:center' src='img/fixation2_sml.jpg'></div><div class='arrayDiv1'><div class='tc'><img class='introPic' src='trustrating_stim/white_mw012.bmp'><br><font color='green'><strong>Share</strong></font></div></div></div>","null","ARRAY","1","trustrating_stim/white_mw012.bmp","1","Match","e","1500","","","","","",""
"html-keyboard-response","182","498297","0.0-7.0-3.29","631bc422eec20143118ad66b","bdp_wmem","Fri Mar 10 2023 15:20:06 GMT-0500 (Eastern Standard Time)","670494","Match,No Match","","null","","","","","","<div class='trialBorder'><div class='vertical-center'><img src='img/fixation2_sml.jpg'</img></div></div>","null","DELAY","","","","","","","","","","","",""
"html-keyboard-response","183","500755","0.0-7.0-4.29","631bc422eec20143118ad66b","bdp_wmem","Fri Mar 10 2023 15:20:06 GMT-0500 (Eastern Standard Time)","670494","Match,No Match","","2456","","","","","","<div class='trialBorder'><div class='targDiv'><div class='tc'><img class='introPic' src='trustrating_stim/white_mw012.bmp'><br><font color='green'><strong>Share</strong></font></div></div><div class='respDiv'><div class='respDivL'>Match<br>(e)</div><div class='respDivR'>No Match<br>(i)</div></div></div>","i","TARGET","1","trustrating_stim/white_mw012.bmp","1","Match","e","1500","trustrating_stim/white_mw012.bmp","green","Share","REAL","0",""
"html-keyboard-response","184","501257","0.0-7.0-5.29","631bc422eec20143118ad66b","bdp_wmem","Fri Mar 10 2023 15:20:06 GMT-0500 (Eastern Standard Time)","670494","Match,No Match","","null","","","","","","<div class='trialBorder'><div class='vertical-center'><img src='img/error.jpg'></div><div class='respDiv'><div class='respDivL'>Match<br>(e)</div><div class='respDivR'><font style='color:orange'>No Match<br>(i)</font></div></div></div>","null","FEEDBACK","","","","","","","","","","","",""
"html-keyboard-response","185","501759","0.0-7.0-1.30","631bc422eec20143118ad66b","bdp_wmem","Fri Mar 10 2023 15:20:06 GMT-0500 (Eastern Standard Time)","670494","Match,No Match","","null","","","","","","<div class='trialBorder'><div class='vertical-center'><img src='img/fixation2_sml.jpg'</img></div></div>","null","FIX","","","","","","","","","","","",""
