"trial_type","trial_index","time_elapsed","internal_node_id","subject_id","task","startTime","totalTime","labels","view_history","rt","event","trial","time","trialtype","success","stimulus","key_press","stimType","arraySize","arrayFaces","arrayOutcomes","matchType","corrResp","arrayDur","targFace","targCol","targOutcome","trialType","corr"
"pavlovia","0","5","0.0-0.0","5f4000a47ed89c0e7f2e3760","bdp_wmem","Wed Mar 15 2023 15:00:59 GMT-0400 (Eastern Daylight Time)","633335","Match,No Match","","","","","","","","","","","","","","","","","","","","",""
"instructions","1","3617","0.0-1.0","5f4000a47ed89c0e7f2e3760","bdp_wmem","Wed Mar 15 2023 15:00:59 GMT-0400 (Eastern Daylight Time)","633335","Match,No Match","[{""page_index"":0,""viewing_time"":3611}]","3611","","","","","","","","","","","","","","","","","","",""
"","","","","5f4000a47ed89c0e7f2e3760","bdp_wmem","Wed Mar 15 2023 15:00:59 GMT-0400 (Eastern Daylight Time)","633335","Match,No Match","","","fullscreenenter","2","6572","fullscreenenter","","","","","","","","","","","","","","",""
"fullscreen","2","7549","0.0-2.0","5f4000a47ed89c0e7f2e3760","bdp_wmem","Wed Mar 15 2023 15:00:59 GMT-0400 (Eastern Daylight Time)","633335","Match,No Match","","","","","","","true","","","","","","","","","","","","","",""
"instructions","3","90944","0.0-4.0","5f4000a47ed89c0e7f2e3760","bdp_wmem","Wed Mar 15 2023 15:00:59 GMT-0400 (Eastern Daylight Time)","633335","Match,No Match","[{""page_index"":0,""viewing_time"":13153},{""page_index"":1,""viewing_time"":16269},{""page_index"":2,""viewing_time"":29744},{""page_index"":3,""viewing_time"":9437},{""page_index"":4,""viewing_time"":14789}]","83392","","","","","","","","","","","","","","","","","","",""
"html-keyboard-response","4","91446","0.0-5.0-1.0","5f4000a47ed89c0e7f2e3760","bdp_wmem","Wed Mar 15 2023 15:00:59 GMT-0400 (Eastern Daylight Time)","633335","Match,No Match","","null","","","","","","<div class='trialBorder'><div class='vertical-center'><img src='img/fixation2_sml.jpg'</img></div></div>","null","FIX","","","","","","","","","","",""
"html-keyboard-response","5","92948","0.0-5.0-2.0","5f4000a47ed89c0e7f2e3760","bdp_wmem","Wed Mar 15 2023 15:00:59 GMT-0400 (Eastern Daylight Time)","633335","Match,No Match","","null","","","","","","<div class='trialBorder'><div class='vertical-center'><img style='vertical-align:center; align:center' src='img/fixation2_sml.jpg'></div><div class='arrayDiv1'><div class='tc'><img class='introPic' src='trustrating_stim/white_mw042.bmp'><br><font color='green'><strong>Share</strong></font></div></div></div>","null","ARRAY","1","trustrating_stim/white_mw042.bmp","1","noMatchFace","i","1500","","","","",""
"html-keyboard-response","6","96949","0.0-5.0-3.0","5f4000a47ed89c0e7f2e3760","bdp_wmem","Wed Mar 15 2023 15:00:59 GMT-0400 (Eastern Daylight Time)","633335","Match,No Match","","null","","","","","","<div class='trialBorder'><div class='vertical-center'><img src='img/fixation2_sml.jpg'</img></div></div>","null","DELAY","","","","","","","","","","",""
"html-keyboard-response","7","98908","0.0-5.0-4.0","5f4000a47ed89c0e7f2e3760","bdp_wmem","Wed Mar 15 2023 15:00:59 GMT-0400 (Eastern Daylight Time)","633335","Match,No Match","","1957","","","","","","<div class='trialBorder'><div class='targDiv'><div class='tc'><img class='introPic' src='trustrating_stim/white_mw010.bmp'><br><font color='green'><strong>Share</strong></font></div></div><div class='respDiv'><div class='respDivL'>Match<br>(e)</div><div class='respDivR'>No Match<br>(i)</div></div></div>","i","TARGET","1","trustrating_stim/white_mw042.bmp","1","noMatchFace","i","1500","trustrating_stim/white_mw010.bmp","green","Share","PRACTICE","1"
"html-keyboard-response","8","99409","0.0-5.0-5.0","5f4000a47ed89c0e7f2e3760","bdp_wmem","Wed Mar 15 2023 15:00:59 GMT-0400 (Eastern Daylight Time)","633335","Match,No Match","","null","","","","","","<div class='trialBorder'><div class='vertical-center'><img src='img/correct.jpg'></div><div class='respDiv'><div class='respDivL'>Match<br>(e)</div><div class='respDivR'><font style='color:orange'>No Match<br>(i)</font></div></div></div>","null","FEEDBACK","","","","","","","","","","",""
"html-keyboard-response","9","99910","0.0-5.0-1.1","5f4000a47ed89c0e7f2e3760","bdp_wmem","Wed Mar 15 2023 15:00:59 GMT-0400 (Eastern Daylight Time)","633335","Match,No Match","","null","","","","","","<div class='trialBorder'><div class='vertical-center'><img src='img/fixation2_sml.jpg'</img></div></div>","null","FIX","","","","","","","","","","",""
"html-keyboard-response","10","102912","0.0-5.0-2.1","5f4000a47ed89c0e7f2e3760","bdp_wmem","Wed Mar 15 2023 15:00:59 GMT-0400 (Eastern Daylight Time)","633335","Match,No Match","","null","","","","","","<div class='trialBorder'><div class='vertical-center'><img style='vertical-align:center; align:center' src='img/fixation2_sml.jpg'></div><div class='arrayDiv2'><div class='tl'><img class='introPic' src='trustrating_stim/white_mw013.bmp'><br><font color='red'><strong>Keep</strong></font></div><div class='tr'><img class='introPic' src='trustrating_stim/white_mw070.bmp'><br><font color='green'><strong>Share</strong></font></div></div></div>","null","ARRAY","2","trustrating_stim/white_mw013.bmp,trustrating_stim/white_mw070.bmp","0,1","Match","e","3000","","","","",""
"html-keyboard-response","11","106913","0.0-5.0-3.1","5f4000a47ed89c0e7f2e3760","bdp_wmem","Wed Mar 15 2023 15:00:59 GMT-0400 (Eastern Daylight Time)","633335","Match,No Match","","null","","","","","","<div class='trialBorder'><div class='vertical-center'><img src='img/fixation2_sml.jpg'</img></div></div>","null","DELAY","","","","","","","","","","",""
"html-keyboard-response","12","108396","0.0-5.0-4.1","5f4000a47ed89c0e7f2e3760","bdp_wmem","Wed Mar 15 2023 15:00:59 GMT-0400 (Eastern Daylight Time)","633335","Match,No Match","","1482","","","","","","<div class='trialBorder'><div class='targDiv'><div class='tc'><img class='introPic' src='trustrating_stim/white_mw070.bmp'><br><font color='green'><strong>Share</strong></font></div></div><div class='respDiv'><div class='respDivL'>Match<br>(e)</div><div class='respDivR'>No Match<br>(i)</div></div></div>","i","TARGET","2","trustrating_stim/white_mw013.bmp,trustrating_stim/white_mw070.bmp","0,1","Match","e","3000","trustrating_stim/white_mw070.bmp","green","Share","PRACTICE","0"
"html-keyboard-response","13","108897","0.0-5.0-5.1","5f4000a47ed89c0e7f2e3760","bdp_wmem","Wed Mar 15 2023 15:00:59 GMT-0400 (Eastern Daylight Time)","633335","Match,No Match","","null","","","","","","<div class='trialBorder'><div class='vertical-center'><img src='img/error.jpg'></div><div class='respDiv'><div class='respDivL'>Match<br>(e)</div><div class='respDivR'><font style='color:orange'>No Match<br>(i)</font></div></div></div>","null","FEEDBACK","","","","","","","","","","",""
"html-keyboard-response","14","109398","0.0-5.0-1.2","5f4000a47ed89c0e7f2e3760","bdp_wmem","Wed Mar 15 2023 15:00:59 GMT-0400 (Eastern Daylight Time)","633335","Match,No Match","","null","","","","","","<div class='trialBorder'><div class='vertical-center'><img src='img/fixation2_sml.jpg'</img></div></div>","null","FIX","","","","","","","","","","",""
"html-keyboard-response","15","112400","0.0-5.0-2.2","5f4000a47ed89c0e7f2e3760","bdp_wmem","Wed Mar 15 2023 15:00:59 GMT-0400 (Eastern Daylight Time)","633335","Match,No Match","","null","","","","","","<div class='trialBorder'><div class='vertical-center'><img style='vertical-align:center; align:center' src='img/fixation2_sml.jpg'></div><div class='arrayDiv2'><div class='tl'><img class='introPic' src='trustrating_stim/white_mw013.bmp'><br><font color='green'><strong>Share</strong></font></div><div class='tr'><img class='introPic' src='trustrating_stim/white_mw003.bmp'><br><font color='red'><strong>Keep</strong></font></div></div></div>","null","ARRAY","2","trustrating_stim/white_mw013.bmp,trustrating_stim/white_mw003.bmp","1,0","noMatchOutcome","i","3000","","","","",""
"html-keyboard-response","16","116401","0.0-5.0-3.2","5f4000a47ed89c0e7f2e3760","bdp_wmem","Wed Mar 15 2023 15:00:59 GMT-0400 (Eastern Daylight Time)","633335","Match,No Match","","null","","","","","","<div class='trialBorder'><div class='vertical-center'><img src='img/fixation2_sml.jpg'</img></div></div>","null","DELAY","","","","","","","","","","",""
"html-keyboard-response","17","118491","0.0-5.0-4.2","5f4000a47ed89c0e7f2e3760","bdp_wmem","Wed Mar 15 2023 15:00:59 GMT-0400 (Eastern Daylight Time)","633335","Match,No Match","","2088","","","","","","<div class='trialBorder'><div class='targDiv'><div class='tc'><img class='introPic' src='trustrating_stim/white_mw013.bmp'><br><font color='red'><strong>Keep</strong></font></div></div><div class='respDiv'><div class='respDivL'>Match<br>(e)</div><div class='respDivR'>No Match<br>(i)</div></div></div>","e","TARGET","2","trustrating_stim/white_mw013.bmp,trustrating_stim/white_mw003.bmp","1,0","noMatchOutcome","i","3000","trustrating_stim/white_mw013.bmp","red","Keep","PRACTICE","0"
"html-keyboard-response","18","118992","0.0-5.0-5.2","5f4000a47ed89c0e7f2e3760","bdp_wmem","Wed Mar 15 2023 15:00:59 GMT-0400 (Eastern Daylight Time)","633335","Match,No Match","","null","","","","","","<div class='trialBorder'><div class='vertical-center'><img src='img/error.jpg'></div><div class='respDiv'><div class='respDivL'><font style='color:orange'>Match<br>(e)</font></div><div class='respDivR'>No Match<br>(i)</div></div></div>","null","FEEDBACK","","","","","","","","","","",""
"html-keyboard-response","19","119494","0.0-5.0-1.3","5f4000a47ed89c0e7f2e3760","bdp_wmem","Wed Mar 15 2023 15:00:59 GMT-0400 (Eastern Daylight Time)","633335","Match,No Match","","null","","","","","","<div class='trialBorder'><div class='vertical-center'><img src='img/fixation2_sml.jpg'</img></div></div>","null","FIX","","","","","","","","","","",""
"html-keyboard-response","20","121004","0.0-5.0-2.3","5f4000a47ed89c0e7f2e3760","bdp_wmem","Wed Mar 15 2023 15:00:59 GMT-0400 (Eastern Daylight Time)","633335","Match,No Match","","null","","","","","","<div class='trialBorder'><div class='vertical-center'><img style='vertical-align:center; align:center' src='img/fixation2_sml.jpg'></div><div class='arrayDiv1'><div class='tc'><img class='introPic' src='trustrating_stim/white_mw092.bmp'><br><font color='green'><strong>Share</strong></font></div></div></div>","null","ARRAY","1","trustrating_stim/white_mw092.bmp","1","Match","e","1500","","","","",""
"html-keyboard-response","21","125005","0.0-5.0-3.3","5f4000a47ed89c0e7f2e3760","bdp_wmem","Wed Mar 15 2023 15:00:59 GMT-0400 (Eastern Daylight Time)","633335","Match,No Match","","null","","","","","","<div class='trialBorder'><div class='vertical-center'><img src='img/fixation2_sml.jpg'</img></div></div>","null","DELAY","","","","","","","","","","",""
"html-keyboard-response","22","126253","0.0-5.0-4.3","5f4000a47ed89c0e7f2e3760","bdp_wmem","Wed Mar 15 2023 15:00:59 GMT-0400 (Eastern Daylight Time)","633335","Match,No Match","","1247","","","","","","<div class='trialBorder'><div class='targDiv'><div class='tc'><img class='introPic' src='trustrating_stim/white_mw092.bmp'><br><font color='green'><strong>Share</strong></font></div></div><div class='respDiv'><div class='respDivL'>Match<br>(e)</div><div class='respDivR'>No Match<br>(i)</div></div></div>","e","TARGET","1","trustrating_stim/white_mw092.bmp","1","Match","e","1500","trustrating_stim/white_mw092.bmp","green","Share","PRACTICE","1"
"html-keyboard-response","23","126755","0.0-5.0-5.3","5f4000a47ed89c0e7f2e3760","bdp_wmem","Wed Mar 15 2023 15:00:59 GMT-0400 (Eastern Daylight Time)","633335","Match,No Match","","null","","","","","","<div class='trialBorder'><div class='vertical-center'><img src='img/correct.jpg'></div><div class='respDiv'><div class='respDivL'><font style='color:orange'>Match<br>(e)</font></div><div class='respDivR'>No Match<br>(i)</div></div></div>","null","FEEDBACK","","","","","","","","","","",""
"html-keyboard-response","24","127257","0.0-5.0-1.4","5f4000a47ed89c0e7f2e3760","bdp_wmem","Wed Mar 15 2023 15:00:59 GMT-0400 (Eastern Daylight Time)","633335","Match,No Match","","null","","","","","","<div class='trialBorder'><div class='vertical-center'><img src='img/fixation2_sml.jpg'</img></div></div>","null","FIX","","","","","","","","","","",""
"html-keyboard-response","25","131758","0.0-5.0-2.4","5f4000a47ed89c0e7f2e3760","bdp_wmem","Wed Mar 15 2023 15:00:59 GMT-0400 (Eastern Daylight Time)","633335","Match,No Match","","null","","","","","","<div class='trialBorder'><div class='vertical-center'><img style='vertical-align:center; align:center' src='img/fixation2_sml.jpg'></div><div class='arrayDiv3'><div class='tl'><img class='introPic' src='trustrating_stim/white_mw040.bmp'><br><font color='green'><strong>Share</strong></font></div><div class='tc'><img class='introPic' src='trustrating_stim/white_mw092.bmp'><br><font color='green'><strong>Share</strong></font></div><div class='tr'><img class='introPic' src='trustrating_stim/white_mw012.bmp'><br><font color='red'><strong>Keep</strong></font></div></div></div>","null","ARRAY","3","trustrating_stim/white_mw040.bmp,trustrating_stim/white_mw092.bmp,trustrating_stim/white_mw012.bmp","1,1,0","noMatchOutcome","i","4500","","","","",""
"html-keyboard-response","26","135760","0.0-5.0-3.4","5f4000a47ed89c0e7f2e3760","bdp_wmem","Wed Mar 15 2023 15:00:59 GMT-0400 (Eastern Daylight Time)","633335","Match,No Match","","null","","","","","","<div class='trialBorder'><div class='vertical-center'><img src='img/fixation2_sml.jpg'</img></div></div>","null","DELAY","","","","","","","","","","",""
"html-keyboard-response","27","138757","0.0-5.0-4.4","5f4000a47ed89c0e7f2e3760","bdp_wmem","Wed Mar 15 2023 15:00:59 GMT-0400 (Eastern Daylight Time)","633335","Match,No Match","","2996","","","","","","<div class='trialBorder'><div class='targDiv'><div class='tc'><img class='introPic' src='trustrating_stim/white_mw040.bmp'><br><font color='red'><strong>Keep</strong></font></div></div><div class='respDiv'><div class='respDivL'>Match<br>(e)</div><div class='respDivR'>No Match<br>(i)</div></div></div>","i","TARGET","3","trustrating_stim/white_mw040.bmp,trustrating_stim/white_mw092.bmp,trustrating_stim/white_mw012.bmp","1,1,0","noMatchOutcome","i","4500","trustrating_stim/white_mw040.bmp","red","Keep","PRACTICE","1"
"html-keyboard-response","28","139258","0.0-5.0-5.4","5f4000a47ed89c0e7f2e3760","bdp_wmem","Wed Mar 15 2023 15:00:59 GMT-0400 (Eastern Daylight Time)","633335","Match,No Match","","null","","","","","","<div class='trialBorder'><div class='vertical-center'><img src='img/correct.jpg'></div><div class='respDiv'><div class='respDivL'>Match<br>(e)</div><div class='respDivR'><font style='color:orange'>No Match<br>(i)</font></div></div></div>","null","FEEDBACK","","","","","","","","","","",""
"html-keyboard-response","29","139759","0.0-5.0-1.5","5f4000a47ed89c0e7f2e3760","bdp_wmem","Wed Mar 15 2023 15:00:59 GMT-0400 (Eastern Daylight Time)","633335","Match,No Match","","null","","","","","","<div class='trialBorder'><div class='vertical-center'><img src='img/fixation2_sml.jpg'</img></div></div>","null","FIX","","","","","","","","","","",""
"html-keyboard-response","30","144261","0.0-5.0-2.5","5f4000a47ed89c0e7f2e3760","bdp_wmem","Wed Mar 15 2023 15:00:59 GMT-0400 (Eastern Daylight Time)","633335","Match,No Match","","null","","","","","","<div class='trialBorder'><div class='vertical-center'><img style='vertical-align:center; align:center' src='img/fixation2_sml.jpg'></div><div class='arrayDiv3'><div class='tl'><img class='introPic' src='trustrating_stim/white_mw003.bmp'><br><font color='red'><strong>Keep</strong></font></div><div class='tc'><img class='introPic' src='trustrating_stim/white_mw010.bmp'><br><font color='green'><strong>Share</strong></font></div><div class='tr'><img class='introPic' src='trustrating_stim/white_mw040.bmp'><br><font color='red'><strong>Keep</strong></font></div></div></div>","null","ARRAY","3","trustrating_stim/white_mw003.bmp,trustrating_stim/white_mw010.bmp,trustrating_stim/white_mw040.bmp","0,1,0","Match","e","4500","","","","",""
"html-keyboard-response","31","148263","0.0-5.0-3.5","5f4000a47ed89c0e7f2e3760","bdp_wmem","Wed Mar 15 2023 15:00:59 GMT-0400 (Eastern Daylight Time)","633335","Match,No Match","","null","","","","","","<div class='trialBorder'><div class='vertical-center'><img src='img/fixation2_sml.jpg'</img></div></div>","null","DELAY","","","","","","","","","","",""
"html-keyboard-response","32","151342","0.0-5.0-4.5","5f4000a47ed89c0e7f2e3760","bdp_wmem","Wed Mar 15 2023 15:00:59 GMT-0400 (Eastern Daylight Time)","633335","Match,No Match","","3078","","","","","","<div class='trialBorder'><div class='targDiv'><div class='tc'><img class='introPic' src='trustrating_stim/white_mw003.bmp'><br><font color='red'><strong>Keep</strong></font></div></div><div class='respDiv'><div class='respDivL'>Match<br>(e)</div><div class='respDivR'>No Match<br>(i)</div></div></div>","e","TARGET","3","trustrating_stim/white_mw003.bmp,trustrating_stim/white_mw010.bmp,trustrating_stim/white_mw040.bmp","0,1,0","Match","e","4500","trustrating_stim/white_mw003.bmp","red","Keep","PRACTICE","1"
"html-keyboard-response","33","151843","0.0-5.0-5.5","5f4000a47ed89c0e7f2e3760","bdp_wmem","Wed Mar 15 2023 15:00:59 GMT-0400 (Eastern Daylight Time)","633335","Match,No Match","","null","","","","","","<div class='trialBorder'><div class='vertical-center'><img src='img/correct.jpg'></div><div class='respDiv'><div class='respDivL'><font style='color:orange'>Match<br>(e)</font></div><div class='respDivR'>No Match<br>(i)</div></div></div>","null","FEEDBACK","","","","","","","","","","",""
"instructions","34","157249","0.0-6.0","5f4000a47ed89c0e7f2e3760","bdp_wmem","Wed Mar 15 2023 15:00:59 GMT-0400 (Eastern Daylight Time)","633335","Match,No Match","[{""page_index"":0,""viewing_time"":5405}]","5405","","","","","","","","","","","","","","","","","","",""
"html-keyboard-response","35","157750","0.0-7.0-1.0","5f4000a47ed89c0e7f2e3760","bdp_wmem","Wed Mar 15 2023 15:00:59 GMT-0400 (Eastern Daylight Time)","633335","Match,No Match","","null","","","","","","<div class='trialBorder'><div class='vertical-center'><img src='img/fixation2_sml.jpg'</img></div></div>","null","FIX","","","","","","","","","","",""
"html-keyboard-response","36","162253","0.0-7.0-2.0","5f4000a47ed89c0e7f2e3760","bdp_wmem","Wed Mar 15 2023 15:00:59 GMT-0400 (Eastern Daylight Time)","633335","Match,No Match","","null","","","","","","<div class='trialBorder'><div class='vertical-center'><img style='vertical-align:center; align:center' src='img/fixation2_sml.jpg'></div><div class='arrayDiv3'><div class='tl'><img class='introPic' src='trustrating_stim/white_mw003.bmp'><br><font color='green'><strong>Share</strong></font></div><div class='tc'><img class='introPic' src='trustrating_stim/white_mw070.bmp'><br><font color='green'><strong>Share</strong></font></div><div class='tr'><img class='introPic' src='trustrating_stim/white_mw013.bmp'><br><font color='red'><strong>Keep</strong></font></div></div></div>","null","ARRAY","3","trustrating_stim/white_mw003.bmp,trustrating_stim/white_mw070.bmp,trustrating_stim/white_mw013.bmp","1,1,0","noMatchOutcome","i","4500","","","","",""
"html-keyboard-response","37","166254","0.0-7.0-3.0","5f4000a47ed89c0e7f2e3760","bdp_wmem","Wed Mar 15 2023 15:00:59 GMT-0400 (Eastern Daylight Time)","633335","Match,No Match","","null","","","","","","<div class='trialBorder'><div class='vertical-center'><img src='img/fixation2_sml.jpg'</img></div></div>","null","DELAY","","","","","","","","","","",""
"html-keyboard-response","38","169620","0.0-7.0-4.0","5f4000a47ed89c0e7f2e3760","bdp_wmem","Wed Mar 15 2023 15:00:59 GMT-0400 (Eastern Daylight Time)","633335","Match,No Match","","3364","","","","","","<div class='trialBorder'><div class='targDiv'><div class='tc'><img class='introPic' src='trustrating_stim/white_mw003.bmp'><br><font color='red'><strong>Keep</strong></font></div></div><div class='respDiv'><div class='respDivL'>Match<br>(e)</div><div class='respDivR'>No Match<br>(i)</div></div></div>","i","TARGET","3","trustrating_stim/white_mw003.bmp,trustrating_stim/white_mw070.bmp,trustrating_stim/white_mw013.bmp","1,1,0","noMatchOutcome","i","4500","trustrating_stim/white_mw003.bmp","red","Keep","REAL","1"
"html-keyboard-response","39","170121","0.0-7.0-5.0","5f4000a47ed89c0e7f2e3760","bdp_wmem","Wed Mar 15 2023 15:00:59 GMT-0400 (Eastern Daylight Time)","633335","Match,No Match","","null","","","","","","<div class='trialBorder'><div class='vertical-center'><img src='img/correct.jpg'></div><div class='respDiv'><div class='respDivL'>Match<br>(e)</div><div class='respDivR'><font style='color:orange'>No Match<br>(i)</font></div></div></div>","null","FEEDBACK","","","","","","","","","","",""
"html-keyboard-response","40","170623","0.0-7.0-1.1","5f4000a47ed89c0e7f2e3760","bdp_wmem","Wed Mar 15 2023 15:00:59 GMT-0400 (Eastern Daylight Time)","633335","Match,No Match","","null","","","","","","<div class='trialBorder'><div class='vertical-center'><img src='img/fixation2_sml.jpg'</img></div></div>","null","FIX","","","","","","","","","","",""
"html-keyboard-response","41","172125","0.0-7.0-2.1","5f4000a47ed89c0e7f2e3760","bdp_wmem","Wed Mar 15 2023 15:00:59 GMT-0400 (Eastern Daylight Time)","633335","Match,No Match","","null","","","","","","<div class='trialBorder'><div class='vertical-center'><img style='vertical-align:center; align:center' src='img/fixation2_sml.jpg'></div><div class='arrayDiv1'><div class='tc'><img class='introPic' src='trustrating_stim/white_mw092.bmp'><br><font color='green'><strong>Share</strong></font></div></div></div>","null","ARRAY","1","trustrating_stim/white_mw092.bmp","1","noMatchOutcome","i","1500","","","","",""
"html-keyboard-response","42","176126","0.0-7.0-3.1","5f4000a47ed89c0e7f2e3760","bdp_wmem","Wed Mar 15 2023 15:00:59 GMT-0400 (Eastern Daylight Time)","633335","Match,No Match","","null","","","","","","<div class='trialBorder'><div class='vertical-center'><img src='img/fixation2_sml.jpg'</img></div></div>","null","DELAY","","","","","","","","","","",""
"html-keyboard-response","43","178771","0.0-7.0-4.1","5f4000a47ed89c0e7f2e3760","bdp_wmem","Wed Mar 15 2023 15:00:59 GMT-0400 (Eastern Daylight Time)","633335","Match,No Match","","2644","","","","","","<div class='trialBorder'><div class='targDiv'><div class='tc'><img class='introPic' src='trustrating_stim/white_mw092.bmp'><br><font color='red'><strong>Keep</strong></font></div></div><div class='respDiv'><div class='respDivL'>Match<br>(e)</div><div class='respDivR'>No Match<br>(i)</div></div></div>","i","TARGET","1","trustrating_stim/white_mw092.bmp","1","noMatchOutcome","i","1500","trustrating_stim/white_mw092.bmp","red","Keep","REAL","1"
"html-keyboard-response","44","179272","0.0-7.0-5.1","5f4000a47ed89c0e7f2e3760","bdp_wmem","Wed Mar 15 2023 15:00:59 GMT-0400 (Eastern Daylight Time)","633335","Match,No Match","","null","","","","","","<div class='trialBorder'><div class='vertical-center'><img src='img/correct.jpg'></div><div class='respDiv'><div class='respDivL'>Match<br>(e)</div><div class='respDivR'><font style='color:orange'>No Match<br>(i)</font></div></div></div>","null","FEEDBACK","","","","","","","","","","",""
"html-keyboard-response","45","179774","0.0-7.0-1.2","5f4000a47ed89c0e7f2e3760","bdp_wmem","Wed Mar 15 2023 15:00:59 GMT-0400 (Eastern Daylight Time)","633335","Match,No Match","","null","","","","","","<div class='trialBorder'><div class='vertical-center'><img src='img/fixation2_sml.jpg'</img></div></div>","null","FIX","","","","","","","","","","",""
"html-keyboard-response","46","182776","0.0-7.0-2.2","5f4000a47ed89c0e7f2e3760","bdp_wmem","Wed Mar 15 2023 15:00:59 GMT-0400 (Eastern Daylight Time)","633335","Match,No Match","","null","","","","","","<div class='trialBorder'><div class='vertical-center'><img style='vertical-align:center; align:center' src='img/fixation2_sml.jpg'></div><div class='arrayDiv2'><div class='tl'><img class='introPic' src='trustrating_stim/white_mw085.bmp'><br><font color='green'><strong>Share</strong></font></div><div class='tr'><img class='introPic' src='trustrating_stim/white_mw042.bmp'><br><font color='red'><strong>Keep</strong></font></div></div></div>","null","ARRAY","2","trustrating_stim/white_mw085.bmp,trustrating_stim/white_mw042.bmp","1,0","Match","e","3000","","","","",""
"html-keyboard-response","47","186777","0.0-7.0-3.2","5f4000a47ed89c0e7f2e3760","bdp_wmem","Wed Mar 15 2023 15:00:59 GMT-0400 (Eastern Daylight Time)","633335","Match,No Match","","null","","","","","","<div class='trialBorder'><div class='vertical-center'><img src='img/fixation2_sml.jpg'</img></div></div>","null","DELAY","","","","","","","","","","",""
"html-keyboard-response","48","188480","0.0-7.0-4.2","5f4000a47ed89c0e7f2e3760","bdp_wmem","Wed Mar 15 2023 15:00:59 GMT-0400 (Eastern Daylight Time)","633335","Match,No Match","","1701","","","","","","<div class='trialBorder'><div class='targDiv'><div class='tc'><img class='introPic' src='trustrating_stim/white_mw085.bmp'><br><font color='green'><strong>Share</strong></font></div></div><div class='respDiv'><div class='respDivL'>Match<br>(e)</div><div class='respDivR'>No Match<br>(i)</div></div></div>","e","TARGET","2","trustrating_stim/white_mw085.bmp,trustrating_stim/white_mw042.bmp","1,0","Match","e","3000","trustrating_stim/white_mw085.bmp","green","Share","REAL","1"
"html-keyboard-response","49","188980","0.0-7.0-5.2","5f4000a47ed89c0e7f2e3760","bdp_wmem","Wed Mar 15 2023 15:00:59 GMT-0400 (Eastern Daylight Time)","633335","Match,No Match","","null","","","","","","<div class='trialBorder'><div class='vertical-center'><img src='img/correct.jpg'></div><div class='respDiv'><div class='respDivL'><font style='color:orange'>Match<br>(e)</font></div><div class='respDivR'>No Match<br>(i)</div></div></div>","null","FEEDBACK","","","","","","","","","","",""
"html-keyboard-response","50","189483","0.0-7.0-1.3","5f4000a47ed89c0e7f2e3760","bdp_wmem","Wed Mar 15 2023 15:00:59 GMT-0400 (Eastern Daylight Time)","633335","Match,No Match","","null","","","","","","<div class='trialBorder'><div class='vertical-center'><img src='img/fixation2_sml.jpg'</img></div></div>","null","FIX","","","","","","","","","","",""
"html-keyboard-response","51","193985","0.0-7.0-2.3","5f4000a47ed89c0e7f2e3760","bdp_wmem","Wed Mar 15 2023 15:00:59 GMT-0400 (Eastern Daylight Time)","633335","Match,No Match","","null","","","","","","<div class='trialBorder'><div class='vertical-center'><img style='vertical-align:center; align:center' src='img/fixation2_sml.jpg'></div><div class='arrayDiv3'><div class='tl'><img class='introPic' src='trustrating_stim/white_mw038.bmp'><br><font color='red'><strong>Keep</strong></font></div><div class='tc'><img class='introPic' src='trustrating_stim/white_mw010.bmp'><br><font color='green'><strong>Share</strong></font></div><div class='tr'><img class='introPic' src='trustrating_stim/white_mw042.bmp'><br><font color='red'><strong>Keep</strong></font></div></div></div>","null","ARRAY","3","trustrating_stim/white_mw038.bmp,trustrating_stim/white_mw010.bmp,trustrating_stim/white_mw042.bmp","0,1,0","noMatchFace","i","4500","","","","",""
"html-keyboard-response","52","197986","0.0-7.0-3.3","5f4000a47ed89c0e7f2e3760","bdp_wmem","Wed Mar 15 2023 15:00:59 GMT-0400 (Eastern Daylight Time)","633335","Match,No Match","","null","","","","","","<div class='trialBorder'><div class='vertical-center'><img src='img/fixation2_sml.jpg'</img></div></div>","null","DELAY","","","","","","","","","","",""
"html-keyboard-response","53","201908","0.0-7.0-4.3","5f4000a47ed89c0e7f2e3760","bdp_wmem","Wed Mar 15 2023 15:00:59 GMT-0400 (Eastern Daylight Time)","633335","Match,No Match","","3920","","","","","","<div class='trialBorder'><div class='targDiv'><div class='tc'><img class='introPic' src='trustrating_stim/white_mw092.bmp'><br><font color='red'><strong>Keep</strong></font></div></div><div class='respDiv'><div class='respDivL'>Match<br>(e)</div><div class='respDivR'>No Match<br>(i)</div></div></div>","i","TARGET","3","trustrating_stim/white_mw038.bmp,trustrating_stim/white_mw010.bmp,trustrating_stim/white_mw042.bmp","0,1,0","noMatchFace","i","4500","trustrating_stim/white_mw092.bmp","red","Keep","REAL","1"
"html-keyboard-response","54","202409","0.0-7.0-5.3","5f4000a47ed89c0e7f2e3760","bdp_wmem","Wed Mar 15 2023 15:00:59 GMT-0400 (Eastern Daylight Time)","633335","Match,No Match","","null","","","","","","<div class='trialBorder'><div class='vertical-center'><img src='img/correct.jpg'></div><div class='respDiv'><div class='respDivL'>Match<br>(e)</div><div class='respDivR'><font style='color:orange'>No Match<br>(i)</font></div></div></div>","null","FEEDBACK","","","","","","","","","","",""
"html-keyboard-response","55","202910","0.0-7.0-1.4","5f4000a47ed89c0e7f2e3760","bdp_wmem","Wed Mar 15 2023 15:00:59 GMT-0400 (Eastern Daylight Time)","633335","Match,No Match","","null","","","","","","<div class='trialBorder'><div class='vertical-center'><img src='img/fixation2_sml.jpg'</img></div></div>","null","FIX","","","","","","","","","","",""
"html-keyboard-response","56","204412","0.0-7.0-2.4","5f4000a47ed89c0e7f2e3760","bdp_wmem","Wed Mar 15 2023 15:00:59 GMT-0400 (Eastern Daylight Time)","633335","Match,No Match","","null","","","","","","<div class='trialBorder'><div class='vertical-center'><img style='vertical-align:center; align:center' src='img/fixation2_sml.jpg'></div><div class='arrayDiv1'><div class='tc'><img class='introPic' src='trustrating_stim/white_mw085.bmp'><br><font color='green'><strong>Share</strong></font></div></div></div>","null","ARRAY","1","trustrating_stim/white_mw085.bmp","1","noMatchOutcome","i","1500","","","","",""
"html-keyboard-response","57","208413","0.0-7.0-3.4","5f4000a47ed89c0e7f2e3760","bdp_wmem","Wed Mar 15 2023 15:00:59 GMT-0400 (Eastern Daylight Time)","633335","Match,No Match","","null","","","","","","<div class='trialBorder'><div class='vertical-center'><img src='img/fixation2_sml.jpg'</img></div></div>","null","DELAY","","","","","","","","","","",""
"html-keyboard-response","58","210189","0.0-7.0-4.4","5f4000a47ed89c0e7f2e3760","bdp_wmem","Wed Mar 15 2023 15:00:59 GMT-0400 (Eastern Daylight Time)","633335","Match,No Match","","1776","","","","","","<div class='trialBorder'><div class='targDiv'><div class='tc'><img class='introPic' src='trustrating_stim/white_mw085.bmp'><br><font color='red'><strong>Keep</strong></font></div></div><div class='respDiv'><div class='respDivL'>Match<br>(e)</div><div class='respDivR'>No Match<br>(i)</div></div></div>","i","TARGET","1","trustrating_stim/white_mw085.bmp","1","noMatchOutcome","i","1500","trustrating_stim/white_mw085.bmp","red","Keep","REAL","1"
"html-keyboard-response","59","210691","0.0-7.0-5.4","5f4000a47ed89c0e7f2e3760","bdp_wmem","Wed Mar 15 2023 15:00:59 GMT-0400 (Eastern Daylight Time)","633335","Match,No Match","","null","","","","","","<div class='trialBorder'><div class='vertical-center'><img src='img/correct.jpg'></div><div class='respDiv'><div class='respDivL'>Match<br>(e)</div><div class='respDivR'><font style='color:orange'>No Match<br>(i)</font></div></div></div>","null","FEEDBACK","","","","","","","","","","",""
"html-keyboard-response","60","211192","0.0-7.0-1.5","5f4000a47ed89c0e7f2e3760","bdp_wmem","Wed Mar 15 2023 15:00:59 GMT-0400 (Eastern Daylight Time)","633335","Match,No Match","","null","","","","","","<div class='trialBorder'><div class='vertical-center'><img src='img/fixation2_sml.jpg'</img></div></div>","null","FIX","","","","","","","","","","",""
"html-keyboard-response","61","215695","0.0-7.0-2.5","5f4000a47ed89c0e7f2e3760","bdp_wmem","Wed Mar 15 2023 15:00:59 GMT-0400 (Eastern Daylight Time)","633335","Match,No Match","","null","","","","","","<div class='trialBorder'><div class='vertical-center'><img style='vertical-align:center; align:center' src='img/fixation2_sml.jpg'></div><div class='arrayDiv3'><div class='tl'><img class='introPic' src='trustrating_stim/white_mw092.bmp'><br><font color='green'><strong>Share</strong></font></div><div class='tc'><img class='introPic' src='trustrating_stim/white_mw003.bmp'><br><font color='red'><strong>Keep</strong></font></div><div class='tr'><img class='introPic' src='trustrating_stim/white_mw078.bmp'><br><font color='red'><strong>Keep</strong></font></div></div></div>","null","ARRAY","3","trustrating_stim/white_mw092.bmp,trustrating_stim/white_mw003.bmp,trustrating_stim/white_mw078.bmp","1,0,0","Match","e","4500","","","","",""
"html-keyboard-response","62","219697","0.0-7.0-3.5","5f4000a47ed89c0e7f2e3760","bdp_wmem","Wed Mar 15 2023 15:00:59 GMT-0400 (Eastern Daylight Time)","633335","Match,No Match","","null","","","","","","<div class='trialBorder'><div class='vertical-center'><img src='img/fixation2_sml.jpg'</img></div></div>","null","DELAY","","","","","","","","","","",""
"html-keyboard-response","63","220871","0.0-7.0-4.5","5f4000a47ed89c0e7f2e3760","bdp_wmem","Wed Mar 15 2023 15:00:59 GMT-0400 (Eastern Daylight Time)","633335","Match,No Match","","1173","","","","","","<div class='trialBorder'><div class='targDiv'><div class='tc'><img class='introPic' src='trustrating_stim/white_mw092.bmp'><br><font color='green'><strong>Share</strong></font></div></div><div class='respDiv'><div class='respDivL'>Match<br>(e)</div><div class='respDivR'>No Match<br>(i)</div></div></div>","e","TARGET","3","trustrating_stim/white_mw092.bmp,trustrating_stim/white_mw003.bmp,trustrating_stim/white_mw078.bmp","1,0,0","Match","e","4500","trustrating_stim/white_mw092.bmp","green","Share","REAL","1"
"html-keyboard-response","64","221372","0.0-7.0-5.5","5f4000a47ed89c0e7f2e3760","bdp_wmem","Wed Mar 15 2023 15:00:59 GMT-0400 (Eastern Daylight Time)","633335","Match,No Match","","null","","","","","","<div class='trialBorder'><div class='vertical-center'><img src='img/correct.jpg'></div><div class='respDiv'><div class='respDivL'><font style='color:orange'>Match<br>(e)</font></div><div class='respDivR'>No Match<br>(i)</div></div></div>","null","FEEDBACK","","","","","","","","","","",""
"html-keyboard-response","65","221874","0.0-7.0-1.6","5f4000a47ed89c0e7f2e3760","bdp_wmem","Wed Mar 15 2023 15:00:59 GMT-0400 (Eastern Daylight Time)","633335","Match,No Match","","null","","","","","","<div class='trialBorder'><div class='vertical-center'><img src='img/fixation2_sml.jpg'</img></div></div>","null","FIX","","","","","","","","","","",""
"html-keyboard-response","66","226376","0.0-7.0-2.6","5f4000a47ed89c0e7f2e3760","bdp_wmem","Wed Mar 15 2023 15:00:59 GMT-0400 (Eastern Daylight Time)","633335","Match,No Match","","null","","","","","","<div class='trialBorder'><div class='vertical-center'><img style='vertical-align:center; align:center' src='img/fixation2_sml.jpg'></div><div class='arrayDiv3'><div class='tl'><img class='introPic' src='trustrating_stim/white_mw070.bmp'><br><font color='green'><strong>Share</strong></font></div><div class='tc'><img class='introPic' src='trustrating_stim/white_mw040.bmp'><br><font color='green'><strong>Share</strong></font></div><div class='tr'><img class='introPic' src='trustrating_stim/white_mw013.bmp'><br><font color='red'><strong>Keep</strong></font></div></div></div>","null","ARRAY","3","trustrating_stim/white_mw070.bmp,trustrating_stim/white_mw040.bmp,trustrating_stim/white_mw013.bmp","1,1,0","Match","e","4500","","","","",""
"html-keyboard-response","67","230377","0.0-7.0-3.6","5f4000a47ed89c0e7f2e3760","bdp_wmem","Wed Mar 15 2023 15:00:59 GMT-0400 (Eastern Daylight Time)","633335","Match,No Match","","null","","","","","","<div class='trialBorder'><div class='vertical-center'><img src='img/fixation2_sml.jpg'</img></div></div>","null","DELAY","","","","","","","","","","",""
"html-keyboard-response","68","233084","0.0-7.0-4.6","5f4000a47ed89c0e7f2e3760","bdp_wmem","Wed Mar 15 2023 15:00:59 GMT-0400 (Eastern Daylight Time)","633335","Match,No Match","","2706","","","","","","<div class='trialBorder'><div class='targDiv'><div class='tc'><img class='introPic' src='trustrating_stim/white_mw070.bmp'><br><font color='green'><strong>Share</strong></font></div></div><div class='respDiv'><div class='respDivL'>Match<br>(e)</div><div class='respDivR'>No Match<br>(i)</div></div></div>","e","TARGET","3","trustrating_stim/white_mw070.bmp,trustrating_stim/white_mw040.bmp,trustrating_stim/white_mw013.bmp","1,1,0","Match","e","4500","trustrating_stim/white_mw070.bmp","green","Share","REAL","1"
"html-keyboard-response","69","233586","0.0-7.0-5.6","5f4000a47ed89c0e7f2e3760","bdp_wmem","Wed Mar 15 2023 15:00:59 GMT-0400 (Eastern Daylight Time)","633335","Match,No Match","","null","","","","","","<div class='trialBorder'><div class='vertical-center'><img src='img/correct.jpg'></div><div class='respDiv'><div class='respDivL'><font style='color:orange'>Match<br>(e)</font></div><div class='respDivR'>No Match<br>(i)</div></div></div>","null","FEEDBACK","","","","","","","","","","",""
"html-keyboard-response","70","234088","0.0-7.0-1.7","5f4000a47ed89c0e7f2e3760","bdp_wmem","Wed Mar 15 2023 15:00:59 GMT-0400 (Eastern Daylight Time)","633335","Match,No Match","","null","","","","","","<div class='trialBorder'><div class='vertical-center'><img src='img/fixation2_sml.jpg'</img></div></div>","null","FIX","","","","","","","","","","",""
"html-keyboard-response","71","237089","0.0-7.0-2.7","5f4000a47ed89c0e7f2e3760","bdp_wmem","Wed Mar 15 2023 15:00:59 GMT-0400 (Eastern Daylight Time)","633335","Match,No Match","","null","","","","","","<div class='trialBorder'><div class='vertical-center'><img style='vertical-align:center; align:center' src='img/fixation2_sml.jpg'></div><div class='arrayDiv2'><div class='tl'><img class='introPic' src='trustrating_stim/white_mw092.bmp'><br><font color='red'><strong>Keep</strong></font></div><div class='tr'><img class='introPic' src='trustrating_stim/white_mw038.bmp'><br><font color='green'><strong>Share</strong></font></div></div></div>","null","ARRAY","2","trustrating_stim/white_mw092.bmp,trustrating_stim/white_mw038.bmp","0,1","Match","e","3000","","","","",""
"html-keyboard-response","72","241091","0.0-7.0-3.7","5f4000a47ed89c0e7f2e3760","bdp_wmem","Wed Mar 15 2023 15:00:59 GMT-0400 (Eastern Daylight Time)","633335","Match,No Match","","null","","","","","","<div class='trialBorder'><div class='vertical-center'><img src='img/fixation2_sml.jpg'</img></div></div>","null","DELAY","","","","","","","","","","",""
"html-keyboard-response","73","242406","0.0-7.0-4.7","5f4000a47ed89c0e7f2e3760","bdp_wmem","Wed Mar 15 2023 15:00:59 GMT-0400 (Eastern Daylight Time)","633335","Match,No Match","","1314","","","","","","<div class='trialBorder'><div class='targDiv'><div class='tc'><img class='introPic' src='trustrating_stim/white_mw038.bmp'><br><font color='green'><strong>Share</strong></font></div></div><div class='respDiv'><div class='respDivL'>Match<br>(e)</div><div class='respDivR'>No Match<br>(i)</div></div></div>","e","TARGET","2","trustrating_stim/white_mw092.bmp,trustrating_stim/white_mw038.bmp","0,1","Match","e","3000","trustrating_stim/white_mw038.bmp","green","Share","REAL","1"
"html-keyboard-response","74","242907","0.0-7.0-5.7","5f4000a47ed89c0e7f2e3760","bdp_wmem","Wed Mar 15 2023 15:00:59 GMT-0400 (Eastern Daylight Time)","633335","Match,No Match","","null","","","","","","<div class='trialBorder'><div class='vertical-center'><img src='img/correct.jpg'></div><div class='respDiv'><div class='respDivL'><font style='color:orange'>Match<br>(e)</font></div><div class='respDivR'>No Match<br>(i)</div></div></div>","null","FEEDBACK","","","","","","","","","","",""
"html-keyboard-response","75","243409","0.0-7.0-1.8","5f4000a47ed89c0e7f2e3760","bdp_wmem","Wed Mar 15 2023 15:00:59 GMT-0400 (Eastern Daylight Time)","633335","Match,No Match","","null","","","","","","<div class='trialBorder'><div class='vertical-center'><img src='img/fixation2_sml.jpg'</img></div></div>","null","FIX","","","","","","","","","","",""
"html-keyboard-response","76","247911","0.0-7.0-2.8","5f4000a47ed89c0e7f2e3760","bdp_wmem","Wed Mar 15 2023 15:00:59 GMT-0400 (Eastern Daylight Time)","633335","Match,No Match","","null","","","","","","<div class='trialBorder'><div class='vertical-center'><img style='vertical-align:center; align:center' src='img/fixation2_sml.jpg'></div><div class='arrayDiv3'><div class='tl'><img class='introPic' src='trustrating_stim/white_mw091.bmp'><br><font color='red'><strong>Keep</strong></font></div><div class='tc'><img class='introPic' src='trustrating_stim/white_mw070.bmp'><br><font color='green'><strong>Share</strong></font></div><div class='tr'><img class='introPic' src='trustrating_stim/white_mw092.bmp'><br><font color='red'><strong>Keep</strong></font></div></div></div>","null","ARRAY","3","trustrating_stim/white_mw091.bmp,trustrating_stim/white_mw070.bmp,trustrating_stim/white_mw092.bmp","0,1,0","Match","e","4500","","","","",""
"html-keyboard-response","77","251912","0.0-7.0-3.8","5f4000a47ed89c0e7f2e3760","bdp_wmem","Wed Mar 15 2023 15:00:59 GMT-0400 (Eastern Daylight Time)","633335","Match,No Match","","null","","","","","","<div class='trialBorder'><div class='vertical-center'><img src='img/fixation2_sml.jpg'</img></div></div>","null","DELAY","","","","","","","","","","",""
"html-keyboard-response","78","255026","0.0-7.0-4.8","5f4000a47ed89c0e7f2e3760","bdp_wmem","Wed Mar 15 2023 15:00:59 GMT-0400 (Eastern Daylight Time)","633335","Match,No Match","","3114","","","","","","<div class='trialBorder'><div class='targDiv'><div class='tc'><img class='introPic' src='trustrating_stim/white_mw092.bmp'><br><font color='red'><strong>Keep</strong></font></div></div><div class='respDiv'><div class='respDivL'>Match<br>(e)</div><div class='respDivR'>No Match<br>(i)</div></div></div>","i","TARGET","3","trustrating_stim/white_mw091.bmp,trustrating_stim/white_mw070.bmp,trustrating_stim/white_mw092.bmp","0,1,0","Match","e","4500","trustrating_stim/white_mw092.bmp","red","Keep","REAL","0"
"html-keyboard-response","79","255528","0.0-7.0-5.8","5f4000a47ed89c0e7f2e3760","bdp_wmem","Wed Mar 15 2023 15:00:59 GMT-0400 (Eastern Daylight Time)","633335","Match,No Match","","null","","","","","","<div class='trialBorder'><div class='vertical-center'><img src='img/error.jpg'></div><div class='respDiv'><div class='respDivL'>Match<br>(e)</div><div class='respDivR'><font style='color:orange'>No Match<br>(i)</font></div></div></div>","null","FEEDBACK","","","","","","","","","","",""
"html-keyboard-response","80","256030","0.0-7.0-1.9","5f4000a47ed89c0e7f2e3760","bdp_wmem","Wed Mar 15 2023 15:00:59 GMT-0400 (Eastern Daylight Time)","633335","Match,No Match","","null","","","","","","<div class='trialBorder'><div class='vertical-center'><img src='img/fixation2_sml.jpg'</img></div></div>","null","FIX","","","","","","","","","","",""
"html-keyboard-response","81","260531","0.0-7.0-2.9","5f4000a47ed89c0e7f2e3760","bdp_wmem","Wed Mar 15 2023 15:00:59 GMT-0400 (Eastern Daylight Time)","633335","Match,No Match","","null","","","","","","<div class='trialBorder'><div class='vertical-center'><img style='vertical-align:center; align:center' src='img/fixation2_sml.jpg'></div><div class='arrayDiv3'><div class='tl'><img class='introPic' src='trustrating_stim/white_mw091.bmp'><br><font color='red'><strong>Keep</strong></font></div><div class='tc'><img class='introPic' src='trustrating_stim/white_mw078.bmp'><br><font color='green'><strong>Share</strong></font></div><div class='tr'><img class='introPic' src='trustrating_stim/white_mw010.bmp'><br><font color='green'><strong>Share</strong></font></div></div></div>","null","ARRAY","3","trustrating_stim/white_mw091.bmp,trustrating_stim/white_mw078.bmp,trustrating_stim/white_mw010.bmp","0,1,1","noMatchOutcome","i","4500","","","","",""
"html-keyboard-response","82","264533","0.0-7.0-3.9","5f4000a47ed89c0e7f2e3760","bdp_wmem","Wed Mar 15 2023 15:00:59 GMT-0400 (Eastern Daylight Time)","633335","Match,No Match","","null","","","","","","<div class='trialBorder'><div class='vertical-center'><img src='img/fixation2_sml.jpg'</img></div></div>","null","DELAY","","","","","","","","","","",""
"html-keyboard-response","83","266181","0.0-7.0-4.9","5f4000a47ed89c0e7f2e3760","bdp_wmem","Wed Mar 15 2023 15:00:59 GMT-0400 (Eastern Daylight Time)","633335","Match,No Match","","1647","","","","","","<div class='trialBorder'><div class='targDiv'><div class='tc'><img class='introPic' src='trustrating_stim/white_mw078.bmp'><br><font color='red'><strong>Keep</strong></font></div></div><div class='respDiv'><div class='respDivL'>Match<br>(e)</div><div class='respDivR'>No Match<br>(i)</div></div></div>","i","TARGET","3","trustrating_stim/white_mw091.bmp,trustrating_stim/white_mw078.bmp,trustrating_stim/white_mw010.bmp","0,1,1","noMatchOutcome","i","4500","trustrating_stim/white_mw078.bmp","red","Keep","REAL","1"
"html-keyboard-response","84","266682","0.0-7.0-5.9","5f4000a47ed89c0e7f2e3760","bdp_wmem","Wed Mar 15 2023 15:00:59 GMT-0400 (Eastern Daylight Time)","633335","Match,No Match","","null","","","","","","<div class='trialBorder'><div class='vertical-center'><img src='img/correct.jpg'></div><div class='respDiv'><div class='respDivL'>Match<br>(e)</div><div class='respDivR'><font style='color:orange'>No Match<br>(i)</font></div></div></div>","null","FEEDBACK","","","","","","","","","","",""
"html-keyboard-response","85","267185","0.0-7.0-1.10","5f4000a47ed89c0e7f2e3760","bdp_wmem","Wed Mar 15 2023 15:00:59 GMT-0400 (Eastern Daylight Time)","633335","Match,No Match","","null","","","","","","<div class='trialBorder'><div class='vertical-center'><img src='img/fixation2_sml.jpg'</img></div></div>","null","FIX","","","","","","","","","","",""
"html-keyboard-response","86","271686","0.0-7.0-2.10","5f4000a47ed89c0e7f2e3760","bdp_wmem","Wed Mar 15 2023 15:00:59 GMT-0400 (Eastern Daylight Time)","633335","Match,No Match","","null","","","","","","<div class='trialBorder'><div class='vertical-center'><img style='vertical-align:center; align:center' src='img/fixation2_sml.jpg'></div><div class='arrayDiv3'><div class='tl'><img class='introPic' src='trustrating_stim/white_mw085.bmp'><br><font color='red'><strong>Keep</strong></font></div><div class='tc'><img class='introPic' src='trustrating_stim/white_mw003.bmp'><br><font color='green'><strong>Share</strong></font></div><div class='tr'><img class='introPic' src='trustrating_stim/white_mw092.bmp'><br><font color='green'><strong>Share</strong></font></div></div></div>","null","ARRAY","3","trustrating_stim/white_mw085.bmp,trustrating_stim/white_mw003.bmp,trustrating_stim/white_mw092.bmp","0,1,1","noMatchOutcome","i","4500","","","","",""
"html-keyboard-response","87","275688","0.0-7.0-3.10","5f4000a47ed89c0e7f2e3760","bdp_wmem","Wed Mar 15 2023 15:00:59 GMT-0400 (Eastern Daylight Time)","633335","Match,No Match","","null","","","","","","<div class='trialBorder'><div class='vertical-center'><img src='img/fixation2_sml.jpg'</img></div></div>","null","DELAY","","","","","","","","","","",""
"html-keyboard-response","88","277389","0.0-7.0-4.10","5f4000a47ed89c0e7f2e3760","bdp_wmem","Wed Mar 15 2023 15:00:59 GMT-0400 (Eastern Daylight Time)","633335","Match,No Match","","1700","","","","","","<div class='trialBorder'><div class='targDiv'><div class='tc'><img class='introPic' src='trustrating_stim/white_mw003.bmp'><br><font color='red'><strong>Keep</strong></font></div></div><div class='respDiv'><div class='respDivL'>Match<br>(e)</div><div class='respDivR'>No Match<br>(i)</div></div></div>","i","TARGET","3","trustrating_stim/white_mw085.bmp,trustrating_stim/white_mw003.bmp,trustrating_stim/white_mw092.bmp","0,1,1","noMatchOutcome","i","4500","trustrating_stim/white_mw003.bmp","red","Keep","REAL","1"
"html-keyboard-response","89","277893","0.0-7.0-5.10","5f4000a47ed89c0e7f2e3760","bdp_wmem","Wed Mar 15 2023 15:00:59 GMT-0400 (Eastern Daylight Time)","633335","Match,No Match","","null","","","","","","<div class='trialBorder'><div class='vertical-center'><img src='img/correct.jpg'></div><div class='respDiv'><div class='respDivL'>Match<br>(e)</div><div class='respDivR'><font style='color:orange'>No Match<br>(i)</font></div></div></div>","null","FEEDBACK","","","","","","","","","","",""
"html-keyboard-response","90","278395","0.0-7.0-1.11","5f4000a47ed89c0e7f2e3760","bdp_wmem","Wed Mar 15 2023 15:00:59 GMT-0400 (Eastern Daylight Time)","633335","Match,No Match","","null","","","","","","<div class='trialBorder'><div class='vertical-center'><img src='img/fixation2_sml.jpg'</img></div></div>","null","FIX","","","","","","","","","","",""
"html-keyboard-response","91","281397","0.0-7.0-2.11","5f4000a47ed89c0e7f2e3760","bdp_wmem","Wed Mar 15 2023 15:00:59 GMT-0400 (Eastern Daylight Time)","633335","Match,No Match","","null","","","","","","<div class='trialBorder'><div class='vertical-center'><img style='vertical-align:center; align:center' src='img/fixation2_sml.jpg'></div><div class='arrayDiv2'><div class='tl'><img class='introPic' src='trustrating_stim/white_mw012.bmp'><br><font color='red'><strong>Keep</strong></font></div><div class='tr'><img class='introPic' src='trustrating_stim/white_mw038.bmp'><br><font color='green'><strong>Share</strong></font></div></div></div>","null","ARRAY","2","trustrating_stim/white_mw012.bmp,trustrating_stim/white_mw038.bmp","0,1","Match","e","3000","","","","",""
"html-keyboard-response","92","285398","0.0-7.0-3.11","5f4000a47ed89c0e7f2e3760","bdp_wmem","Wed Mar 15 2023 15:00:59 GMT-0400 (Eastern Daylight Time)","633335","Match,No Match","","null","","","","","","<div class='trialBorder'><div class='vertical-center'><img src='img/fixation2_sml.jpg'</img></div></div>","null","DELAY","","","","","","","","","","",""
"html-keyboard-response","93","288411","0.0-7.0-4.11","5f4000a47ed89c0e7f2e3760","bdp_wmem","Wed Mar 15 2023 15:00:59 GMT-0400 (Eastern Daylight Time)","633335","Match,No Match","","3012","","","","","","<div class='trialBorder'><div class='targDiv'><div class='tc'><img class='introPic' src='trustrating_stim/white_mw038.bmp'><br><font color='green'><strong>Share</strong></font></div></div><div class='respDiv'><div class='respDivL'>Match<br>(e)</div><div class='respDivR'>No Match<br>(i)</div></div></div>","e","TARGET","2","trustrating_stim/white_mw012.bmp,trustrating_stim/white_mw038.bmp","0,1","Match","e","3000","trustrating_stim/white_mw038.bmp","green","Share","REAL","1"
"html-keyboard-response","94","288912","0.0-7.0-5.11","5f4000a47ed89c0e7f2e3760","bdp_wmem","Wed Mar 15 2023 15:00:59 GMT-0400 (Eastern Daylight Time)","633335","Match,No Match","","null","","","","","","<div class='trialBorder'><div class='vertical-center'><img src='img/correct.jpg'></div><div class='respDiv'><div class='respDivL'><font style='color:orange'>Match<br>(e)</font></div><div class='respDivR'>No Match<br>(i)</div></div></div>","null","FEEDBACK","","","","","","","","","","",""
"html-keyboard-response","95","289414","0.0-7.0-1.12","5f4000a47ed89c0e7f2e3760","bdp_wmem","Wed Mar 15 2023 15:00:59 GMT-0400 (Eastern Daylight Time)","633335","Match,No Match","","null","","","","","","<div class='trialBorder'><div class='vertical-center'><img src='img/fixation2_sml.jpg'</img></div></div>","null","FIX","","","","","","","","","","",""
"html-keyboard-response","96","290916","0.0-7.0-2.12","5f4000a47ed89c0e7f2e3760","bdp_wmem","Wed Mar 15 2023 15:00:59 GMT-0400 (Eastern Daylight Time)","633335","Match,No Match","","null","","","","","","<div class='trialBorder'><div class='vertical-center'><img style='vertical-align:center; align:center' src='img/fixation2_sml.jpg'></div><div class='arrayDiv1'><div class='tc'><img class='introPic' src='trustrating_stim/white_mw042.bmp'><br><font color='red'><strong>Keep</strong></font></div></div></div>","null","ARRAY","1","trustrating_stim/white_mw042.bmp","0","Match","e","1500","","","","",""
"html-keyboard-response","97","294918","0.0-7.0-3.12","5f4000a47ed89c0e7f2e3760","bdp_wmem","Wed Mar 15 2023 15:00:59 GMT-0400 (Eastern Daylight Time)","633335","Match,No Match","","null","","","","","","<div class='trialBorder'><div class='vertical-center'><img src='img/fixation2_sml.jpg'</img></div></div>","null","DELAY","","","","","","","","","","",""
"html-keyboard-response","98","296227","0.0-7.0-4.12","5f4000a47ed89c0e7f2e3760","bdp_wmem","Wed Mar 15 2023 15:00:59 GMT-0400 (Eastern Daylight Time)","633335","Match,No Match","","1309","","","","","","<div class='trialBorder'><div class='targDiv'><div class='tc'><img class='introPic' src='trustrating_stim/white_mw042.bmp'><br><font color='red'><strong>Keep</strong></font></div></div><div class='respDiv'><div class='respDivL'>Match<br>(e)</div><div class='respDivR'>No Match<br>(i)</div></div></div>","e","TARGET","1","trustrating_stim/white_mw042.bmp","0","Match","e","1500","trustrating_stim/white_mw042.bmp","red","Keep","REAL","1"
"html-keyboard-response","99","296728","0.0-7.0-5.12","5f4000a47ed89c0e7f2e3760","bdp_wmem","Wed Mar 15 2023 15:00:59 GMT-0400 (Eastern Daylight Time)","633335","Match,No Match","","null","","","","","","<div class='trialBorder'><div class='vertical-center'><img src='img/correct.jpg'></div><div class='respDiv'><div class='respDivL'><font style='color:orange'>Match<br>(e)</font></div><div class='respDivR'>No Match<br>(i)</div></div></div>","null","FEEDBACK","","","","","","","","","","",""
"html-keyboard-response","100","297229","0.0-7.0-1.13","5f4000a47ed89c0e7f2e3760","bdp_wmem","Wed Mar 15 2023 15:00:59 GMT-0400 (Eastern Daylight Time)","633335","Match,No Match","","null","","","","","","<div class='trialBorder'><div class='vertical-center'><img src='img/fixation2_sml.jpg'</img></div></div>","null","FIX","","","","","","","","","","",""
"html-keyboard-response","101","300231","0.0-7.0-2.13","5f4000a47ed89c0e7f2e3760","bdp_wmem","Wed Mar 15 2023 15:00:59 GMT-0400 (Eastern Daylight Time)","633335","Match,No Match","","null","","","","","","<div class='trialBorder'><div class='vertical-center'><img style='vertical-align:center; align:center' src='img/fixation2_sml.jpg'></div><div class='arrayDiv2'><div class='tl'><img class='introPic' src='trustrating_stim/white_mw091.bmp'><br><font color='green'><strong>Share</strong></font></div><div class='tr'><img class='introPic' src='trustrating_stim/white_mw040.bmp'><br><font color='red'><strong>Keep</strong></font></div></div></div>","null","ARRAY","2","trustrating_stim/white_mw091.bmp,trustrating_stim/white_mw040.bmp","1,0","Match","e","3000","","","","",""
"html-keyboard-response","102","304232","0.0-7.0-3.13","5f4000a47ed89c0e7f2e3760","bdp_wmem","Wed Mar 15 2023 15:00:59 GMT-0400 (Eastern Daylight Time)","633335","Match,No Match","","null","","","","","","<div class='trialBorder'><div class='vertical-center'><img src='img/fixation2_sml.jpg'</img></div></div>","null","DELAY","","","","","","","","","","",""
"html-keyboard-response","103","305828","0.0-7.0-4.13","5f4000a47ed89c0e7f2e3760","bdp_wmem","Wed Mar 15 2023 15:00:59 GMT-0400 (Eastern Daylight Time)","633335","Match,No Match","","1596","","","","","","<div class='trialBorder'><div class='targDiv'><div class='tc'><img class='introPic' src='trustrating_stim/white_mw091.bmp'><br><font color='green'><strong>Share</strong></font></div></div><div class='respDiv'><div class='respDivL'>Match<br>(e)</div><div class='respDivR'>No Match<br>(i)</div></div></div>","e","TARGET","2","trustrating_stim/white_mw091.bmp,trustrating_stim/white_mw040.bmp","1,0","Match","e","3000","trustrating_stim/white_mw091.bmp","green","Share","REAL","1"
"html-keyboard-response","104","306329","0.0-7.0-5.13","5f4000a47ed89c0e7f2e3760","bdp_wmem","Wed Mar 15 2023 15:00:59 GMT-0400 (Eastern Daylight Time)","633335","Match,No Match","","null","","","","","","<div class='trialBorder'><div class='vertical-center'><img src='img/correct.jpg'></div><div class='respDiv'><div class='respDivL'><font style='color:orange'>Match<br>(e)</font></div><div class='respDivR'>No Match<br>(i)</div></div></div>","null","FEEDBACK","","","","","","","","","","",""
"html-keyboard-response","105","306830","0.0-7.0-1.14","5f4000a47ed89c0e7f2e3760","bdp_wmem","Wed Mar 15 2023 15:00:59 GMT-0400 (Eastern Daylight Time)","633335","Match,No Match","","null","","","","","","<div class='trialBorder'><div class='vertical-center'><img src='img/fixation2_sml.jpg'</img></div></div>","null","FIX","","","","","","","","","","",""
"html-keyboard-response","106","309832","0.0-7.0-2.14","5f4000a47ed89c0e7f2e3760","bdp_wmem","Wed Mar 15 2023 15:00:59 GMT-0400 (Eastern Daylight Time)","633335","Match,No Match","","null","","","","","","<div class='trialBorder'><div class='vertical-center'><img style='vertical-align:center; align:center' src='img/fixation2_sml.jpg'></div><div class='arrayDiv2'><div class='tl'><img class='introPic' src='trustrating_stim/white_mw078.bmp'><br><font color='red'><strong>Keep</strong></font></div><div class='tr'><img class='introPic' src='trustrating_stim/white_mw042.bmp'><br><font color='green'><strong>Share</strong></font></div></div></div>","null","ARRAY","2","trustrating_stim/white_mw078.bmp,trustrating_stim/white_mw042.bmp","0,1","Match","e","3000","","","","",""
"html-keyboard-response","107","313834","0.0-7.0-3.14","5f4000a47ed89c0e7f2e3760","bdp_wmem","Wed Mar 15 2023 15:00:59 GMT-0400 (Eastern Daylight Time)","633335","Match,No Match","","null","","","","","","<div class='trialBorder'><div class='vertical-center'><img src='img/fixation2_sml.jpg'</img></div></div>","null","DELAY","","","","","","","","","","",""
"html-keyboard-response","108","314773","0.0-7.0-4.14","5f4000a47ed89c0e7f2e3760","bdp_wmem","Wed Mar 15 2023 15:00:59 GMT-0400 (Eastern Daylight Time)","633335","Match,No Match","","938","","","","","","<div class='trialBorder'><div class='targDiv'><div class='tc'><img class='introPic' src='trustrating_stim/white_mw042.bmp'><br><font color='green'><strong>Share</strong></font></div></div><div class='respDiv'><div class='respDivL'>Match<br>(e)</div><div class='respDivR'>No Match<br>(i)</div></div></div>","e","TARGET","2","trustrating_stim/white_mw078.bmp,trustrating_stim/white_mw042.bmp","0,1","Match","e","3000","trustrating_stim/white_mw042.bmp","green","Share","REAL","1"
"html-keyboard-response","109","315275","0.0-7.0-5.14","5f4000a47ed89c0e7f2e3760","bdp_wmem","Wed Mar 15 2023 15:00:59 GMT-0400 (Eastern Daylight Time)","633335","Match,No Match","","null","","","","","","<div class='trialBorder'><div class='vertical-center'><img src='img/correct.jpg'></div><div class='respDiv'><div class='respDivL'><font style='color:orange'>Match<br>(e)</font></div><div class='respDivR'>No Match<br>(i)</div></div></div>","null","FEEDBACK","","","","","","","","","","",""
"html-keyboard-response","110","315776","0.0-7.0-1.15","5f4000a47ed89c0e7f2e3760","bdp_wmem","Wed Mar 15 2023 15:00:59 GMT-0400 (Eastern Daylight Time)","633335","Match,No Match","","null","","","","","","<div class='trialBorder'><div class='vertical-center'><img src='img/fixation2_sml.jpg'</img></div></div>","null","FIX","","","","","","","","","","",""
"html-keyboard-response","111","318778","0.0-7.0-2.15","5f4000a47ed89c0e7f2e3760","bdp_wmem","Wed Mar 15 2023 15:00:59 GMT-0400 (Eastern Daylight Time)","633335","Match,No Match","","null","","","","","","<div class='trialBorder'><div class='vertical-center'><img style='vertical-align:center; align:center' src='img/fixation2_sml.jpg'></div><div class='arrayDiv2'><div class='tl'><img class='introPic' src='trustrating_stim/white_mw092.bmp'><br><font color='green'><strong>Share</strong></font></div><div class='tr'><img class='introPic' src='trustrating_stim/white_mw091.bmp'><br><font color='red'><strong>Keep</strong></font></div></div></div>","null","ARRAY","2","trustrating_stim/white_mw092.bmp,trustrating_stim/white_mw091.bmp","1,0","Match","e","3000","","","","",""
"html-keyboard-response","112","322779","0.0-7.0-3.15","5f4000a47ed89c0e7f2e3760","bdp_wmem","Wed Mar 15 2023 15:00:59 GMT-0400 (Eastern Daylight Time)","633335","Match,No Match","","null","","","","","","<div class='trialBorder'><div class='vertical-center'><img src='img/fixation2_sml.jpg'</img></div></div>","null","DELAY","","","","","","","","","","",""
"html-keyboard-response","113","324394","0.0-7.0-4.15","5f4000a47ed89c0e7f2e3760","bdp_wmem","Wed Mar 15 2023 15:00:59 GMT-0400 (Eastern Daylight Time)","633335","Match,No Match","","1614","","","","","","<div class='trialBorder'><div class='targDiv'><div class='tc'><img class='introPic' src='trustrating_stim/white_mw092.bmp'><br><font color='green'><strong>Share</strong></font></div></div><div class='respDiv'><div class='respDivL'>Match<br>(e)</div><div class='respDivR'>No Match<br>(i)</div></div></div>","e","TARGET","2","trustrating_stim/white_mw092.bmp,trustrating_stim/white_mw091.bmp","1,0","Match","e","3000","trustrating_stim/white_mw092.bmp","green","Share","REAL","1"
"html-keyboard-response","114","324895","0.0-7.0-5.15","5f4000a47ed89c0e7f2e3760","bdp_wmem","Wed Mar 15 2023 15:00:59 GMT-0400 (Eastern Daylight Time)","633335","Match,No Match","","null","","","","","","<div class='trialBorder'><div class='vertical-center'><img src='img/correct.jpg'></div><div class='respDiv'><div class='respDivL'><font style='color:orange'>Match<br>(e)</font></div><div class='respDivR'>No Match<br>(i)</div></div></div>","null","FEEDBACK","","","","","","","","","","",""
"html-keyboard-response","115","325398","0.0-7.0-1.16","5f4000a47ed89c0e7f2e3760","bdp_wmem","Wed Mar 15 2023 15:00:59 GMT-0400 (Eastern Daylight Time)","633335","Match,No Match","","null","","","","","","<div class='trialBorder'><div class='vertical-center'><img src='img/fixation2_sml.jpg'</img></div></div>","null","FIX","","","","","","","","","","",""
"html-keyboard-response","116","326900","0.0-7.0-2.16","5f4000a47ed89c0e7f2e3760","bdp_wmem","Wed Mar 15 2023 15:00:59 GMT-0400 (Eastern Daylight Time)","633335","Match,No Match","","null","","","","","","<div class='trialBorder'><div class='vertical-center'><img style='vertical-align:center; align:center' src='img/fixation2_sml.jpg'></div><div class='arrayDiv1'><div class='tc'><img class='introPic' src='trustrating_stim/white_mw038.bmp'><br><font color='green'><strong>Share</strong></font></div></div></div>","null","ARRAY","1","trustrating_stim/white_mw038.bmp","1","noMatchFace","i","1500","","","","",""
"html-keyboard-response","117","330901","0.0-7.0-3.16","5f4000a47ed89c0e7f2e3760","bdp_wmem","Wed Mar 15 2023 15:00:59 GMT-0400 (Eastern Daylight Time)","633335","Match,No Match","","null","","","","","","<div class='trialBorder'><div class='vertical-center'><img src='img/fixation2_sml.jpg'</img></div></div>","null","DELAY","","","","","","","","","","",""
"html-keyboard-response","118","331867","0.0-7.0-4.16","5f4000a47ed89c0e7f2e3760","bdp_wmem","Wed Mar 15 2023 15:00:59 GMT-0400 (Eastern Daylight Time)","633335","Match,No Match","","965","","","","","","<div class='trialBorder'><div class='targDiv'><div class='tc'><img class='introPic' src='trustrating_stim/white_mw085.bmp'><br><font color='green'><strong>Share</strong></font></div></div><div class='respDiv'><div class='respDivL'>Match<br>(e)</div><div class='respDivR'>No Match<br>(i)</div></div></div>","i","TARGET","1","trustrating_stim/white_mw038.bmp","1","noMatchFace","i","1500","trustrating_stim/white_mw085.bmp","green","Share","REAL","1"
"html-keyboard-response","119","332368","0.0-7.0-5.16","5f4000a47ed89c0e7f2e3760","bdp_wmem","Wed Mar 15 2023 15:00:59 GMT-0400 (Eastern Daylight Time)","633335","Match,No Match","","null","","","","","","<div class='trialBorder'><div class='vertical-center'><img src='img/correct.jpg'></div><div class='respDiv'><div class='respDivL'>Match<br>(e)</div><div class='respDivR'><font style='color:orange'>No Match<br>(i)</font></div></div></div>","null","FEEDBACK","","","","","","","","","","",""
"html-keyboard-response","120","332870","0.0-7.0-1.17","5f4000a47ed89c0e7f2e3760","bdp_wmem","Wed Mar 15 2023 15:00:59 GMT-0400 (Eastern Daylight Time)","633335","Match,No Match","","null","","","","","","<div class='trialBorder'><div class='vertical-center'><img src='img/fixation2_sml.jpg'</img></div></div>","null","FIX","","","","","","","","","","",""
"html-keyboard-response","121","334386","0.0-7.0-2.17","5f4000a47ed89c0e7f2e3760","bdp_wmem","Wed Mar 15 2023 15:00:59 GMT-0400 (Eastern Daylight Time)","633335","Match,No Match","","null","","","","","","<div class='trialBorder'><div class='vertical-center'><img style='vertical-align:center; align:center' src='img/fixation2_sml.jpg'></div><div class='arrayDiv1'><div class='tc'><img class='introPic' src='trustrating_stim/white_mw010.bmp'><br><font color='green'><strong>Share</strong></font></div></div></div>","null","ARRAY","1","trustrating_stim/white_mw010.bmp","1","Match","e","1500","","","","",""
"html-keyboard-response","122","338388","0.0-7.0-3.17","5f4000a47ed89c0e7f2e3760","bdp_wmem","Wed Mar 15 2023 15:00:59 GMT-0400 (Eastern Daylight Time)","633335","Match,No Match","","null","","","","","","<div class='trialBorder'><div class='vertical-center'><img src='img/fixation2_sml.jpg'</img></div></div>","null","DELAY","","","","","","","","","","",""
"html-keyboard-response","123","339208","0.0-7.0-4.17","5f4000a47ed89c0e7f2e3760","bdp_wmem","Wed Mar 15 2023 15:00:59 GMT-0400 (Eastern Daylight Time)","633335","Match,No Match","","819","","","","","","<div class='trialBorder'><div class='targDiv'><div class='tc'><img class='introPic' src='trustrating_stim/white_mw010.bmp'><br><font color='green'><strong>Share</strong></font></div></div><div class='respDiv'><div class='respDivL'>Match<br>(e)</div><div class='respDivR'>No Match<br>(i)</div></div></div>","e","TARGET","1","trustrating_stim/white_mw010.bmp","1","Match","e","1500","trustrating_stim/white_mw010.bmp","green","Share","REAL","1"
"html-keyboard-response","124","339710","0.0-7.0-5.17","5f4000a47ed89c0e7f2e3760","bdp_wmem","Wed Mar 15 2023 15:00:59 GMT-0400 (Eastern Daylight Time)","633335","Match,No Match","","null","","","","","","<div class='trialBorder'><div class='vertical-center'><img src='img/correct.jpg'></div><div class='respDiv'><div class='respDivL'><font style='color:orange'>Match<br>(e)</font></div><div class='respDivR'>No Match<br>(i)</div></div></div>","null","FEEDBACK","","","","","","","","","","",""
"html-keyboard-response","125","340212","0.0-7.0-1.18","5f4000a47ed89c0e7f2e3760","bdp_wmem","Wed Mar 15 2023 15:00:59 GMT-0400 (Eastern Daylight Time)","633335","Match,No Match","","null","","","","","","<div class='trialBorder'><div class='vertical-center'><img src='img/fixation2_sml.jpg'</img></div></div>","null","FIX","","","","","","","","","","",""
"html-keyboard-response","126","344714","0.0-7.0-2.18","5f4000a47ed89c0e7f2e3760","bdp_wmem","Wed Mar 15 2023 15:00:59 GMT-0400 (Eastern Daylight Time)","633335","Match,No Match","","null","","","","","","<div class='trialBorder'><div class='vertical-center'><img style='vertical-align:center; align:center' src='img/fixation2_sml.jpg'></div><div class='arrayDiv3'><div class='tl'><img class='introPic' src='trustrating_stim/white_mw078.bmp'><br><font color='green'><strong>Share</strong></font></div><div class='tc'><img class='introPic' src='trustrating_stim/white_mw012.bmp'><br><font color='red'><strong>Keep</strong></font></div><div class='tr'><img class='introPic' src='trustrating_stim/white_mw040.bmp'><br><font color='green'><strong>Share</strong></font></div></div></div>","null","ARRAY","3","trustrating_stim/white_mw078.bmp,trustrating_stim/white_mw012.bmp,trustrating_stim/white_mw040.bmp","1,0,1","noMatchFace","i","4500","","","","",""
"html-keyboard-response","127","348715","0.0-7.0-3.18","5f4000a47ed89c0e7f2e3760","bdp_wmem","Wed Mar 15 2023 15:00:59 GMT-0400 (Eastern Daylight Time)","633335","Match,No Match","","null","","","","","","<div class='trialBorder'><div class='vertical-center'><img src='img/fixation2_sml.jpg'</img></div></div>","null","DELAY","","","","","","","","","","",""
"html-keyboard-response","128","349988","0.0-7.0-4.18","5f4000a47ed89c0e7f2e3760","bdp_wmem","Wed Mar 15 2023 15:00:59 GMT-0400 (Eastern Daylight Time)","633335","Match,No Match","","1272","","","","","","<div class='trialBorder'><div class='targDiv'><div class='tc'><img class='introPic' src='trustrating_stim/white_mw042.bmp'><br><font color='green'><strong>Share</strong></font></div></div><div class='respDiv'><div class='respDivL'>Match<br>(e)</div><div class='respDivR'>No Match<br>(i)</div></div></div>","e","TARGET","3","trustrating_stim/white_mw078.bmp,trustrating_stim/white_mw012.bmp,trustrating_stim/white_mw040.bmp","1,0,1","noMatchFace","i","4500","trustrating_stim/white_mw042.bmp","green","Share","REAL","0"
"html-keyboard-response","129","350490","0.0-7.0-5.18","5f4000a47ed89c0e7f2e3760","bdp_wmem","Wed Mar 15 2023 15:00:59 GMT-0400 (Eastern Daylight Time)","633335","Match,No Match","","null","","","","","","<div class='trialBorder'><div class='vertical-center'><img src='img/error.jpg'></div><div class='respDiv'><div class='respDivL'><font style='color:orange'>Match<br>(e)</font></div><div class='respDivR'>No Match<br>(i)</div></div></div>","null","FEEDBACK","","","","","","","","","","",""
"html-keyboard-response","130","350991","0.0-7.0-1.19","5f4000a47ed89c0e7f2e3760","bdp_wmem","Wed Mar 15 2023 15:00:59 GMT-0400 (Eastern Daylight Time)","633335","Match,No Match","","null","","","","","","<div class='trialBorder'><div class='vertical-center'><img src='img/fixation2_sml.jpg'</img></div></div>","null","FIX","","","","","","","","","","",""
"html-keyboard-response","131","352493","0.0-7.0-2.19","5f4000a47ed89c0e7f2e3760","bdp_wmem","Wed Mar 15 2023 15:00:59 GMT-0400 (Eastern Daylight Time)","633335","Match,No Match","","null","","","","","","<div class='trialBorder'><div class='vertical-center'><img style='vertical-align:center; align:center' src='img/fixation2_sml.jpg'></div><div class='arrayDiv1'><div class='tc'><img class='introPic' src='trustrating_stim/white_mw092.bmp'><br><font color='red'><strong>Keep</strong></font></div></div></div>","null","ARRAY","1","trustrating_stim/white_mw092.bmp","0","noMatchFace","i","1500","","","","",""
"html-keyboard-response","132","356495","0.0-7.0-3.19","5f4000a47ed89c0e7f2e3760","bdp_wmem","Wed Mar 15 2023 15:00:59 GMT-0400 (Eastern Daylight Time)","633335","Match,No Match","","null","","","","","","<div class='trialBorder'><div class='vertical-center'><img src='img/fixation2_sml.jpg'</img></div></div>","null","DELAY","","","","","","","","","","",""
"html-keyboard-response","133","358255","0.0-7.0-4.19","5f4000a47ed89c0e7f2e3760","bdp_wmem","Wed Mar 15 2023 15:00:59 GMT-0400 (Eastern Daylight Time)","633335","Match,No Match","","1759","","","","","","<div class='trialBorder'><div class='targDiv'><div class='tc'><img class='introPic' src='trustrating_stim/white_mw042.bmp'><br><font color='red'><strong>Keep</strong></font></div></div><div class='respDiv'><div class='respDivL'>Match<br>(e)</div><div class='respDivR'>No Match<br>(i)</div></div></div>","e","TARGET","1","trustrating_stim/white_mw092.bmp","0","noMatchFace","i","1500","trustrating_stim/white_mw042.bmp","red","Keep","REAL","0"
"html-keyboard-response","134","358757","0.0-7.0-5.19","5f4000a47ed89c0e7f2e3760","bdp_wmem","Wed Mar 15 2023 15:00:59 GMT-0400 (Eastern Daylight Time)","633335","Match,No Match","","null","","","","","","<div class='trialBorder'><div class='vertical-center'><img src='img/error.jpg'></div><div class='respDiv'><div class='respDivL'><font style='color:orange'>Match<br>(e)</font></div><div class='respDivR'>No Match<br>(i)</div></div></div>","null","FEEDBACK","","","","","","","","","","",""
"html-keyboard-response","135","359260","0.0-7.0-1.20","5f4000a47ed89c0e7f2e3760","bdp_wmem","Wed Mar 15 2023 15:00:59 GMT-0400 (Eastern Daylight Time)","633335","Match,No Match","","null","","","","","","<div class='trialBorder'><div class='vertical-center'><img src='img/fixation2_sml.jpg'</img></div></div>","null","FIX","","","","","","","","","","",""
"html-keyboard-response","136","360763","0.0-7.0-2.20","5f4000a47ed89c0e7f2e3760","bdp_wmem","Wed Mar 15 2023 15:00:59 GMT-0400 (Eastern Daylight Time)","633335","Match,No Match","","null","","","","","","<div class='trialBorder'><div class='vertical-center'><img style='vertical-align:center; align:center' src='img/fixation2_sml.jpg'></div><div class='arrayDiv1'><div class='tc'><img class='introPic' src='trustrating_stim/white_mw085.bmp'><br><font color='green'><strong>Share</strong></font></div></div></div>","null","ARRAY","1","trustrating_stim/white_mw085.bmp","1","Match","e","1500","","","","",""
"html-keyboard-response","137","364765","0.0-7.0-3.20","5f4000a47ed89c0e7f2e3760","bdp_wmem","Wed Mar 15 2023 15:00:59 GMT-0400 (Eastern Daylight Time)","633335","Match,No Match","","null","","","","","","<div class='trialBorder'><div class='vertical-center'><img src='img/fixation2_sml.jpg'</img></div></div>","null","DELAY","","","","","","","","","","",""
"html-keyboard-response","138","366559","0.0-7.0-4.20","5f4000a47ed89c0e7f2e3760","bdp_wmem","Wed Mar 15 2023 15:00:59 GMT-0400 (Eastern Daylight Time)","633335","Match,No Match","","1794","","","","","","<div class='trialBorder'><div class='targDiv'><div class='tc'><img class='introPic' src='trustrating_stim/white_mw085.bmp'><br><font color='green'><strong>Share</strong></font></div></div><div class='respDiv'><div class='respDivL'>Match<br>(e)</div><div class='respDivR'>No Match<br>(i)</div></div></div>","e","TARGET","1","trustrating_stim/white_mw085.bmp","1","Match","e","1500","trustrating_stim/white_mw085.bmp","green","Share","REAL","1"
"html-keyboard-response","139","367061","0.0-7.0-5.20","5f4000a47ed89c0e7f2e3760","bdp_wmem","Wed Mar 15 2023 15:00:59 GMT-0400 (Eastern Daylight Time)","633335","Match,No Match","","null","","","","","","<div class='trialBorder'><div class='vertical-center'><img src='img/correct.jpg'></div><div class='respDiv'><div class='respDivL'><font style='color:orange'>Match<br>(e)</font></div><div class='respDivR'>No Match<br>(i)</div></div></div>","null","FEEDBACK","","","","","","","","","","",""
"html-keyboard-response","140","367563","0.0-7.0-1.21","5f4000a47ed89c0e7f2e3760","bdp_wmem","Wed Mar 15 2023 15:00:59 GMT-0400 (Eastern Daylight Time)","633335","Match,No Match","","null","","","","","","<div class='trialBorder'><div class='vertical-center'><img src='img/fixation2_sml.jpg'</img></div></div>","null","FIX","","","","","","","","","","",""
"html-keyboard-response","141","372065","0.0-7.0-2.21","5f4000a47ed89c0e7f2e3760","bdp_wmem","Wed Mar 15 2023 15:00:59 GMT-0400 (Eastern Daylight Time)","633335","Match,No Match","","null","","","","","","<div class='trialBorder'><div class='vertical-center'><img style='vertical-align:center; align:center' src='img/fixation2_sml.jpg'></div><div class='arrayDiv3'><div class='tl'><img class='introPic' src='trustrating_stim/white_mw003.bmp'><br><font color='red'><strong>Keep</strong></font></div><div class='tc'><img class='introPic' src='trustrating_stim/white_mw040.bmp'><br><font color='green'><strong>Share</strong></font></div><div class='tr'><img class='introPic' src='trustrating_stim/white_mw013.bmp'><br><font color='green'><strong>Share</strong></font></div></div></div>","null","ARRAY","3","trustrating_stim/white_mw003.bmp,trustrating_stim/white_mw040.bmp,trustrating_stim/white_mw013.bmp","0,1,1","Match","e","4500","","","","",""
"html-keyboard-response","142","376066","0.0-7.0-3.21","5f4000a47ed89c0e7f2e3760","bdp_wmem","Wed Mar 15 2023 15:00:59 GMT-0400 (Eastern Daylight Time)","633335","Match,No Match","","null","","","","","","<div class='trialBorder'><div class='vertical-center'><img src='img/fixation2_sml.jpg'</img></div></div>","null","DELAY","","","","","","","","","","",""
"html-keyboard-response","143","378112","0.0-7.0-4.21","5f4000a47ed89c0e7f2e3760","bdp_wmem","Wed Mar 15 2023 15:00:59 GMT-0400 (Eastern Daylight Time)","633335","Match,No Match","","2045","","","","","","<div class='trialBorder'><div class='targDiv'><div class='tc'><img class='introPic' src='trustrating_stim/white_mw040.bmp'><br><font color='green'><strong>Share</strong></font></div></div><div class='respDiv'><div class='respDivL'>Match<br>(e)</div><div class='respDivR'>No Match<br>(i)</div></div></div>","e","TARGET","3","trustrating_stim/white_mw003.bmp,trustrating_stim/white_mw040.bmp,trustrating_stim/white_mw013.bmp","0,1,1","Match","e","4500","trustrating_stim/white_mw040.bmp","green","Share","REAL","1"
"html-keyboard-response","144","378613","0.0-7.0-5.21","5f4000a47ed89c0e7f2e3760","bdp_wmem","Wed Mar 15 2023 15:00:59 GMT-0400 (Eastern Daylight Time)","633335","Match,No Match","","null","","","","","","<div class='trialBorder'><div class='vertical-center'><img src='img/correct.jpg'></div><div class='respDiv'><div class='respDivL'><font style='color:orange'>Match<br>(e)</font></div><div class='respDivR'>No Match<br>(i)</div></div></div>","null","FEEDBACK","","","","","","","","","","",""
"html-keyboard-response","145","379114","0.0-7.0-1.22","5f4000a47ed89c0e7f2e3760","bdp_wmem","Wed Mar 15 2023 15:00:59 GMT-0400 (Eastern Daylight Time)","633335","Match,No Match","","null","","","","","","<div class='trialBorder'><div class='vertical-center'><img src='img/fixation2_sml.jpg'</img></div></div>","null","FIX","","","","","","","","","","",""
"html-keyboard-response","146","380615","0.0-7.0-2.22","5f4000a47ed89c0e7f2e3760","bdp_wmem","Wed Mar 15 2023 15:00:59 GMT-0400 (Eastern Daylight Time)","633335","Match,No Match","","null","","","","","","<div class='trialBorder'><div class='vertical-center'><img style='vertical-align:center; align:center' src='img/fixation2_sml.jpg'></div><div class='arrayDiv1'><div class='tc'><img class='introPic' src='trustrating_stim/white_mw091.bmp'><br><font color='green'><strong>Share</strong></font></div></div></div>","null","ARRAY","1","trustrating_stim/white_mw091.bmp","1","Match","e","1500","","","","",""
"html-keyboard-response","147","384617","0.0-7.0-3.22","5f4000a47ed89c0e7f2e3760","bdp_wmem","Wed Mar 15 2023 15:00:59 GMT-0400 (Eastern Daylight Time)","633335","Match,No Match","","null","","","","","","<div class='trialBorder'><div class='vertical-center'><img src='img/fixation2_sml.jpg'</img></div></div>","null","DELAY","","","","","","","","","","",""
"html-keyboard-response","148","385610","0.0-7.0-4.22","5f4000a47ed89c0e7f2e3760","bdp_wmem","Wed Mar 15 2023 15:00:59 GMT-0400 (Eastern Daylight Time)","633335","Match,No Match","","992","","","","","","<div class='trialBorder'><div class='targDiv'><div class='tc'><img class='introPic' src='trustrating_stim/white_mw091.bmp'><br><font color='green'><strong>Share</strong></font></div></div><div class='respDiv'><div class='respDivL'>Match<br>(e)</div><div class='respDivR'>No Match<br>(i)</div></div></div>","e","TARGET","1","trustrating_stim/white_mw091.bmp","1","Match","e","1500","trustrating_stim/white_mw091.bmp","green","Share","REAL","1"
"html-keyboard-response","149","386112","0.0-7.0-5.22","5f4000a47ed89c0e7f2e3760","bdp_wmem","Wed Mar 15 2023 15:00:59 GMT-0400 (Eastern Daylight Time)","633335","Match,No Match","","null","","","","","","<div class='trialBorder'><div class='vertical-center'><img src='img/correct.jpg'></div><div class='respDiv'><div class='respDivL'><font style='color:orange'>Match<br>(e)</font></div><div class='respDivR'>No Match<br>(i)</div></div></div>","null","FEEDBACK","","","","","","","","","","",""
"html-keyboard-response","150","386613","0.0-7.0-1.23","5f4000a47ed89c0e7f2e3760","bdp_wmem","Wed Mar 15 2023 15:00:59 GMT-0400 (Eastern Daylight Time)","633335","Match,No Match","","null","","","","","","<div class='trialBorder'><div class='vertical-center'><img src='img/fixation2_sml.jpg'</img></div></div>","null","FIX","","","","","","","","","","",""
"html-keyboard-response","151","389615","0.0-7.0-2.23","5f4000a47ed89c0e7f2e3760","bdp_wmem","Wed Mar 15 2023 15:00:59 GMT-0400 (Eastern Daylight Time)","633335","Match,No Match","","null","","","","","","<div class='trialBorder'><div class='vertical-center'><img style='vertical-align:center; align:center' src='img/fixation2_sml.jpg'></div><div class='arrayDiv2'><div class='tl'><img class='introPic' src='trustrating_stim/white_mw085.bmp'><br><font color='green'><strong>Share</strong></font></div><div class='tr'><img class='introPic' src='trustrating_stim/white_mw092.bmp'><br><font color='red'><strong>Keep</strong></font></div></div></div>","null","ARRAY","2","trustrating_stim/white_mw085.bmp,trustrating_stim/white_mw092.bmp","1,0","Match","e","3000","","","","",""
"html-keyboard-response","152","393617","0.0-7.0-3.23","5f4000a47ed89c0e7f2e3760","bdp_wmem","Wed Mar 15 2023 15:00:59 GMT-0400 (Eastern Daylight Time)","633335","Match,No Match","","null","","","","","","<div class='trialBorder'><div class='vertical-center'><img src='img/fixation2_sml.jpg'</img></div></div>","null","DELAY","","","","","","","","","","",""
"html-keyboard-response","153","394684","0.0-7.0-4.23","5f4000a47ed89c0e7f2e3760","bdp_wmem","Wed Mar 15 2023 15:00:59 GMT-0400 (Eastern Daylight Time)","633335","Match,No Match","","1066","","","","","","<div class='trialBorder'><div class='targDiv'><div class='tc'><img class='introPic' src='trustrating_stim/white_mw085.bmp'><br><font color='green'><strong>Share</strong></font></div></div><div class='respDiv'><div class='respDivL'>Match<br>(e)</div><div class='respDivR'>No Match<br>(i)</div></div></div>","e","TARGET","2","trustrating_stim/white_mw085.bmp,trustrating_stim/white_mw092.bmp","1,0","Match","e","3000","trustrating_stim/white_mw085.bmp","green","Share","REAL","1"
"html-keyboard-response","154","395186","0.0-7.0-5.23","5f4000a47ed89c0e7f2e3760","bdp_wmem","Wed Mar 15 2023 15:00:59 GMT-0400 (Eastern Daylight Time)","633335","Match,No Match","","null","","","","","","<div class='trialBorder'><div class='vertical-center'><img src='img/correct.jpg'></div><div class='respDiv'><div class='respDivL'><font style='color:orange'>Match<br>(e)</font></div><div class='respDivR'>No Match<br>(i)</div></div></div>","null","FEEDBACK","","","","","","","","","","",""
"html-keyboard-response","155","395688","0.0-7.0-1.24","5f4000a47ed89c0e7f2e3760","bdp_wmem","Wed Mar 15 2023 15:00:59 GMT-0400 (Eastern Daylight Time)","633335","Match,No Match","","null","","","","","","<div class='trialBorder'><div class='vertical-center'><img src='img/fixation2_sml.jpg'</img></div></div>","null","FIX","","","","","","","","","","",""
"html-keyboard-response","156","398689","0.0-7.0-2.24","5f4000a47ed89c0e7f2e3760","bdp_wmem","Wed Mar 15 2023 15:00:59 GMT-0400 (Eastern Daylight Time)","633335","Match,No Match","","null","","","","","","<div class='trialBorder'><div class='vertical-center'><img style='vertical-align:center; align:center' src='img/fixation2_sml.jpg'></div><div class='arrayDiv2'><div class='tl'><img class='introPic' src='trustrating_stim/white_mw078.bmp'><br><font color='red'><strong>Keep</strong></font></div><div class='tr'><img class='introPic' src='trustrating_stim/white_mw012.bmp'><br><font color='green'><strong>Share</strong></font></div></div></div>","null","ARRAY","2","trustrating_stim/white_mw078.bmp,trustrating_stim/white_mw012.bmp","0,1","noMatchOutcome","i","3000","","","","",""
"html-keyboard-response","157","402691","0.0-7.0-3.24","5f4000a47ed89c0e7f2e3760","bdp_wmem","Wed Mar 15 2023 15:00:59 GMT-0400 (Eastern Daylight Time)","633335","Match,No Match","","null","","","","","","<div class='trialBorder'><div class='vertical-center'><img src='img/fixation2_sml.jpg'</img></div></div>","null","DELAY","","","","","","","","","","",""
"html-keyboard-response","158","405577","0.0-7.0-4.24","5f4000a47ed89c0e7f2e3760","bdp_wmem","Wed Mar 15 2023 15:00:59 GMT-0400 (Eastern Daylight Time)","633335","Match,No Match","","2885","","","","","","<div class='trialBorder'><div class='targDiv'><div class='tc'><img class='introPic' src='trustrating_stim/white_mw078.bmp'><br><font color='green'><strong>Share</strong></font></div></div><div class='respDiv'><div class='respDivL'>Match<br>(e)</div><div class='respDivR'>No Match<br>(i)</div></div></div>","i","TARGET","2","trustrating_stim/white_mw078.bmp,trustrating_stim/white_mw012.bmp","0,1","noMatchOutcome","i","3000","trustrating_stim/white_mw078.bmp","green","Share","REAL","1"
"html-keyboard-response","159","406079","0.0-7.0-5.24","5f4000a47ed89c0e7f2e3760","bdp_wmem","Wed Mar 15 2023 15:00:59 GMT-0400 (Eastern Daylight Time)","633335","Match,No Match","","null","","","","","","<div class='trialBorder'><div class='vertical-center'><img src='img/correct.jpg'></div><div class='respDiv'><div class='respDivL'>Match<br>(e)</div><div class='respDivR'><font style='color:orange'>No Match<br>(i)</font></div></div></div>","null","FEEDBACK","","","","","","","","","","",""
"html-keyboard-response","160","406580","0.0-7.0-1.25","5f4000a47ed89c0e7f2e3760","bdp_wmem","Wed Mar 15 2023 15:00:59 GMT-0400 (Eastern Daylight Time)","633335","Match,No Match","","null","","","","","","<div class='trialBorder'><div class='vertical-center'><img src='img/fixation2_sml.jpg'</img></div></div>","null","FIX","","","","","","","","","","",""
"html-keyboard-response","161","409582","0.0-7.0-2.25","5f4000a47ed89c0e7f2e3760","bdp_wmem","Wed Mar 15 2023 15:00:59 GMT-0400 (Eastern Daylight Time)","633335","Match,No Match","","null","","","","","","<div class='trialBorder'><div class='vertical-center'><img style='vertical-align:center; align:center' src='img/fixation2_sml.jpg'></div><div class='arrayDiv2'><div class='tl'><img class='introPic' src='trustrating_stim/white_mw040.bmp'><br><font color='red'><strong>Keep</strong></font></div><div class='tr'><img class='introPic' src='trustrating_stim/white_mw042.bmp'><br><font color='green'><strong>Share</strong></font></div></div></div>","null","ARRAY","2","trustrating_stim/white_mw040.bmp,trustrating_stim/white_mw042.bmp","0,1","noMatchOutcome","i","3000","","","","",""
"html-keyboard-response","162","413584","0.0-7.0-3.25","5f4000a47ed89c0e7f2e3760","bdp_wmem","Wed Mar 15 2023 15:00:59 GMT-0400 (Eastern Daylight Time)","633335","Match,No Match","","null","","","","","","<div class='trialBorder'><div class='vertical-center'><img src='img/fixation2_sml.jpg'</img></div></div>","null","DELAY","","","","","","","","","","",""
"html-keyboard-response","163","415540","0.0-7.0-4.25","5f4000a47ed89c0e7f2e3760","bdp_wmem","Wed Mar 15 2023 15:00:59 GMT-0400 (Eastern Daylight Time)","633335","Match,No Match","","1955","","","","","","<div class='trialBorder'><div class='targDiv'><div class='tc'><img class='introPic' src='trustrating_stim/white_mw040.bmp'><br><font color='green'><strong>Share</strong></font></div></div><div class='respDiv'><div class='respDivL'>Match<br>(e)</div><div class='respDivR'>No Match<br>(i)</div></div></div>","e","TARGET","2","trustrating_stim/white_mw040.bmp,trustrating_stim/white_mw042.bmp","0,1","noMatchOutcome","i","3000","trustrating_stim/white_mw040.bmp","green","Share","REAL","0"
"html-keyboard-response","164","416041","0.0-7.0-5.25","5f4000a47ed89c0e7f2e3760","bdp_wmem","Wed Mar 15 2023 15:00:59 GMT-0400 (Eastern Daylight Time)","633335","Match,No Match","","null","","","","","","<div class='trialBorder'><div class='vertical-center'><img src='img/error.jpg'></div><div class='respDiv'><div class='respDivL'><font style='color:orange'>Match<br>(e)</font></div><div class='respDivR'>No Match<br>(i)</div></div></div>","null","FEEDBACK","","","","","","","","","","",""
"html-keyboard-response","165","416543","0.0-7.0-1.26","5f4000a47ed89c0e7f2e3760","bdp_wmem","Wed Mar 15 2023 15:00:59 GMT-0400 (Eastern Daylight Time)","633335","Match,No Match","","null","","","","","","<div class='trialBorder'><div class='vertical-center'><img src='img/fixation2_sml.jpg'</img></div></div>","null","FIX","","","","","","","","","","",""
"html-keyboard-response","166","419544","0.0-7.0-2.26","5f4000a47ed89c0e7f2e3760","bdp_wmem","Wed Mar 15 2023 15:00:59 GMT-0400 (Eastern Daylight Time)","633335","Match,No Match","","null","","","","","","<div class='trialBorder'><div class='vertical-center'><img style='vertical-align:center; align:center' src='img/fixation2_sml.jpg'></div><div class='arrayDiv2'><div class='tl'><img class='introPic' src='trustrating_stim/white_mw042.bmp'><br><font color='red'><strong>Keep</strong></font></div><div class='tr'><img class='introPic' src='trustrating_stim/white_mw038.bmp'><br><font color='green'><strong>Share</strong></font></div></div></div>","null","ARRAY","2","trustrating_stim/white_mw042.bmp,trustrating_stim/white_mw038.bmp","0,1","noMatchFace","i","3000","","","","",""
"html-keyboard-response","167","423546","0.0-7.0-3.26","5f4000a47ed89c0e7f2e3760","bdp_wmem","Wed Mar 15 2023 15:00:59 GMT-0400 (Eastern Daylight Time)","633335","Match,No Match","","null","","","","","","<div class='trialBorder'><div class='vertical-center'><img src='img/fixation2_sml.jpg'</img></div></div>","null","DELAY","","","","","","","","","","",""
"html-keyboard-response","168","425402","0.0-7.0-4.26","5f4000a47ed89c0e7f2e3760","bdp_wmem","Wed Mar 15 2023 15:00:59 GMT-0400 (Eastern Daylight Time)","633335","Match,No Match","","1855","","","","","","<div class='trialBorder'><div class='targDiv'><div class='tc'><img class='introPic' src='trustrating_stim/white_mw092.bmp'><br><font color='red'><strong>Keep</strong></font></div></div><div class='respDiv'><div class='respDivL'>Match<br>(e)</div><div class='respDivR'>No Match<br>(i)</div></div></div>","i","TARGET","2","trustrating_stim/white_mw042.bmp,trustrating_stim/white_mw038.bmp","0,1","noMatchFace","i","3000","trustrating_stim/white_mw092.bmp","red","Keep","REAL","1"
"html-keyboard-response","169","425903","0.0-7.0-5.26","5f4000a47ed89c0e7f2e3760","bdp_wmem","Wed Mar 15 2023 15:00:59 GMT-0400 (Eastern Daylight Time)","633335","Match,No Match","","null","","","","","","<div class='trialBorder'><div class='vertical-center'><img src='img/correct.jpg'></div><div class='respDiv'><div class='respDivL'>Match<br>(e)</div><div class='respDivR'><font style='color:orange'>No Match<br>(i)</font></div></div></div>","null","FEEDBACK","","","","","","","","","","",""
"html-keyboard-response","170","426405","0.0-7.0-1.27","5f4000a47ed89c0e7f2e3760","bdp_wmem","Wed Mar 15 2023 15:00:59 GMT-0400 (Eastern Daylight Time)","633335","Match,No Match","","null","","","","","","<div class='trialBorder'><div class='vertical-center'><img src='img/fixation2_sml.jpg'</img></div></div>","null","FIX","","","","","","","","","","",""
"html-keyboard-response","171","430907","0.0-7.0-2.27","5f4000a47ed89c0e7f2e3760","bdp_wmem","Wed Mar 15 2023 15:00:59 GMT-0400 (Eastern Daylight Time)","633335","Match,No Match","","null","","","","","","<div class='trialBorder'><div class='vertical-center'><img style='vertical-align:center; align:center' src='img/fixation2_sml.jpg'></div><div class='arrayDiv3'><div class='tl'><img class='introPic' src='trustrating_stim/white_mw078.bmp'><br><font color='green'><strong>Share</strong></font></div><div class='tc'><img class='introPic' src='trustrating_stim/white_mw012.bmp'><br><font color='red'><strong>Keep</strong></font></div><div class='tr'><img class='introPic' src='trustrating_stim/white_mw070.bmp'><br><font color='green'><strong>Share</strong></font></div></div></div>","null","ARRAY","3","trustrating_stim/white_mw078.bmp,trustrating_stim/white_mw012.bmp,trustrating_stim/white_mw070.bmp","1,0,1","Match","e","4500","","","","",""
"html-keyboard-response","172","434908","0.0-7.0-3.27","5f4000a47ed89c0e7f2e3760","bdp_wmem","Wed Mar 15 2023 15:00:59 GMT-0400 (Eastern Daylight Time)","633335","Match,No Match","","null","","","","","","<div class='trialBorder'><div class='vertical-center'><img src='img/fixation2_sml.jpg'</img></div></div>","null","DELAY","","","","","","","","","","",""
"html-keyboard-response","173","436641","0.0-7.0-4.27","5f4000a47ed89c0e7f2e3760","bdp_wmem","Wed Mar 15 2023 15:00:59 GMT-0400 (Eastern Daylight Time)","633335","Match,No Match","","1732","","","","","","<div class='trialBorder'><div class='targDiv'><div class='tc'><img class='introPic' src='trustrating_stim/white_mw078.bmp'><br><font color='green'><strong>Share</strong></font></div></div><div class='respDiv'><div class='respDivL'>Match<br>(e)</div><div class='respDivR'>No Match<br>(i)</div></div></div>","e","TARGET","3","trustrating_stim/white_mw078.bmp,trustrating_stim/white_mw012.bmp,trustrating_stim/white_mw070.bmp","1,0,1","Match","e","4500","trustrating_stim/white_mw078.bmp","green","Share","REAL","1"
"html-keyboard-response","174","437143","0.0-7.0-5.27","5f4000a47ed89c0e7f2e3760","bdp_wmem","Wed Mar 15 2023 15:00:59 GMT-0400 (Eastern Daylight Time)","633335","Match,No Match","","null","","","","","","<div class='trialBorder'><div class='vertical-center'><img src='img/correct.jpg'></div><div class='respDiv'><div class='respDivL'><font style='color:orange'>Match<br>(e)</font></div><div class='respDivR'>No Match<br>(i)</div></div></div>","null","FEEDBACK","","","","","","","","","","",""
"html-keyboard-response","175","437645","0.0-7.0-1.28","5f4000a47ed89c0e7f2e3760","bdp_wmem","Wed Mar 15 2023 15:00:59 GMT-0400 (Eastern Daylight Time)","633335","Match,No Match","","null","","","","","","<div class='trialBorder'><div class='vertical-center'><img src='img/fixation2_sml.jpg'</img></div></div>","null","FIX","","","","","","","","","","",""
"html-keyboard-response","176","442147","0.0-7.0-2.28","5f4000a47ed89c0e7f2e3760","bdp_wmem","Wed Mar 15 2023 15:00:59 GMT-0400 (Eastern Daylight Time)","633335","Match,No Match","","null","","","","","","<div class='trialBorder'><div class='vertical-center'><img style='vertical-align:center; align:center' src='img/fixation2_sml.jpg'></div><div class='arrayDiv3'><div class='tl'><img class='introPic' src='trustrating_stim/white_mw078.bmp'><br><font color='green'><strong>Share</strong></font></div><div class='tc'><img class='introPic' src='trustrating_stim/white_mw085.bmp'><br><font color='red'><strong>Keep</strong></font></div><div class='tr'><img class='introPic' src='trustrating_stim/white_mw038.bmp'><br><font color='red'><strong>Keep</strong></font></div></div></div>","null","ARRAY","3","trustrating_stim/white_mw078.bmp,trustrating_stim/white_mw085.bmp,trustrating_stim/white_mw038.bmp","1,0,0","noMatchFace","i","4500","","","","",""
"html-keyboard-response","177","446149","0.0-7.0-3.28","5f4000a47ed89c0e7f2e3760","bdp_wmem","Wed Mar 15 2023 15:00:59 GMT-0400 (Eastern Daylight Time)","633335","Match,No Match","","null","","","","","","<div class='trialBorder'><div class='vertical-center'><img src='img/fixation2_sml.jpg'</img></div></div>","null","DELAY","","","","","","","","","","",""
"html-keyboard-response","178","448611","0.0-7.0-4.28","5f4000a47ed89c0e7f2e3760","bdp_wmem","Wed Mar 15 2023 15:00:59 GMT-0400 (Eastern Daylight Time)","633335","Match,No Match","","2461","","","","","","<div class='trialBorder'><div class='targDiv'><div class='tc'><img class='introPic' src='trustrating_stim/white_mw012.bmp'><br><font color='red'><strong>Keep</strong></font></div></div><div class='respDiv'><div class='respDivL'>Match<br>(e)</div><div class='respDivR'>No Match<br>(i)</div></div></div>","e","TARGET","3","trustrating_stim/white_mw078.bmp,trustrating_stim/white_mw085.bmp,trustrating_stim/white_mw038.bmp","1,0,0","noMatchFace","i","4500","trustrating_stim/white_mw012.bmp","red","Keep","REAL","0"
"html-keyboard-response","179","449113","0.0-7.0-5.28","5f4000a47ed89c0e7f2e3760","bdp_wmem","Wed Mar 15 2023 15:00:59 GMT-0400 (Eastern Daylight Time)","633335","Match,No Match","","null","","","","","","<div class='trialBorder'><div class='vertical-center'><img src='img/error.jpg'></div><div class='respDiv'><div class='respDivL'><font style='color:orange'>Match<br>(e)</font></div><div class='respDivR'>No Match<br>(i)</div></div></div>","null","FEEDBACK","","","","","","","","","","",""
"html-keyboard-response","180","449614","0.0-7.0-1.29","5f4000a47ed89c0e7f2e3760","bdp_wmem","Wed Mar 15 2023 15:00:59 GMT-0400 (Eastern Daylight Time)","633335","Match,No Match","","null","","","","","","<div class='trialBorder'><div class='vertical-center'><img src='img/fixation2_sml.jpg'</img></div></div>","null","FIX","","","","","","","","","","",""
"html-keyboard-response","181","452616","0.0-7.0-2.29","5f4000a47ed89c0e7f2e3760","bdp_wmem","Wed Mar 15 2023 15:00:59 GMT-0400 (Eastern Daylight Time)","633335","Match,No Match","","null","","","","","","<div class='trialBorder'><div class='vertical-center'><img style='vertical-align:center; align:center' src='img/fixation2_sml.jpg'></div><div class='arrayDiv2'><div class='tl'><img class='introPic' src='trustrating_stim/white_mw042.bmp'><br><font color='red'><strong>Keep</strong></font></div><div class='tr'><img class='introPic' src='trustrating_stim/white_mw085.bmp'><br><font color='green'><strong>Share</strong></font></div></div></div>","null","ARRAY","2","trustrating_stim/white_mw042.bmp,trustrating_stim/white_mw085.bmp","0,1","noMatchOutcome","i","3000","","","","",""
"html-keyboard-response","182","456618","0.0-7.0-3.29","5f4000a47ed89c0e7f2e3760","bdp_wmem","Wed Mar 15 2023 15:00:59 GMT-0400 (Eastern Daylight Time)","633335","Match,No Match","","null","","","","","","<div class='trialBorder'><div class='vertical-center'><img src='img/fixation2_sml.jpg'</img></div></div>","null","DELAY","","","","","","","","","","",""
"html-keyboard-response","183","459700","0.0-7.0-4.29","5f4000a47ed89c0e7f2e3760","bdp_wmem","Wed Mar 15 2023 15:00:59 GMT-0400 (Eastern Daylight Time)","633335","Match,No Match","","3080","","","","","","<div class='trialBorder'><div class='targDiv'><div class='tc'><img class='introPic' src='trustrating_stim/white_mw042.bmp'><br><font color='green'><strong>Share</strong></font></div></div><div class='respDiv'><div class='respDivL'>Match<br>(e)</div><div class='respDivR'>No Match<br>(i)</div></div></div>","i","TARGET","2","trustrating_stim/white_mw042.bmp,trustrating_stim/white_mw085.bmp","0,1","noMatchOutcome","i","3000","trustrating_stim/white_mw042.bmp","green","Share","REAL","1"
"html-keyboard-response","184","460201","0.0-7.0-5.29","5f4000a47ed89c0e7f2e3760","bdp_wmem","Wed Mar 15 2023 15:00:59 GMT-0400 (Eastern Daylight Time)","633335","Match,No Match","","null","","","","","","<div class='trialBorder'><div class='vertical-center'><img src='img/correct.jpg'></div><div class='respDiv'><div class='respDivL'>Match<br>(e)</div><div class='respDivR'><font style='color:orange'>No Match<br>(i)</font></div></div></div>","null","FEEDBACK","","","","","","","","","","",""
"html-keyboard-response","185","460703","0.0-7.0-1.30","5f4000a47ed89c0e7f2e3760","bdp_wmem","Wed Mar 15 2023 15:00:59 GMT-0400 (Eastern Daylight Time)","633335","Match,No Match","","null","","","","","","<div class='trialBorder'><div class='vertical-center'><img src='img/fixation2_sml.jpg'</img></div></div>","null","FIX","","","","","","","","","","",""
"html-keyboard-response","186","463704","0.0-7.0-2.30","5f4000a47ed89c0e7f2e3760","bdp_wmem","Wed Mar 15 2023 15:00:59 GMT-0400 (Eastern Daylight Time)","633335","Match,No Match","","null","","","","","","<div class='trialBorder'><div class='vertical-center'><img style='vertical-align:center; align:center' src='img/fixation2_sml.jpg'></div><div class='arrayDiv2'><div class='tl'><img class='introPic' src='trustrating_stim/white_mw003.bmp'><br><font color='green'><strong>Share</strong></font></div><div class='tr'><img class='introPic' src='trustrating_stim/white_mw092.bmp'><br><font color='red'><strong>Keep</strong></font></div></div></div>","null","ARRAY","2","trustrating_stim/white_mw003.bmp,trustrating_stim/white_mw092.bmp","1,0","Match","e","3000","","","","",""
