"trial_type","trial_index","time_elapsed","internal_node_id","subject_id","task","startTime","totalTime","labels","view_history","rt","event","trial","time","trialtype","success","stimulus","key_press","stimType","arraySize","arrayFaces","arrayOutcomes","matchType","corrResp","arrayDur","targFace","targCol","targOutcome","trialType","corr"
"pavlovia","0","14","0.0-0.0","63d1819e544fa53e891614ec","bdp_wmem","Wed Mar 15 2023 13:07:53 GMT-0700 (Pacific Daylight Time)","651390","Match,No Match","","","","","","","","","","","","","","","","","","","","",""
"instructions","1","5094","0.0-1.0","63d1819e544fa53e891614ec","bdp_wmem","Wed Mar 15 2023 13:07:53 GMT-0700 (Pacific Daylight Time)","651390","Match,No Match","[{""page_index"":0,""viewing_time"":5077}]","5078","","","","","","","","","","","","","","","","","","",""
"","","","","63d1819e544fa53e891614ec","bdp_wmem","Wed Mar 15 2023 13:07:53 GMT-0700 (Pacific Daylight Time)","651390","Match,No Match","","","fullscreenenter","2","6912","fullscreenenter","","","","","","","","","","","","","","",""
"fullscreen","2","7869","0.0-2.0","63d1819e544fa53e891614ec","bdp_wmem","Wed Mar 15 2023 13:07:53 GMT-0700 (Pacific Daylight Time)","651390","Match,No Match","","","","","","","true","","","","","","","","","","","","","",""
"instructions","3","149096","0.0-4.0","63d1819e544fa53e891614ec","bdp_wmem","Wed Mar 15 2023 13:07:53 GMT-0700 (Pacific Daylight Time)","651390","Match,No Match","[{""page_index"":0,""viewing_time"":26596},{""page_index"":1,""viewing_time"":54120},{""page_index"":2,""viewing_time"":35907},{""page_index"":3,""viewing_time"":13635},{""page_index"":4,""viewing_time"":10966}]","141225","","","","","","","","","","","","","","","","","","",""
"html-keyboard-response","4","149604","0.0-5.0-1.0","63d1819e544fa53e891614ec","bdp_wmem","Wed Mar 15 2023 13:07:53 GMT-0700 (Pacific Daylight Time)","651390","Match,No Match","","null","","","","","","<div class='trialBorder'><div class='vertical-center'><img src='img/fixation2_sml.jpg'</img></div></div>","null","FIX","","","","","","","","","","",""
"html-keyboard-response","5","152612","0.0-5.0-2.0","63d1819e544fa53e891614ec","bdp_wmem","Wed Mar 15 2023 13:07:53 GMT-0700 (Pacific Daylight Time)","651390","Match,No Match","","null","","","","","","<div class='trialBorder'><div class='vertical-center'><img style='vertical-align:center; align:center' src='img/fixation2_sml.jpg'></div><div class='arrayDiv2'><div class='tl'><img class='introPic' src='trustrating_stim/white_mw003.bmp'><br><font color='green'><strong>Share</strong></font></div><div class='tr'><img class='introPic' src='trustrating_stim/white_mw042.bmp'><br><font color='red'><strong>Keep</strong></font></div></div></div>","null","ARRAY","2","trustrating_stim/white_mw003.bmp,trustrating_stim/white_mw042.bmp","1,0","Match","e","3000","","","","",""
"html-keyboard-response","6","156620","0.0-5.0-3.0","63d1819e544fa53e891614ec","bdp_wmem","Wed Mar 15 2023 13:07:53 GMT-0700 (Pacific Daylight Time)","651390","Match,No Match","","null","","","","","","<div class='trialBorder'><div class='vertical-center'><img src='img/fixation2_sml.jpg'</img></div></div>","null","DELAY","","","","","","","","","","",""
"html-keyboard-response","7","158338","0.0-5.0-4.0","63d1819e544fa53e891614ec","bdp_wmem","Wed Mar 15 2023 13:07:53 GMT-0700 (Pacific Daylight Time)","651390","Match,No Match","","1713","","","","","","<div class='trialBorder'><div class='targDiv'><div class='tc'><img class='introPic' src='trustrating_stim/white_mw042.bmp'><br><font color='red'><strong>Keep</strong></font></div></div><div class='respDiv'><div class='respDivL'>Match<br>(e)</div><div class='respDivR'>No Match<br>(i)</div></div></div>","i","TARGET","2","trustrating_stim/white_mw003.bmp,trustrating_stim/white_mw042.bmp","1,0","Match","e","3000","trustrating_stim/white_mw042.bmp","red","Keep","PRACTICE","0"
"html-keyboard-response","8","158844","0.0-5.0-5.0","63d1819e544fa53e891614ec","bdp_wmem","Wed Mar 15 2023 13:07:53 GMT-0700 (Pacific Daylight Time)","651390","Match,No Match","","null","","","","","","<div class='trialBorder'><div class='vertical-center'><img src='img/error.jpg'></div><div class='respDiv'><div class='respDivL'>Match<br>(e)</div><div class='respDivR'><font style='color:orange'>No Match<br>(i)</font></div></div></div>","null","FEEDBACK","","","","","","","","","","",""
"html-keyboard-response","9","159351","0.0-5.0-1.1","63d1819e544fa53e891614ec","bdp_wmem","Wed Mar 15 2023 13:07:53 GMT-0700 (Pacific Daylight Time)","651390","Match,No Match","","null","","","","","","<div class='trialBorder'><div class='vertical-center'><img src='img/fixation2_sml.jpg'</img></div></div>","null","FIX","","","","","","","","","","",""
"html-keyboard-response","10","163858","0.0-5.0-2.1","63d1819e544fa53e891614ec","bdp_wmem","Wed Mar 15 2023 13:07:53 GMT-0700 (Pacific Daylight Time)","651390","Match,No Match","","null","","","","","","<div class='trialBorder'><div class='vertical-center'><img style='vertical-align:center; align:center' src='img/fixation2_sml.jpg'></div><div class='arrayDiv3'><div class='tl'><img class='introPic' src='trustrating_stim/white_mw092.bmp'><br><font color='green'><strong>Share</strong></font></div><div class='tc'><img class='introPic' src='trustrating_stim/white_mw010.bmp'><br><font color='red'><strong>Keep</strong></font></div><div class='tr'><img class='introPic' src='trustrating_stim/white_mw003.bmp'><br><font color='green'><strong>Share</strong></font></div></div></div>","null","ARRAY","3","trustrating_stim/white_mw092.bmp,trustrating_stim/white_mw010.bmp,trustrating_stim/white_mw003.bmp","1,0,1","noMatchOutcome","i","4500","","","","",""
"html-keyboard-response","11","167866","0.0-5.0-3.1","63d1819e544fa53e891614ec","bdp_wmem","Wed Mar 15 2023 13:07:53 GMT-0700 (Pacific Daylight Time)","651390","Match,No Match","","null","","","","","","<div class='trialBorder'><div class='vertical-center'><img src='img/fixation2_sml.jpg'</img></div></div>","null","DELAY","","","","","","","","","","",""
"html-keyboard-response","12","169186","0.0-5.0-4.1","63d1819e544fa53e891614ec","bdp_wmem","Wed Mar 15 2023 13:07:53 GMT-0700 (Pacific Daylight Time)","651390","Match,No Match","","1316","","","","","","<div class='trialBorder'><div class='targDiv'><div class='tc'><img class='introPic' src='trustrating_stim/white_mw092.bmp'><br><font color='red'><strong>Keep</strong></font></div></div><div class='respDiv'><div class='respDivL'>Match<br>(e)</div><div class='respDivR'>No Match<br>(i)</div></div></div>","e","TARGET","3","trustrating_stim/white_mw092.bmp,trustrating_stim/white_mw010.bmp,trustrating_stim/white_mw003.bmp","1,0,1","noMatchOutcome","i","4500","trustrating_stim/white_mw092.bmp","red","Keep","PRACTICE","0"
"html-keyboard-response","13","169697","0.0-5.0-5.1","63d1819e544fa53e891614ec","bdp_wmem","Wed Mar 15 2023 13:07:53 GMT-0700 (Pacific Daylight Time)","651390","Match,No Match","","null","","","","","","<div class='trialBorder'><div class='vertical-center'><img src='img/error.jpg'></div><div class='respDiv'><div class='respDivL'><font style='color:orange'>Match<br>(e)</font></div><div class='respDivR'>No Match<br>(i)</div></div></div>","null","FEEDBACK","","","","","","","","","","",""
"html-keyboard-response","14","170204","0.0-5.0-1.2","63d1819e544fa53e891614ec","bdp_wmem","Wed Mar 15 2023 13:07:53 GMT-0700 (Pacific Daylight Time)","651390","Match,No Match","","null","","","","","","<div class='trialBorder'><div class='vertical-center'><img src='img/fixation2_sml.jpg'</img></div></div>","null","FIX","","","","","","","","","","",""
"html-keyboard-response","15","171712","0.0-5.0-2.2","63d1819e544fa53e891614ec","bdp_wmem","Wed Mar 15 2023 13:07:53 GMT-0700 (Pacific Daylight Time)","651390","Match,No Match","","null","","","","","","<div class='trialBorder'><div class='vertical-center'><img style='vertical-align:center; align:center' src='img/fixation2_sml.jpg'></div><div class='arrayDiv1'><div class='tc'><img class='introPic' src='trustrating_stim/white_mw013.bmp'><br><font color='green'><strong>Share</strong></font></div></div></div>","null","ARRAY","1","trustrating_stim/white_mw013.bmp","1","noMatchFace","i","1500","","","","",""
"html-keyboard-response","16","175719","0.0-5.0-3.2","63d1819e544fa53e891614ec","bdp_wmem","Wed Mar 15 2023 13:07:53 GMT-0700 (Pacific Daylight Time)","651390","Match,No Match","","null","","","","","","<div class='trialBorder'><div class='vertical-center'><img src='img/fixation2_sml.jpg'</img></div></div>","null","DELAY","","","","","","","","","","",""
"html-keyboard-response","17","177493","0.0-5.0-4.2","63d1819e544fa53e891614ec","bdp_wmem","Wed Mar 15 2023 13:07:53 GMT-0700 (Pacific Daylight Time)","651390","Match,No Match","","1771","","","","","","<div class='trialBorder'><div class='targDiv'><div class='tc'><img class='introPic' src='trustrating_stim/white_mw091.bmp'><br><font color='green'><strong>Share</strong></font></div></div><div class='respDiv'><div class='respDivL'>Match<br>(e)</div><div class='respDivR'>No Match<br>(i)</div></div></div>","i","TARGET","1","trustrating_stim/white_mw013.bmp","1","noMatchFace","i","1500","trustrating_stim/white_mw091.bmp","green","Share","PRACTICE","1"
"html-keyboard-response","18","178004","0.0-5.0-5.2","63d1819e544fa53e891614ec","bdp_wmem","Wed Mar 15 2023 13:07:53 GMT-0700 (Pacific Daylight Time)","651390","Match,No Match","","null","","","","","","<div class='trialBorder'><div class='vertical-center'><img src='img/correct.jpg'></div><div class='respDiv'><div class='respDivL'>Match<br>(e)</div><div class='respDivR'><font style='color:orange'>No Match<br>(i)</font></div></div></div>","null","FEEDBACK","","","","","","","","","","",""
"html-keyboard-response","19","178510","0.0-5.0-1.3","63d1819e544fa53e891614ec","bdp_wmem","Wed Mar 15 2023 13:07:53 GMT-0700 (Pacific Daylight Time)","651390","Match,No Match","","null","","","","","","<div class='trialBorder'><div class='vertical-center'><img src='img/fixation2_sml.jpg'</img></div></div>","null","FIX","","","","","","","","","","",""
"html-keyboard-response","20","183024","0.0-5.0-2.3","63d1819e544fa53e891614ec","bdp_wmem","Wed Mar 15 2023 13:07:53 GMT-0700 (Pacific Daylight Time)","651390","Match,No Match","","null","","","","","","<div class='trialBorder'><div class='vertical-center'><img style='vertical-align:center; align:center' src='img/fixation2_sml.jpg'></div><div class='arrayDiv3'><div class='tl'><img class='introPic' src='trustrating_stim/white_mw070.bmp'><br><font color='red'><strong>Keep</strong></font></div><div class='tc'><img class='introPic' src='trustrating_stim/white_mw038.bmp'><br><font color='green'><strong>Share</strong></font></div><div class='tr'><img class='introPic' src='trustrating_stim/white_mw010.bmp'><br><font color='green'><strong>Share</strong></font></div></div></div>","null","ARRAY","3","trustrating_stim/white_mw070.bmp,trustrating_stim/white_mw038.bmp,trustrating_stim/white_mw010.bmp","0,1,1","Match","e","4500","","","","",""
"html-keyboard-response","21","187034","0.0-5.0-3.3","63d1819e544fa53e891614ec","bdp_wmem","Wed Mar 15 2023 13:07:53 GMT-0700 (Pacific Daylight Time)","651390","Match,No Match","","null","","","","","","<div class='trialBorder'><div class='vertical-center'><img src='img/fixation2_sml.jpg'</img></div></div>","null","DELAY","","","","","","","","","","",""
"html-keyboard-response","22","189342","0.0-5.0-4.3","63d1819e544fa53e891614ec","bdp_wmem","Wed Mar 15 2023 13:07:53 GMT-0700 (Pacific Daylight Time)","651390","Match,No Match","","2303","","","","","","<div class='trialBorder'><div class='targDiv'><div class='tc'><img class='introPic' src='trustrating_stim/white_mw010.bmp'><br><font color='green'><strong>Share</strong></font></div></div><div class='respDiv'><div class='respDivL'>Match<br>(e)</div><div class='respDivR'>No Match<br>(i)</div></div></div>","e","TARGET","3","trustrating_stim/white_mw070.bmp,trustrating_stim/white_mw038.bmp,trustrating_stim/white_mw010.bmp","0,1,1","Match","e","4500","trustrating_stim/white_mw010.bmp","green","Share","PRACTICE","1"
"html-keyboard-response","23","189845","0.0-5.0-5.3","63d1819e544fa53e891614ec","bdp_wmem","Wed Mar 15 2023 13:07:53 GMT-0700 (Pacific Daylight Time)","651390","Match,No Match","","null","","","","","","<div class='trialBorder'><div class='vertical-center'><img src='img/correct.jpg'></div><div class='respDiv'><div class='respDivL'><font style='color:orange'>Match<br>(e)</font></div><div class='respDivR'>No Match<br>(i)</div></div></div>","null","FEEDBACK","","","","","","","","","","",""
"html-keyboard-response","24","190353","0.0-5.0-1.4","63d1819e544fa53e891614ec","bdp_wmem","Wed Mar 15 2023 13:07:53 GMT-0700 (Pacific Daylight Time)","651390","Match,No Match","","null","","","","","","<div class='trialBorder'><div class='vertical-center'><img src='img/fixation2_sml.jpg'</img></div></div>","null","FIX","","","","","","","","","","",""
"html-keyboard-response","25","193363","0.0-5.0-2.4","63d1819e544fa53e891614ec","bdp_wmem","Wed Mar 15 2023 13:07:53 GMT-0700 (Pacific Daylight Time)","651390","Match,No Match","","null","","","","","","<div class='trialBorder'><div class='vertical-center'><img style='vertical-align:center; align:center' src='img/fixation2_sml.jpg'></div><div class='arrayDiv2'><div class='tl'><img class='introPic' src='trustrating_stim/white_mw040.bmp'><br><font color='red'><strong>Keep</strong></font></div><div class='tr'><img class='introPic' src='trustrating_stim/white_mw085.bmp'><br><font color='green'><strong>Share</strong></font></div></div></div>","null","ARRAY","2","trustrating_stim/white_mw040.bmp,trustrating_stim/white_mw085.bmp","0,1","noMatchOutcome","i","3000","","","","",""
"html-keyboard-response","26","197368","0.0-5.0-3.4","63d1819e544fa53e891614ec","bdp_wmem","Wed Mar 15 2023 13:07:53 GMT-0700 (Pacific Daylight Time)","651390","Match,No Match","","null","","","","","","<div class='trialBorder'><div class='vertical-center'><img src='img/fixation2_sml.jpg'</img></div></div>","null","DELAY","","","","","","","","","","",""
"html-keyboard-response","27","198974","0.0-5.0-4.4","63d1819e544fa53e891614ec","bdp_wmem","Wed Mar 15 2023 13:07:53 GMT-0700 (Pacific Daylight Time)","651390","Match,No Match","","1602","","","","","","<div class='trialBorder'><div class='targDiv'><div class='tc'><img class='introPic' src='trustrating_stim/white_mw085.bmp'><br><font color='red'><strong>Keep</strong></font></div></div><div class='respDiv'><div class='respDivL'>Match<br>(e)</div><div class='respDivR'>No Match<br>(i)</div></div></div>","e","TARGET","2","trustrating_stim/white_mw040.bmp,trustrating_stim/white_mw085.bmp","0,1","noMatchOutcome","i","3000","trustrating_stim/white_mw085.bmp","red","Keep","PRACTICE","0"
"html-keyboard-response","28","199477","0.0-5.0-5.4","63d1819e544fa53e891614ec","bdp_wmem","Wed Mar 15 2023 13:07:53 GMT-0700 (Pacific Daylight Time)","651390","Match,No Match","","null","","","","","","<div class='trialBorder'><div class='vertical-center'><img src='img/error.jpg'></div><div class='respDiv'><div class='respDivL'><font style='color:orange'>Match<br>(e)</font></div><div class='respDivR'>No Match<br>(i)</div></div></div>","null","FEEDBACK","","","","","","","","","","",""
"html-keyboard-response","29","199993","0.0-5.0-1.5","63d1819e544fa53e891614ec","bdp_wmem","Wed Mar 15 2023 13:07:53 GMT-0700 (Pacific Daylight Time)","651390","Match,No Match","","null","","","","","","<div class='trialBorder'><div class='vertical-center'><img src='img/fixation2_sml.jpg'</img></div></div>","null","FIX","","","","","","","","","","",""
"html-keyboard-response","30","201501","0.0-5.0-2.5","63d1819e544fa53e891614ec","bdp_wmem","Wed Mar 15 2023 13:07:53 GMT-0700 (Pacific Daylight Time)","651390","Match,No Match","","null","","","","","","<div class='trialBorder'><div class='vertical-center'><img style='vertical-align:center; align:center' src='img/fixation2_sml.jpg'></div><div class='arrayDiv1'><div class='tc'><img class='introPic' src='trustrating_stim/white_mw085.bmp'><br><font color='green'><strong>Share</strong></font></div></div></div>","null","ARRAY","1","trustrating_stim/white_mw085.bmp","1","Match","e","1500","","","","",""
"html-keyboard-response","31","205512","0.0-5.0-3.5","63d1819e544fa53e891614ec","bdp_wmem","Wed Mar 15 2023 13:07:53 GMT-0700 (Pacific Daylight Time)","651390","Match,No Match","","null","","","","","","<div class='trialBorder'><div class='vertical-center'><img src='img/fixation2_sml.jpg'</img></div></div>","null","DELAY","","","","","","","","","","",""
"html-keyboard-response","32","206504","0.0-5.0-4.5","63d1819e544fa53e891614ec","bdp_wmem","Wed Mar 15 2023 13:07:53 GMT-0700 (Pacific Daylight Time)","651390","Match,No Match","","988","","","","","","<div class='trialBorder'><div class='targDiv'><div class='tc'><img class='introPic' src='trustrating_stim/white_mw085.bmp'><br><font color='green'><strong>Share</strong></font></div></div><div class='respDiv'><div class='respDivL'>Match<br>(e)</div><div class='respDivR'>No Match<br>(i)</div></div></div>","e","TARGET","1","trustrating_stim/white_mw085.bmp","1","Match","e","1500","trustrating_stim/white_mw085.bmp","green","Share","PRACTICE","1"
"html-keyboard-response","33","207018","0.0-5.0-5.5","63d1819e544fa53e891614ec","bdp_wmem","Wed Mar 15 2023 13:07:53 GMT-0700 (Pacific Daylight Time)","651390","Match,No Match","","null","","","","","","<div class='trialBorder'><div class='vertical-center'><img src='img/correct.jpg'></div><div class='respDiv'><div class='respDivL'><font style='color:orange'>Match<br>(e)</font></div><div class='respDivR'>No Match<br>(i)</div></div></div>","null","FEEDBACK","","","","","","","","","","",""
"instructions","34","209036","0.0-6.0","63d1819e544fa53e891614ec","bdp_wmem","Wed Mar 15 2023 13:07:53 GMT-0700 (Pacific Daylight Time)","651390","Match,No Match","[{""page_index"":0,""viewing_time"":2017}]","2017","","","","","","","","","","","","","","","","","","",""
"html-keyboard-response","35","209552","0.0-7.0-1.0","63d1819e544fa53e891614ec","bdp_wmem","Wed Mar 15 2023 13:07:53 GMT-0700 (Pacific Daylight Time)","651390","Match,No Match","","null","","","","","","<div class='trialBorder'><div class='vertical-center'><img src='img/fixation2_sml.jpg'</img></div></div>","null","FIX","","","","","","","","","","",""
"html-keyboard-response","36","214058","0.0-7.0-2.0","63d1819e544fa53e891614ec","bdp_wmem","Wed Mar 15 2023 13:07:53 GMT-0700 (Pacific Daylight Time)","651390","Match,No Match","","null","","","","","","<div class='trialBorder'><div class='vertical-center'><img style='vertical-align:center; align:center' src='img/fixation2_sml.jpg'></div><div class='arrayDiv3'><div class='tl'><img class='introPic' src='trustrating_stim/white_mw013.bmp'><br><font color='green'><strong>Share</strong></font></div><div class='tc'><img class='introPic' src='trustrating_stim/white_mw012.bmp'><br><font color='red'><strong>Keep</strong></font></div><div class='tr'><img class='introPic' src='trustrating_stim/white_mw078.bmp'><br><font color='green'><strong>Share</strong></font></div></div></div>","null","ARRAY","3","trustrating_stim/white_mw013.bmp,trustrating_stim/white_mw012.bmp,trustrating_stim/white_mw078.bmp","1,0,1","noMatchOutcome","i","4500","","","","",""
"html-keyboard-response","37","218068","0.0-7.0-3.0","63d1819e544fa53e891614ec","bdp_wmem","Wed Mar 15 2023 13:07:53 GMT-0700 (Pacific Daylight Time)","651390","Match,No Match","","null","","","","","","<div class='trialBorder'><div class='vertical-center'><img src='img/fixation2_sml.jpg'</img></div></div>","null","DELAY","","","","","","","","","","",""
"html-keyboard-response","38","219523","0.0-7.0-4.0","63d1819e544fa53e891614ec","bdp_wmem","Wed Mar 15 2023 13:07:53 GMT-0700 (Pacific Daylight Time)","651390","Match,No Match","","1452","","","","","","<div class='trialBorder'><div class='targDiv'><div class='tc'><img class='introPic' src='trustrating_stim/white_mw012.bmp'><br><font color='green'><strong>Share</strong></font></div></div><div class='respDiv'><div class='respDivL'>Match<br>(e)</div><div class='respDivR'>No Match<br>(i)</div></div></div>","e","TARGET","3","trustrating_stim/white_mw013.bmp,trustrating_stim/white_mw012.bmp,trustrating_stim/white_mw078.bmp","1,0,1","noMatchOutcome","i","4500","trustrating_stim/white_mw012.bmp","green","Share","REAL","0"
"html-keyboard-response","39","220027","0.0-7.0-5.0","63d1819e544fa53e891614ec","bdp_wmem","Wed Mar 15 2023 13:07:53 GMT-0700 (Pacific Daylight Time)","651390","Match,No Match","","null","","","","","","<div class='trialBorder'><div class='vertical-center'><img src='img/error.jpg'></div><div class='respDiv'><div class='respDivL'><font style='color:orange'>Match<br>(e)</font></div><div class='respDivR'>No Match<br>(i)</div></div></div>","null","FEEDBACK","","","","","","","","","","",""
"html-keyboard-response","40","220533","0.0-7.0-1.1","63d1819e544fa53e891614ec","bdp_wmem","Wed Mar 15 2023 13:07:53 GMT-0700 (Pacific Daylight Time)","651390","Match,No Match","","null","","","","","","<div class='trialBorder'><div class='vertical-center'><img src='img/fixation2_sml.jpg'</img></div></div>","null","FIX","","","","","","","","","","",""
"html-keyboard-response","41","223538","0.0-7.0-2.1","63d1819e544fa53e891614ec","bdp_wmem","Wed Mar 15 2023 13:07:53 GMT-0700 (Pacific Daylight Time)","651390","Match,No Match","","null","","","","","","<div class='trialBorder'><div class='vertical-center'><img style='vertical-align:center; align:center' src='img/fixation2_sml.jpg'></div><div class='arrayDiv2'><div class='tl'><img class='introPic' src='trustrating_stim/white_mw091.bmp'><br><font color='red'><strong>Keep</strong></font></div><div class='tr'><img class='introPic' src='trustrating_stim/white_mw013.bmp'><br><font color='green'><strong>Share</strong></font></div></div></div>","null","ARRAY","2","trustrating_stim/white_mw091.bmp,trustrating_stim/white_mw013.bmp","0,1","noMatchOutcome","i","3000","","","","",""
"html-keyboard-response","42","227543","0.0-7.0-3.1","63d1819e544fa53e891614ec","bdp_wmem","Wed Mar 15 2023 13:07:53 GMT-0700 (Pacific Daylight Time)","651390","Match,No Match","","null","","","","","","<div class='trialBorder'><div class='vertical-center'><img src='img/fixation2_sml.jpg'</img></div></div>","null","DELAY","","","","","","","","","","",""
"html-keyboard-response","43","228666","0.0-7.0-4.1","63d1819e544fa53e891614ec","bdp_wmem","Wed Mar 15 2023 13:07:53 GMT-0700 (Pacific Daylight Time)","651390","Match,No Match","","1119","","","","","","<div class='trialBorder'><div class='targDiv'><div class='tc'><img class='introPic' src='trustrating_stim/white_mw013.bmp'><br><font color='red'><strong>Keep</strong></font></div></div><div class='respDiv'><div class='respDivL'>Match<br>(e)</div><div class='respDivR'>No Match<br>(i)</div></div></div>","e","TARGET","2","trustrating_stim/white_mw091.bmp,trustrating_stim/white_mw013.bmp","0,1","noMatchOutcome","i","3000","trustrating_stim/white_mw013.bmp","red","Keep","REAL","0"
"html-keyboard-response","44","229178","0.0-7.0-5.1","63d1819e544fa53e891614ec","bdp_wmem","Wed Mar 15 2023 13:07:53 GMT-0700 (Pacific Daylight Time)","651390","Match,No Match","","null","","","","","","<div class='trialBorder'><div class='vertical-center'><img src='img/error.jpg'></div><div class='respDiv'><div class='respDivL'><font style='color:orange'>Match<br>(e)</font></div><div class='respDivR'>No Match<br>(i)</div></div></div>","null","FEEDBACK","","","","","","","","","","",""
"html-keyboard-response","45","229685","0.0-7.0-1.2","63d1819e544fa53e891614ec","bdp_wmem","Wed Mar 15 2023 13:07:53 GMT-0700 (Pacific Daylight Time)","651390","Match,No Match","","null","","","","","","<div class='trialBorder'><div class='vertical-center'><img src='img/fixation2_sml.jpg'</img></div></div>","null","FIX","","","","","","","","","","",""
"html-keyboard-response","46","234195","0.0-7.0-2.2","63d1819e544fa53e891614ec","bdp_wmem","Wed Mar 15 2023 13:07:53 GMT-0700 (Pacific Daylight Time)","651390","Match,No Match","","null","","","","","","<div class='trialBorder'><div class='vertical-center'><img style='vertical-align:center; align:center' src='img/fixation2_sml.jpg'></div><div class='arrayDiv3'><div class='tl'><img class='introPic' src='trustrating_stim/white_mw042.bmp'><br><font color='green'><strong>Share</strong></font></div><div class='tc'><img class='introPic' src='trustrating_stim/white_mw013.bmp'><br><font color='green'><strong>Share</strong></font></div><div class='tr'><img class='introPic' src='trustrating_stim/white_mw091.bmp'><br><font color='red'><strong>Keep</strong></font></div></div></div>","null","ARRAY","3","trustrating_stim/white_mw042.bmp,trustrating_stim/white_mw013.bmp,trustrating_stim/white_mw091.bmp","1,1,0","noMatchFace","i","4500","","","","",""
"html-keyboard-response","47","238205","0.0-7.0-3.2","63d1819e544fa53e891614ec","bdp_wmem","Wed Mar 15 2023 13:07:53 GMT-0700 (Pacific Daylight Time)","651390","Match,No Match","","null","","","","","","<div class='trialBorder'><div class='vertical-center'><img src='img/fixation2_sml.jpg'</img></div></div>","null","DELAY","","","","","","","","","","",""
"html-keyboard-response","48","239174","0.0-7.0-4.2","63d1819e544fa53e891614ec","bdp_wmem","Wed Mar 15 2023 13:07:53 GMT-0700 (Pacific Daylight Time)","651390","Match,No Match","","966","","","","","","<div class='trialBorder'><div class='targDiv'><div class='tc'><img class='introPic' src='trustrating_stim/white_mw010.bmp'><br><font color='green'><strong>Share</strong></font></div></div><div class='respDiv'><div class='respDivL'>Match<br>(e)</div><div class='respDivR'>No Match<br>(i)</div></div></div>","i","TARGET","3","trustrating_stim/white_mw042.bmp,trustrating_stim/white_mw013.bmp,trustrating_stim/white_mw091.bmp","1,1,0","noMatchFace","i","4500","trustrating_stim/white_mw010.bmp","green","Share","REAL","1"
"html-keyboard-response","49","239688","0.0-7.0-5.2","63d1819e544fa53e891614ec","bdp_wmem","Wed Mar 15 2023 13:07:53 GMT-0700 (Pacific Daylight Time)","651390","Match,No Match","","null","","","","","","<div class='trialBorder'><div class='vertical-center'><img src='img/correct.jpg'></div><div class='respDiv'><div class='respDivL'>Match<br>(e)</div><div class='respDivR'><font style='color:orange'>No Match<br>(i)</font></div></div></div>","null","FEEDBACK","","","","","","","","","","",""
"html-keyboard-response","50","240199","0.0-7.0-1.3","63d1819e544fa53e891614ec","bdp_wmem","Wed Mar 15 2023 13:07:53 GMT-0700 (Pacific Daylight Time)","651390","Match,No Match","","null","","","","","","<div class='trialBorder'><div class='vertical-center'><img src='img/fixation2_sml.jpg'</img></div></div>","null","FIX","","","","","","","","","","",""
"html-keyboard-response","51","244707","0.0-7.0-2.3","63d1819e544fa53e891614ec","bdp_wmem","Wed Mar 15 2023 13:07:53 GMT-0700 (Pacific Daylight Time)","651390","Match,No Match","","null","","","","","","<div class='trialBorder'><div class='vertical-center'><img style='vertical-align:center; align:center' src='img/fixation2_sml.jpg'></div><div class='arrayDiv3'><div class='tl'><img class='introPic' src='trustrating_stim/white_mw078.bmp'><br><font color='red'><strong>Keep</strong></font></div><div class='tc'><img class='introPic' src='trustrating_stim/white_mw013.bmp'><br><font color='green'><strong>Share</strong></font></div><div class='tr'><img class='introPic' src='trustrating_stim/white_mw091.bmp'><br><font color='green'><strong>Share</strong></font></div></div></div>","null","ARRAY","3","trustrating_stim/white_mw078.bmp,trustrating_stim/white_mw013.bmp,trustrating_stim/white_mw091.bmp","0,1,1","Match","e","4500","","","","",""
"html-keyboard-response","52","248712","0.0-7.0-3.3","63d1819e544fa53e891614ec","bdp_wmem","Wed Mar 15 2023 13:07:53 GMT-0700 (Pacific Daylight Time)","651390","Match,No Match","","null","","","","","","<div class='trialBorder'><div class='vertical-center'><img src='img/fixation2_sml.jpg'</img></div></div>","null","DELAY","","","","","","","","","","",""
"html-keyboard-response","53","250052","0.0-7.0-4.3","63d1819e544fa53e891614ec","bdp_wmem","Wed Mar 15 2023 13:07:53 GMT-0700 (Pacific Daylight Time)","651390","Match,No Match","","1336","","","","","","<div class='trialBorder'><div class='targDiv'><div class='tc'><img class='introPic' src='trustrating_stim/white_mw013.bmp'><br><font color='green'><strong>Share</strong></font></div></div><div class='respDiv'><div class='respDivL'>Match<br>(e)</div><div class='respDivR'>No Match<br>(i)</div></div></div>","e","TARGET","3","trustrating_stim/white_mw078.bmp,trustrating_stim/white_mw013.bmp,trustrating_stim/white_mw091.bmp","0,1,1","Match","e","4500","trustrating_stim/white_mw013.bmp","green","Share","REAL","1"
"html-keyboard-response","54","250560","0.0-7.0-5.3","63d1819e544fa53e891614ec","bdp_wmem","Wed Mar 15 2023 13:07:53 GMT-0700 (Pacific Daylight Time)","651390","Match,No Match","","null","","","","","","<div class='trialBorder'><div class='vertical-center'><img src='img/correct.jpg'></div><div class='respDiv'><div class='respDivL'><font style='color:orange'>Match<br>(e)</font></div><div class='respDivR'>No Match<br>(i)</div></div></div>","null","FEEDBACK","","","","","","","","","","",""
"html-keyboard-response","55","251067","0.0-7.0-1.4","63d1819e544fa53e891614ec","bdp_wmem","Wed Mar 15 2023 13:07:53 GMT-0700 (Pacific Daylight Time)","651390","Match,No Match","","null","","","","","","<div class='trialBorder'><div class='vertical-center'><img src='img/fixation2_sml.jpg'</img></div></div>","null","FIX","","","","","","","","","","",""
"html-keyboard-response","56","255575","0.0-7.0-2.4","63d1819e544fa53e891614ec","bdp_wmem","Wed Mar 15 2023 13:07:53 GMT-0700 (Pacific Daylight Time)","651390","Match,No Match","","null","","","","","","<div class='trialBorder'><div class='vertical-center'><img style='vertical-align:center; align:center' src='img/fixation2_sml.jpg'></div><div class='arrayDiv3'><div class='tl'><img class='introPic' src='trustrating_stim/white_mw040.bmp'><br><font color='green'><strong>Share</strong></font></div><div class='tc'><img class='introPic' src='trustrating_stim/white_mw078.bmp'><br><font color='green'><strong>Share</strong></font></div><div class='tr'><img class='introPic' src='trustrating_stim/white_mw003.bmp'><br><font color='red'><strong>Keep</strong></font></div></div></div>","null","ARRAY","3","trustrating_stim/white_mw040.bmp,trustrating_stim/white_mw078.bmp,trustrating_stim/white_mw003.bmp","1,1,0","noMatchOutcome","i","4500","","","","",""
"html-keyboard-response","57","259578","0.0-7.0-3.4","63d1819e544fa53e891614ec","bdp_wmem","Wed Mar 15 2023 13:07:53 GMT-0700 (Pacific Daylight Time)","651390","Match,No Match","","null","","","","","","<div class='trialBorder'><div class='vertical-center'><img src='img/fixation2_sml.jpg'</img></div></div>","null","DELAY","","","","","","","","","","",""
"html-keyboard-response","58","260598","0.0-7.0-4.4","63d1819e544fa53e891614ec","bdp_wmem","Wed Mar 15 2023 13:07:53 GMT-0700 (Pacific Daylight Time)","651390","Match,No Match","","1017","","","","","","<div class='trialBorder'><div class='targDiv'><div class='tc'><img class='introPic' src='trustrating_stim/white_mw040.bmp'><br><font color='red'><strong>Keep</strong></font></div></div><div class='respDiv'><div class='respDivL'>Match<br>(e)</div><div class='respDivR'>No Match<br>(i)</div></div></div>","e","TARGET","3","trustrating_stim/white_mw040.bmp,trustrating_stim/white_mw078.bmp,trustrating_stim/white_mw003.bmp","1,1,0","noMatchOutcome","i","4500","trustrating_stim/white_mw040.bmp","red","Keep","REAL","0"
"html-keyboard-response","59","261110","0.0-7.0-5.4","63d1819e544fa53e891614ec","bdp_wmem","Wed Mar 15 2023 13:07:53 GMT-0700 (Pacific Daylight Time)","651390","Match,No Match","","null","","","","","","<div class='trialBorder'><div class='vertical-center'><img src='img/error.jpg'></div><div class='respDiv'><div class='respDivL'><font style='color:orange'>Match<br>(e)</font></div><div class='respDivR'>No Match<br>(i)</div></div></div>","null","FEEDBACK","","","","","","","","","","",""
"html-keyboard-response","60","261617","0.0-7.0-1.5","63d1819e544fa53e891614ec","bdp_wmem","Wed Mar 15 2023 13:07:53 GMT-0700 (Pacific Daylight Time)","651390","Match,No Match","","null","","","","","","<div class='trialBorder'><div class='vertical-center'><img src='img/fixation2_sml.jpg'</img></div></div>","null","FIX","","","","","","","","","","",""
"html-keyboard-response","61","264622","0.0-7.0-2.5","63d1819e544fa53e891614ec","bdp_wmem","Wed Mar 15 2023 13:07:53 GMT-0700 (Pacific Daylight Time)","651390","Match,No Match","","null","","","","","","<div class='trialBorder'><div class='vertical-center'><img style='vertical-align:center; align:center' src='img/fixation2_sml.jpg'></div><div class='arrayDiv2'><div class='tl'><img class='introPic' src='trustrating_stim/white_mw038.bmp'><br><font color='red'><strong>Keep</strong></font></div><div class='tr'><img class='introPic' src='trustrating_stim/white_mw085.bmp'><br><font color='green'><strong>Share</strong></font></div></div></div>","null","ARRAY","2","trustrating_stim/white_mw038.bmp,trustrating_stim/white_mw085.bmp","0,1","noMatchOutcome","i","3000","","","","",""
"html-keyboard-response","62","268627","0.0-7.0-3.5","63d1819e544fa53e891614ec","bdp_wmem","Wed Mar 15 2023 13:07:53 GMT-0700 (Pacific Daylight Time)","651390","Match,No Match","","null","","","","","","<div class='trialBorder'><div class='vertical-center'><img src='img/fixation2_sml.jpg'</img></div></div>","null","DELAY","","","","","","","","","","",""
"html-keyboard-response","63","269996","0.0-7.0-4.5","63d1819e544fa53e891614ec","bdp_wmem","Wed Mar 15 2023 13:07:53 GMT-0700 (Pacific Daylight Time)","651390","Match,No Match","","1366","","","","","","<div class='trialBorder'><div class='targDiv'><div class='tc'><img class='introPic' src='trustrating_stim/white_mw085.bmp'><br><font color='red'><strong>Keep</strong></font></div></div><div class='respDiv'><div class='respDivL'>Match<br>(e)</div><div class='respDivR'>No Match<br>(i)</div></div></div>","e","TARGET","2","trustrating_stim/white_mw038.bmp,trustrating_stim/white_mw085.bmp","0,1","noMatchOutcome","i","3000","trustrating_stim/white_mw085.bmp","red","Keep","REAL","0"
"html-keyboard-response","64","270503","0.0-7.0-5.5","63d1819e544fa53e891614ec","bdp_wmem","Wed Mar 15 2023 13:07:53 GMT-0700 (Pacific Daylight Time)","651390","Match,No Match","","null","","","","","","<div class='trialBorder'><div class='vertical-center'><img src='img/error.jpg'></div><div class='respDiv'><div class='respDivL'><font style='color:orange'>Match<br>(e)</font></div><div class='respDivR'>No Match<br>(i)</div></div></div>","null","FEEDBACK","","","","","","","","","","",""
"html-keyboard-response","65","271017","0.0-7.0-1.6","63d1819e544fa53e891614ec","bdp_wmem","Wed Mar 15 2023 13:07:53 GMT-0700 (Pacific Daylight Time)","651390","Match,No Match","","null","","","","","","<div class='trialBorder'><div class='vertical-center'><img src='img/fixation2_sml.jpg'</img></div></div>","null","FIX","","","","","","","","","","",""
"html-keyboard-response","66","272526","0.0-7.0-2.6","63d1819e544fa53e891614ec","bdp_wmem","Wed Mar 15 2023 13:07:53 GMT-0700 (Pacific Daylight Time)","651390","Match,No Match","","null","","","","","","<div class='trialBorder'><div class='vertical-center'><img style='vertical-align:center; align:center' src='img/fixation2_sml.jpg'></div><div class='arrayDiv1'><div class='tc'><img class='introPic' src='trustrating_stim/white_mw042.bmp'><br><font color='red'><strong>Keep</strong></font></div></div></div>","null","ARRAY","1","trustrating_stim/white_mw042.bmp","0","noMatchOutcome","i","1500","","","","",""
"html-keyboard-response","67","276536","0.0-7.0-3.6","63d1819e544fa53e891614ec","bdp_wmem","Wed Mar 15 2023 13:07:53 GMT-0700 (Pacific Daylight Time)","651390","Match,No Match","","null","","","","","","<div class='trialBorder'><div class='vertical-center'><img src='img/fixation2_sml.jpg'</img></div></div>","null","DELAY","","","","","","","","","","",""
"html-keyboard-response","68","277710","0.0-7.0-4.6","63d1819e544fa53e891614ec","bdp_wmem","Wed Mar 15 2023 13:07:53 GMT-0700 (Pacific Daylight Time)","651390","Match,No Match","","1171","","","","","","<div class='trialBorder'><div class='targDiv'><div class='tc'><img class='introPic' src='trustrating_stim/white_mw042.bmp'><br><font color='green'><strong>Share</strong></font></div></div><div class='respDiv'><div class='respDivL'>Match<br>(e)</div><div class='respDivR'>No Match<br>(i)</div></div></div>","e","TARGET","1","trustrating_stim/white_mw042.bmp","0","noMatchOutcome","i","1500","trustrating_stim/white_mw042.bmp","green","Share","REAL","0"
"html-keyboard-response","69","278226","0.0-7.0-5.6","63d1819e544fa53e891614ec","bdp_wmem","Wed Mar 15 2023 13:07:53 GMT-0700 (Pacific Daylight Time)","651390","Match,No Match","","null","","","","","","<div class='trialBorder'><div class='vertical-center'><img src='img/error.jpg'></div><div class='respDiv'><div class='respDivL'><font style='color:orange'>Match<br>(e)</font></div><div class='respDivR'>No Match<br>(i)</div></div></div>","null","FEEDBACK","","","","","","","","","","",""
"html-keyboard-response","70","278732","0.0-7.0-1.7","63d1819e544fa53e891614ec","bdp_wmem","Wed Mar 15 2023 13:07:53 GMT-0700 (Pacific Daylight Time)","651390","Match,No Match","","null","","","","","","<div class='trialBorder'><div class='vertical-center'><img src='img/fixation2_sml.jpg'</img></div></div>","null","FIX","","","","","","","","","","",""
"html-keyboard-response","71","281742","0.0-7.0-2.7","63d1819e544fa53e891614ec","bdp_wmem","Wed Mar 15 2023 13:07:53 GMT-0700 (Pacific Daylight Time)","651390","Match,No Match","","null","","","","","","<div class='trialBorder'><div class='vertical-center'><img style='vertical-align:center; align:center' src='img/fixation2_sml.jpg'></div><div class='arrayDiv2'><div class='tl'><img class='introPic' src='trustrating_stim/white_mw085.bmp'><br><font color='red'><strong>Keep</strong></font></div><div class='tr'><img class='introPic' src='trustrating_stim/white_mw092.bmp'><br><font color='green'><strong>Share</strong></font></div></div></div>","null","ARRAY","2","trustrating_stim/white_mw085.bmp,trustrating_stim/white_mw092.bmp","0,1","Match","e","3000","","","","",""
"html-keyboard-response","72","285748","0.0-7.0-3.7","63d1819e544fa53e891614ec","bdp_wmem","Wed Mar 15 2023 13:07:53 GMT-0700 (Pacific Daylight Time)","651390","Match,No Match","","null","","","","","","<div class='trialBorder'><div class='vertical-center'><img src='img/fixation2_sml.jpg'</img></div></div>","null","DELAY","","","","","","","","","","",""
"html-keyboard-response","73","287323","0.0-7.0-4.7","63d1819e544fa53e891614ec","bdp_wmem","Wed Mar 15 2023 13:07:53 GMT-0700 (Pacific Daylight Time)","651390","Match,No Match","","1571","","","","","","<div class='trialBorder'><div class='targDiv'><div class='tc'><img class='introPic' src='trustrating_stim/white_mw092.bmp'><br><font color='green'><strong>Share</strong></font></div></div><div class='respDiv'><div class='respDivL'>Match<br>(e)</div><div class='respDivR'>No Match<br>(i)</div></div></div>","e","TARGET","2","trustrating_stim/white_mw085.bmp,trustrating_stim/white_mw092.bmp","0,1","Match","e","3000","trustrating_stim/white_mw092.bmp","green","Share","REAL","1"
"html-keyboard-response","74","287840","0.0-7.0-5.7","63d1819e544fa53e891614ec","bdp_wmem","Wed Mar 15 2023 13:07:53 GMT-0700 (Pacific Daylight Time)","651390","Match,No Match","","null","","","","","","<div class='trialBorder'><div class='vertical-center'><img src='img/correct.jpg'></div><div class='respDiv'><div class='respDivL'><font style='color:orange'>Match<br>(e)</font></div><div class='respDivR'>No Match<br>(i)</div></div></div>","null","FEEDBACK","","","","","","","","","","",""
"html-keyboard-response","75","288348","0.0-7.0-1.8","63d1819e544fa53e891614ec","bdp_wmem","Wed Mar 15 2023 13:07:53 GMT-0700 (Pacific Daylight Time)","651390","Match,No Match","","null","","","","","","<div class='trialBorder'><div class='vertical-center'><img src='img/fixation2_sml.jpg'</img></div></div>","null","FIX","","","","","","","","","","",""
"html-keyboard-response","76","291363","0.0-7.0-2.8","63d1819e544fa53e891614ec","bdp_wmem","Wed Mar 15 2023 13:07:53 GMT-0700 (Pacific Daylight Time)","651390","Match,No Match","","null","","","","","","<div class='trialBorder'><div class='vertical-center'><img style='vertical-align:center; align:center' src='img/fixation2_sml.jpg'></div><div class='arrayDiv2'><div class='tl'><img class='introPic' src='trustrating_stim/white_mw010.bmp'><br><font color='red'><strong>Keep</strong></font></div><div class='tr'><img class='introPic' src='trustrating_stim/white_mw042.bmp'><br><font color='green'><strong>Share</strong></font></div></div></div>","null","ARRAY","2","trustrating_stim/white_mw010.bmp,trustrating_stim/white_mw042.bmp","0,1","Match","e","3000","","","","",""
"html-keyboard-response","77","295367","0.0-7.0-3.8","63d1819e544fa53e891614ec","bdp_wmem","Wed Mar 15 2023 13:07:53 GMT-0700 (Pacific Daylight Time)","651390","Match,No Match","","null","","","","","","<div class='trialBorder'><div class='vertical-center'><img src='img/fixation2_sml.jpg'</img></div></div>","null","DELAY","","","","","","","","","","",""
"html-keyboard-response","78","296202","0.0-7.0-4.8","63d1819e544fa53e891614ec","bdp_wmem","Wed Mar 15 2023 13:07:53 GMT-0700 (Pacific Daylight Time)","651390","Match,No Match","","831","","","","","","<div class='trialBorder'><div class='targDiv'><div class='tc'><img class='introPic' src='trustrating_stim/white_mw010.bmp'><br><font color='red'><strong>Keep</strong></font></div></div><div class='respDiv'><div class='respDivL'>Match<br>(e)</div><div class='respDivR'>No Match<br>(i)</div></div></div>","i","TARGET","2","trustrating_stim/white_mw010.bmp,trustrating_stim/white_mw042.bmp","0,1","Match","e","3000","trustrating_stim/white_mw010.bmp","red","Keep","REAL","0"
"html-keyboard-response","79","296707","0.0-7.0-5.8","63d1819e544fa53e891614ec","bdp_wmem","Wed Mar 15 2023 13:07:53 GMT-0700 (Pacific Daylight Time)","651390","Match,No Match","","null","","","","","","<div class='trialBorder'><div class='vertical-center'><img src='img/error.jpg'></div><div class='respDiv'><div class='respDivL'>Match<br>(e)</div><div class='respDivR'><font style='color:orange'>No Match<br>(i)</font></div></div></div>","null","FEEDBACK","","","","","","","","","","",""
"html-keyboard-response","80","297214","0.0-7.0-1.9","63d1819e544fa53e891614ec","bdp_wmem","Wed Mar 15 2023 13:07:53 GMT-0700 (Pacific Daylight Time)","651390","Match,No Match","","null","","","","","","<div class='trialBorder'><div class='vertical-center'><img src='img/fixation2_sml.jpg'</img></div></div>","null","FIX","","","","","","","","","","",""
"html-keyboard-response","81","300220","0.0-7.0-2.9","63d1819e544fa53e891614ec","bdp_wmem","Wed Mar 15 2023 13:07:53 GMT-0700 (Pacific Daylight Time)","651390","Match,No Match","","null","","","","","","<div class='trialBorder'><div class='vertical-center'><img style='vertical-align:center; align:center' src='img/fixation2_sml.jpg'></div><div class='arrayDiv2'><div class='tl'><img class='introPic' src='trustrating_stim/white_mw003.bmp'><br><font color='red'><strong>Keep</strong></font></div><div class='tr'><img class='introPic' src='trustrating_stim/white_mw010.bmp'><br><font color='green'><strong>Share</strong></font></div></div></div>","null","ARRAY","2","trustrating_stim/white_mw003.bmp,trustrating_stim/white_mw010.bmp","0,1","noMatchFace","i","3000","","","","",""
"html-keyboard-response","82","304226","0.0-7.0-3.9","63d1819e544fa53e891614ec","bdp_wmem","Wed Mar 15 2023 13:07:53 GMT-0700 (Pacific Daylight Time)","651390","Match,No Match","","null","","","","","","<div class='trialBorder'><div class='vertical-center'><img src='img/fixation2_sml.jpg'</img></div></div>","null","DELAY","","","","","","","","","","",""
"html-keyboard-response","83","305508","0.0-7.0-4.9","63d1819e544fa53e891614ec","bdp_wmem","Wed Mar 15 2023 13:07:53 GMT-0700 (Pacific Daylight Time)","651390","Match,No Match","","1280","","","","","","<div class='trialBorder'><div class='targDiv'><div class='tc'><img class='introPic' src='trustrating_stim/white_mw042.bmp'><br><font color='green'><strong>Share</strong></font></div></div><div class='respDiv'><div class='respDivL'>Match<br>(e)</div><div class='respDivR'>No Match<br>(i)</div></div></div>","e","TARGET","2","trustrating_stim/white_mw003.bmp,trustrating_stim/white_mw010.bmp","0,1","noMatchFace","i","3000","trustrating_stim/white_mw042.bmp","green","Share","REAL","0"
"html-keyboard-response","84","306013","0.0-7.0-5.9","63d1819e544fa53e891614ec","bdp_wmem","Wed Mar 15 2023 13:07:53 GMT-0700 (Pacific Daylight Time)","651390","Match,No Match","","null","","","","","","<div class='trialBorder'><div class='vertical-center'><img src='img/error.jpg'></div><div class='respDiv'><div class='respDivL'><font style='color:orange'>Match<br>(e)</font></div><div class='respDivR'>No Match<br>(i)</div></div></div>","null","FEEDBACK","","","","","","","","","","",""
"html-keyboard-response","85","306520","0.0-7.0-1.10","63d1819e544fa53e891614ec","bdp_wmem","Wed Mar 15 2023 13:07:53 GMT-0700 (Pacific Daylight Time)","651390","Match,No Match","","null","","","","","","<div class='trialBorder'><div class='vertical-center'><img src='img/fixation2_sml.jpg'</img></div></div>","null","FIX","","","","","","","","","","",""
"html-keyboard-response","86","311029","0.0-7.0-2.10","63d1819e544fa53e891614ec","bdp_wmem","Wed Mar 15 2023 13:07:53 GMT-0700 (Pacific Daylight Time)","651390","Match,No Match","","null","","","","","","<div class='trialBorder'><div class='vertical-center'><img style='vertical-align:center; align:center' src='img/fixation2_sml.jpg'></div><div class='arrayDiv3'><div class='tl'><img class='introPic' src='trustrating_stim/white_mw091.bmp'><br><font color='red'><strong>Keep</strong></font></div><div class='tc'><img class='introPic' src='trustrating_stim/white_mw012.bmp'><br><font color='red'><strong>Keep</strong></font></div><div class='tr'><img class='introPic' src='trustrating_stim/white_mw003.bmp'><br><font color='green'><strong>Share</strong></font></div></div></div>","null","ARRAY","3","trustrating_stim/white_mw091.bmp,trustrating_stim/white_mw012.bmp,trustrating_stim/white_mw003.bmp","0,0,1","Match","e","4500","","","","",""
"html-keyboard-response","87","315032","0.0-7.0-3.10","63d1819e544fa53e891614ec","bdp_wmem","Wed Mar 15 2023 13:07:53 GMT-0700 (Pacific Daylight Time)","651390","Match,No Match","","null","","","","","","<div class='trialBorder'><div class='vertical-center'><img src='img/fixation2_sml.jpg'</img></div></div>","null","DELAY","","","","","","","","","","",""
"html-keyboard-response","88","315718","0.0-7.0-4.10","63d1819e544fa53e891614ec","bdp_wmem","Wed Mar 15 2023 13:07:53 GMT-0700 (Pacific Daylight Time)","651390","Match,No Match","","683","","","","","","<div class='trialBorder'><div class='targDiv'><div class='tc'><img class='introPic' src='trustrating_stim/white_mw003.bmp'><br><font color='green'><strong>Share</strong></font></div></div><div class='respDiv'><div class='respDivL'>Match<br>(e)</div><div class='respDivR'>No Match<br>(i)</div></div></div>","e","TARGET","3","trustrating_stim/white_mw091.bmp,trustrating_stim/white_mw012.bmp,trustrating_stim/white_mw003.bmp","0,0,1","Match","e","4500","trustrating_stim/white_mw003.bmp","green","Share","REAL","1"
"html-keyboard-response","89","316222","0.0-7.0-5.10","63d1819e544fa53e891614ec","bdp_wmem","Wed Mar 15 2023 13:07:53 GMT-0700 (Pacific Daylight Time)","651390","Match,No Match","","null","","","","","","<div class='trialBorder'><div class='vertical-center'><img src='img/correct.jpg'></div><div class='respDiv'><div class='respDivL'><font style='color:orange'>Match<br>(e)</font></div><div class='respDivR'>No Match<br>(i)</div></div></div>","null","FEEDBACK","","","","","","","","","","",""
"html-keyboard-response","90","316730","0.0-7.0-1.11","63d1819e544fa53e891614ec","bdp_wmem","Wed Mar 15 2023 13:07:53 GMT-0700 (Pacific Daylight Time)","651390","Match,No Match","","null","","","","","","<div class='trialBorder'><div class='vertical-center'><img src='img/fixation2_sml.jpg'</img></div></div>","null","FIX","","","","","","","","","","",""
"html-keyboard-response","91","318239","0.0-7.0-2.11","63d1819e544fa53e891614ec","bdp_wmem","Wed Mar 15 2023 13:07:53 GMT-0700 (Pacific Daylight Time)","651390","Match,No Match","","null","","","","","","<div class='trialBorder'><div class='vertical-center'><img style='vertical-align:center; align:center' src='img/fixation2_sml.jpg'></div><div class='arrayDiv1'><div class='tc'><img class='introPic' src='trustrating_stim/white_mw040.bmp'><br><font color='green'><strong>Share</strong></font></div></div></div>","null","ARRAY","1","trustrating_stim/white_mw040.bmp","1","Match","e","1500","","","","",""
"html-keyboard-response","92","322244","0.0-7.0-3.11","63d1819e544fa53e891614ec","bdp_wmem","Wed Mar 15 2023 13:07:53 GMT-0700 (Pacific Daylight Time)","651390","Match,No Match","","null","","","","","","<div class='trialBorder'><div class='vertical-center'><img src='img/fixation2_sml.jpg'</img></div></div>","null","DELAY","","","","","","","","","","",""
"html-keyboard-response","93","323192","0.0-7.0-4.11","63d1819e544fa53e891614ec","bdp_wmem","Wed Mar 15 2023 13:07:53 GMT-0700 (Pacific Daylight Time)","651390","Match,No Match","","944","","","","","","<div class='trialBorder'><div class='targDiv'><div class='tc'><img class='introPic' src='trustrating_stim/white_mw040.bmp'><br><font color='green'><strong>Share</strong></font></div></div><div class='respDiv'><div class='respDivL'>Match<br>(e)</div><div class='respDivR'>No Match<br>(i)</div></div></div>","e","TARGET","1","trustrating_stim/white_mw040.bmp","1","Match","e","1500","trustrating_stim/white_mw040.bmp","green","Share","REAL","1"
"html-keyboard-response","94","323701","0.0-7.0-5.11","63d1819e544fa53e891614ec","bdp_wmem","Wed Mar 15 2023 13:07:53 GMT-0700 (Pacific Daylight Time)","651390","Match,No Match","","null","","","","","","<div class='trialBorder'><div class='vertical-center'><img src='img/correct.jpg'></div><div class='respDiv'><div class='respDivL'><font style='color:orange'>Match<br>(e)</font></div><div class='respDivR'>No Match<br>(i)</div></div></div>","null","FEEDBACK","","","","","","","","","","",""
"html-keyboard-response","95","324207","0.0-7.0-1.12","63d1819e544fa53e891614ec","bdp_wmem","Wed Mar 15 2023 13:07:53 GMT-0700 (Pacific Daylight Time)","651390","Match,No Match","","null","","","","","","<div class='trialBorder'><div class='vertical-center'><img src='img/fixation2_sml.jpg'</img></div></div>","null","FIX","","","","","","","","","","",""
"html-keyboard-response","96","327218","0.0-7.0-2.12","63d1819e544fa53e891614ec","bdp_wmem","Wed Mar 15 2023 13:07:53 GMT-0700 (Pacific Daylight Time)","651390","Match,No Match","","null","","","","","","<div class='trialBorder'><div class='vertical-center'><img style='vertical-align:center; align:center' src='img/fixation2_sml.jpg'></div><div class='arrayDiv2'><div class='tl'><img class='introPic' src='trustrating_stim/white_mw013.bmp'><br><font color='red'><strong>Keep</strong></font></div><div class='tr'><img class='introPic' src='trustrating_stim/white_mw042.bmp'><br><font color='green'><strong>Share</strong></font></div></div></div>","null","ARRAY","2","trustrating_stim/white_mw013.bmp,trustrating_stim/white_mw042.bmp","0,1","noMatchOutcome","i","3000","","","","",""
"html-keyboard-response","97","331230","0.0-7.0-3.12","63d1819e544fa53e891614ec","bdp_wmem","Wed Mar 15 2023 13:07:53 GMT-0700 (Pacific Daylight Time)","651390","Match,No Match","","null","","","","","","<div class='trialBorder'><div class='vertical-center'><img src='img/fixation2_sml.jpg'</img></div></div>","null","DELAY","","","","","","","","","","",""
"html-keyboard-response","98","332365","0.0-7.0-4.12","63d1819e544fa53e891614ec","bdp_wmem","Wed Mar 15 2023 13:07:53 GMT-0700 (Pacific Daylight Time)","651390","Match,No Match","","1130","","","","","","<div class='trialBorder'><div class='targDiv'><div class='tc'><img class='introPic' src='trustrating_stim/white_mw013.bmp'><br><font color='green'><strong>Share</strong></font></div></div><div class='respDiv'><div class='respDivL'>Match<br>(e)</div><div class='respDivR'>No Match<br>(i)</div></div></div>","i","TARGET","2","trustrating_stim/white_mw013.bmp,trustrating_stim/white_mw042.bmp","0,1","noMatchOutcome","i","3000","trustrating_stim/white_mw013.bmp","green","Share","REAL","1"
"html-keyboard-response","99","332869","0.0-7.0-5.12","63d1819e544fa53e891614ec","bdp_wmem","Wed Mar 15 2023 13:07:53 GMT-0700 (Pacific Daylight Time)","651390","Match,No Match","","null","","","","","","<div class='trialBorder'><div class='vertical-center'><img src='img/correct.jpg'></div><div class='respDiv'><div class='respDivL'>Match<br>(e)</div><div class='respDivR'><font style='color:orange'>No Match<br>(i)</font></div></div></div>","null","FEEDBACK","","","","","","","","","","",""
"html-keyboard-response","100","333376","0.0-7.0-1.13","63d1819e544fa53e891614ec","bdp_wmem","Wed Mar 15 2023 13:07:53 GMT-0700 (Pacific Daylight Time)","651390","Match,No Match","","null","","","","","","<div class='trialBorder'><div class='vertical-center'><img src='img/fixation2_sml.jpg'</img></div></div>","null","FIX","","","","","","","","","","",""
"html-keyboard-response","101","336384","0.0-7.0-2.13","63d1819e544fa53e891614ec","bdp_wmem","Wed Mar 15 2023 13:07:53 GMT-0700 (Pacific Daylight Time)","651390","Match,No Match","","null","","","","","","<div class='trialBorder'><div class='vertical-center'><img style='vertical-align:center; align:center' src='img/fixation2_sml.jpg'></div><div class='arrayDiv2'><div class='tl'><img class='introPic' src='trustrating_stim/white_mw091.bmp'><br><font color='red'><strong>Keep</strong></font></div><div class='tr'><img class='introPic' src='trustrating_stim/white_mw013.bmp'><br><font color='green'><strong>Share</strong></font></div></div></div>","null","ARRAY","2","trustrating_stim/white_mw091.bmp,trustrating_stim/white_mw013.bmp","0,1","noMatchFace","i","3000","","","","",""
"html-keyboard-response","102","340399","0.0-7.0-3.13","63d1819e544fa53e891614ec","bdp_wmem","Wed Mar 15 2023 13:07:53 GMT-0700 (Pacific Daylight Time)","651390","Match,No Match","","null","","","","","","<div class='trialBorder'><div class='vertical-center'><img src='img/fixation2_sml.jpg'</img></div></div>","null","DELAY","","","","","","","","","","",""
"html-keyboard-response","103","341363","0.0-7.0-4.13","63d1819e544fa53e891614ec","bdp_wmem","Wed Mar 15 2023 13:07:53 GMT-0700 (Pacific Daylight Time)","651390","Match,No Match","","961","","","","","","<div class='trialBorder'><div class='targDiv'><div class='tc'><img class='introPic' src='trustrating_stim/white_mw040.bmp'><br><font color='red'><strong>Keep</strong></font></div></div><div class='respDiv'><div class='respDivL'>Match<br>(e)</div><div class='respDivR'>No Match<br>(i)</div></div></div>","i","TARGET","2","trustrating_stim/white_mw091.bmp,trustrating_stim/white_mw013.bmp","0,1","noMatchFace","i","3000","trustrating_stim/white_mw040.bmp","red","Keep","REAL","1"
"html-keyboard-response","104","341872","0.0-7.0-5.13","63d1819e544fa53e891614ec","bdp_wmem","Wed Mar 15 2023 13:07:53 GMT-0700 (Pacific Daylight Time)","651390","Match,No Match","","null","","","","","","<div class='trialBorder'><div class='vertical-center'><img src='img/correct.jpg'></div><div class='respDiv'><div class='respDivL'>Match<br>(e)</div><div class='respDivR'><font style='color:orange'>No Match<br>(i)</font></div></div></div>","null","FEEDBACK","","","","","","","","","","",""
"html-keyboard-response","105","342380","0.0-7.0-1.14","63d1819e544fa53e891614ec","bdp_wmem","Wed Mar 15 2023 13:07:53 GMT-0700 (Pacific Daylight Time)","651390","Match,No Match","","null","","","","","","<div class='trialBorder'><div class='vertical-center'><img src='img/fixation2_sml.jpg'</img></div></div>","null","FIX","","","","","","","","","","",""
"html-keyboard-response","106","346888","0.0-7.0-2.14","63d1819e544fa53e891614ec","bdp_wmem","Wed Mar 15 2023 13:07:53 GMT-0700 (Pacific Daylight Time)","651390","Match,No Match","","null","","","","","","<div class='trialBorder'><div class='vertical-center'><img style='vertical-align:center; align:center' src='img/fixation2_sml.jpg'></div><div class='arrayDiv3'><div class='tl'><img class='introPic' src='trustrating_stim/white_mw092.bmp'><br><font color='red'><strong>Keep</strong></font></div><div class='tc'><img class='introPic' src='trustrating_stim/white_mw038.bmp'><br><font color='red'><strong>Keep</strong></font></div><div class='tr'><img class='introPic' src='trustrating_stim/white_mw085.bmp'><br><font color='green'><strong>Share</strong></font></div></div></div>","null","ARRAY","3","trustrating_stim/white_mw092.bmp,trustrating_stim/white_mw038.bmp,trustrating_stim/white_mw085.bmp","0,0,1","Match","e","4500","","","","",""
"html-keyboard-response","107","350896","0.0-7.0-3.14","63d1819e544fa53e891614ec","bdp_wmem","Wed Mar 15 2023 13:07:53 GMT-0700 (Pacific Daylight Time)","651390","Match,No Match","","null","","","","","","<div class='trialBorder'><div class='vertical-center'><img src='img/fixation2_sml.jpg'</img></div></div>","null","DELAY","","","","","","","","","","",""
"html-keyboard-response","108","352130","0.0-7.0-4.14","63d1819e544fa53e891614ec","bdp_wmem","Wed Mar 15 2023 13:07:53 GMT-0700 (Pacific Daylight Time)","651390","Match,No Match","","1231","","","","","","<div class='trialBorder'><div class='targDiv'><div class='tc'><img class='introPic' src='trustrating_stim/white_mw038.bmp'><br><font color='red'><strong>Keep</strong></font></div></div><div class='respDiv'><div class='respDivL'>Match<br>(e)</div><div class='respDivR'>No Match<br>(i)</div></div></div>","e","TARGET","3","trustrating_stim/white_mw092.bmp,trustrating_stim/white_mw038.bmp,trustrating_stim/white_mw085.bmp","0,0,1","Match","e","4500","trustrating_stim/white_mw038.bmp","red","Keep","REAL","1"
"html-keyboard-response","109","352644","0.0-7.0-5.14","63d1819e544fa53e891614ec","bdp_wmem","Wed Mar 15 2023 13:07:53 GMT-0700 (Pacific Daylight Time)","651390","Match,No Match","","null","","","","","","<div class='trialBorder'><div class='vertical-center'><img src='img/correct.jpg'></div><div class='respDiv'><div class='respDivL'><font style='color:orange'>Match<br>(e)</font></div><div class='respDivR'>No Match<br>(i)</div></div></div>","null","FEEDBACK","","","","","","","","","","",""
"html-keyboard-response","110","353159","0.0-7.0-1.15","63d1819e544fa53e891614ec","bdp_wmem","Wed Mar 15 2023 13:07:53 GMT-0700 (Pacific Daylight Time)","651390","Match,No Match","","null","","","","","","<div class='trialBorder'><div class='vertical-center'><img src='img/fixation2_sml.jpg'</img></div></div>","null","FIX","","","","","","","","","","",""
"html-keyboard-response","111","356179","0.0-7.0-2.15","63d1819e544fa53e891614ec","bdp_wmem","Wed Mar 15 2023 13:07:53 GMT-0700 (Pacific Daylight Time)","651390","Match,No Match","","null","","","","","","<div class='trialBorder'><div class='vertical-center'><img style='vertical-align:center; align:center' src='img/fixation2_sml.jpg'></div><div class='arrayDiv2'><div class='tl'><img class='introPic' src='trustrating_stim/white_mw085.bmp'><br><font color='green'><strong>Share</strong></font></div><div class='tr'><img class='introPic' src='trustrating_stim/white_mw078.bmp'><br><font color='red'><strong>Keep</strong></font></div></div></div>","null","ARRAY","2","trustrating_stim/white_mw085.bmp,trustrating_stim/white_mw078.bmp","1,0","Match","e","3000","","","","",""
"html-keyboard-response","112","360192","0.0-7.0-3.15","63d1819e544fa53e891614ec","bdp_wmem","Wed Mar 15 2023 13:07:53 GMT-0700 (Pacific Daylight Time)","651390","Match,No Match","","null","","","","","","<div class='trialBorder'><div class='vertical-center'><img src='img/fixation2_sml.jpg'</img></div></div>","null","DELAY","","","","","","","","","","",""
"html-keyboard-response","113","361549","0.0-7.0-4.15","63d1819e544fa53e891614ec","bdp_wmem","Wed Mar 15 2023 13:07:53 GMT-0700 (Pacific Daylight Time)","651390","Match,No Match","","1353","","","","","","<div class='trialBorder'><div class='targDiv'><div class='tc'><img class='introPic' src='trustrating_stim/white_mw078.bmp'><br><font color='red'><strong>Keep</strong></font></div></div><div class='respDiv'><div class='respDivL'>Match<br>(e)</div><div class='respDivR'>No Match<br>(i)</div></div></div>","e","TARGET","2","trustrating_stim/white_mw085.bmp,trustrating_stim/white_mw078.bmp","1,0","Match","e","3000","trustrating_stim/white_mw078.bmp","red","Keep","REAL","1"
"html-keyboard-response","114","362057","0.0-7.0-5.15","63d1819e544fa53e891614ec","bdp_wmem","Wed Mar 15 2023 13:07:53 GMT-0700 (Pacific Daylight Time)","651390","Match,No Match","","null","","","","","","<div class='trialBorder'><div class='vertical-center'><img src='img/correct.jpg'></div><div class='respDiv'><div class='respDivL'><font style='color:orange'>Match<br>(e)</font></div><div class='respDivR'>No Match<br>(i)</div></div></div>","null","FEEDBACK","","","","","","","","","","",""
"html-keyboard-response","115","362564","0.0-7.0-1.16","63d1819e544fa53e891614ec","bdp_wmem","Wed Mar 15 2023 13:07:53 GMT-0700 (Pacific Daylight Time)","651390","Match,No Match","","null","","","","","","<div class='trialBorder'><div class='vertical-center'><img src='img/fixation2_sml.jpg'</img></div></div>","null","FIX","","","","","","","","","","",""
"html-keyboard-response","116","365577","0.0-7.0-2.16","63d1819e544fa53e891614ec","bdp_wmem","Wed Mar 15 2023 13:07:53 GMT-0700 (Pacific Daylight Time)","651390","Match,No Match","","null","","","","","","<div class='trialBorder'><div class='vertical-center'><img style='vertical-align:center; align:center' src='img/fixation2_sml.jpg'></div><div class='arrayDiv2'><div class='tl'><img class='introPic' src='trustrating_stim/white_mw042.bmp'><br><font color='green'><strong>Share</strong></font></div><div class='tr'><img class='introPic' src='trustrating_stim/white_mw010.bmp'><br><font color='red'><strong>Keep</strong></font></div></div></div>","null","ARRAY","2","trustrating_stim/white_mw042.bmp,trustrating_stim/white_mw010.bmp","1,0","Match","e","3000","","","","",""
"html-keyboard-response","117","369593","0.0-7.0-3.16","63d1819e544fa53e891614ec","bdp_wmem","Wed Mar 15 2023 13:07:53 GMT-0700 (Pacific Daylight Time)","651390","Match,No Match","","null","","","","","","<div class='trialBorder'><div class='vertical-center'><img src='img/fixation2_sml.jpg'</img></div></div>","null","DELAY","","","","","","","","","","",""
"html-keyboard-response","118","371371","0.0-7.0-4.16","63d1819e544fa53e891614ec","bdp_wmem","Wed Mar 15 2023 13:07:53 GMT-0700 (Pacific Daylight Time)","651390","Match,No Match","","1773","","","","","","<div class='trialBorder'><div class='targDiv'><div class='tc'><img class='introPic' src='trustrating_stim/white_mw042.bmp'><br><font color='green'><strong>Share</strong></font></div></div><div class='respDiv'><div class='respDivL'>Match<br>(e)</div><div class='respDivR'>No Match<br>(i)</div></div></div>","i","TARGET","2","trustrating_stim/white_mw042.bmp,trustrating_stim/white_mw010.bmp","1,0","Match","e","3000","trustrating_stim/white_mw042.bmp","green","Share","REAL","0"
"html-keyboard-response","119","371881","0.0-7.0-5.16","63d1819e544fa53e891614ec","bdp_wmem","Wed Mar 15 2023 13:07:53 GMT-0700 (Pacific Daylight Time)","651390","Match,No Match","","null","","","","","","<div class='trialBorder'><div class='vertical-center'><img src='img/error.jpg'></div><div class='respDiv'><div class='respDivL'>Match<br>(e)</div><div class='respDivR'><font style='color:orange'>No Match<br>(i)</font></div></div></div>","null","FEEDBACK","","","","","","","","","","",""
"html-keyboard-response","120","372390","0.0-7.0-1.17","63d1819e544fa53e891614ec","bdp_wmem","Wed Mar 15 2023 13:07:53 GMT-0700 (Pacific Daylight Time)","651390","Match,No Match","","null","","","","","","<div class='trialBorder'><div class='vertical-center'><img src='img/fixation2_sml.jpg'</img></div></div>","null","FIX","","","","","","","","","","",""
"html-keyboard-response","121","373900","0.0-7.0-2.17","63d1819e544fa53e891614ec","bdp_wmem","Wed Mar 15 2023 13:07:53 GMT-0700 (Pacific Daylight Time)","651390","Match,No Match","","null","","","","","","<div class='trialBorder'><div class='vertical-center'><img style='vertical-align:center; align:center' src='img/fixation2_sml.jpg'></div><div class='arrayDiv1'><div class='tc'><img class='introPic' src='trustrating_stim/white_mw038.bmp'><br><font color='red'><strong>Keep</strong></font></div></div></div>","null","ARRAY","1","trustrating_stim/white_mw038.bmp","0","Match","e","1500","","","","",""
"html-keyboard-response","122","377904","0.0-7.0-3.17","63d1819e544fa53e891614ec","bdp_wmem","Wed Mar 15 2023 13:07:53 GMT-0700 (Pacific Daylight Time)","651390","Match,No Match","","null","","","","","","<div class='trialBorder'><div class='vertical-center'><img src='img/fixation2_sml.jpg'</img></div></div>","null","DELAY","","","","","","","","","","",""
"html-keyboard-response","123","378805","0.0-7.0-4.17","63d1819e544fa53e891614ec","bdp_wmem","Wed Mar 15 2023 13:07:53 GMT-0700 (Pacific Daylight Time)","651390","Match,No Match","","898","","","","","","<div class='trialBorder'><div class='targDiv'><div class='tc'><img class='introPic' src='trustrating_stim/white_mw038.bmp'><br><font color='red'><strong>Keep</strong></font></div></div><div class='respDiv'><div class='respDivL'>Match<br>(e)</div><div class='respDivR'>No Match<br>(i)</div></div></div>","e","TARGET","1","trustrating_stim/white_mw038.bmp","0","Match","e","1500","trustrating_stim/white_mw038.bmp","red","Keep","REAL","1"
"html-keyboard-response","124","379310","0.0-7.0-5.17","63d1819e544fa53e891614ec","bdp_wmem","Wed Mar 15 2023 13:07:53 GMT-0700 (Pacific Daylight Time)","651390","Match,No Match","","null","","","","","","<div class='trialBorder'><div class='vertical-center'><img src='img/correct.jpg'></div><div class='respDiv'><div class='respDivL'><font style='color:orange'>Match<br>(e)</font></div><div class='respDivR'>No Match<br>(i)</div></div></div>","null","FEEDBACK","","","","","","","","","","",""
"html-keyboard-response","125","379818","0.0-7.0-1.18","63d1819e544fa53e891614ec","bdp_wmem","Wed Mar 15 2023 13:07:53 GMT-0700 (Pacific Daylight Time)","651390","Match,No Match","","null","","","","","","<div class='trialBorder'><div class='vertical-center'><img src='img/fixation2_sml.jpg'</img></div></div>","null","FIX","","","","","","","","","","",""
"html-keyboard-response","126","384331","0.0-7.0-2.18","63d1819e544fa53e891614ec","bdp_wmem","Wed Mar 15 2023 13:07:53 GMT-0700 (Pacific Daylight Time)","651390","Match,No Match","","null","","","","","","<div class='trialBorder'><div class='vertical-center'><img style='vertical-align:center; align:center' src='img/fixation2_sml.jpg'></div><div class='arrayDiv3'><div class='tl'><img class='introPic' src='trustrating_stim/white_mw042.bmp'><br><font color='green'><strong>Share</strong></font></div><div class='tc'><img class='introPic' src='trustrating_stim/white_mw085.bmp'><br><font color='green'><strong>Share</strong></font></div><div class='tr'><img class='introPic' src='trustrating_stim/white_mw078.bmp'><br><font color='red'><strong>Keep</strong></font></div></div></div>","null","ARRAY","3","trustrating_stim/white_mw042.bmp,trustrating_stim/white_mw085.bmp,trustrating_stim/white_mw078.bmp","1,1,0","noMatchOutcome","i","4500","","","","",""
"html-keyboard-response","127","388342","0.0-7.0-3.18","63d1819e544fa53e891614ec","bdp_wmem","Wed Mar 15 2023 13:07:53 GMT-0700 (Pacific Daylight Time)","651390","Match,No Match","","null","","","","","","<div class='trialBorder'><div class='vertical-center'><img src='img/fixation2_sml.jpg'</img></div></div>","null","DELAY","","","","","","","","","","",""
"html-keyboard-response","128","390998","0.0-7.0-4.18","63d1819e544fa53e891614ec","bdp_wmem","Wed Mar 15 2023 13:07:53 GMT-0700 (Pacific Daylight Time)","651390","Match,No Match","","2652","","","","","","<div class='trialBorder'><div class='targDiv'><div class='tc'><img class='introPic' src='trustrating_stim/white_mw078.bmp'><br><font color='green'><strong>Share</strong></font></div></div><div class='respDiv'><div class='respDivL'>Match<br>(e)</div><div class='respDivR'>No Match<br>(i)</div></div></div>","e","TARGET","3","trustrating_stim/white_mw042.bmp,trustrating_stim/white_mw085.bmp,trustrating_stim/white_mw078.bmp","1,1,0","noMatchOutcome","i","4500","trustrating_stim/white_mw078.bmp","green","Share","REAL","0"
"html-keyboard-response","129","391513","0.0-7.0-5.18","63d1819e544fa53e891614ec","bdp_wmem","Wed Mar 15 2023 13:07:53 GMT-0700 (Pacific Daylight Time)","651390","Match,No Match","","null","","","","","","<div class='trialBorder'><div class='vertical-center'><img src='img/error.jpg'></div><div class='respDiv'><div class='respDivL'><font style='color:orange'>Match<br>(e)</font></div><div class='respDivR'>No Match<br>(i)</div></div></div>","null","FEEDBACK","","","","","","","","","","",""
"html-keyboard-response","130","392030","0.0-7.0-1.19","63d1819e544fa53e891614ec","bdp_wmem","Wed Mar 15 2023 13:07:53 GMT-0700 (Pacific Daylight Time)","651390","Match,No Match","","null","","","","","","<div class='trialBorder'><div class='vertical-center'><img src='img/fixation2_sml.jpg'</img></div></div>","null","FIX","","","","","","","","","","",""
"html-keyboard-response","131","396540","0.0-7.0-2.19","63d1819e544fa53e891614ec","bdp_wmem","Wed Mar 15 2023 13:07:53 GMT-0700 (Pacific Daylight Time)","651390","Match,No Match","","null","","","","","","<div class='trialBorder'><div class='vertical-center'><img style='vertical-align:center; align:center' src='img/fixation2_sml.jpg'></div><div class='arrayDiv3'><div class='tl'><img class='introPic' src='trustrating_stim/white_mw003.bmp'><br><font color='green'><strong>Share</strong></font></div><div class='tc'><img class='introPic' src='trustrating_stim/white_mw040.bmp'><br><font color='red'><strong>Keep</strong></font></div><div class='tr'><img class='introPic' src='trustrating_stim/white_mw042.bmp'><br><font color='green'><strong>Share</strong></font></div></div></div>","null","ARRAY","3","trustrating_stim/white_mw003.bmp,trustrating_stim/white_mw040.bmp,trustrating_stim/white_mw042.bmp","1,0,1","noMatchFace","i","4500","","","","",""
"html-keyboard-response","132","400545","0.0-7.0-3.19","63d1819e544fa53e891614ec","bdp_wmem","Wed Mar 15 2023 13:07:53 GMT-0700 (Pacific Daylight Time)","651390","Match,No Match","","null","","","","","","<div class='trialBorder'><div class='vertical-center'><img src='img/fixation2_sml.jpg'</img></div></div>","null","DELAY","","","","","","","","","","",""
"html-keyboard-response","133","401659","0.0-7.0-4.19","63d1819e544fa53e891614ec","bdp_wmem","Wed Mar 15 2023 13:07:53 GMT-0700 (Pacific Daylight Time)","651390","Match,No Match","","1110","","","","","","<div class='trialBorder'><div class='targDiv'><div class='tc'><img class='introPic' src='trustrating_stim/white_mw091.bmp'><br><font color='green'><strong>Share</strong></font></div></div><div class='respDiv'><div class='respDivL'>Match<br>(e)</div><div class='respDivR'>No Match<br>(i)</div></div></div>","i","TARGET","3","trustrating_stim/white_mw003.bmp,trustrating_stim/white_mw040.bmp,trustrating_stim/white_mw042.bmp","1,0,1","noMatchFace","i","4500","trustrating_stim/white_mw091.bmp","green","Share","REAL","1"
"html-keyboard-response","134","402162","0.0-7.0-5.19","63d1819e544fa53e891614ec","bdp_wmem","Wed Mar 15 2023 13:07:53 GMT-0700 (Pacific Daylight Time)","651390","Match,No Match","","null","","","","","","<div class='trialBorder'><div class='vertical-center'><img src='img/correct.jpg'></div><div class='respDiv'><div class='respDivL'>Match<br>(e)</div><div class='respDivR'><font style='color:orange'>No Match<br>(i)</font></div></div></div>","null","FEEDBACK","","","","","","","","","","",""
"html-keyboard-response","135","402671","0.0-7.0-1.20","63d1819e544fa53e891614ec","bdp_wmem","Wed Mar 15 2023 13:07:53 GMT-0700 (Pacific Daylight Time)","651390","Match,No Match","","null","","","","","","<div class='trialBorder'><div class='vertical-center'><img src='img/fixation2_sml.jpg'</img></div></div>","null","FIX","","","","","","","","","","",""
"html-keyboard-response","136","405682","0.0-7.0-2.20","63d1819e544fa53e891614ec","bdp_wmem","Wed Mar 15 2023 13:07:53 GMT-0700 (Pacific Daylight Time)","651390","Match,No Match","","null","","","","","","<div class='trialBorder'><div class='vertical-center'><img style='vertical-align:center; align:center' src='img/fixation2_sml.jpg'></div><div class='arrayDiv2'><div class='tl'><img class='introPic' src='trustrating_stim/white_mw013.bmp'><br><font color='red'><strong>Keep</strong></font></div><div class='tr'><img class='introPic' src='trustrating_stim/white_mw092.bmp'><br><font color='green'><strong>Share</strong></font></div></div></div>","null","ARRAY","2","trustrating_stim/white_mw013.bmp,trustrating_stim/white_mw092.bmp","0,1","Match","e","3000","","","","",""
"html-keyboard-response","137","409687","0.0-7.0-3.20","63d1819e544fa53e891614ec","bdp_wmem","Wed Mar 15 2023 13:07:53 GMT-0700 (Pacific Daylight Time)","651390","Match,No Match","","null","","","","","","<div class='trialBorder'><div class='vertical-center'><img src='img/fixation2_sml.jpg'</img></div></div>","null","DELAY","","","","","","","","","","",""
"html-keyboard-response","138","411195","0.0-7.0-4.20","63d1819e544fa53e891614ec","bdp_wmem","Wed Mar 15 2023 13:07:53 GMT-0700 (Pacific Daylight Time)","651390","Match,No Match","","1505","","","","","","<div class='trialBorder'><div class='targDiv'><div class='tc'><img class='introPic' src='trustrating_stim/white_mw092.bmp'><br><font color='green'><strong>Share</strong></font></div></div><div class='respDiv'><div class='respDivL'>Match<br>(e)</div><div class='respDivR'>No Match<br>(i)</div></div></div>","e","TARGET","2","trustrating_stim/white_mw013.bmp,trustrating_stim/white_mw092.bmp","0,1","Match","e","3000","trustrating_stim/white_mw092.bmp","green","Share","REAL","1"
"html-keyboard-response","139","411698","0.0-7.0-5.20","63d1819e544fa53e891614ec","bdp_wmem","Wed Mar 15 2023 13:07:53 GMT-0700 (Pacific Daylight Time)","651390","Match,No Match","","null","","","","","","<div class='trialBorder'><div class='vertical-center'><img src='img/correct.jpg'></div><div class='respDiv'><div class='respDivL'><font style='color:orange'>Match<br>(e)</font></div><div class='respDivR'>No Match<br>(i)</div></div></div>","null","FEEDBACK","","","","","","","","","","",""
"html-keyboard-response","140","412205","0.0-7.0-1.21","63d1819e544fa53e891614ec","bdp_wmem","Wed Mar 15 2023 13:07:53 GMT-0700 (Pacific Daylight Time)","651390","Match,No Match","","null","","","","","","<div class='trialBorder'><div class='vertical-center'><img src='img/fixation2_sml.jpg'</img></div></div>","null","FIX","","","","","","","","","","",""
"html-keyboard-response","141","416712","0.0-7.0-2.21","63d1819e544fa53e891614ec","bdp_wmem","Wed Mar 15 2023 13:07:53 GMT-0700 (Pacific Daylight Time)","651390","Match,No Match","","null","","","","","","<div class='trialBorder'><div class='vertical-center'><img style='vertical-align:center; align:center' src='img/fixation2_sml.jpg'></div><div class='arrayDiv3'><div class='tl'><img class='introPic' src='trustrating_stim/white_mw003.bmp'><br><font color='green'><strong>Share</strong></font></div><div class='tc'><img class='introPic' src='trustrating_stim/white_mw091.bmp'><br><font color='red'><strong>Keep</strong></font></div><div class='tr'><img class='introPic' src='trustrating_stim/white_mw012.bmp'><br><font color='green'><strong>Share</strong></font></div></div></div>","null","ARRAY","3","trustrating_stim/white_mw003.bmp,trustrating_stim/white_mw091.bmp,trustrating_stim/white_mw012.bmp","1,0,1","Match","e","4500","","","","",""
"html-keyboard-response","142","420718","0.0-7.0-3.21","63d1819e544fa53e891614ec","bdp_wmem","Wed Mar 15 2023 13:07:53 GMT-0700 (Pacific Daylight Time)","651390","Match,No Match","","null","","","","","","<div class='trialBorder'><div class='vertical-center'><img src='img/fixation2_sml.jpg'</img></div></div>","null","DELAY","","","","","","","","","","",""
"html-keyboard-response","143","421659","0.0-7.0-4.21","63d1819e544fa53e891614ec","bdp_wmem","Wed Mar 15 2023 13:07:53 GMT-0700 (Pacific Daylight Time)","651390","Match,No Match","","938","","","","","","<div class='trialBorder'><div class='targDiv'><div class='tc'><img class='introPic' src='trustrating_stim/white_mw003.bmp'><br><font color='green'><strong>Share</strong></font></div></div><div class='respDiv'><div class='respDivL'>Match<br>(e)</div><div class='respDivR'>No Match<br>(i)</div></div></div>","e","TARGET","3","trustrating_stim/white_mw003.bmp,trustrating_stim/white_mw091.bmp,trustrating_stim/white_mw012.bmp","1,0,1","Match","e","4500","trustrating_stim/white_mw003.bmp","green","Share","REAL","1"
"html-keyboard-response","144","422168","0.0-7.0-5.21","63d1819e544fa53e891614ec","bdp_wmem","Wed Mar 15 2023 13:07:53 GMT-0700 (Pacific Daylight Time)","651390","Match,No Match","","null","","","","","","<div class='trialBorder'><div class='vertical-center'><img src='img/correct.jpg'></div><div class='respDiv'><div class='respDivL'><font style='color:orange'>Match<br>(e)</font></div><div class='respDivR'>No Match<br>(i)</div></div></div>","null","FEEDBACK","","","","","","","","","","",""
"html-keyboard-response","145","422676","0.0-7.0-1.22","63d1819e544fa53e891614ec","bdp_wmem","Wed Mar 15 2023 13:07:53 GMT-0700 (Pacific Daylight Time)","651390","Match,No Match","","null","","","","","","<div class='trialBorder'><div class='vertical-center'><img src='img/fixation2_sml.jpg'</img></div></div>","null","FIX","","","","","","","","","","",""
"html-keyboard-response","146","427190","0.0-7.0-2.22","63d1819e544fa53e891614ec","bdp_wmem","Wed Mar 15 2023 13:07:53 GMT-0700 (Pacific Daylight Time)","651390","Match,No Match","","null","","","","","","<div class='trialBorder'><div class='vertical-center'><img style='vertical-align:center; align:center' src='img/fixation2_sml.jpg'></div><div class='arrayDiv3'><div class='tl'><img class='introPic' src='trustrating_stim/white_mw070.bmp'><br><font color='red'><strong>Keep</strong></font></div><div class='tc'><img class='introPic' src='trustrating_stim/white_mw091.bmp'><br><font color='red'><strong>Keep</strong></font></div><div class='tr'><img class='introPic' src='trustrating_stim/white_mw010.bmp'><br><font color='green'><strong>Share</strong></font></div></div></div>","null","ARRAY","3","trustrating_stim/white_mw070.bmp,trustrating_stim/white_mw091.bmp,trustrating_stim/white_mw010.bmp","0,0,1","noMatchFace","i","4500","","","","",""
"html-keyboard-response","147","431197","0.0-7.0-3.22","63d1819e544fa53e891614ec","bdp_wmem","Wed Mar 15 2023 13:07:53 GMT-0700 (Pacific Daylight Time)","651390","Match,No Match","","null","","","","","","<div class='trialBorder'><div class='vertical-center'><img src='img/fixation2_sml.jpg'</img></div></div>","null","DELAY","","","","","","","","","","",""
"html-keyboard-response","148","432256","0.0-7.0-4.22","63d1819e544fa53e891614ec","bdp_wmem","Wed Mar 15 2023 13:07:53 GMT-0700 (Pacific Daylight Time)","651390","Match,No Match","","1056","","","","","","<div class='trialBorder'><div class='targDiv'><div class='tc'><img class='introPic' src='trustrating_stim/white_mw003.bmp'><br><font color='red'><strong>Keep</strong></font></div></div><div class='respDiv'><div class='respDivL'>Match<br>(e)</div><div class='respDivR'>No Match<br>(i)</div></div></div>","e","TARGET","3","trustrating_stim/white_mw070.bmp,trustrating_stim/white_mw091.bmp,trustrating_stim/white_mw010.bmp","0,0,1","noMatchFace","i","4500","trustrating_stim/white_mw003.bmp","red","Keep","REAL","0"
"html-keyboard-response","149","432762","0.0-7.0-5.22","63d1819e544fa53e891614ec","bdp_wmem","Wed Mar 15 2023 13:07:53 GMT-0700 (Pacific Daylight Time)","651390","Match,No Match","","null","","","","","","<div class='trialBorder'><div class='vertical-center'><img src='img/error.jpg'></div><div class='respDiv'><div class='respDivL'><font style='color:orange'>Match<br>(e)</font></div><div class='respDivR'>No Match<br>(i)</div></div></div>","null","FEEDBACK","","","","","","","","","","",""
"html-keyboard-response","150","433277","0.0-7.0-1.23","63d1819e544fa53e891614ec","bdp_wmem","Wed Mar 15 2023 13:07:53 GMT-0700 (Pacific Daylight Time)","651390","Match,No Match","","null","","","","","","<div class='trialBorder'><div class='vertical-center'><img src='img/fixation2_sml.jpg'</img></div></div>","null","FIX","","","","","","","","","","",""
"html-keyboard-response","151","436286","0.0-7.0-2.23","63d1819e544fa53e891614ec","bdp_wmem","Wed Mar 15 2023 13:07:53 GMT-0700 (Pacific Daylight Time)","651390","Match,No Match","","null","","","","","","<div class='trialBorder'><div class='vertical-center'><img style='vertical-align:center; align:center' src='img/fixation2_sml.jpg'></div><div class='arrayDiv2'><div class='tl'><img class='introPic' src='trustrating_stim/white_mw040.bmp'><br><font color='red'><strong>Keep</strong></font></div><div class='tr'><img class='introPic' src='trustrating_stim/white_mw085.bmp'><br><font color='green'><strong>Share</strong></font></div></div></div>","null","ARRAY","2","trustrating_stim/white_mw040.bmp,trustrating_stim/white_mw085.bmp","0,1","noMatchFace","i","3000","","","","",""
"html-keyboard-response","152","440301","0.0-7.0-3.23","63d1819e544fa53e891614ec","bdp_wmem","Wed Mar 15 2023 13:07:53 GMT-0700 (Pacific Daylight Time)","651390","Match,No Match","","null","","","","","","<div class='trialBorder'><div class='vertical-center'><img src='img/fixation2_sml.jpg'</img></div></div>","null","DELAY","","","","","","","","","","",""
"html-keyboard-response","153","441808","0.0-7.0-4.23","63d1819e544fa53e891614ec","bdp_wmem","Wed Mar 15 2023 13:07:53 GMT-0700 (Pacific Daylight Time)","651390","Match,No Match","","1503","","","","","","<div class='trialBorder'><div class='targDiv'><div class='tc'><img class='introPic' src='trustrating_stim/white_mw042.bmp'><br><font color='green'><strong>Share</strong></font></div></div><div class='respDiv'><div class='respDivL'>Match<br>(e)</div><div class='respDivR'>No Match<br>(i)</div></div></div>","i","TARGET","2","trustrating_stim/white_mw040.bmp,trustrating_stim/white_mw085.bmp","0,1","noMatchFace","i","3000","trustrating_stim/white_mw042.bmp","green","Share","REAL","1"
"html-keyboard-response","154","442312","0.0-7.0-5.23","63d1819e544fa53e891614ec","bdp_wmem","Wed Mar 15 2023 13:07:53 GMT-0700 (Pacific Daylight Time)","651390","Match,No Match","","null","","","","","","<div class='trialBorder'><div class='vertical-center'><img src='img/correct.jpg'></div><div class='respDiv'><div class='respDivL'>Match<br>(e)</div><div class='respDivR'><font style='color:orange'>No Match<br>(i)</font></div></div></div>","null","FEEDBACK","","","","","","","","","","",""
"html-keyboard-response","155","442820","0.0-7.0-1.24","63d1819e544fa53e891614ec","bdp_wmem","Wed Mar 15 2023 13:07:53 GMT-0700 (Pacific Daylight Time)","651390","Match,No Match","","null","","","","","","<div class='trialBorder'><div class='vertical-center'><img src='img/fixation2_sml.jpg'</img></div></div>","null","FIX","","","","","","","","","","",""
"html-keyboard-response","156","444328","0.0-7.0-2.24","63d1819e544fa53e891614ec","bdp_wmem","Wed Mar 15 2023 13:07:53 GMT-0700 (Pacific Daylight Time)","651390","Match,No Match","","null","","","","","","<div class='trialBorder'><div class='vertical-center'><img style='vertical-align:center; align:center' src='img/fixation2_sml.jpg'></div><div class='arrayDiv1'><div class='tc'><img class='introPic' src='trustrating_stim/white_mw040.bmp'><br><font color='red'><strong>Keep</strong></font></div></div></div>","null","ARRAY","1","trustrating_stim/white_mw040.bmp","0","noMatchFace","i","1500","","","","",""
"html-keyboard-response","157","448336","0.0-7.0-3.24","63d1819e544fa53e891614ec","bdp_wmem","Wed Mar 15 2023 13:07:53 GMT-0700 (Pacific Daylight Time)","651390","Match,No Match","","null","","","","","","<div class='trialBorder'><div class='vertical-center'><img src='img/fixation2_sml.jpg'</img></div></div>","null","DELAY","","","","","","","","","","",""
"html-keyboard-response","158","449488","0.0-7.0-4.24","63d1819e544fa53e891614ec","bdp_wmem","Wed Mar 15 2023 13:07:53 GMT-0700 (Pacific Daylight Time)","651390","Match,No Match","","1149","","","","","","<div class='trialBorder'><div class='targDiv'><div class='tc'><img class='introPic' src='trustrating_stim/white_mw092.bmp'><br><font color='red'><strong>Keep</strong></font></div></div><div class='respDiv'><div class='respDivL'>Match<br>(e)</div><div class='respDivR'>No Match<br>(i)</div></div></div>","i","TARGET","1","trustrating_stim/white_mw040.bmp","0","noMatchFace","i","1500","trustrating_stim/white_mw092.bmp","red","Keep","REAL","1"
"html-keyboard-response","159","449993","0.0-7.0-5.24","63d1819e544fa53e891614ec","bdp_wmem","Wed Mar 15 2023 13:07:53 GMT-0700 (Pacific Daylight Time)","651390","Match,No Match","","null","","","","","","<div class='trialBorder'><div class='vertical-center'><img src='img/correct.jpg'></div><div class='respDiv'><div class='respDivL'>Match<br>(e)</div><div class='respDivR'><font style='color:orange'>No Match<br>(i)</font></div></div></div>","null","FEEDBACK","","","","","","","","","","",""
"html-keyboard-response","160","450500","0.0-7.0-1.25","63d1819e544fa53e891614ec","bdp_wmem","Wed Mar 15 2023 13:07:53 GMT-0700 (Pacific Daylight Time)","651390","Match,No Match","","null","","","","","","<div class='trialBorder'><div class='vertical-center'><img src='img/fixation2_sml.jpg'</img></div></div>","null","FIX","","","","","","","","","","",""
"html-keyboard-response","161","452008","0.0-7.0-2.25","63d1819e544fa53e891614ec","bdp_wmem","Wed Mar 15 2023 13:07:53 GMT-0700 (Pacific Daylight Time)","651390","Match,No Match","","null","","","","","","<div class='trialBorder'><div class='vertical-center'><img style='vertical-align:center; align:center' src='img/fixation2_sml.jpg'></div><div class='arrayDiv1'><div class='tc'><img class='introPic' src='trustrating_stim/white_mw070.bmp'><br><font color='green'><strong>Share</strong></font></div></div></div>","null","ARRAY","1","trustrating_stim/white_mw070.bmp","1","Match","e","1500","","","","",""
"html-keyboard-response","162","456019","0.0-7.0-3.25","63d1819e544fa53e891614ec","bdp_wmem","Wed Mar 15 2023 13:07:53 GMT-0700 (Pacific Daylight Time)","651390","Match,No Match","","null","","","","","","<div class='trialBorder'><div class='vertical-center'><img src='img/fixation2_sml.jpg'</img></div></div>","null","DELAY","","","","","","","","","","",""
"html-keyboard-response","163","456802","0.0-7.0-4.25","63d1819e544fa53e891614ec","bdp_wmem","Wed Mar 15 2023 13:07:53 GMT-0700 (Pacific Daylight Time)","651390","Match,No Match","","780","","","","","","<div class='trialBorder'><div class='targDiv'><div class='tc'><img class='introPic' src='trustrating_stim/white_mw070.bmp'><br><font color='green'><strong>Share</strong></font></div></div><div class='respDiv'><div class='respDivL'>Match<br>(e)</div><div class='respDivR'>No Match<br>(i)</div></div></div>","e","TARGET","1","trustrating_stim/white_mw070.bmp","1","Match","e","1500","trustrating_stim/white_mw070.bmp","green","Share","REAL","1"
"html-keyboard-response","164","457309","0.0-7.0-5.25","63d1819e544fa53e891614ec","bdp_wmem","Wed Mar 15 2023 13:07:53 GMT-0700 (Pacific Daylight Time)","651390","Match,No Match","","null","","","","","","<div class='trialBorder'><div class='vertical-center'><img src='img/correct.jpg'></div><div class='respDiv'><div class='respDivL'><font style='color:orange'>Match<br>(e)</font></div><div class='respDivR'>No Match<br>(i)</div></div></div>","null","FEEDBACK","","","","","","","","","","",""
"html-keyboard-response","165","457818","0.0-7.0-1.26","63d1819e544fa53e891614ec","bdp_wmem","Wed Mar 15 2023 13:07:53 GMT-0700 (Pacific Daylight Time)","651390","Match,No Match","","null","","","","","","<div class='trialBorder'><div class='vertical-center'><img src='img/fixation2_sml.jpg'</img></div></div>","null","FIX","","","","","","","","","","",""
"html-keyboard-response","166","462322","0.0-7.0-2.26","63d1819e544fa53e891614ec","bdp_wmem","Wed Mar 15 2023 13:07:53 GMT-0700 (Pacific Daylight Time)","651390","Match,No Match","","null","","","","","","<div class='trialBorder'><div class='vertical-center'><img style='vertical-align:center; align:center' src='img/fixation2_sml.jpg'></div><div class='arrayDiv3'><div class='tl'><img class='introPic' src='trustrating_stim/white_mw042.bmp'><br><font color='green'><strong>Share</strong></font></div><div class='tc'><img class='introPic' src='trustrating_stim/white_mw085.bmp'><br><font color='green'><strong>Share</strong></font></div><div class='tr'><img class='introPic' src='trustrating_stim/white_mw091.bmp'><br><font color='red'><strong>Keep</strong></font></div></div></div>","null","ARRAY","3","trustrating_stim/white_mw042.bmp,trustrating_stim/white_mw085.bmp,trustrating_stim/white_mw091.bmp","1,1,0","Match","e","4500","","","","",""
"html-keyboard-response","167","466328","0.0-7.0-3.26","63d1819e544fa53e891614ec","bdp_wmem","Wed Mar 15 2023 13:07:53 GMT-0700 (Pacific Daylight Time)","651390","Match,No Match","","null","","","","","","<div class='trialBorder'><div class='vertical-center'><img src='img/fixation2_sml.jpg'</img></div></div>","null","DELAY","","","","","","","","","","",""
"html-keyboard-response","168","467969","0.0-7.0-4.26","63d1819e544fa53e891614ec","bdp_wmem","Wed Mar 15 2023 13:07:53 GMT-0700 (Pacific Daylight Time)","651390","Match,No Match","","1638","","","","","","<div class='trialBorder'><div class='targDiv'><div class='tc'><img class='introPic' src='trustrating_stim/white_mw091.bmp'><br><font color='red'><strong>Keep</strong></font></div></div><div class='respDiv'><div class='respDivL'>Match<br>(e)</div><div class='respDivR'>No Match<br>(i)</div></div></div>","e","TARGET","3","trustrating_stim/white_mw042.bmp,trustrating_stim/white_mw085.bmp,trustrating_stim/white_mw091.bmp","1,1,0","Match","e","4500","trustrating_stim/white_mw091.bmp","red","Keep","REAL","1"
"html-keyboard-response","169","468472","0.0-7.0-5.26","63d1819e544fa53e891614ec","bdp_wmem","Wed Mar 15 2023 13:07:53 GMT-0700 (Pacific Daylight Time)","651390","Match,No Match","","null","","","","","","<div class='trialBorder'><div class='vertical-center'><img src='img/correct.jpg'></div><div class='respDiv'><div class='respDivL'><font style='color:orange'>Match<br>(e)</font></div><div class='respDivR'>No Match<br>(i)</div></div></div>","null","FEEDBACK","","","","","","","","","","",""
"html-keyboard-response","170","468981","0.0-7.0-1.27","63d1819e544fa53e891614ec","bdp_wmem","Wed Mar 15 2023 13:07:53 GMT-0700 (Pacific Daylight Time)","651390","Match,No Match","","null","","","","","","<div class='trialBorder'><div class='vertical-center'><img src='img/fixation2_sml.jpg'</img></div></div>","null","FIX","","","","","","","","","","",""
"html-keyboard-response","171","473497","0.0-7.0-2.27","63d1819e544fa53e891614ec","bdp_wmem","Wed Mar 15 2023 13:07:53 GMT-0700 (Pacific Daylight Time)","651390","Match,No Match","","null","","","","","","<div class='trialBorder'><div class='vertical-center'><img style='vertical-align:center; align:center' src='img/fixation2_sml.jpg'></div><div class='arrayDiv3'><div class='tl'><img class='introPic' src='trustrating_stim/white_mw038.bmp'><br><font color='green'><strong>Share</strong></font></div><div class='tc'><img class='introPic' src='trustrating_stim/white_mw040.bmp'><br><font color='red'><strong>Keep</strong></font></div><div class='tr'><img class='introPic' src='trustrating_stim/white_mw092.bmp'><br><font color='red'><strong>Keep</strong></font></div></div></div>","null","ARRAY","3","trustrating_stim/white_mw038.bmp,trustrating_stim/white_mw040.bmp,trustrating_stim/white_mw092.bmp","1,0,0","noMatchOutcome","i","4500","","","","",""
"html-keyboard-response","172","477500","0.0-7.0-3.27","63d1819e544fa53e891614ec","bdp_wmem","Wed Mar 15 2023 13:07:53 GMT-0700 (Pacific Daylight Time)","651390","Match,No Match","","null","","","","","","<div class='trialBorder'><div class='vertical-center'><img src='img/fixation2_sml.jpg'</img></div></div>","null","DELAY","","","","","","","","","","",""
"html-keyboard-response","173","479386","0.0-7.0-4.27","63d1819e544fa53e891614ec","bdp_wmem","Wed Mar 15 2023 13:07:53 GMT-0700 (Pacific Daylight Time)","651390","Match,No Match","","1882","","","","","","<div class='trialBorder'><div class='targDiv'><div class='tc'><img class='introPic' src='trustrating_stim/white_mw092.bmp'><br><font color='green'><strong>Share</strong></font></div></div><div class='respDiv'><div class='respDivL'>Match<br>(e)</div><div class='respDivR'>No Match<br>(i)</div></div></div>","e","TARGET","3","trustrating_stim/white_mw038.bmp,trustrating_stim/white_mw040.bmp,trustrating_stim/white_mw092.bmp","1,0,0","noMatchOutcome","i","4500","trustrating_stim/white_mw092.bmp","green","Share","REAL","0"
"html-keyboard-response","174","479893","0.0-7.0-5.27","63d1819e544fa53e891614ec","bdp_wmem","Wed Mar 15 2023 13:07:53 GMT-0700 (Pacific Daylight Time)","651390","Match,No Match","","null","","","","","","<div class='trialBorder'><div class='vertical-center'><img src='img/error.jpg'></div><div class='respDiv'><div class='respDivL'><font style='color:orange'>Match<br>(e)</font></div><div class='respDivR'>No Match<br>(i)</div></div></div>","null","FEEDBACK","","","","","","","","","","",""
"html-keyboard-response","175","480401","0.0-7.0-1.28","63d1819e544fa53e891614ec","bdp_wmem","Wed Mar 15 2023 13:07:53 GMT-0700 (Pacific Daylight Time)","651390","Match,No Match","","null","","","","","","<div class='trialBorder'><div class='vertical-center'><img src='img/fixation2_sml.jpg'</img></div></div>","null","FIX","","","","","","","","","","",""
"html-keyboard-response","176","481910","0.0-7.0-2.28","63d1819e544fa53e891614ec","bdp_wmem","Wed Mar 15 2023 13:07:53 GMT-0700 (Pacific Daylight Time)","651390","Match,No Match","","null","","","","","","<div class='trialBorder'><div class='vertical-center'><img style='vertical-align:center; align:center' src='img/fixation2_sml.jpg'></div><div class='arrayDiv1'><div class='tc'><img class='introPic' src='trustrating_stim/white_mw040.bmp'><br><font color='green'><strong>Share</strong></font></div></div></div>","null","ARRAY","1","trustrating_stim/white_mw040.bmp","1","Match","e","1500","","","","",""
"html-keyboard-response","177","485925","0.0-7.0-3.28","63d1819e544fa53e891614ec","bdp_wmem","Wed Mar 15 2023 13:07:53 GMT-0700 (Pacific Daylight Time)","651390","Match,No Match","","null","","","","","","<div class='trialBorder'><div class='vertical-center'><img src='img/fixation2_sml.jpg'</img></div></div>","null","DELAY","","","","","","","","","","",""
"html-keyboard-response","178","487154","0.0-7.0-4.28","63d1819e544fa53e891614ec","bdp_wmem","Wed Mar 15 2023 13:07:53 GMT-0700 (Pacific Daylight Time)","651390","Match,No Match","","1226","","","","","","<div class='trialBorder'><div class='targDiv'><div class='tc'><img class='introPic' src='trustrating_stim/white_mw040.bmp'><br><font color='green'><strong>Share</strong></font></div></div><div class='respDiv'><div class='respDivL'>Match<br>(e)</div><div class='respDivR'>No Match<br>(i)</div></div></div>","e","TARGET","1","trustrating_stim/white_mw040.bmp","1","Match","e","1500","trustrating_stim/white_mw040.bmp","green","Share","REAL","1"
"html-keyboard-response","179","487668","0.0-7.0-5.28","63d1819e544fa53e891614ec","bdp_wmem","Wed Mar 15 2023 13:07:53 GMT-0700 (Pacific Daylight Time)","651390","Match,No Match","","null","","","","","","<div class='trialBorder'><div class='vertical-center'><img src='img/correct.jpg'></div><div class='respDiv'><div class='respDivL'><font style='color:orange'>Match<br>(e)</font></div><div class='respDivR'>No Match<br>(i)</div></div></div>","null","FEEDBACK","","","","","","","","","","",""
"html-keyboard-response","180","488177","0.0-7.0-1.29","63d1819e544fa53e891614ec","bdp_wmem","Wed Mar 15 2023 13:07:53 GMT-0700 (Pacific Daylight Time)","651390","Match,No Match","","null","","","","","","<div class='trialBorder'><div class='vertical-center'><img src='img/fixation2_sml.jpg'</img></div></div>","null","FIX","","","","","","","","","","",""
"html-keyboard-response","181","489688","0.0-7.0-2.29","63d1819e544fa53e891614ec","bdp_wmem","Wed Mar 15 2023 13:07:53 GMT-0700 (Pacific Daylight Time)","651390","Match,No Match","","null","","","","","","<div class='trialBorder'><div class='vertical-center'><img style='vertical-align:center; align:center' src='img/fixation2_sml.jpg'></div><div class='arrayDiv1'><div class='tc'><img class='introPic' src='trustrating_stim/white_mw085.bmp'><br><font color='green'><strong>Share</strong></font></div></div></div>","null","ARRAY","1","trustrating_stim/white_mw085.bmp","1","noMatchFace","i","1500","","","","",""
"html-keyboard-response","182","493698","0.0-7.0-3.29","63d1819e544fa53e891614ec","bdp_wmem","Wed Mar 15 2023 13:07:53 GMT-0700 (Pacific Daylight Time)","651390","Match,No Match","","null","","","","","","<div class='trialBorder'><div class='vertical-center'><img src='img/fixation2_sml.jpg'</img></div></div>","null","DELAY","","","","","","","","","","",""
"html-keyboard-response","183","494542","0.0-7.0-4.29","63d1819e544fa53e891614ec","bdp_wmem","Wed Mar 15 2023 13:07:53 GMT-0700 (Pacific Daylight Time)","651390","Match,No Match","","842","","","","","","<div class='trialBorder'><div class='targDiv'><div class='tc'><img class='introPic' src='trustrating_stim/white_mw070.bmp'><br><font color='green'><strong>Share</strong></font></div></div><div class='respDiv'><div class='respDivL'>Match<br>(e)</div><div class='respDivR'>No Match<br>(i)</div></div></div>","i","TARGET","1","trustrating_stim/white_mw085.bmp","1","noMatchFace","i","1500","trustrating_stim/white_mw070.bmp","green","Share","REAL","1"
"html-keyboard-response","184","495045","0.0-7.0-5.29","63d1819e544fa53e891614ec","bdp_wmem","Wed Mar 15 2023 13:07:53 GMT-0700 (Pacific Daylight Time)","651390","Match,No Match","","null","","","","","","<div class='trialBorder'><div class='vertical-center'><img src='img/correct.jpg'></div><div class='respDiv'><div class='respDivL'>Match<br>(e)</div><div class='respDivR'><font style='color:orange'>No Match<br>(i)</font></div></div></div>","null","FEEDBACK","","","","","","","","","","",""
"html-keyboard-response","185","495552","0.0-7.0-1.30","63d1819e544fa53e891614ec","bdp_wmem","Wed Mar 15 2023 13:07:53 GMT-0700 (Pacific Daylight Time)","651390","Match,No Match","","null","","","","","","<div class='trialBorder'><div class='vertical-center'><img src='img/fixation2_sml.jpg'</img></div></div>","null","FIX","","","","","","","","","","",""
