"trial_type","trial_index","time_elapsed","internal_node_id","subject_id","task","startTime","totalTime","labels","view_history","rt","event","trial","time","trialtype","success","stimulus","key_press","stimType","arraySize","arrayFaces","arrayOutcomes","matchType","corrResp","arrayDur","targFace","targCol","targOutcome","trialType","corr"
"pavlovia","0","11","0.0-0.0","613e002e81f4b2409b531dbd","bdp_wmem","Wed Mar 15 2023 19:23:23 GMT (Coordinated Universal Time)","663209","Match,No Match","","","","","","","","","","","","","","","","","","","","",""
"instructions","1","3313","0.0-1.0","613e002e81f4b2409b531dbd","bdp_wmem","Wed Mar 15 2023 19:23:23 GMT (Coordinated Universal Time)","663209","Match,No Match","[{""page_index"":0,""viewing_time"":3299}]","3299","","","","","","","","","","","","","","","","","","",""
"","","","","613e002e81f4b2409b531dbd","bdp_wmem","Wed Mar 15 2023 19:23:23 GMT (Coordinated Universal Time)","663209","Match,No Match","","","fullscreenenter","2","6189","fullscreenenter","","","","","","","","","","","","","","",""
"fullscreen","2","7174","0.0-2.0","613e002e81f4b2409b531dbd","bdp_wmem","Wed Mar 15 2023 19:23:23 GMT (Coordinated Universal Time)","663209","Match,No Match","","","","","","","true","","","","","","","","","","","","","",""
"instructions","3","120185","0.0-4.0","613e002e81f4b2409b531dbd","bdp_wmem","Wed Mar 15 2023 19:23:23 GMT (Coordinated Universal Time)","663209","Match,No Match","[{""page_index"":0,""viewing_time"":36042},{""page_index"":1,""viewing_time"":52040},{""page_index"":2,""viewing_time"":14082},{""page_index"":3,""viewing_time"":6603},{""page_index"":4,""viewing_time"":4242}]","113009","","","","","","","","","","","","","","","","","","",""
"html-keyboard-response","4","120693","0.0-5.0-1.0","613e002e81f4b2409b531dbd","bdp_wmem","Wed Mar 15 2023 19:23:23 GMT (Coordinated Universal Time)","663209","Match,No Match","","null","","","","","","<div class='trialBorder'><div class='vertical-center'><img src='img/fixation2_sml.jpg'</img></div></div>","null","FIX","","","","","","","","","","",""
"html-keyboard-response","5","125199","0.0-5.0-2.0","613e002e81f4b2409b531dbd","bdp_wmem","Wed Mar 15 2023 19:23:23 GMT (Coordinated Universal Time)","663209","Match,No Match","","null","","","","","","<div class='trialBorder'><div class='vertical-center'><img style='vertical-align:center; align:center' src='img/fixation2_sml.jpg'></div><div class='arrayDiv3'><div class='tl'><img class='introPic' src='trustrating_stim/white_mw091.bmp'><br><font color='red'><strong>Keep</strong></font></div><div class='tc'><img class='introPic' src='trustrating_stim/white_mw092.bmp'><br><font color='red'><strong>Keep</strong></font></div><div class='tr'><img class='introPic' src='trustrating_stim/white_mw012.bmp'><br><font color='green'><strong>Share</strong></font></div></div></div>","null","ARRAY","3","trustrating_stim/white_mw091.bmp,trustrating_stim/white_mw092.bmp,trustrating_stim/white_mw012.bmp","0,0,1","noMatchOutcome","i","4500","","","","",""
"html-keyboard-response","6","129202","0.0-5.0-3.0","613e002e81f4b2409b531dbd","bdp_wmem","Wed Mar 15 2023 19:23:23 GMT (Coordinated Universal Time)","663209","Match,No Match","","null","","","","","","<div class='trialBorder'><div class='vertical-center'><img src='img/fixation2_sml.jpg'</img></div></div>","null","DELAY","","","","","","","","","","",""
"html-keyboard-response","7","133890","0.0-5.0-4.0","613e002e81f4b2409b531dbd","bdp_wmem","Wed Mar 15 2023 19:23:23 GMT (Coordinated Universal Time)","663209","Match,No Match","","4684","","","","","","<div class='trialBorder'><div class='targDiv'><div class='tc'><img class='introPic' src='trustrating_stim/white_mw012.bmp'><br><font color='red'><strong>Keep</strong></font></div></div><div class='respDiv'><div class='respDivL'>Match<br>(e)</div><div class='respDivR'>No Match<br>(i)</div></div></div>","i","TARGET","3","trustrating_stim/white_mw091.bmp,trustrating_stim/white_mw092.bmp,trustrating_stim/white_mw012.bmp","0,0,1","noMatchOutcome","i","4500","trustrating_stim/white_mw012.bmp","red","Keep","PRACTICE","1"
"html-keyboard-response","8","134395","0.0-5.0-5.0","613e002e81f4b2409b531dbd","bdp_wmem","Wed Mar 15 2023 19:23:23 GMT (Coordinated Universal Time)","663209","Match,No Match","","null","","","","","","<div class='trialBorder'><div class='vertical-center'><img src='img/correct.jpg'></div><div class='respDiv'><div class='respDivL'>Match<br>(e)</div><div class='respDivR'><font style='color:orange'>No Match<br>(i)</font></div></div></div>","null","FEEDBACK","","","","","","","","","","",""
"html-keyboard-response","9","134901","0.0-5.0-1.1","613e002e81f4b2409b531dbd","bdp_wmem","Wed Mar 15 2023 19:23:23 GMT (Coordinated Universal Time)","663209","Match,No Match","","null","","","","","","<div class='trialBorder'><div class='vertical-center'><img src='img/fixation2_sml.jpg'</img></div></div>","null","FIX","","","","","","","","","","",""
"html-keyboard-response","10","136414","0.0-5.0-2.1","613e002e81f4b2409b531dbd","bdp_wmem","Wed Mar 15 2023 19:23:23 GMT (Coordinated Universal Time)","663209","Match,No Match","","null","","","","","","<div class='trialBorder'><div class='vertical-center'><img style='vertical-align:center; align:center' src='img/fixation2_sml.jpg'></div><div class='arrayDiv1'><div class='tc'><img class='introPic' src='trustrating_stim/white_mw012.bmp'><br><font color='red'><strong>Keep</strong></font></div></div></div>","null","ARRAY","1","trustrating_stim/white_mw012.bmp","0","Match","e","1500","","","","",""
"html-keyboard-response","11","140423","0.0-5.0-3.1","613e002e81f4b2409b531dbd","bdp_wmem","Wed Mar 15 2023 19:23:23 GMT (Coordinated Universal Time)","663209","Match,No Match","","null","","","","","","<div class='trialBorder'><div class='vertical-center'><img src='img/fixation2_sml.jpg'</img></div></div>","null","DELAY","","","","","","","","","","",""
"html-keyboard-response","12","142854","0.0-5.0-4.1","613e002e81f4b2409b531dbd","bdp_wmem","Wed Mar 15 2023 19:23:23 GMT (Coordinated Universal Time)","663209","Match,No Match","","2428","","","","","","<div class='trialBorder'><div class='targDiv'><div class='tc'><img class='introPic' src='trustrating_stim/white_mw012.bmp'><br><font color='red'><strong>Keep</strong></font></div></div><div class='respDiv'><div class='respDivL'>Match<br>(e)</div><div class='respDivR'>No Match<br>(i)</div></div></div>","e","TARGET","1","trustrating_stim/white_mw012.bmp","0","Match","e","1500","trustrating_stim/white_mw012.bmp","red","Keep","PRACTICE","1"
"html-keyboard-response","13","143357","0.0-5.0-5.1","613e002e81f4b2409b531dbd","bdp_wmem","Wed Mar 15 2023 19:23:23 GMT (Coordinated Universal Time)","663209","Match,No Match","","null","","","","","","<div class='trialBorder'><div class='vertical-center'><img src='img/correct.jpg'></div><div class='respDiv'><div class='respDivL'><font style='color:orange'>Match<br>(e)</font></div><div class='respDivR'>No Match<br>(i)</div></div></div>","null","FEEDBACK","","","","","","","","","","",""
"html-keyboard-response","14","143864","0.0-5.0-1.2","613e002e81f4b2409b531dbd","bdp_wmem","Wed Mar 15 2023 19:23:23 GMT (Coordinated Universal Time)","663209","Match,No Match","","null","","","","","","<div class='trialBorder'><div class='vertical-center'><img src='img/fixation2_sml.jpg'</img></div></div>","null","FIX","","","","","","","","","","",""
"html-keyboard-response","15","146873","0.0-5.0-2.2","613e002e81f4b2409b531dbd","bdp_wmem","Wed Mar 15 2023 19:23:23 GMT (Coordinated Universal Time)","663209","Match,No Match","","null","","","","","","<div class='trialBorder'><div class='vertical-center'><img style='vertical-align:center; align:center' src='img/fixation2_sml.jpg'></div><div class='arrayDiv2'><div class='tl'><img class='introPic' src='trustrating_stim/white_mw012.bmp'><br><font color='red'><strong>Keep</strong></font></div><div class='tr'><img class='introPic' src='trustrating_stim/white_mw092.bmp'><br><font color='green'><strong>Share</strong></font></div></div></div>","null","ARRAY","2","trustrating_stim/white_mw012.bmp,trustrating_stim/white_mw092.bmp","0,1","noMatchOutcome","i","3000","","","","",""
"html-keyboard-response","16","150882","0.0-5.0-3.2","613e002e81f4b2409b531dbd","bdp_wmem","Wed Mar 15 2023 19:23:23 GMT (Coordinated Universal Time)","663209","Match,No Match","","null","","","","","","<div class='trialBorder'><div class='vertical-center'><img src='img/fixation2_sml.jpg'</img></div></div>","null","DELAY","","","","","","","","","","",""
"html-keyboard-response","17","154847","0.0-5.0-4.2","613e002e81f4b2409b531dbd","bdp_wmem","Wed Mar 15 2023 19:23:23 GMT (Coordinated Universal Time)","663209","Match,No Match","","3962","","","","","","<div class='trialBorder'><div class='targDiv'><div class='tc'><img class='introPic' src='trustrating_stim/white_mw092.bmp'><br><font color='red'><strong>Keep</strong></font></div></div><div class='respDiv'><div class='respDivL'>Match<br>(e)</div><div class='respDivR'>No Match<br>(i)</div></div></div>","e","TARGET","2","trustrating_stim/white_mw012.bmp,trustrating_stim/white_mw092.bmp","0,1","noMatchOutcome","i","3000","trustrating_stim/white_mw092.bmp","red","Keep","PRACTICE","0"
"html-keyboard-response","18","155364","0.0-5.0-5.2","613e002e81f4b2409b531dbd","bdp_wmem","Wed Mar 15 2023 19:23:23 GMT (Coordinated Universal Time)","663209","Match,No Match","","null","","","","","","<div class='trialBorder'><div class='vertical-center'><img src='img/error.jpg'></div><div class='respDiv'><div class='respDivL'><font style='color:orange'>Match<br>(e)</font></div><div class='respDivR'>No Match<br>(i)</div></div></div>","null","FEEDBACK","","","","","","","","","","",""
"html-keyboard-response","19","155870","0.0-5.0-1.3","613e002e81f4b2409b531dbd","bdp_wmem","Wed Mar 15 2023 19:23:23 GMT (Coordinated Universal Time)","663209","Match,No Match","","null","","","","","","<div class='trialBorder'><div class='vertical-center'><img src='img/fixation2_sml.jpg'</img></div></div>","null","FIX","","","","","","","","","","",""
"html-keyboard-response","20","160379","0.0-5.0-2.3","613e002e81f4b2409b531dbd","bdp_wmem","Wed Mar 15 2023 19:23:23 GMT (Coordinated Universal Time)","663209","Match,No Match","","null","","","","","","<div class='trialBorder'><div class='vertical-center'><img style='vertical-align:center; align:center' src='img/fixation2_sml.jpg'></div><div class='arrayDiv3'><div class='tl'><img class='introPic' src='trustrating_stim/white_mw042.bmp'><br><font color='red'><strong>Keep</strong></font></div><div class='tc'><img class='introPic' src='trustrating_stim/white_mw010.bmp'><br><font color='red'><strong>Keep</strong></font></div><div class='tr'><img class='introPic' src='trustrating_stim/white_mw038.bmp'><br><font color='green'><strong>Share</strong></font></div></div></div>","null","ARRAY","3","trustrating_stim/white_mw042.bmp,trustrating_stim/white_mw010.bmp,trustrating_stim/white_mw038.bmp","0,0,1","Match","e","4500","","","","",""
"html-keyboard-response","21","164387","0.0-5.0-3.3","613e002e81f4b2409b531dbd","bdp_wmem","Wed Mar 15 2023 19:23:23 GMT (Coordinated Universal Time)","663209","Match,No Match","","null","","","","","","<div class='trialBorder'><div class='vertical-center'><img src='img/fixation2_sml.jpg'</img></div></div>","null","DELAY","","","","","","","","","","",""
"html-keyboard-response","22","166247","0.0-5.0-4.3","613e002e81f4b2409b531dbd","bdp_wmem","Wed Mar 15 2023 19:23:23 GMT (Coordinated Universal Time)","663209","Match,No Match","","1857","","","","","","<div class='trialBorder'><div class='targDiv'><div class='tc'><img class='introPic' src='trustrating_stim/white_mw010.bmp'><br><font color='red'><strong>Keep</strong></font></div></div><div class='respDiv'><div class='respDivL'>Match<br>(e)</div><div class='respDivR'>No Match<br>(i)</div></div></div>","e","TARGET","3","trustrating_stim/white_mw042.bmp,trustrating_stim/white_mw010.bmp,trustrating_stim/white_mw038.bmp","0,0,1","Match","e","4500","trustrating_stim/white_mw010.bmp","red","Keep","PRACTICE","1"
"html-keyboard-response","23","166759","0.0-5.0-5.3","613e002e81f4b2409b531dbd","bdp_wmem","Wed Mar 15 2023 19:23:23 GMT (Coordinated Universal Time)","663209","Match,No Match","","null","","","","","","<div class='trialBorder'><div class='vertical-center'><img src='img/correct.jpg'></div><div class='respDiv'><div class='respDivL'><font style='color:orange'>Match<br>(e)</font></div><div class='respDivR'>No Match<br>(i)</div></div></div>","null","FEEDBACK","","","","","","","","","","",""
"html-keyboard-response","24","167267","0.0-5.0-1.4","613e002e81f4b2409b531dbd","bdp_wmem","Wed Mar 15 2023 19:23:23 GMT (Coordinated Universal Time)","663209","Match,No Match","","null","","","","","","<div class='trialBorder'><div class='vertical-center'><img src='img/fixation2_sml.jpg'</img></div></div>","null","FIX","","","","","","","","","","",""
"html-keyboard-response","25","170275","0.0-5.0-2.4","613e002e81f4b2409b531dbd","bdp_wmem","Wed Mar 15 2023 19:23:23 GMT (Coordinated Universal Time)","663209","Match,No Match","","null","","","","","","<div class='trialBorder'><div class='vertical-center'><img style='vertical-align:center; align:center' src='img/fixation2_sml.jpg'></div><div class='arrayDiv2'><div class='tl'><img class='introPic' src='trustrating_stim/white_mw042.bmp'><br><font color='red'><strong>Keep</strong></font></div><div class='tr'><img class='introPic' src='trustrating_stim/white_mw013.bmp'><br><font color='green'><strong>Share</strong></font></div></div></div>","null","ARRAY","2","trustrating_stim/white_mw042.bmp,trustrating_stim/white_mw013.bmp","0,1","Match","e","3000","","","","",""
"html-keyboard-response","26","174284","0.0-5.0-3.4","613e002e81f4b2409b531dbd","bdp_wmem","Wed Mar 15 2023 19:23:23 GMT (Coordinated Universal Time)","663209","Match,No Match","","null","","","","","","<div class='trialBorder'><div class='vertical-center'><img src='img/fixation2_sml.jpg'</img></div></div>","null","DELAY","","","","","","","","","","",""
"html-keyboard-response","27","176375","0.0-5.0-4.4","613e002e81f4b2409b531dbd","bdp_wmem","Wed Mar 15 2023 19:23:23 GMT (Coordinated Universal Time)","663209","Match,No Match","","2088","","","","","","<div class='trialBorder'><div class='targDiv'><div class='tc'><img class='introPic' src='trustrating_stim/white_mw013.bmp'><br><font color='green'><strong>Share</strong></font></div></div><div class='respDiv'><div class='respDivL'>Match<br>(e)</div><div class='respDivR'>No Match<br>(i)</div></div></div>","e","TARGET","2","trustrating_stim/white_mw042.bmp,trustrating_stim/white_mw013.bmp","0,1","Match","e","3000","trustrating_stim/white_mw013.bmp","green","Share","PRACTICE","1"
"html-keyboard-response","28","176877","0.0-5.0-5.4","613e002e81f4b2409b531dbd","bdp_wmem","Wed Mar 15 2023 19:23:23 GMT (Coordinated Universal Time)","663209","Match,No Match","","null","","","","","","<div class='trialBorder'><div class='vertical-center'><img src='img/correct.jpg'></div><div class='respDiv'><div class='respDivL'><font style='color:orange'>Match<br>(e)</font></div><div class='respDivR'>No Match<br>(i)</div></div></div>","null","FEEDBACK","","","","","","","","","","",""
"html-keyboard-response","29","177383","0.0-5.0-1.5","613e002e81f4b2409b531dbd","bdp_wmem","Wed Mar 15 2023 19:23:23 GMT (Coordinated Universal Time)","663209","Match,No Match","","null","","","","","","<div class='trialBorder'><div class='vertical-center'><img src='img/fixation2_sml.jpg'</img></div></div>","null","FIX","","","","","","","","","","",""
"html-keyboard-response","30","178888","0.0-5.0-2.5","613e002e81f4b2409b531dbd","bdp_wmem","Wed Mar 15 2023 19:23:23 GMT (Coordinated Universal Time)","663209","Match,No Match","","null","","","","","","<div class='trialBorder'><div class='vertical-center'><img style='vertical-align:center; align:center' src='img/fixation2_sml.jpg'></div><div class='arrayDiv1'><div class='tc'><img class='introPic' src='trustrating_stim/white_mw042.bmp'><br><font color='green'><strong>Share</strong></font></div></div></div>","null","ARRAY","1","trustrating_stim/white_mw042.bmp","1","noMatchFace","i","1500","","","","",""
"html-keyboard-response","31","182897","0.0-5.0-3.5","613e002e81f4b2409b531dbd","bdp_wmem","Wed Mar 15 2023 19:23:23 GMT (Coordinated Universal Time)","663209","Match,No Match","","null","","","","","","<div class='trialBorder'><div class='vertical-center'><img src='img/fixation2_sml.jpg'</img></div></div>","null","DELAY","","","","","","","","","","",""
"html-keyboard-response","32","185191","0.0-5.0-4.5","613e002e81f4b2409b531dbd","bdp_wmem","Wed Mar 15 2023 19:23:23 GMT (Coordinated Universal Time)","663209","Match,No Match","","2291","","","","","","<div class='trialBorder'><div class='targDiv'><div class='tc'><img class='introPic' src='trustrating_stim/white_mw085.bmp'><br><font color='green'><strong>Share</strong></font></div></div><div class='respDiv'><div class='respDivL'>Match<br>(e)</div><div class='respDivR'>No Match<br>(i)</div></div></div>","i","TARGET","1","trustrating_stim/white_mw042.bmp","1","noMatchFace","i","1500","trustrating_stim/white_mw085.bmp","green","Share","PRACTICE","1"
"html-keyboard-response","33","185694","0.0-5.0-5.5","613e002e81f4b2409b531dbd","bdp_wmem","Wed Mar 15 2023 19:23:23 GMT (Coordinated Universal Time)","663209","Match,No Match","","null","","","","","","<div class='trialBorder'><div class='vertical-center'><img src='img/correct.jpg'></div><div class='respDiv'><div class='respDivL'>Match<br>(e)</div><div class='respDivR'><font style='color:orange'>No Match<br>(i)</font></div></div></div>","null","FEEDBACK","","","","","","","","","","",""
"instructions","34","192830","0.0-6.0","613e002e81f4b2409b531dbd","bdp_wmem","Wed Mar 15 2023 19:23:23 GMT (Coordinated Universal Time)","663209","Match,No Match","[{""page_index"":0,""viewing_time"":7135}]","7136","","","","","","","","","","","","","","","","","","",""
"html-keyboard-response","35","193339","0.0-7.0-1.0","613e002e81f4b2409b531dbd","bdp_wmem","Wed Mar 15 2023 19:23:23 GMT (Coordinated Universal Time)","663209","Match,No Match","","null","","","","","","<div class='trialBorder'><div class='vertical-center'><img src='img/fixation2_sml.jpg'</img></div></div>","null","FIX","","","","","","","","","","",""
"html-keyboard-response","36","196358","0.0-7.0-2.0","613e002e81f4b2409b531dbd","bdp_wmem","Wed Mar 15 2023 19:23:23 GMT (Coordinated Universal Time)","663209","Match,No Match","","null","","","","","","<div class='trialBorder'><div class='vertical-center'><img style='vertical-align:center; align:center' src='img/fixation2_sml.jpg'></div><div class='arrayDiv2'><div class='tl'><img class='introPic' src='trustrating_stim/white_mw038.bmp'><br><font color='red'><strong>Keep</strong></font></div><div class='tr'><img class='introPic' src='trustrating_stim/white_mw003.bmp'><br><font color='green'><strong>Share</strong></font></div></div></div>","null","ARRAY","2","trustrating_stim/white_mw038.bmp,trustrating_stim/white_mw003.bmp","0,1","noMatchFace","i","3000","","","","",""
"html-keyboard-response","37","200367","0.0-7.0-3.0","613e002e81f4b2409b531dbd","bdp_wmem","Wed Mar 15 2023 19:23:23 GMT (Coordinated Universal Time)","663209","Match,No Match","","null","","","","","","<div class='trialBorder'><div class='vertical-center'><img src='img/fixation2_sml.jpg'</img></div></div>","null","DELAY","","","","","","","","","","",""
"html-keyboard-response","38","203155","0.0-7.0-4.0","613e002e81f4b2409b531dbd","bdp_wmem","Wed Mar 15 2023 19:23:23 GMT (Coordinated Universal Time)","663209","Match,No Match","","2784","","","","","","<div class='trialBorder'><div class='targDiv'><div class='tc'><img class='introPic' src='trustrating_stim/white_mw092.bmp'><br><font color='red'><strong>Keep</strong></font></div></div><div class='respDiv'><div class='respDivL'>Match<br>(e)</div><div class='respDivR'>No Match<br>(i)</div></div></div>","i","TARGET","2","trustrating_stim/white_mw038.bmp,trustrating_stim/white_mw003.bmp","0,1","noMatchFace","i","3000","trustrating_stim/white_mw092.bmp","red","Keep","REAL","1"
"html-keyboard-response","39","203664","0.0-7.0-5.0","613e002e81f4b2409b531dbd","bdp_wmem","Wed Mar 15 2023 19:23:23 GMT (Coordinated Universal Time)","663209","Match,No Match","","null","","","","","","<div class='trialBorder'><div class='vertical-center'><img src='img/correct.jpg'></div><div class='respDiv'><div class='respDivL'>Match<br>(e)</div><div class='respDivR'><font style='color:orange'>No Match<br>(i)</font></div></div></div>","null","FEEDBACK","","","","","","","","","","",""
"html-keyboard-response","40","204180","0.0-7.0-1.1","613e002e81f4b2409b531dbd","bdp_wmem","Wed Mar 15 2023 19:23:23 GMT (Coordinated Universal Time)","663209","Match,No Match","","null","","","","","","<div class='trialBorder'><div class='vertical-center'><img src='img/fixation2_sml.jpg'</img></div></div>","null","FIX","","","","","","","","","","",""
"html-keyboard-response","41","205692","0.0-7.0-2.1","613e002e81f4b2409b531dbd","bdp_wmem","Wed Mar 15 2023 19:23:23 GMT (Coordinated Universal Time)","663209","Match,No Match","","null","","","","","","<div class='trialBorder'><div class='vertical-center'><img style='vertical-align:center; align:center' src='img/fixation2_sml.jpg'></div><div class='arrayDiv1'><div class='tc'><img class='introPic' src='trustrating_stim/white_mw042.bmp'><br><font color='red'><strong>Keep</strong></font></div></div></div>","null","ARRAY","1","trustrating_stim/white_mw042.bmp","0","Match","e","1500","","","","",""
"html-keyboard-response","42","209700","0.0-7.0-3.1","613e002e81f4b2409b531dbd","bdp_wmem","Wed Mar 15 2023 19:23:23 GMT (Coordinated Universal Time)","663209","Match,No Match","","null","","","","","","<div class='trialBorder'><div class='vertical-center'><img src='img/fixation2_sml.jpg'</img></div></div>","null","DELAY","","","","","","","","","","",""
"html-keyboard-response","43","210958","0.0-7.0-4.1","613e002e81f4b2409b531dbd","bdp_wmem","Wed Mar 15 2023 19:23:23 GMT (Coordinated Universal Time)","663209","Match,No Match","","1254","","","","","","<div class='trialBorder'><div class='targDiv'><div class='tc'><img class='introPic' src='trustrating_stim/white_mw042.bmp'><br><font color='red'><strong>Keep</strong></font></div></div><div class='respDiv'><div class='respDivL'>Match<br>(e)</div><div class='respDivR'>No Match<br>(i)</div></div></div>","e","TARGET","1","trustrating_stim/white_mw042.bmp","0","Match","e","1500","trustrating_stim/white_mw042.bmp","red","Keep","REAL","1"
"html-keyboard-response","44","211459","0.0-7.0-5.1","613e002e81f4b2409b531dbd","bdp_wmem","Wed Mar 15 2023 19:23:23 GMT (Coordinated Universal Time)","663209","Match,No Match","","null","","","","","","<div class='trialBorder'><div class='vertical-center'><img src='img/correct.jpg'></div><div class='respDiv'><div class='respDivL'><font style='color:orange'>Match<br>(e)</font></div><div class='respDivR'>No Match<br>(i)</div></div></div>","null","FEEDBACK","","","","","","","","","","",""
"html-keyboard-response","45","211975","0.0-7.0-1.2","613e002e81f4b2409b531dbd","bdp_wmem","Wed Mar 15 2023 19:23:23 GMT (Coordinated Universal Time)","663209","Match,No Match","","null","","","","","","<div class='trialBorder'><div class='vertical-center'><img src='img/fixation2_sml.jpg'</img></div></div>","null","FIX","","","","","","","","","","",""
"html-keyboard-response","46","216483","0.0-7.0-2.2","613e002e81f4b2409b531dbd","bdp_wmem","Wed Mar 15 2023 19:23:23 GMT (Coordinated Universal Time)","663209","Match,No Match","","null","","","","","","<div class='trialBorder'><div class='vertical-center'><img style='vertical-align:center; align:center' src='img/fixation2_sml.jpg'></div><div class='arrayDiv3'><div class='tl'><img class='introPic' src='trustrating_stim/white_mw040.bmp'><br><font color='green'><strong>Share</strong></font></div><div class='tc'><img class='introPic' src='trustrating_stim/white_mw012.bmp'><br><font color='red'><strong>Keep</strong></font></div><div class='tr'><img class='introPic' src='trustrating_stim/white_mw042.bmp'><br><font color='green'><strong>Share</strong></font></div></div></div>","null","ARRAY","3","trustrating_stim/white_mw040.bmp,trustrating_stim/white_mw012.bmp,trustrating_stim/white_mw042.bmp","1,0,1","noMatchFace","i","4500","","","","",""
"html-keyboard-response","47","220492","0.0-7.0-3.2","613e002e81f4b2409b531dbd","bdp_wmem","Wed Mar 15 2023 19:23:23 GMT (Coordinated Universal Time)","663209","Match,No Match","","null","","","","","","<div class='trialBorder'><div class='vertical-center'><img src='img/fixation2_sml.jpg'</img></div></div>","null","DELAY","","","","","","","","","","",""
"html-keyboard-response","48","223065","0.0-7.0-4.2","613e002e81f4b2409b531dbd","bdp_wmem","Wed Mar 15 2023 19:23:23 GMT (Coordinated Universal Time)","663209","Match,No Match","","2570","","","","","","<div class='trialBorder'><div class='targDiv'><div class='tc'><img class='introPic' src='trustrating_stim/white_mw070.bmp'><br><font color='green'><strong>Share</strong></font></div></div><div class='respDiv'><div class='respDivL'>Match<br>(e)</div><div class='respDivR'>No Match<br>(i)</div></div></div>","i","TARGET","3","trustrating_stim/white_mw040.bmp,trustrating_stim/white_mw012.bmp,trustrating_stim/white_mw042.bmp","1,0,1","noMatchFace","i","4500","trustrating_stim/white_mw070.bmp","green","Share","REAL","1"
"html-keyboard-response","49","223569","0.0-7.0-5.2","613e002e81f4b2409b531dbd","bdp_wmem","Wed Mar 15 2023 19:23:23 GMT (Coordinated Universal Time)","663209","Match,No Match","","null","","","","","","<div class='trialBorder'><div class='vertical-center'><img src='img/correct.jpg'></div><div class='respDiv'><div class='respDivL'>Match<br>(e)</div><div class='respDivR'><font style='color:orange'>No Match<br>(i)</font></div></div></div>","null","FEEDBACK","","","","","","","","","","",""
"html-keyboard-response","50","224076","0.0-7.0-1.3","613e002e81f4b2409b531dbd","bdp_wmem","Wed Mar 15 2023 19:23:23 GMT (Coordinated Universal Time)","663209","Match,No Match","","null","","","","","","<div class='trialBorder'><div class='vertical-center'><img src='img/fixation2_sml.jpg'</img></div></div>","null","FIX","","","","","","","","","","",""
"html-keyboard-response","51","225581","0.0-7.0-2.3","613e002e81f4b2409b531dbd","bdp_wmem","Wed Mar 15 2023 19:23:23 GMT (Coordinated Universal Time)","663209","Match,No Match","","null","","","","","","<div class='trialBorder'><div class='vertical-center'><img style='vertical-align:center; align:center' src='img/fixation2_sml.jpg'></div><div class='arrayDiv1'><div class='tc'><img class='introPic' src='trustrating_stim/white_mw003.bmp'><br><font color='red'><strong>Keep</strong></font></div></div></div>","null","ARRAY","1","trustrating_stim/white_mw003.bmp","0","Match","e","1500","","","","",""
"html-keyboard-response","52","229590","0.0-7.0-3.3","613e002e81f4b2409b531dbd","bdp_wmem","Wed Mar 15 2023 19:23:23 GMT (Coordinated Universal Time)","663209","Match,No Match","","null","","","","","","<div class='trialBorder'><div class='vertical-center'><img src='img/fixation2_sml.jpg'</img></div></div>","null","DELAY","","","","","","","","","","",""
"html-keyboard-response","53","230821","0.0-7.0-4.3","613e002e81f4b2409b531dbd","bdp_wmem","Wed Mar 15 2023 19:23:23 GMT (Coordinated Universal Time)","663209","Match,No Match","","1228","","","","","","<div class='trialBorder'><div class='targDiv'><div class='tc'><img class='introPic' src='trustrating_stim/white_mw003.bmp'><br><font color='red'><strong>Keep</strong></font></div></div><div class='respDiv'><div class='respDivL'>Match<br>(e)</div><div class='respDivR'>No Match<br>(i)</div></div></div>","e","TARGET","1","trustrating_stim/white_mw003.bmp","0","Match","e","1500","trustrating_stim/white_mw003.bmp","red","Keep","REAL","1"
"html-keyboard-response","54","231324","0.0-7.0-5.3","613e002e81f4b2409b531dbd","bdp_wmem","Wed Mar 15 2023 19:23:23 GMT (Coordinated Universal Time)","663209","Match,No Match","","null","","","","","","<div class='trialBorder'><div class='vertical-center'><img src='img/correct.jpg'></div><div class='respDiv'><div class='respDivL'><font style='color:orange'>Match<br>(e)</font></div><div class='respDivR'>No Match<br>(i)</div></div></div>","null","FEEDBACK","","","","","","","","","","",""
"html-keyboard-response","55","231831","0.0-7.0-1.4","613e002e81f4b2409b531dbd","bdp_wmem","Wed Mar 15 2023 19:23:23 GMT (Coordinated Universal Time)","663209","Match,No Match","","null","","","","","","<div class='trialBorder'><div class='vertical-center'><img src='img/fixation2_sml.jpg'</img></div></div>","null","FIX","","","","","","","","","","",""
"html-keyboard-response","56","233335","0.0-7.0-2.4","613e002e81f4b2409b531dbd","bdp_wmem","Wed Mar 15 2023 19:23:23 GMT (Coordinated Universal Time)","663209","Match,No Match","","null","","","","","","<div class='trialBorder'><div class='vertical-center'><img style='vertical-align:center; align:center' src='img/fixation2_sml.jpg'></div><div class='arrayDiv1'><div class='tc'><img class='introPic' src='trustrating_stim/white_mw085.bmp'><br><font color='red'><strong>Keep</strong></font></div></div></div>","null","ARRAY","1","trustrating_stim/white_mw085.bmp","0","noMatchOutcome","i","1500","","","","",""
"html-keyboard-response","57","237343","0.0-7.0-3.4","613e002e81f4b2409b531dbd","bdp_wmem","Wed Mar 15 2023 19:23:23 GMT (Coordinated Universal Time)","663209","Match,No Match","","null","","","","","","<div class='trialBorder'><div class='vertical-center'><img src='img/fixation2_sml.jpg'</img></div></div>","null","DELAY","","","","","","","","","","",""
"html-keyboard-response","58","239132","0.0-7.0-4.4","613e002e81f4b2409b531dbd","bdp_wmem","Wed Mar 15 2023 19:23:23 GMT (Coordinated Universal Time)","663209","Match,No Match","","1785","","","","","","<div class='trialBorder'><div class='targDiv'><div class='tc'><img class='introPic' src='trustrating_stim/white_mw085.bmp'><br><font color='green'><strong>Share</strong></font></div></div><div class='respDiv'><div class='respDivL'>Match<br>(e)</div><div class='respDivR'>No Match<br>(i)</div></div></div>","i","TARGET","1","trustrating_stim/white_mw085.bmp","0","noMatchOutcome","i","1500","trustrating_stim/white_mw085.bmp","green","Share","REAL","1"
"html-keyboard-response","59","239637","0.0-7.0-5.4","613e002e81f4b2409b531dbd","bdp_wmem","Wed Mar 15 2023 19:23:23 GMT (Coordinated Universal Time)","663209","Match,No Match","","null","","","","","","<div class='trialBorder'><div class='vertical-center'><img src='img/correct.jpg'></div><div class='respDiv'><div class='respDivL'>Match<br>(e)</div><div class='respDivR'><font style='color:orange'>No Match<br>(i)</font></div></div></div>","null","FEEDBACK","","","","","","","","","","",""
"html-keyboard-response","60","240141","0.0-7.0-1.5","613e002e81f4b2409b531dbd","bdp_wmem","Wed Mar 15 2023 19:23:23 GMT (Coordinated Universal Time)","663209","Match,No Match","","null","","","","","","<div class='trialBorder'><div class='vertical-center'><img src='img/fixation2_sml.jpg'</img></div></div>","null","FIX","","","","","","","","","","",""
"html-keyboard-response","61","243153","0.0-7.0-2.5","613e002e81f4b2409b531dbd","bdp_wmem","Wed Mar 15 2023 19:23:23 GMT (Coordinated Universal Time)","663209","Match,No Match","","null","","","","","","<div class='trialBorder'><div class='vertical-center'><img style='vertical-align:center; align:center' src='img/fixation2_sml.jpg'></div><div class='arrayDiv2'><div class='tl'><img class='introPic' src='trustrating_stim/white_mw010.bmp'><br><font color='green'><strong>Share</strong></font></div><div class='tr'><img class='introPic' src='trustrating_stim/white_mw040.bmp'><br><font color='red'><strong>Keep</strong></font></div></div></div>","null","ARRAY","2","trustrating_stim/white_mw010.bmp,trustrating_stim/white_mw040.bmp","1,0","Match","e","3000","","","","",""
"html-keyboard-response","62","247162","0.0-7.0-3.5","613e002e81f4b2409b531dbd","bdp_wmem","Wed Mar 15 2023 19:23:23 GMT (Coordinated Universal Time)","663209","Match,No Match","","null","","","","","","<div class='trialBorder'><div class='vertical-center'><img src='img/fixation2_sml.jpg'</img></div></div>","null","DELAY","","","","","","","","","","",""
"html-keyboard-response","63","248465","0.0-7.0-4.5","613e002e81f4b2409b531dbd","bdp_wmem","Wed Mar 15 2023 19:23:23 GMT (Coordinated Universal Time)","663209","Match,No Match","","1300","","","","","","<div class='trialBorder'><div class='targDiv'><div class='tc'><img class='introPic' src='trustrating_stim/white_mw010.bmp'><br><font color='green'><strong>Share</strong></font></div></div><div class='respDiv'><div class='respDivL'>Match<br>(e)</div><div class='respDivR'>No Match<br>(i)</div></div></div>","e","TARGET","2","trustrating_stim/white_mw010.bmp,trustrating_stim/white_mw040.bmp","1,0","Match","e","3000","trustrating_stim/white_mw010.bmp","green","Share","REAL","1"
"html-keyboard-response","64","248974","0.0-7.0-5.5","613e002e81f4b2409b531dbd","bdp_wmem","Wed Mar 15 2023 19:23:23 GMT (Coordinated Universal Time)","663209","Match,No Match","","null","","","","","","<div class='trialBorder'><div class='vertical-center'><img src='img/correct.jpg'></div><div class='respDiv'><div class='respDivL'><font style='color:orange'>Match<br>(e)</font></div><div class='respDivR'>No Match<br>(i)</div></div></div>","null","FEEDBACK","","","","","","","","","","",""
"html-keyboard-response","65","249480","0.0-7.0-1.6","613e002e81f4b2409b531dbd","bdp_wmem","Wed Mar 15 2023 19:23:23 GMT (Coordinated Universal Time)","663209","Match,No Match","","null","","","","","","<div class='trialBorder'><div class='vertical-center'><img src='img/fixation2_sml.jpg'</img></div></div>","null","FIX","","","","","","","","","","",""
"html-keyboard-response","66","253986","0.0-7.0-2.6","613e002e81f4b2409b531dbd","bdp_wmem","Wed Mar 15 2023 19:23:23 GMT (Coordinated Universal Time)","663209","Match,No Match","","null","","","","","","<div class='trialBorder'><div class='vertical-center'><img style='vertical-align:center; align:center' src='img/fixation2_sml.jpg'></div><div class='arrayDiv3'><div class='tl'><img class='introPic' src='trustrating_stim/white_mw091.bmp'><br><font color='red'><strong>Keep</strong></font></div><div class='tc'><img class='introPic' src='trustrating_stim/white_mw003.bmp'><br><font color='green'><strong>Share</strong></font></div><div class='tr'><img class='introPic' src='trustrating_stim/white_mw012.bmp'><br><font color='red'><strong>Keep</strong></font></div></div></div>","null","ARRAY","3","trustrating_stim/white_mw091.bmp,trustrating_stim/white_mw003.bmp,trustrating_stim/white_mw012.bmp","0,1,0","Match","e","4500","","","","",""
"html-keyboard-response","67","257992","0.0-7.0-3.6","613e002e81f4b2409b531dbd","bdp_wmem","Wed Mar 15 2023 19:23:23 GMT (Coordinated Universal Time)","663209","Match,No Match","","null","","","","","","<div class='trialBorder'><div class='vertical-center'><img src='img/fixation2_sml.jpg'</img></div></div>","null","DELAY","","","","","","","","","","",""
"html-keyboard-response","68","259953","0.0-7.0-4.6","613e002e81f4b2409b531dbd","bdp_wmem","Wed Mar 15 2023 19:23:23 GMT (Coordinated Universal Time)","663209","Match,No Match","","1957","","","","","","<div class='trialBorder'><div class='targDiv'><div class='tc'><img class='introPic' src='trustrating_stim/white_mw091.bmp'><br><font color='red'><strong>Keep</strong></font></div></div><div class='respDiv'><div class='respDivL'>Match<br>(e)</div><div class='respDivR'>No Match<br>(i)</div></div></div>","e","TARGET","3","trustrating_stim/white_mw091.bmp,trustrating_stim/white_mw003.bmp,trustrating_stim/white_mw012.bmp","0,1,0","Match","e","4500","trustrating_stim/white_mw091.bmp","red","Keep","REAL","1"
"html-keyboard-response","69","260455","0.0-7.0-5.6","613e002e81f4b2409b531dbd","bdp_wmem","Wed Mar 15 2023 19:23:23 GMT (Coordinated Universal Time)","663209","Match,No Match","","null","","","","","","<div class='trialBorder'><div class='vertical-center'><img src='img/correct.jpg'></div><div class='respDiv'><div class='respDivL'><font style='color:orange'>Match<br>(e)</font></div><div class='respDivR'>No Match<br>(i)</div></div></div>","null","FEEDBACK","","","","","","","","","","",""
"html-keyboard-response","70","260961","0.0-7.0-1.7","613e002e81f4b2409b531dbd","bdp_wmem","Wed Mar 15 2023 19:23:23 GMT (Coordinated Universal Time)","663209","Match,No Match","","null","","","","","","<div class='trialBorder'><div class='vertical-center'><img src='img/fixation2_sml.jpg'</img></div></div>","null","FIX","","","","","","","","","","",""
"html-keyboard-response","71","265468","0.0-7.0-2.7","613e002e81f4b2409b531dbd","bdp_wmem","Wed Mar 15 2023 19:23:23 GMT (Coordinated Universal Time)","663209","Match,No Match","","null","","","","","","<div class='trialBorder'><div class='vertical-center'><img style='vertical-align:center; align:center' src='img/fixation2_sml.jpg'></div><div class='arrayDiv3'><div class='tl'><img class='introPic' src='trustrating_stim/white_mw091.bmp'><br><font color='green'><strong>Share</strong></font></div><div class='tc'><img class='introPic' src='trustrating_stim/white_mw040.bmp'><br><font color='red'><strong>Keep</strong></font></div><div class='tr'><img class='introPic' src='trustrating_stim/white_mw013.bmp'><br><font color='red'><strong>Keep</strong></font></div></div></div>","null","ARRAY","3","trustrating_stim/white_mw091.bmp,trustrating_stim/white_mw040.bmp,trustrating_stim/white_mw013.bmp","1,0,0","Match","e","4500","","","","",""
"html-keyboard-response","72","269476","0.0-7.0-3.7","613e002e81f4b2409b531dbd","bdp_wmem","Wed Mar 15 2023 19:23:23 GMT (Coordinated Universal Time)","663209","Match,No Match","","null","","","","","","<div class='trialBorder'><div class='vertical-center'><img src='img/fixation2_sml.jpg'</img></div></div>","null","DELAY","","","","","","","","","","",""
"html-keyboard-response","73","273130","0.0-7.0-4.7","613e002e81f4b2409b531dbd","bdp_wmem","Wed Mar 15 2023 19:23:23 GMT (Coordinated Universal Time)","663209","Match,No Match","","3650","","","","","","<div class='trialBorder'><div class='targDiv'><div class='tc'><img class='introPic' src='trustrating_stim/white_mw013.bmp'><br><font color='red'><strong>Keep</strong></font></div></div><div class='respDiv'><div class='respDivL'>Match<br>(e)</div><div class='respDivR'>No Match<br>(i)</div></div></div>","e","TARGET","3","trustrating_stim/white_mw091.bmp,trustrating_stim/white_mw040.bmp,trustrating_stim/white_mw013.bmp","1,0,0","Match","e","4500","trustrating_stim/white_mw013.bmp","red","Keep","REAL","1"
"html-keyboard-response","74","273640","0.0-7.0-5.7","613e002e81f4b2409b531dbd","bdp_wmem","Wed Mar 15 2023 19:23:23 GMT (Coordinated Universal Time)","663209","Match,No Match","","null","","","","","","<div class='trialBorder'><div class='vertical-center'><img src='img/correct.jpg'></div><div class='respDiv'><div class='respDivL'><font style='color:orange'>Match<br>(e)</font></div><div class='respDivR'>No Match<br>(i)</div></div></div>","null","FEEDBACK","","","","","","","","","","",""
"html-keyboard-response","75","274155","0.0-7.0-1.8","613e002e81f4b2409b531dbd","bdp_wmem","Wed Mar 15 2023 19:23:23 GMT (Coordinated Universal Time)","663209","Match,No Match","","null","","","","","","<div class='trialBorder'><div class='vertical-center'><img src='img/fixation2_sml.jpg'</img></div></div>","null","FIX","","","","","","","","","","",""
"html-keyboard-response","76","277162","0.0-7.0-2.8","613e002e81f4b2409b531dbd","bdp_wmem","Wed Mar 15 2023 19:23:23 GMT (Coordinated Universal Time)","663209","Match,No Match","","null","","","","","","<div class='trialBorder'><div class='vertical-center'><img style='vertical-align:center; align:center' src='img/fixation2_sml.jpg'></div><div class='arrayDiv2'><div class='tl'><img class='introPic' src='trustrating_stim/white_mw070.bmp'><br><font color='green'><strong>Share</strong></font></div><div class='tr'><img class='introPic' src='trustrating_stim/white_mw092.bmp'><br><font color='red'><strong>Keep</strong></font></div></div></div>","null","ARRAY","2","trustrating_stim/white_mw070.bmp,trustrating_stim/white_mw092.bmp","1,0","Match","e","3000","","","","",""
"html-keyboard-response","77","281164","0.0-7.0-3.8","613e002e81f4b2409b531dbd","bdp_wmem","Wed Mar 15 2023 19:23:23 GMT (Coordinated Universal Time)","663209","Match,No Match","","null","","","","","","<div class='trialBorder'><div class='vertical-center'><img src='img/fixation2_sml.jpg'</img></div></div>","null","DELAY","","","","","","","","","","",""
"html-keyboard-response","78","283922","0.0-7.0-4.8","613e002e81f4b2409b531dbd","bdp_wmem","Wed Mar 15 2023 19:23:23 GMT (Coordinated Universal Time)","663209","Match,No Match","","2754","","","","","","<div class='trialBorder'><div class='targDiv'><div class='tc'><img class='introPic' src='trustrating_stim/white_mw092.bmp'><br><font color='red'><strong>Keep</strong></font></div></div><div class='respDiv'><div class='respDivL'>Match<br>(e)</div><div class='respDivR'>No Match<br>(i)</div></div></div>","e","TARGET","2","trustrating_stim/white_mw070.bmp,trustrating_stim/white_mw092.bmp","1,0","Match","e","3000","trustrating_stim/white_mw092.bmp","red","Keep","REAL","1"
"html-keyboard-response","79","284429","0.0-7.0-5.8","613e002e81f4b2409b531dbd","bdp_wmem","Wed Mar 15 2023 19:23:23 GMT (Coordinated Universal Time)","663209","Match,No Match","","null","","","","","","<div class='trialBorder'><div class='vertical-center'><img src='img/correct.jpg'></div><div class='respDiv'><div class='respDivL'><font style='color:orange'>Match<br>(e)</font></div><div class='respDivR'>No Match<br>(i)</div></div></div>","null","FEEDBACK","","","","","","","","","","",""
"html-keyboard-response","80","284935","0.0-7.0-1.9","613e002e81f4b2409b531dbd","bdp_wmem","Wed Mar 15 2023 19:23:23 GMT (Coordinated Universal Time)","663209","Match,No Match","","null","","","","","","<div class='trialBorder'><div class='vertical-center'><img src='img/fixation2_sml.jpg'</img></div></div>","null","FIX","","","","","","","","","","",""
"html-keyboard-response","81","286441","0.0-7.0-2.9","613e002e81f4b2409b531dbd","bdp_wmem","Wed Mar 15 2023 19:23:23 GMT (Coordinated Universal Time)","663209","Match,No Match","","null","","","","","","<div class='trialBorder'><div class='vertical-center'><img style='vertical-align:center; align:center' src='img/fixation2_sml.jpg'></div><div class='arrayDiv1'><div class='tc'><img class='introPic' src='trustrating_stim/white_mw085.bmp'><br><font color='green'><strong>Share</strong></font></div></div></div>","null","ARRAY","1","trustrating_stim/white_mw085.bmp","1","noMatchOutcome","i","1500","","","","",""
"html-keyboard-response","82","290447","0.0-7.0-3.9","613e002e81f4b2409b531dbd","bdp_wmem","Wed Mar 15 2023 19:23:23 GMT (Coordinated Universal Time)","663209","Match,No Match","","null","","","","","","<div class='trialBorder'><div class='vertical-center'><img src='img/fixation2_sml.jpg'</img></div></div>","null","DELAY","","","","","","","","","","",""
"html-keyboard-response","83","291992","0.0-7.0-4.9","613e002e81f4b2409b531dbd","bdp_wmem","Wed Mar 15 2023 19:23:23 GMT (Coordinated Universal Time)","663209","Match,No Match","","1543","","","","","","<div class='trialBorder'><div class='targDiv'><div class='tc'><img class='introPic' src='trustrating_stim/white_mw085.bmp'><br><font color='red'><strong>Keep</strong></font></div></div><div class='respDiv'><div class='respDivL'>Match<br>(e)</div><div class='respDivR'>No Match<br>(i)</div></div></div>","i","TARGET","1","trustrating_stim/white_mw085.bmp","1","noMatchOutcome","i","1500","trustrating_stim/white_mw085.bmp","red","Keep","REAL","1"
"html-keyboard-response","84","292496","0.0-7.0-5.9","613e002e81f4b2409b531dbd","bdp_wmem","Wed Mar 15 2023 19:23:23 GMT (Coordinated Universal Time)","663209","Match,No Match","","null","","","","","","<div class='trialBorder'><div class='vertical-center'><img src='img/correct.jpg'></div><div class='respDiv'><div class='respDivL'>Match<br>(e)</div><div class='respDivR'><font style='color:orange'>No Match<br>(i)</font></div></div></div>","null","FEEDBACK","","","","","","","","","","",""
"html-keyboard-response","85","293003","0.0-7.0-1.10","613e002e81f4b2409b531dbd","bdp_wmem","Wed Mar 15 2023 19:23:23 GMT (Coordinated Universal Time)","663209","Match,No Match","","null","","","","","","<div class='trialBorder'><div class='vertical-center'><img src='img/fixation2_sml.jpg'</img></div></div>","null","FIX","","","","","","","","","","",""
"html-keyboard-response","86","297513","0.0-7.0-2.10","613e002e81f4b2409b531dbd","bdp_wmem","Wed Mar 15 2023 19:23:23 GMT (Coordinated Universal Time)","663209","Match,No Match","","null","","","","","","<div class='trialBorder'><div class='vertical-center'><img style='vertical-align:center; align:center' src='img/fixation2_sml.jpg'></div><div class='arrayDiv3'><div class='tl'><img class='introPic' src='trustrating_stim/white_mw010.bmp'><br><font color='green'><strong>Share</strong></font></div><div class='tc'><img class='introPic' src='trustrating_stim/white_mw092.bmp'><br><font color='green'><strong>Share</strong></font></div><div class='tr'><img class='introPic' src='trustrating_stim/white_mw003.bmp'><br><font color='red'><strong>Keep</strong></font></div></div></div>","null","ARRAY","3","trustrating_stim/white_mw010.bmp,trustrating_stim/white_mw092.bmp,trustrating_stim/white_mw003.bmp","1,1,0","Match","e","4500","","","","",""
"html-keyboard-response","87","301522","0.0-7.0-3.10","613e002e81f4b2409b531dbd","bdp_wmem","Wed Mar 15 2023 19:23:23 GMT (Coordinated Universal Time)","663209","Match,No Match","","null","","","","","","<div class='trialBorder'><div class='vertical-center'><img src='img/fixation2_sml.jpg'</img></div></div>","null","DELAY","","","","","","","","","","",""
"html-keyboard-response","88","302736","0.0-7.0-4.10","613e002e81f4b2409b531dbd","bdp_wmem","Wed Mar 15 2023 19:23:23 GMT (Coordinated Universal Time)","663209","Match,No Match","","1210","","","","","","<div class='trialBorder'><div class='targDiv'><div class='tc'><img class='introPic' src='trustrating_stim/white_mw092.bmp'><br><font color='green'><strong>Share</strong></font></div></div><div class='respDiv'><div class='respDivL'>Match<br>(e)</div><div class='respDivR'>No Match<br>(i)</div></div></div>","e","TARGET","3","trustrating_stim/white_mw010.bmp,trustrating_stim/white_mw092.bmp,trustrating_stim/white_mw003.bmp","1,1,0","Match","e","4500","trustrating_stim/white_mw092.bmp","green","Share","REAL","1"
"html-keyboard-response","89","303247","0.0-7.0-5.10","613e002e81f4b2409b531dbd","bdp_wmem","Wed Mar 15 2023 19:23:23 GMT (Coordinated Universal Time)","663209","Match,No Match","","null","","","","","","<div class='trialBorder'><div class='vertical-center'><img src='img/correct.jpg'></div><div class='respDiv'><div class='respDivL'><font style='color:orange'>Match<br>(e)</font></div><div class='respDivR'>No Match<br>(i)</div></div></div>","null","FEEDBACK","","","","","","","","","","",""
"html-keyboard-response","90","303753","0.0-7.0-1.11","613e002e81f4b2409b531dbd","bdp_wmem","Wed Mar 15 2023 19:23:23 GMT (Coordinated Universal Time)","663209","Match,No Match","","null","","","","","","<div class='trialBorder'><div class='vertical-center'><img src='img/fixation2_sml.jpg'</img></div></div>","null","FIX","","","","","","","","","","",""
"html-keyboard-response","91","305260","0.0-7.0-2.11","613e002e81f4b2409b531dbd","bdp_wmem","Wed Mar 15 2023 19:23:23 GMT (Coordinated Universal Time)","663209","Match,No Match","","null","","","","","","<div class='trialBorder'><div class='vertical-center'><img style='vertical-align:center; align:center' src='img/fixation2_sml.jpg'></div><div class='arrayDiv1'><div class='tc'><img class='introPic' src='trustrating_stim/white_mw040.bmp'><br><font color='green'><strong>Share</strong></font></div></div></div>","null","ARRAY","1","trustrating_stim/white_mw040.bmp","1","Match","e","1500","","","","",""
"html-keyboard-response","92","309277","0.0-7.0-3.11","613e002e81f4b2409b531dbd","bdp_wmem","Wed Mar 15 2023 19:23:23 GMT (Coordinated Universal Time)","663209","Match,No Match","","null","","","","","","<div class='trialBorder'><div class='vertical-center'><img src='img/fixation2_sml.jpg'</img></div></div>","null","DELAY","","","","","","","","","","",""
"html-keyboard-response","93","310259","0.0-7.0-4.11","613e002e81f4b2409b531dbd","bdp_wmem","Wed Mar 15 2023 19:23:23 GMT (Coordinated Universal Time)","663209","Match,No Match","","979","","","","","","<div class='trialBorder'><div class='targDiv'><div class='tc'><img class='introPic' src='trustrating_stim/white_mw040.bmp'><br><font color='green'><strong>Share</strong></font></div></div><div class='respDiv'><div class='respDivL'>Match<br>(e)</div><div class='respDivR'>No Match<br>(i)</div></div></div>","e","TARGET","1","trustrating_stim/white_mw040.bmp","1","Match","e","1500","trustrating_stim/white_mw040.bmp","green","Share","REAL","1"
"html-keyboard-response","94","310762","0.0-7.0-5.11","613e002e81f4b2409b531dbd","bdp_wmem","Wed Mar 15 2023 19:23:23 GMT (Coordinated Universal Time)","663209","Match,No Match","","null","","","","","","<div class='trialBorder'><div class='vertical-center'><img src='img/correct.jpg'></div><div class='respDiv'><div class='respDivL'><font style='color:orange'>Match<br>(e)</font></div><div class='respDivR'>No Match<br>(i)</div></div></div>","null","FEEDBACK","","","","","","","","","","",""
"html-keyboard-response","95","311269","0.0-7.0-1.12","613e002e81f4b2409b531dbd","bdp_wmem","Wed Mar 15 2023 19:23:23 GMT (Coordinated Universal Time)","663209","Match,No Match","","null","","","","","","<div class='trialBorder'><div class='vertical-center'><img src='img/fixation2_sml.jpg'</img></div></div>","null","FIX","","","","","","","","","","",""
"html-keyboard-response","96","314274","0.0-7.0-2.12","613e002e81f4b2409b531dbd","bdp_wmem","Wed Mar 15 2023 19:23:23 GMT (Coordinated Universal Time)","663209","Match,No Match","","null","","","","","","<div class='trialBorder'><div class='vertical-center'><img style='vertical-align:center; align:center' src='img/fixation2_sml.jpg'></div><div class='arrayDiv2'><div class='tl'><img class='introPic' src='trustrating_stim/white_mw038.bmp'><br><font color='green'><strong>Share</strong></font></div><div class='tr'><img class='introPic' src='trustrating_stim/white_mw085.bmp'><br><font color='red'><strong>Keep</strong></font></div></div></div>","null","ARRAY","2","trustrating_stim/white_mw038.bmp,trustrating_stim/white_mw085.bmp","1,0","noMatchOutcome","i","3000","","","","",""
"html-keyboard-response","97","318281","0.0-7.0-3.12","613e002e81f4b2409b531dbd","bdp_wmem","Wed Mar 15 2023 19:23:23 GMT (Coordinated Universal Time)","663209","Match,No Match","","null","","","","","","<div class='trialBorder'><div class='vertical-center'><img src='img/fixation2_sml.jpg'</img></div></div>","null","DELAY","","","","","","","","","","",""
"html-keyboard-response","98","319878","0.0-7.0-4.12","613e002e81f4b2409b531dbd","bdp_wmem","Wed Mar 15 2023 19:23:23 GMT (Coordinated Universal Time)","663209","Match,No Match","","1593","","","","","","<div class='trialBorder'><div class='targDiv'><div class='tc'><img class='introPic' src='trustrating_stim/white_mw038.bmp'><br><font color='red'><strong>Keep</strong></font></div></div><div class='respDiv'><div class='respDivL'>Match<br>(e)</div><div class='respDivR'>No Match<br>(i)</div></div></div>","i","TARGET","2","trustrating_stim/white_mw038.bmp,trustrating_stim/white_mw085.bmp","1,0","noMatchOutcome","i","3000","trustrating_stim/white_mw038.bmp","red","Keep","REAL","1"
"html-keyboard-response","99","320391","0.0-7.0-5.12","613e002e81f4b2409b531dbd","bdp_wmem","Wed Mar 15 2023 19:23:23 GMT (Coordinated Universal Time)","663209","Match,No Match","","null","","","","","","<div class='trialBorder'><div class='vertical-center'><img src='img/correct.jpg'></div><div class='respDiv'><div class='respDivL'>Match<br>(e)</div><div class='respDivR'><font style='color:orange'>No Match<br>(i)</font></div></div></div>","null","FEEDBACK","","","","","","","","","","",""
"html-keyboard-response","100","320897","0.0-7.0-1.13","613e002e81f4b2409b531dbd","bdp_wmem","Wed Mar 15 2023 19:23:23 GMT (Coordinated Universal Time)","663209","Match,No Match","","null","","","","","","<div class='trialBorder'><div class='vertical-center'><img src='img/fixation2_sml.jpg'</img></div></div>","null","FIX","","","","","","","","","","",""
"html-keyboard-response","101","322402","0.0-7.0-2.13","613e002e81f4b2409b531dbd","bdp_wmem","Wed Mar 15 2023 19:23:23 GMT (Coordinated Universal Time)","663209","Match,No Match","","null","","","","","","<div class='trialBorder'><div class='vertical-center'><img style='vertical-align:center; align:center' src='img/fixation2_sml.jpg'></div><div class='arrayDiv1'><div class='tc'><img class='introPic' src='trustrating_stim/white_mw091.bmp'><br><font color='green'><strong>Share</strong></font></div></div></div>","null","ARRAY","1","trustrating_stim/white_mw091.bmp","1","noMatchOutcome","i","1500","","","","",""
"html-keyboard-response","102","326419","0.0-7.0-3.13","613e002e81f4b2409b531dbd","bdp_wmem","Wed Mar 15 2023 19:23:23 GMT (Coordinated Universal Time)","663209","Match,No Match","","null","","","","","","<div class='trialBorder'><div class='vertical-center'><img src='img/fixation2_sml.jpg'</img></div></div>","null","DELAY","","","","","","","","","","",""
"html-keyboard-response","103","327786","0.0-7.0-4.13","613e002e81f4b2409b531dbd","bdp_wmem","Wed Mar 15 2023 19:23:23 GMT (Coordinated Universal Time)","663209","Match,No Match","","1365","","","","","","<div class='trialBorder'><div class='targDiv'><div class='tc'><img class='introPic' src='trustrating_stim/white_mw091.bmp'><br><font color='red'><strong>Keep</strong></font></div></div><div class='respDiv'><div class='respDivL'>Match<br>(e)</div><div class='respDivR'>No Match<br>(i)</div></div></div>","i","TARGET","1","trustrating_stim/white_mw091.bmp","1","noMatchOutcome","i","1500","trustrating_stim/white_mw091.bmp","red","Keep","REAL","1"
"html-keyboard-response","104","328292","0.0-7.0-5.13","613e002e81f4b2409b531dbd","bdp_wmem","Wed Mar 15 2023 19:23:23 GMT (Coordinated Universal Time)","663209","Match,No Match","","null","","","","","","<div class='trialBorder'><div class='vertical-center'><img src='img/correct.jpg'></div><div class='respDiv'><div class='respDivL'>Match<br>(e)</div><div class='respDivR'><font style='color:orange'>No Match<br>(i)</font></div></div></div>","null","FEEDBACK","","","","","","","","","","",""
"html-keyboard-response","105","328806","0.0-7.0-1.14","613e002e81f4b2409b531dbd","bdp_wmem","Wed Mar 15 2023 19:23:23 GMT (Coordinated Universal Time)","663209","Match,No Match","","null","","","","","","<div class='trialBorder'><div class='vertical-center'><img src='img/fixation2_sml.jpg'</img></div></div>","null","FIX","","","","","","","","","","",""
"html-keyboard-response","106","330311","0.0-7.0-2.14","613e002e81f4b2409b531dbd","bdp_wmem","Wed Mar 15 2023 19:23:23 GMT (Coordinated Universal Time)","663209","Match,No Match","","null","","","","","","<div class='trialBorder'><div class='vertical-center'><img style='vertical-align:center; align:center' src='img/fixation2_sml.jpg'></div><div class='arrayDiv1'><div class='tc'><img class='introPic' src='trustrating_stim/white_mw078.bmp'><br><font color='green'><strong>Share</strong></font></div></div></div>","null","ARRAY","1","trustrating_stim/white_mw078.bmp","1","noMatchFace","i","1500","","","","",""
"html-keyboard-response","107","334320","0.0-7.0-3.14","613e002e81f4b2409b531dbd","bdp_wmem","Wed Mar 15 2023 19:23:23 GMT (Coordinated Universal Time)","663209","Match,No Match","","null","","","","","","<div class='trialBorder'><div class='vertical-center'><img src='img/fixation2_sml.jpg'</img></div></div>","null","DELAY","","","","","","","","","","",""
"html-keyboard-response","108","335672","0.0-7.0-4.14","613e002e81f4b2409b531dbd","bdp_wmem","Wed Mar 15 2023 19:23:23 GMT (Coordinated Universal Time)","663209","Match,No Match","","1349","","","","","","<div class='trialBorder'><div class='targDiv'><div class='tc'><img class='introPic' src='trustrating_stim/white_mw070.bmp'><br><font color='green'><strong>Share</strong></font></div></div><div class='respDiv'><div class='respDivL'>Match<br>(e)</div><div class='respDivR'>No Match<br>(i)</div></div></div>","i","TARGET","1","trustrating_stim/white_mw078.bmp","1","noMatchFace","i","1500","trustrating_stim/white_mw070.bmp","green","Share","REAL","1"
"html-keyboard-response","109","336175","0.0-7.0-5.14","613e002e81f4b2409b531dbd","bdp_wmem","Wed Mar 15 2023 19:23:23 GMT (Coordinated Universal Time)","663209","Match,No Match","","null","","","","","","<div class='trialBorder'><div class='vertical-center'><img src='img/correct.jpg'></div><div class='respDiv'><div class='respDivL'>Match<br>(e)</div><div class='respDivR'><font style='color:orange'>No Match<br>(i)</font></div></div></div>","null","FEEDBACK","","","","","","","","","","",""
"html-keyboard-response","110","336682","0.0-7.0-1.15","613e002e81f4b2409b531dbd","bdp_wmem","Wed Mar 15 2023 19:23:23 GMT (Coordinated Universal Time)","663209","Match,No Match","","null","","","","","","<div class='trialBorder'><div class='vertical-center'><img src='img/fixation2_sml.jpg'</img></div></div>","null","FIX","","","","","","","","","","",""
"html-keyboard-response","111","338194","0.0-7.0-2.15","613e002e81f4b2409b531dbd","bdp_wmem","Wed Mar 15 2023 19:23:23 GMT (Coordinated Universal Time)","663209","Match,No Match","","null","","","","","","<div class='trialBorder'><div class='vertical-center'><img style='vertical-align:center; align:center' src='img/fixation2_sml.jpg'></div><div class='arrayDiv1'><div class='tc'><img class='introPic' src='trustrating_stim/white_mw003.bmp'><br><font color='red'><strong>Keep</strong></font></div></div></div>","null","ARRAY","1","trustrating_stim/white_mw003.bmp","0","Match","e","1500","","","","",""
"html-keyboard-response","112","342201","0.0-7.0-3.15","613e002e81f4b2409b531dbd","bdp_wmem","Wed Mar 15 2023 19:23:23 GMT (Coordinated Universal Time)","663209","Match,No Match","","null","","","","","","<div class='trialBorder'><div class='vertical-center'><img src='img/fixation2_sml.jpg'</img></div></div>","null","DELAY","","","","","","","","","","",""
"html-keyboard-response","113","343043","0.0-7.0-4.15","613e002e81f4b2409b531dbd","bdp_wmem","Wed Mar 15 2023 19:23:23 GMT (Coordinated Universal Time)","663209","Match,No Match","","840","","","","","","<div class='trialBorder'><div class='targDiv'><div class='tc'><img class='introPic' src='trustrating_stim/white_mw003.bmp'><br><font color='red'><strong>Keep</strong></font></div></div><div class='respDiv'><div class='respDivL'>Match<br>(e)</div><div class='respDivR'>No Match<br>(i)</div></div></div>","e","TARGET","1","trustrating_stim/white_mw003.bmp","0","Match","e","1500","trustrating_stim/white_mw003.bmp","red","Keep","REAL","1"
"html-keyboard-response","114","343558","0.0-7.0-5.15","613e002e81f4b2409b531dbd","bdp_wmem","Wed Mar 15 2023 19:23:23 GMT (Coordinated Universal Time)","663209","Match,No Match","","null","","","","","","<div class='trialBorder'><div class='vertical-center'><img src='img/correct.jpg'></div><div class='respDiv'><div class='respDivL'><font style='color:orange'>Match<br>(e)</font></div><div class='respDivR'>No Match<br>(i)</div></div></div>","null","FEEDBACK","","","","","","","","","","",""
"html-keyboard-response","115","344065","0.0-7.0-1.16","613e002e81f4b2409b531dbd","bdp_wmem","Wed Mar 15 2023 19:23:23 GMT (Coordinated Universal Time)","663209","Match,No Match","","null","","","","","","<div class='trialBorder'><div class='vertical-center'><img src='img/fixation2_sml.jpg'</img></div></div>","null","FIX","","","","","","","","","","",""
"html-keyboard-response","116","347070","0.0-7.0-2.16","613e002e81f4b2409b531dbd","bdp_wmem","Wed Mar 15 2023 19:23:23 GMT (Coordinated Universal Time)","663209","Match,No Match","","null","","","","","","<div class='trialBorder'><div class='vertical-center'><img style='vertical-align:center; align:center' src='img/fixation2_sml.jpg'></div><div class='arrayDiv2'><div class='tl'><img class='introPic' src='trustrating_stim/white_mw013.bmp'><br><font color='green'><strong>Share</strong></font></div><div class='tr'><img class='introPic' src='trustrating_stim/white_mw040.bmp'><br><font color='red'><strong>Keep</strong></font></div></div></div>","null","ARRAY","2","trustrating_stim/white_mw013.bmp,trustrating_stim/white_mw040.bmp","1,0","Match","e","3000","","","","",""
"html-keyboard-response","117","351080","0.0-7.0-3.16","613e002e81f4b2409b531dbd","bdp_wmem","Wed Mar 15 2023 19:23:23 GMT (Coordinated Universal Time)","663209","Match,No Match","","null","","","","","","<div class='trialBorder'><div class='vertical-center'><img src='img/fixation2_sml.jpg'</img></div></div>","null","DELAY","","","","","","","","","","",""
"html-keyboard-response","118","353267","0.0-7.0-4.16","613e002e81f4b2409b531dbd","bdp_wmem","Wed Mar 15 2023 19:23:23 GMT (Coordinated Universal Time)","663209","Match,No Match","","2185","","","","","","<div class='trialBorder'><div class='targDiv'><div class='tc'><img class='introPic' src='trustrating_stim/white_mw040.bmp'><br><font color='red'><strong>Keep</strong></font></div></div><div class='respDiv'><div class='respDivL'>Match<br>(e)</div><div class='respDivR'>No Match<br>(i)</div></div></div>","e","TARGET","2","trustrating_stim/white_mw013.bmp,trustrating_stim/white_mw040.bmp","1,0","Match","e","3000","trustrating_stim/white_mw040.bmp","red","Keep","REAL","1"
"html-keyboard-response","119","353777","0.0-7.0-5.16","613e002e81f4b2409b531dbd","bdp_wmem","Wed Mar 15 2023 19:23:23 GMT (Coordinated Universal Time)","663209","Match,No Match","","null","","","","","","<div class='trialBorder'><div class='vertical-center'><img src='img/correct.jpg'></div><div class='respDiv'><div class='respDivL'><font style='color:orange'>Match<br>(e)</font></div><div class='respDivR'>No Match<br>(i)</div></div></div>","null","FEEDBACK","","","","","","","","","","",""
"html-keyboard-response","120","354279","0.0-7.0-1.17","613e002e81f4b2409b531dbd","bdp_wmem","Wed Mar 15 2023 19:23:23 GMT (Coordinated Universal Time)","663209","Match,No Match","","null","","","","","","<div class='trialBorder'><div class='vertical-center'><img src='img/fixation2_sml.jpg'</img></div></div>","null","FIX","","","","","","","","","","",""
"html-keyboard-response","121","358786","0.0-7.0-2.17","613e002e81f4b2409b531dbd","bdp_wmem","Wed Mar 15 2023 19:23:23 GMT (Coordinated Universal Time)","663209","Match,No Match","","null","","","","","","<div class='trialBorder'><div class='vertical-center'><img style='vertical-align:center; align:center' src='img/fixation2_sml.jpg'></div><div class='arrayDiv3'><div class='tl'><img class='introPic' src='trustrating_stim/white_mw013.bmp'><br><font color='red'><strong>Keep</strong></font></div><div class='tc'><img class='introPic' src='trustrating_stim/white_mw078.bmp'><br><font color='green'><strong>Share</strong></font></div><div class='tr'><img class='introPic' src='trustrating_stim/white_mw010.bmp'><br><font color='green'><strong>Share</strong></font></div></div></div>","null","ARRAY","3","trustrating_stim/white_mw013.bmp,trustrating_stim/white_mw078.bmp,trustrating_stim/white_mw010.bmp","0,1,1","noMatchOutcome","i","4500","","","","",""
"html-keyboard-response","122","362796","0.0-7.0-3.17","613e002e81f4b2409b531dbd","bdp_wmem","Wed Mar 15 2023 19:23:23 GMT (Coordinated Universal Time)","663209","Match,No Match","","null","","","","","","<div class='trialBorder'><div class='vertical-center'><img src='img/fixation2_sml.jpg'</img></div></div>","null","DELAY","","","","","","","","","","",""
"html-keyboard-response","123","366213","0.0-7.0-4.17","613e002e81f4b2409b531dbd","bdp_wmem","Wed Mar 15 2023 19:23:23 GMT (Coordinated Universal Time)","663209","Match,No Match","","3414","","","","","","<div class='trialBorder'><div class='targDiv'><div class='tc'><img class='introPic' src='trustrating_stim/white_mw013.bmp'><br><font color='green'><strong>Share</strong></font></div></div><div class='respDiv'><div class='respDivL'>Match<br>(e)</div><div class='respDivR'>No Match<br>(i)</div></div></div>","e","TARGET","3","trustrating_stim/white_mw013.bmp,trustrating_stim/white_mw078.bmp,trustrating_stim/white_mw010.bmp","0,1,1","noMatchOutcome","i","4500","trustrating_stim/white_mw013.bmp","green","Share","REAL","0"
"html-keyboard-response","124","366714","0.0-7.0-5.17","613e002e81f4b2409b531dbd","bdp_wmem","Wed Mar 15 2023 19:23:23 GMT (Coordinated Universal Time)","663209","Match,No Match","","null","","","","","","<div class='trialBorder'><div class='vertical-center'><img src='img/error.jpg'></div><div class='respDiv'><div class='respDivL'><font style='color:orange'>Match<br>(e)</font></div><div class='respDivR'>No Match<br>(i)</div></div></div>","null","FEEDBACK","","","","","","","","","","",""
"html-keyboard-response","125","367221","0.0-7.0-1.18","613e002e81f4b2409b531dbd","bdp_wmem","Wed Mar 15 2023 19:23:23 GMT (Coordinated Universal Time)","663209","Match,No Match","","null","","","","","","<div class='trialBorder'><div class='vertical-center'><img src='img/fixation2_sml.jpg'</img></div></div>","null","FIX","","","","","","","","","","",""
"html-keyboard-response","126","371728","0.0-7.0-2.18","613e002e81f4b2409b531dbd","bdp_wmem","Wed Mar 15 2023 19:23:23 GMT (Coordinated Universal Time)","663209","Match,No Match","","null","","","","","","<div class='trialBorder'><div class='vertical-center'><img style='vertical-align:center; align:center' src='img/fixation2_sml.jpg'></div><div class='arrayDiv3'><div class='tl'><img class='introPic' src='trustrating_stim/white_mw038.bmp'><br><font color='green'><strong>Share</strong></font></div><div class='tc'><img class='introPic' src='trustrating_stim/white_mw012.bmp'><br><font color='green'><strong>Share</strong></font></div><div class='tr'><img class='introPic' src='trustrating_stim/white_mw040.bmp'><br><font color='red'><strong>Keep</strong></font></div></div></div>","null","ARRAY","3","trustrating_stim/white_mw038.bmp,trustrating_stim/white_mw012.bmp,trustrating_stim/white_mw040.bmp","1,1,0","noMatchFace","i","4500","","","","",""
"html-keyboard-response","127","375737","0.0-7.0-3.18","613e002e81f4b2409b531dbd","bdp_wmem","Wed Mar 15 2023 19:23:23 GMT (Coordinated Universal Time)","663209","Match,No Match","","null","","","","","","<div class='trialBorder'><div class='vertical-center'><img src='img/fixation2_sml.jpg'</img></div></div>","null","DELAY","","","","","","","","","","",""
"html-keyboard-response","128","376900","0.0-7.0-4.18","613e002e81f4b2409b531dbd","bdp_wmem","Wed Mar 15 2023 19:23:23 GMT (Coordinated Universal Time)","663209","Match,No Match","","1160","","","","","","<div class='trialBorder'><div class='targDiv'><div class='tc'><img class='introPic' src='trustrating_stim/white_mw013.bmp'><br><font color='green'><strong>Share</strong></font></div></div><div class='respDiv'><div class='respDivL'>Match<br>(e)</div><div class='respDivR'>No Match<br>(i)</div></div></div>","e","TARGET","3","trustrating_stim/white_mw038.bmp,trustrating_stim/white_mw012.bmp,trustrating_stim/white_mw040.bmp","1,1,0","noMatchFace","i","4500","trustrating_stim/white_mw013.bmp","green","Share","REAL","0"
"html-keyboard-response","129","377405","0.0-7.0-5.18","613e002e81f4b2409b531dbd","bdp_wmem","Wed Mar 15 2023 19:23:23 GMT (Coordinated Universal Time)","663209","Match,No Match","","null","","","","","","<div class='trialBorder'><div class='vertical-center'><img src='img/error.jpg'></div><div class='respDiv'><div class='respDivL'><font style='color:orange'>Match<br>(e)</font></div><div class='respDivR'>No Match<br>(i)</div></div></div>","null","FEEDBACK","","","","","","","","","","",""
"html-keyboard-response","130","377912","0.0-7.0-1.19","613e002e81f4b2409b531dbd","bdp_wmem","Wed Mar 15 2023 19:23:23 GMT (Coordinated Universal Time)","663209","Match,No Match","","null","","","","","","<div class='trialBorder'><div class='vertical-center'><img src='img/fixation2_sml.jpg'</img></div></div>","null","FIX","","","","","","","","","","",""
"html-keyboard-response","131","382421","0.0-7.0-2.19","613e002e81f4b2409b531dbd","bdp_wmem","Wed Mar 15 2023 19:23:23 GMT (Coordinated Universal Time)","663209","Match,No Match","","null","","","","","","<div class='trialBorder'><div class='vertical-center'><img style='vertical-align:center; align:center' src='img/fixation2_sml.jpg'></div><div class='arrayDiv3'><div class='tl'><img class='introPic' src='trustrating_stim/white_mw070.bmp'><br><font color='red'><strong>Keep</strong></font></div><div class='tc'><img class='introPic' src='trustrating_stim/white_mw085.bmp'><br><font color='green'><strong>Share</strong></font></div><div class='tr'><img class='introPic' src='trustrating_stim/white_mw092.bmp'><br><font color='red'><strong>Keep</strong></font></div></div></div>","null","ARRAY","3","trustrating_stim/white_mw070.bmp,trustrating_stim/white_mw085.bmp,trustrating_stim/white_mw092.bmp","0,1,0","Match","e","4500","","","","",""
"html-keyboard-response","132","386437","0.0-7.0-3.19","613e002e81f4b2409b531dbd","bdp_wmem","Wed Mar 15 2023 19:23:23 GMT (Coordinated Universal Time)","663209","Match,No Match","","null","","","","","","<div class='trialBorder'><div class='vertical-center'><img src='img/fixation2_sml.jpg'</img></div></div>","null","DELAY","","","","","","","","","","",""
"html-keyboard-response","133","387987","0.0-7.0-4.19","613e002e81f4b2409b531dbd","bdp_wmem","Wed Mar 15 2023 19:23:23 GMT (Coordinated Universal Time)","663209","Match,No Match","","1546","","","","","","<div class='trialBorder'><div class='targDiv'><div class='tc'><img class='introPic' src='trustrating_stim/white_mw070.bmp'><br><font color='red'><strong>Keep</strong></font></div></div><div class='respDiv'><div class='respDivL'>Match<br>(e)</div><div class='respDivR'>No Match<br>(i)</div></div></div>","e","TARGET","3","trustrating_stim/white_mw070.bmp,trustrating_stim/white_mw085.bmp,trustrating_stim/white_mw092.bmp","0,1,0","Match","e","4500","trustrating_stim/white_mw070.bmp","red","Keep","REAL","1"
"html-keyboard-response","134","388497","0.0-7.0-5.19","613e002e81f4b2409b531dbd","bdp_wmem","Wed Mar 15 2023 19:23:23 GMT (Coordinated Universal Time)","663209","Match,No Match","","null","","","","","","<div class='trialBorder'><div class='vertical-center'><img src='img/correct.jpg'></div><div class='respDiv'><div class='respDivL'><font style='color:orange'>Match<br>(e)</font></div><div class='respDivR'>No Match<br>(i)</div></div></div>","null","FEEDBACK","","","","","","","","","","",""
"html-keyboard-response","135","389003","0.0-7.0-1.20","613e002e81f4b2409b531dbd","bdp_wmem","Wed Mar 15 2023 19:23:23 GMT (Coordinated Universal Time)","663209","Match,No Match","","null","","","","","","<div class='trialBorder'><div class='vertical-center'><img src='img/fixation2_sml.jpg'</img></div></div>","null","FIX","","","","","","","","","","",""
"html-keyboard-response","136","392010","0.0-7.0-2.20","613e002e81f4b2409b531dbd","bdp_wmem","Wed Mar 15 2023 19:23:23 GMT (Coordinated Universal Time)","663209","Match,No Match","","null","","","","","","<div class='trialBorder'><div class='vertical-center'><img style='vertical-align:center; align:center' src='img/fixation2_sml.jpg'></div><div class='arrayDiv2'><div class='tl'><img class='introPic' src='trustrating_stim/white_mw013.bmp'><br><font color='green'><strong>Share</strong></font></div><div class='tr'><img class='introPic' src='trustrating_stim/white_mw040.bmp'><br><font color='red'><strong>Keep</strong></font></div></div></div>","null","ARRAY","2","trustrating_stim/white_mw013.bmp,trustrating_stim/white_mw040.bmp","1,0","Match","e","3000","","","","",""
"html-keyboard-response","137","396018","0.0-7.0-3.20","613e002e81f4b2409b531dbd","bdp_wmem","Wed Mar 15 2023 19:23:23 GMT (Coordinated Universal Time)","663209","Match,No Match","","null","","","","","","<div class='trialBorder'><div class='vertical-center'><img src='img/fixation2_sml.jpg'</img></div></div>","null","DELAY","","","","","","","","","","",""
"html-keyboard-response","138","397314","0.0-7.0-4.20","613e002e81f4b2409b531dbd","bdp_wmem","Wed Mar 15 2023 19:23:23 GMT (Coordinated Universal Time)","663209","Match,No Match","","1292","","","","","","<div class='trialBorder'><div class='targDiv'><div class='tc'><img class='introPic' src='trustrating_stim/white_mw013.bmp'><br><font color='green'><strong>Share</strong></font></div></div><div class='respDiv'><div class='respDivL'>Match<br>(e)</div><div class='respDivR'>No Match<br>(i)</div></div></div>","e","TARGET","2","trustrating_stim/white_mw013.bmp,trustrating_stim/white_mw040.bmp","1,0","Match","e","3000","trustrating_stim/white_mw013.bmp","green","Share","REAL","1"
"html-keyboard-response","139","397824","0.0-7.0-5.20","613e002e81f4b2409b531dbd","bdp_wmem","Wed Mar 15 2023 19:23:23 GMT (Coordinated Universal Time)","663209","Match,No Match","","null","","","","","","<div class='trialBorder'><div class='vertical-center'><img src='img/correct.jpg'></div><div class='respDiv'><div class='respDivL'><font style='color:orange'>Match<br>(e)</font></div><div class='respDivR'>No Match<br>(i)</div></div></div>","null","FEEDBACK","","","","","","","","","","",""
"html-keyboard-response","140","398330","0.0-7.0-1.21","613e002e81f4b2409b531dbd","bdp_wmem","Wed Mar 15 2023 19:23:23 GMT (Coordinated Universal Time)","663209","Match,No Match","","null","","","","","","<div class='trialBorder'><div class='vertical-center'><img src='img/fixation2_sml.jpg'</img></div></div>","null","FIX","","","","","","","","","","",""
"html-keyboard-response","141","401339","0.0-7.0-2.21","613e002e81f4b2409b531dbd","bdp_wmem","Wed Mar 15 2023 19:23:23 GMT (Coordinated Universal Time)","663209","Match,No Match","","null","","","","","","<div class='trialBorder'><div class='vertical-center'><img style='vertical-align:center; align:center' src='img/fixation2_sml.jpg'></div><div class='arrayDiv2'><div class='tl'><img class='introPic' src='trustrating_stim/white_mw010.bmp'><br><font color='green'><strong>Share</strong></font></div><div class='tr'><img class='introPic' src='trustrating_stim/white_mw012.bmp'><br><font color='red'><strong>Keep</strong></font></div></div></div>","null","ARRAY","2","trustrating_stim/white_mw010.bmp,trustrating_stim/white_mw012.bmp","1,0","noMatchFace","i","3000","","","","",""
"html-keyboard-response","142","405349","0.0-7.0-3.21","613e002e81f4b2409b531dbd","bdp_wmem","Wed Mar 15 2023 19:23:23 GMT (Coordinated Universal Time)","663209","Match,No Match","","null","","","","","","<div class='trialBorder'><div class='vertical-center'><img src='img/fixation2_sml.jpg'</img></div></div>","null","DELAY","","","","","","","","","","",""
"html-keyboard-response","143","408060","0.0-7.0-4.21","613e002e81f4b2409b531dbd","bdp_wmem","Wed Mar 15 2023 19:23:23 GMT (Coordinated Universal Time)","663209","Match,No Match","","2708","","","","","","<div class='trialBorder'><div class='targDiv'><div class='tc'><img class='introPic' src='trustrating_stim/white_mw013.bmp'><br><font color='green'><strong>Share</strong></font></div></div><div class='respDiv'><div class='respDivL'>Match<br>(e)</div><div class='respDivR'>No Match<br>(i)</div></div></div>","i","TARGET","2","trustrating_stim/white_mw010.bmp,trustrating_stim/white_mw012.bmp","1,0","noMatchFace","i","3000","trustrating_stim/white_mw013.bmp","green","Share","REAL","1"
"html-keyboard-response","144","408572","0.0-7.0-5.21","613e002e81f4b2409b531dbd","bdp_wmem","Wed Mar 15 2023 19:23:23 GMT (Coordinated Universal Time)","663209","Match,No Match","","null","","","","","","<div class='trialBorder'><div class='vertical-center'><img src='img/correct.jpg'></div><div class='respDiv'><div class='respDivL'>Match<br>(e)</div><div class='respDivR'><font style='color:orange'>No Match<br>(i)</font></div></div></div>","null","FEEDBACK","","","","","","","","","","",""
"html-keyboard-response","145","409078","0.0-7.0-1.22","613e002e81f4b2409b531dbd","bdp_wmem","Wed Mar 15 2023 19:23:23 GMT (Coordinated Universal Time)","663209","Match,No Match","","null","","","","","","<div class='trialBorder'><div class='vertical-center'><img src='img/fixation2_sml.jpg'</img></div></div>","null","FIX","","","","","","","","","","",""
"html-keyboard-response","146","413587","0.0-7.0-2.22","613e002e81f4b2409b531dbd","bdp_wmem","Wed Mar 15 2023 19:23:23 GMT (Coordinated Universal Time)","663209","Match,No Match","","null","","","","","","<div class='trialBorder'><div class='vertical-center'><img style='vertical-align:center; align:center' src='img/fixation2_sml.jpg'></div><div class='arrayDiv3'><div class='tl'><img class='introPic' src='trustrating_stim/white_mw012.bmp'><br><font color='red'><strong>Keep</strong></font></div><div class='tc'><img class='introPic' src='trustrating_stim/white_mw092.bmp'><br><font color='red'><strong>Keep</strong></font></div><div class='tr'><img class='introPic' src='trustrating_stim/white_mw070.bmp'><br><font color='green'><strong>Share</strong></font></div></div></div>","null","ARRAY","3","trustrating_stim/white_mw012.bmp,trustrating_stim/white_mw092.bmp,trustrating_stim/white_mw070.bmp","0,0,1","noMatchFace","i","4500","","","","",""
"html-keyboard-response","147","417596","0.0-7.0-3.22","613e002e81f4b2409b531dbd","bdp_wmem","Wed Mar 15 2023 19:23:23 GMT (Coordinated Universal Time)","663209","Match,No Match","","null","","","","","","<div class='trialBorder'><div class='vertical-center'><img src='img/fixation2_sml.jpg'</img></div></div>","null","DELAY","","","","","","","","","","",""
"html-keyboard-response","148","419021","0.0-7.0-4.22","613e002e81f4b2409b531dbd","bdp_wmem","Wed Mar 15 2023 19:23:23 GMT (Coordinated Universal Time)","663209","Match,No Match","","1421","","","","","","<div class='trialBorder'><div class='targDiv'><div class='tc'><img class='introPic' src='trustrating_stim/white_mw085.bmp'><br><font color='red'><strong>Keep</strong></font></div></div><div class='respDiv'><div class='respDivL'>Match<br>(e)</div><div class='respDivR'>No Match<br>(i)</div></div></div>","i","TARGET","3","trustrating_stim/white_mw012.bmp,trustrating_stim/white_mw092.bmp,trustrating_stim/white_mw070.bmp","0,0,1","noMatchFace","i","4500","trustrating_stim/white_mw085.bmp","red","Keep","REAL","1"
"html-keyboard-response","149","419525","0.0-7.0-5.22","613e002e81f4b2409b531dbd","bdp_wmem","Wed Mar 15 2023 19:23:23 GMT (Coordinated Universal Time)","663209","Match,No Match","","null","","","","","","<div class='trialBorder'><div class='vertical-center'><img src='img/correct.jpg'></div><div class='respDiv'><div class='respDivL'>Match<br>(e)</div><div class='respDivR'><font style='color:orange'>No Match<br>(i)</font></div></div></div>","null","FEEDBACK","","","","","","","","","","",""
"html-keyboard-response","150","420036","0.0-7.0-1.23","613e002e81f4b2409b531dbd","bdp_wmem","Wed Mar 15 2023 19:23:23 GMT (Coordinated Universal Time)","663209","Match,No Match","","null","","","","","","<div class='trialBorder'><div class='vertical-center'><img src='img/fixation2_sml.jpg'</img></div></div>","null","FIX","","","","","","","","","","",""
"html-keyboard-response","151","421556","0.0-7.0-2.23","613e002e81f4b2409b531dbd","bdp_wmem","Wed Mar 15 2023 19:23:23 GMT (Coordinated Universal Time)","663209","Match,No Match","","null","","","","","","<div class='trialBorder'><div class='vertical-center'><img style='vertical-align:center; align:center' src='img/fixation2_sml.jpg'></div><div class='arrayDiv1'><div class='tc'><img class='introPic' src='trustrating_stim/white_mw091.bmp'><br><font color='green'><strong>Share</strong></font></div></div></div>","null","ARRAY","1","trustrating_stim/white_mw091.bmp","1","Match","e","1500","","","","",""
"html-keyboard-response","152","425560","0.0-7.0-3.23","613e002e81f4b2409b531dbd","bdp_wmem","Wed Mar 15 2023 19:23:23 GMT (Coordinated Universal Time)","663209","Match,No Match","","null","","","","","","<div class='trialBorder'><div class='vertical-center'><img src='img/fixation2_sml.jpg'</img></div></div>","null","DELAY","","","","","","","","","","",""
"html-keyboard-response","153","426456","0.0-7.0-4.23","613e002e81f4b2409b531dbd","bdp_wmem","Wed Mar 15 2023 19:23:23 GMT (Coordinated Universal Time)","663209","Match,No Match","","894","","","","","","<div class='trialBorder'><div class='targDiv'><div class='tc'><img class='introPic' src='trustrating_stim/white_mw091.bmp'><br><font color='green'><strong>Share</strong></font></div></div><div class='respDiv'><div class='respDivL'>Match<br>(e)</div><div class='respDivR'>No Match<br>(i)</div></div></div>","e","TARGET","1","trustrating_stim/white_mw091.bmp","1","Match","e","1500","trustrating_stim/white_mw091.bmp","green","Share","REAL","1"
"html-keyboard-response","154","426974","0.0-7.0-5.23","613e002e81f4b2409b531dbd","bdp_wmem","Wed Mar 15 2023 19:23:23 GMT (Coordinated Universal Time)","663209","Match,No Match","","null","","","","","","<div class='trialBorder'><div class='vertical-center'><img src='img/correct.jpg'></div><div class='respDiv'><div class='respDivL'><font style='color:orange'>Match<br>(e)</font></div><div class='respDivR'>No Match<br>(i)</div></div></div>","null","FEEDBACK","","","","","","","","","","",""
"html-keyboard-response","155","427480","0.0-7.0-1.24","613e002e81f4b2409b531dbd","bdp_wmem","Wed Mar 15 2023 19:23:23 GMT (Coordinated Universal Time)","663209","Match,No Match","","null","","","","","","<div class='trialBorder'><div class='vertical-center'><img src='img/fixation2_sml.jpg'</img></div></div>","null","FIX","","","","","","","","","","",""
"html-keyboard-response","156","431983","0.0-7.0-2.24","613e002e81f4b2409b531dbd","bdp_wmem","Wed Mar 15 2023 19:23:23 GMT (Coordinated Universal Time)","663209","Match,No Match","","null","","","","","","<div class='trialBorder'><div class='vertical-center'><img style='vertical-align:center; align:center' src='img/fixation2_sml.jpg'></div><div class='arrayDiv3'><div class='tl'><img class='introPic' src='trustrating_stim/white_mw038.bmp'><br><font color='green'><strong>Share</strong></font></div><div class='tc'><img class='introPic' src='trustrating_stim/white_mw010.bmp'><br><font color='red'><strong>Keep</strong></font></div><div class='tr'><img class='introPic' src='trustrating_stim/white_mw070.bmp'><br><font color='red'><strong>Keep</strong></font></div></div></div>","null","ARRAY","3","trustrating_stim/white_mw038.bmp,trustrating_stim/white_mw010.bmp,trustrating_stim/white_mw070.bmp","1,0,0","noMatchOutcome","i","4500","","","","",""
"html-keyboard-response","157","435991","0.0-7.0-3.24","613e002e81f4b2409b531dbd","bdp_wmem","Wed Mar 15 2023 19:23:23 GMT (Coordinated Universal Time)","663209","Match,No Match","","null","","","","","","<div class='trialBorder'><div class='vertical-center'><img src='img/fixation2_sml.jpg'</img></div></div>","null","DELAY","","","","","","","","","","",""
"html-keyboard-response","158","437643","0.0-7.0-4.24","613e002e81f4b2409b531dbd","bdp_wmem","Wed Mar 15 2023 19:23:23 GMT (Coordinated Universal Time)","663209","Match,No Match","","1648","","","","","","<div class='trialBorder'><div class='targDiv'><div class='tc'><img class='introPic' src='trustrating_stim/white_mw070.bmp'><br><font color='green'><strong>Share</strong></font></div></div><div class='respDiv'><div class='respDivL'>Match<br>(e)</div><div class='respDivR'>No Match<br>(i)</div></div></div>","i","TARGET","3","trustrating_stim/white_mw038.bmp,trustrating_stim/white_mw010.bmp,trustrating_stim/white_mw070.bmp","1,0,0","noMatchOutcome","i","4500","trustrating_stim/white_mw070.bmp","green","Share","REAL","1"
"html-keyboard-response","159","438150","0.0-7.0-5.24","613e002e81f4b2409b531dbd","bdp_wmem","Wed Mar 15 2023 19:23:23 GMT (Coordinated Universal Time)","663209","Match,No Match","","null","","","","","","<div class='trialBorder'><div class='vertical-center'><img src='img/correct.jpg'></div><div class='respDiv'><div class='respDivL'>Match<br>(e)</div><div class='respDivR'><font style='color:orange'>No Match<br>(i)</font></div></div></div>","null","FEEDBACK","","","","","","","","","","",""
"html-keyboard-response","160","438657","0.0-7.0-1.25","613e002e81f4b2409b531dbd","bdp_wmem","Wed Mar 15 2023 19:23:23 GMT (Coordinated Universal Time)","663209","Match,No Match","","null","","","","","","<div class='trialBorder'><div class='vertical-center'><img src='img/fixation2_sml.jpg'</img></div></div>","null","FIX","","","","","","","","","","",""
"html-keyboard-response","161","440163","0.0-7.0-2.25","613e002e81f4b2409b531dbd","bdp_wmem","Wed Mar 15 2023 19:23:23 GMT (Coordinated Universal Time)","663209","Match,No Match","","null","","","","","","<div class='trialBorder'><div class='vertical-center'><img style='vertical-align:center; align:center' src='img/fixation2_sml.jpg'></div><div class='arrayDiv1'><div class='tc'><img class='introPic' src='trustrating_stim/white_mw038.bmp'><br><font color='green'><strong>Share</strong></font></div></div></div>","null","ARRAY","1","trustrating_stim/white_mw038.bmp","1","noMatchFace","i","1500","","","","",""
"html-keyboard-response","162","444176","0.0-7.0-3.25","613e002e81f4b2409b531dbd","bdp_wmem","Wed Mar 15 2023 19:23:23 GMT (Coordinated Universal Time)","663209","Match,No Match","","null","","","","","","<div class='trialBorder'><div class='vertical-center'><img src='img/fixation2_sml.jpg'</img></div></div>","null","DELAY","","","","","","","","","","",""
"html-keyboard-response","163","445479","0.0-7.0-4.25","613e002e81f4b2409b531dbd","bdp_wmem","Wed Mar 15 2023 19:23:23 GMT (Coordinated Universal Time)","663209","Match,No Match","","1300","","","","","","<div class='trialBorder'><div class='targDiv'><div class='tc'><img class='introPic' src='trustrating_stim/white_mw013.bmp'><br><font color='green'><strong>Share</strong></font></div></div><div class='respDiv'><div class='respDivL'>Match<br>(e)</div><div class='respDivR'>No Match<br>(i)</div></div></div>","i","TARGET","1","trustrating_stim/white_mw038.bmp","1","noMatchFace","i","1500","trustrating_stim/white_mw013.bmp","green","Share","REAL","1"
"html-keyboard-response","164","445984","0.0-7.0-5.25","613e002e81f4b2409b531dbd","bdp_wmem","Wed Mar 15 2023 19:23:23 GMT (Coordinated Universal Time)","663209","Match,No Match","","null","","","","","","<div class='trialBorder'><div class='vertical-center'><img src='img/correct.jpg'></div><div class='respDiv'><div class='respDivL'>Match<br>(e)</div><div class='respDivR'><font style='color:orange'>No Match<br>(i)</font></div></div></div>","null","FEEDBACK","","","","","","","","","","",""
"html-keyboard-response","165","446490","0.0-7.0-1.26","613e002e81f4b2409b531dbd","bdp_wmem","Wed Mar 15 2023 19:23:23 GMT (Coordinated Universal Time)","663209","Match,No Match","","null","","","","","","<div class='trialBorder'><div class='vertical-center'><img src='img/fixation2_sml.jpg'</img></div></div>","null","FIX","","","","","","","","","","",""
"html-keyboard-response","166","450998","0.0-7.0-2.26","613e002e81f4b2409b531dbd","bdp_wmem","Wed Mar 15 2023 19:23:23 GMT (Coordinated Universal Time)","663209","Match,No Match","","null","","","","","","<div class='trialBorder'><div class='vertical-center'><img style='vertical-align:center; align:center' src='img/fixation2_sml.jpg'></div><div class='arrayDiv3'><div class='tl'><img class='introPic' src='trustrating_stim/white_mw040.bmp'><br><font color='green'><strong>Share</strong></font></div><div class='tc'><img class='introPic' src='trustrating_stim/white_mw070.bmp'><br><font color='green'><strong>Share</strong></font></div><div class='tr'><img class='introPic' src='trustrating_stim/white_mw038.bmp'><br><font color='red'><strong>Keep</strong></font></div></div></div>","null","ARRAY","3","trustrating_stim/white_mw040.bmp,trustrating_stim/white_mw070.bmp,trustrating_stim/white_mw038.bmp","1,1,0","noMatchOutcome","i","4500","","","","",""
"html-keyboard-response","167","455007","0.0-7.0-3.26","613e002e81f4b2409b531dbd","bdp_wmem","Wed Mar 15 2023 19:23:23 GMT (Coordinated Universal Time)","663209","Match,No Match","","null","","","","","","<div class='trialBorder'><div class='vertical-center'><img src='img/fixation2_sml.jpg'</img></div></div>","null","DELAY","","","","","","","","","","",""
"html-keyboard-response","168","460135","0.0-7.0-4.26","613e002e81f4b2409b531dbd","bdp_wmem","Wed Mar 15 2023 19:23:23 GMT (Coordinated Universal Time)","663209","Match,No Match","","5125","","","","","","<div class='trialBorder'><div class='targDiv'><div class='tc'><img class='introPic' src='trustrating_stim/white_mw070.bmp'><br><font color='red'><strong>Keep</strong></font></div></div><div class='respDiv'><div class='respDivL'>Match<br>(e)</div><div class='respDivR'>No Match<br>(i)</div></div></div>","i","TARGET","3","trustrating_stim/white_mw040.bmp,trustrating_stim/white_mw070.bmp,trustrating_stim/white_mw038.bmp","1,1,0","noMatchOutcome","i","4500","trustrating_stim/white_mw070.bmp","red","Keep","REAL","1"
"html-keyboard-response","169","460644","0.0-7.0-5.26","613e002e81f4b2409b531dbd","bdp_wmem","Wed Mar 15 2023 19:23:23 GMT (Coordinated Universal Time)","663209","Match,No Match","","null","","","","","","<div class='trialBorder'><div class='vertical-center'><img src='img/correct.jpg'></div><div class='respDiv'><div class='respDivL'>Match<br>(e)</div><div class='respDivR'><font style='color:orange'>No Match<br>(i)</font></div></div></div>","null","FEEDBACK","","","","","","","","","","",""
"html-keyboard-response","170","461159","0.0-7.0-1.27","613e002e81f4b2409b531dbd","bdp_wmem","Wed Mar 15 2023 19:23:23 GMT (Coordinated Universal Time)","663209","Match,No Match","","null","","","","","","<div class='trialBorder'><div class='vertical-center'><img src='img/fixation2_sml.jpg'</img></div></div>","null","FIX","","","","","","","","","","",""
"html-keyboard-response","171","462667","0.0-7.0-2.27","613e002e81f4b2409b531dbd","bdp_wmem","Wed Mar 15 2023 19:23:23 GMT (Coordinated Universal Time)","663209","Match,No Match","","null","","","","","","<div class='trialBorder'><div class='vertical-center'><img style='vertical-align:center; align:center' src='img/fixation2_sml.jpg'></div><div class='arrayDiv1'><div class='tc'><img class='introPic' src='trustrating_stim/white_mw092.bmp'><br><font color='red'><strong>Keep</strong></font></div></div></div>","null","ARRAY","1","trustrating_stim/white_mw092.bmp","0","noMatchOutcome","i","1500","","","","",""
"html-keyboard-response","172","466678","0.0-7.0-3.27","613e002e81f4b2409b531dbd","bdp_wmem","Wed Mar 15 2023 19:23:23 GMT (Coordinated Universal Time)","663209","Match,No Match","","null","","","","","","<div class='trialBorder'><div class='vertical-center'><img src='img/fixation2_sml.jpg'</img></div></div>","null","DELAY","","","","","","","","","","",""
"html-keyboard-response","173","467852","0.0-7.0-4.27","613e002e81f4b2409b531dbd","bdp_wmem","Wed Mar 15 2023 19:23:23 GMT (Coordinated Universal Time)","663209","Match,No Match","","1171","","","","","","<div class='trialBorder'><div class='targDiv'><div class='tc'><img class='introPic' src='trustrating_stim/white_mw092.bmp'><br><font color='green'><strong>Share</strong></font></div></div><div class='respDiv'><div class='respDivL'>Match<br>(e)</div><div class='respDivR'>No Match<br>(i)</div></div></div>","i","TARGET","1","trustrating_stim/white_mw092.bmp","0","noMatchOutcome","i","1500","trustrating_stim/white_mw092.bmp","green","Share","REAL","1"
"html-keyboard-response","174","468354","0.0-7.0-5.27","613e002e81f4b2409b531dbd","bdp_wmem","Wed Mar 15 2023 19:23:23 GMT (Coordinated Universal Time)","663209","Match,No Match","","null","","","","","","<div class='trialBorder'><div class='vertical-center'><img src='img/correct.jpg'></div><div class='respDiv'><div class='respDivL'>Match<br>(e)</div><div class='respDivR'><font style='color:orange'>No Match<br>(i)</font></div></div></div>","null","FEEDBACK","","","","","","","","","","",""
"html-keyboard-response","175","468861","0.0-7.0-1.28","613e002e81f4b2409b531dbd","bdp_wmem","Wed Mar 15 2023 19:23:23 GMT (Coordinated Universal Time)","663209","Match,No Match","","null","","","","","","<div class='trialBorder'><div class='vertical-center'><img src='img/fixation2_sml.jpg'</img></div></div>","null","FIX","","","","","","","","","","",""
"html-keyboard-response","176","470366","0.0-7.0-2.28","613e002e81f4b2409b531dbd","bdp_wmem","Wed Mar 15 2023 19:23:23 GMT (Coordinated Universal Time)","663209","Match,No Match","","null","","","","","","<div class='trialBorder'><div class='vertical-center'><img style='vertical-align:center; align:center' src='img/fixation2_sml.jpg'></div><div class='arrayDiv1'><div class='tc'><img class='introPic' src='trustrating_stim/white_mw091.bmp'><br><font color='red'><strong>Keep</strong></font></div></div></div>","null","ARRAY","1","trustrating_stim/white_mw091.bmp","0","noMatchFace","i","1500","","","","",""
"html-keyboard-response","177","474374","0.0-7.0-3.28","613e002e81f4b2409b531dbd","bdp_wmem","Wed Mar 15 2023 19:23:23 GMT (Coordinated Universal Time)","663209","Match,No Match","","null","","","","","","<div class='trialBorder'><div class='vertical-center'><img src='img/fixation2_sml.jpg'</img></div></div>","null","DELAY","","","","","","","","","","",""
"html-keyboard-response","178","475457","0.0-7.0-4.28","613e002e81f4b2409b531dbd","bdp_wmem","Wed Mar 15 2023 19:23:23 GMT (Coordinated Universal Time)","663209","Match,No Match","","1080","","","","","","<div class='trialBorder'><div class='targDiv'><div class='tc'><img class='introPic' src='trustrating_stim/white_mw013.bmp'><br><font color='red'><strong>Keep</strong></font></div></div><div class='respDiv'><div class='respDivL'>Match<br>(e)</div><div class='respDivR'>No Match<br>(i)</div></div></div>","i","TARGET","1","trustrating_stim/white_mw091.bmp","0","noMatchFace","i","1500","trustrating_stim/white_mw013.bmp","red","Keep","REAL","1"
"html-keyboard-response","179","475968","0.0-7.0-5.28","613e002e81f4b2409b531dbd","bdp_wmem","Wed Mar 15 2023 19:23:23 GMT (Coordinated Universal Time)","663209","Match,No Match","","null","","","","","","<div class='trialBorder'><div class='vertical-center'><img src='img/correct.jpg'></div><div class='respDiv'><div class='respDivL'>Match<br>(e)</div><div class='respDivR'><font style='color:orange'>No Match<br>(i)</font></div></div></div>","null","FEEDBACK","","","","","","","","","","",""
"html-keyboard-response","180","476475","0.0-7.0-1.29","613e002e81f4b2409b531dbd","bdp_wmem","Wed Mar 15 2023 19:23:23 GMT (Coordinated Universal Time)","663209","Match,No Match","","null","","","","","","<div class='trialBorder'><div class='vertical-center'><img src='img/fixation2_sml.jpg'</img></div></div>","null","FIX","","","","","","","","","","",""
"html-keyboard-response","181","479485","0.0-7.0-2.29","613e002e81f4b2409b531dbd","bdp_wmem","Wed Mar 15 2023 19:23:23 GMT (Coordinated Universal Time)","663209","Match,No Match","","null","","","","","","<div class='trialBorder'><div class='vertical-center'><img style='vertical-align:center; align:center' src='img/fixation2_sml.jpg'></div><div class='arrayDiv2'><div class='tl'><img class='introPic' src='trustrating_stim/white_mw042.bmp'><br><font color='green'><strong>Share</strong></font></div><div class='tr'><img class='introPic' src='trustrating_stim/white_mw003.bmp'><br><font color='red'><strong>Keep</strong></font></div></div></div>","null","ARRAY","2","trustrating_stim/white_mw042.bmp,trustrating_stim/white_mw003.bmp","1,0","noMatchOutcome","i","3000","","","","",""
"html-keyboard-response","182","483494","0.0-7.0-3.29","613e002e81f4b2409b531dbd","bdp_wmem","Wed Mar 15 2023 19:23:23 GMT (Coordinated Universal Time)","663209","Match,No Match","","null","","","","","","<div class='trialBorder'><div class='vertical-center'><img src='img/fixation2_sml.jpg'</img></div></div>","null","DELAY","","","","","","","","","","",""
"html-keyboard-response","183","484736","0.0-7.0-4.29","613e002e81f4b2409b531dbd","bdp_wmem","Wed Mar 15 2023 19:23:23 GMT (Coordinated Universal Time)","663209","Match,No Match","","1239","","","","","","<div class='trialBorder'><div class='targDiv'><div class='tc'><img class='introPic' src='trustrating_stim/white_mw003.bmp'><br><font color='green'><strong>Share</strong></font></div></div><div class='respDiv'><div class='respDivL'>Match<br>(e)</div><div class='respDivR'>No Match<br>(i)</div></div></div>","i","TARGET","2","trustrating_stim/white_mw042.bmp,trustrating_stim/white_mw003.bmp","1,0","noMatchOutcome","i","3000","trustrating_stim/white_mw003.bmp","green","Share","REAL","1"
"html-keyboard-response","184","485243","0.0-7.0-5.29","613e002e81f4b2409b531dbd","bdp_wmem","Wed Mar 15 2023 19:23:23 GMT (Coordinated Universal Time)","663209","Match,No Match","","null","","","","","","<div class='trialBorder'><div class='vertical-center'><img src='img/correct.jpg'></div><div class='respDiv'><div class='respDivL'>Match<br>(e)</div><div class='respDivR'><font style='color:orange'>No Match<br>(i)</font></div></div></div>","null","FEEDBACK","","","","","","","","","","",""
"html-keyboard-response","185","485758","0.0-7.0-1.30","613e002e81f4b2409b531dbd","bdp_wmem","Wed Mar 15 2023 19:23:23 GMT (Coordinated Universal Time)","663209","Match,No Match","","null","","","","","","<div class='trialBorder'><div class='vertical-center'><img src='img/fixation2_sml.jpg'</img></div></div>","null","FIX","","","","","","","","","","",""
"html-keyboard-response","186","488769","0.0-7.0-2.30","613e002e81f4b2409b531dbd","bdp_wmem","Wed Mar 15 2023 19:23:23 GMT (Coordinated Universal Time)","663209","Match,No Match","","null","","","","","","<div class='trialBorder'><div class='vertical-center'><img style='vertical-align:center; align:center' src='img/fixation2_sml.jpg'></div><div class='arrayDiv2'><div class='tl'><img class='introPic' src='trustrating_stim/white_mw012.bmp'><br><font color='red'><strong>Keep</strong></font></div><div class='tr'><img class='introPic' src='trustrating_stim/white_mw070.bmp'><br><font color='green'><strong>Share</strong></font></div></div></div>","null","ARRAY","2","trustrating_stim/white_mw012.bmp,trustrating_stim/white_mw070.bmp","0,1","noMatchOutcome","i","3000","","","","",""
"html-keyboard-response","187","492778","0.0-7.0-3.30","613e002e81f4b2409b531dbd","bdp_wmem","Wed Mar 15 2023 19:23:23 GMT (Coordinated Universal Time)","663209","Match,No Match","","null","","","","","","<div class='trialBorder'><div class='vertical-center'><img src='img/fixation2_sml.jpg'</img></div></div>","null","DELAY","","","","","","","","","","",""
"html-keyboard-response","188","494585","0.0-7.0-4.30","613e002e81f4b2409b531dbd","bdp_wmem","Wed Mar 15 2023 19:23:23 GMT (Coordinated Universal Time)","663209","Match,No Match","","1804","","","","","","<div class='trialBorder'><div class='targDiv'><div class='tc'><img class='introPic' src='trustrating_stim/white_mw012.bmp'><br><font color='green'><strong>Share</strong></font></div></div><div class='respDiv'><div class='respDivL'>Match<br>(e)</div><div class='respDivR'>No Match<br>(i)</div></div></div>","i","TARGET","2","trustrating_stim/white_mw012.bmp,trustrating_stim/white_mw070.bmp","0,1","noMatchOutcome","i","3000","trustrating_stim/white_mw012.bmp","green","Share","REAL","1"
