"trial_type","trial_index","time_elapsed","internal_node_id","subject_id","task","startTime","totalTime","labels","view_history","rt","event","trial","time","trialtype","success","stimulus","key_press","stimType","arraySize","arrayFaces","arrayOutcomes","matchType","corrResp","arrayDur","targFace","targCol","targOutcome","trialType","corr"
"pavlovia","0","3","0.0-0.0","61650ba8e42101c561bf7335","bdp_wmem","Wed Mar 15 2023 22:43:46 GMT-0400 (Eastern Daylight Time)","666414","Match,No Match","","","","","","","","","","","","","","","","","","","","",""
"instructions","1","4040","0.0-1.0","61650ba8e42101c561bf7335","bdp_wmem","Wed Mar 15 2023 22:43:46 GMT-0400 (Eastern Daylight Time)","666414","Match,No Match","[{""page_index"":0,""viewing_time"":4035}]","4036","","","","","","","","","","","","","","","","","","",""
"","","","","61650ba8e42101c561bf7335","bdp_wmem","Wed Mar 15 2023 22:43:46 GMT-0400 (Eastern Daylight Time)","666414","Match,No Match","","","fullscreenenter","2","7911","fullscreenenter","","","","","","","","","","","","","","",""
"fullscreen","2","8906","0.0-2.0","61650ba8e42101c561bf7335","bdp_wmem","Wed Mar 15 2023 22:43:46 GMT-0400 (Eastern Daylight Time)","666414","Match,No Match","","","","","","","true","","","","","","","","","","","","","",""
"instructions","3","156803","0.0-4.0","61650ba8e42101c561bf7335","bdp_wmem","Wed Mar 15 2023 22:43:46 GMT-0400 (Eastern Daylight Time)","666414","Match,No Match","[{""page_index"":0,""viewing_time"":22011},{""page_index"":1,""viewing_time"":105698},{""page_index"":2,""viewing_time"":9014},{""page_index"":3,""viewing_time"":3966},{""page_index"":4,""viewing_time"":7206}]","147895","","","","","","","","","","","","","","","","","","",""
"html-keyboard-response","4","157307","0.0-5.0-1.0","61650ba8e42101c561bf7335","bdp_wmem","Wed Mar 15 2023 22:43:46 GMT-0400 (Eastern Daylight Time)","666414","Match,No Match","","null","","","","","","<div class='trialBorder'><div class='vertical-center'><img src='img/fixation2_sml.jpg'</img></div></div>","null","FIX","","","","","","","","","","",""
"html-keyboard-response","5","158809","0.0-5.0-2.0","61650ba8e42101c561bf7335","bdp_wmem","Wed Mar 15 2023 22:43:46 GMT-0400 (Eastern Daylight Time)","666414","Match,No Match","","null","","","","","","<div class='trialBorder'><div class='vertical-center'><img style='vertical-align:center; align:center' src='img/fixation2_sml.jpg'></div><div class='arrayDiv1'><div class='tc'><img class='introPic' src='trustrating_stim/white_mw070.bmp'><br><font color='green'><strong>Share</strong></font></div></div></div>","null","ARRAY","1","trustrating_stim/white_mw070.bmp","1","Match","e","1500","","","","",""
"html-keyboard-response","6","162811","0.0-5.0-3.0","61650ba8e42101c561bf7335","bdp_wmem","Wed Mar 15 2023 22:43:46 GMT-0400 (Eastern Daylight Time)","666414","Match,No Match","","null","","","","","","<div class='trialBorder'><div class='vertical-center'><img src='img/fixation2_sml.jpg'</img></div></div>","null","DELAY","","","","","","","","","","",""
"html-keyboard-response","7","163926","0.0-5.0-4.0","61650ba8e42101c561bf7335","bdp_wmem","Wed Mar 15 2023 22:43:46 GMT-0400 (Eastern Daylight Time)","666414","Match,No Match","","1112","","","","","","<div class='trialBorder'><div class='targDiv'><div class='tc'><img class='introPic' src='trustrating_stim/white_mw070.bmp'><br><font color='green'><strong>Share</strong></font></div></div><div class='respDiv'><div class='respDivL'>Match<br>(e)</div><div class='respDivR'>No Match<br>(i)</div></div></div>","e","TARGET","1","trustrating_stim/white_mw070.bmp","1","Match","e","1500","trustrating_stim/white_mw070.bmp","green","Share","PRACTICE","1"
"html-keyboard-response","8","164429","0.0-5.0-5.0","61650ba8e42101c561bf7335","bdp_wmem","Wed Mar 15 2023 22:43:46 GMT-0400 (Eastern Daylight Time)","666414","Match,No Match","","null","","","","","","<div class='trialBorder'><div class='vertical-center'><img src='img/correct.jpg'></div><div class='respDiv'><div class='respDivL'><font style='color:orange'>Match<br>(e)</font></div><div class='respDivR'>No Match<br>(i)</div></div></div>","null","FEEDBACK","","","","","","","","","","",""
"html-keyboard-response","9","164932","0.0-5.0-1.1","61650ba8e42101c561bf7335","bdp_wmem","Wed Mar 15 2023 22:43:46 GMT-0400 (Eastern Daylight Time)","666414","Match,No Match","","null","","","","","","<div class='trialBorder'><div class='vertical-center'><img src='img/fixation2_sml.jpg'</img></div></div>","null","FIX","","","","","","","","","","",""
"html-keyboard-response","10","169435","0.0-5.0-2.1","61650ba8e42101c561bf7335","bdp_wmem","Wed Mar 15 2023 22:43:46 GMT-0400 (Eastern Daylight Time)","666414","Match,No Match","","null","","","","","","<div class='trialBorder'><div class='vertical-center'><img style='vertical-align:center; align:center' src='img/fixation2_sml.jpg'></div><div class='arrayDiv3'><div class='tl'><img class='introPic' src='trustrating_stim/white_mw070.bmp'><br><font color='green'><strong>Share</strong></font></div><div class='tc'><img class='introPic' src='trustrating_stim/white_mw013.bmp'><br><font color='red'><strong>Keep</strong></font></div><div class='tr'><img class='introPic' src='trustrating_stim/white_mw038.bmp'><br><font color='red'><strong>Keep</strong></font></div></div></div>","null","ARRAY","3","trustrating_stim/white_mw070.bmp,trustrating_stim/white_mw013.bmp,trustrating_stim/white_mw038.bmp","1,0,0","Match","e","4500","","","","",""
"html-keyboard-response","11","173437","0.0-5.0-3.1","61650ba8e42101c561bf7335","bdp_wmem","Wed Mar 15 2023 22:43:46 GMT-0400 (Eastern Daylight Time)","666414","Match,No Match","","null","","","","","","<div class='trialBorder'><div class='vertical-center'><img src='img/fixation2_sml.jpg'</img></div></div>","null","DELAY","","","","","","","","","","",""
"html-keyboard-response","12","175021","0.0-5.0-4.1","61650ba8e42101c561bf7335","bdp_wmem","Wed Mar 15 2023 22:43:46 GMT-0400 (Eastern Daylight Time)","666414","Match,No Match","","1581","","","","","","<div class='trialBorder'><div class='targDiv'><div class='tc'><img class='introPic' src='trustrating_stim/white_mw013.bmp'><br><font color='red'><strong>Keep</strong></font></div></div><div class='respDiv'><div class='respDivL'>Match<br>(e)</div><div class='respDivR'>No Match<br>(i)</div></div></div>","e","TARGET","3","trustrating_stim/white_mw070.bmp,trustrating_stim/white_mw013.bmp,trustrating_stim/white_mw038.bmp","1,0,0","Match","e","4500","trustrating_stim/white_mw013.bmp","red","Keep","PRACTICE","1"
"html-keyboard-response","13","175524","0.0-5.0-5.1","61650ba8e42101c561bf7335","bdp_wmem","Wed Mar 15 2023 22:43:46 GMT-0400 (Eastern Daylight Time)","666414","Match,No Match","","null","","","","","","<div class='trialBorder'><div class='vertical-center'><img src='img/correct.jpg'></div><div class='respDiv'><div class='respDivL'><font style='color:orange'>Match<br>(e)</font></div><div class='respDivR'>No Match<br>(i)</div></div></div>","null","FEEDBACK","","","","","","","","","","",""
"html-keyboard-response","14","176025","0.0-5.0-1.2","61650ba8e42101c561bf7335","bdp_wmem","Wed Mar 15 2023 22:43:46 GMT-0400 (Eastern Daylight Time)","666414","Match,No Match","","null","","","","","","<div class='trialBorder'><div class='vertical-center'><img src='img/fixation2_sml.jpg'</img></div></div>","null","FIX","","","","","","","","","","",""
"html-keyboard-response","15","177528","0.0-5.0-2.2","61650ba8e42101c561bf7335","bdp_wmem","Wed Mar 15 2023 22:43:46 GMT-0400 (Eastern Daylight Time)","666414","Match,No Match","","null","","","","","","<div class='trialBorder'><div class='vertical-center'><img style='vertical-align:center; align:center' src='img/fixation2_sml.jpg'></div><div class='arrayDiv1'><div class='tc'><img class='introPic' src='trustrating_stim/white_mw012.bmp'><br><font color='red'><strong>Keep</strong></font></div></div></div>","null","ARRAY","1","trustrating_stim/white_mw012.bmp","0","noMatchFace","i","1500","","","","",""
"html-keyboard-response","16","181530","0.0-5.0-3.2","61650ba8e42101c561bf7335","bdp_wmem","Wed Mar 15 2023 22:43:46 GMT-0400 (Eastern Daylight Time)","666414","Match,No Match","","null","","","","","","<div class='trialBorder'><div class='vertical-center'><img src='img/fixation2_sml.jpg'</img></div></div>","null","DELAY","","","","","","","","","","",""
"html-keyboard-response","17","182116","0.0-5.0-4.2","61650ba8e42101c561bf7335","bdp_wmem","Wed Mar 15 2023 22:43:46 GMT-0400 (Eastern Daylight Time)","666414","Match,No Match","","583","","","","","","<div class='trialBorder'><div class='targDiv'><div class='tc'><img class='introPic' src='trustrating_stim/white_mw078.bmp'><br><font color='red'><strong>Keep</strong></font></div></div><div class='respDiv'><div class='respDivL'>Match<br>(e)</div><div class='respDivR'>No Match<br>(i)</div></div></div>","i","TARGET","1","trustrating_stim/white_mw012.bmp","0","noMatchFace","i","1500","trustrating_stim/white_mw078.bmp","red","Keep","PRACTICE","1"
"html-keyboard-response","18","182618","0.0-5.0-5.2","61650ba8e42101c561bf7335","bdp_wmem","Wed Mar 15 2023 22:43:46 GMT-0400 (Eastern Daylight Time)","666414","Match,No Match","","null","","","","","","<div class='trialBorder'><div class='vertical-center'><img src='img/correct.jpg'></div><div class='respDiv'><div class='respDivL'>Match<br>(e)</div><div class='respDivR'><font style='color:orange'>No Match<br>(i)</font></div></div></div>","null","FEEDBACK","","","","","","","","","","",""
"html-keyboard-response","19","183121","0.0-5.0-1.3","61650ba8e42101c561bf7335","bdp_wmem","Wed Mar 15 2023 22:43:46 GMT-0400 (Eastern Daylight Time)","666414","Match,No Match","","null","","","","","","<div class='trialBorder'><div class='vertical-center'><img src='img/fixation2_sml.jpg'</img></div></div>","null","FIX","","","","","","","","","","",""
"html-keyboard-response","20","186123","0.0-5.0-2.3","61650ba8e42101c561bf7335","bdp_wmem","Wed Mar 15 2023 22:43:46 GMT-0400 (Eastern Daylight Time)","666414","Match,No Match","","null","","","","","","<div class='trialBorder'><div class='vertical-center'><img style='vertical-align:center; align:center' src='img/fixation2_sml.jpg'></div><div class='arrayDiv2'><div class='tl'><img class='introPic' src='trustrating_stim/white_mw013.bmp'><br><font color='red'><strong>Keep</strong></font></div><div class='tr'><img class='introPic' src='trustrating_stim/white_mw085.bmp'><br><font color='green'><strong>Share</strong></font></div></div></div>","null","ARRAY","2","trustrating_stim/white_mw013.bmp,trustrating_stim/white_mw085.bmp","0,1","noMatchOutcome","i","3000","","","","",""
"html-keyboard-response","21","190124","0.0-5.0-3.3","61650ba8e42101c561bf7335","bdp_wmem","Wed Mar 15 2023 22:43:46 GMT-0400 (Eastern Daylight Time)","666414","Match,No Match","","null","","","","","","<div class='trialBorder'><div class='vertical-center'><img src='img/fixation2_sml.jpg'</img></div></div>","null","DELAY","","","","","","","","","","",""
"html-keyboard-response","22","191810","0.0-5.0-4.3","61650ba8e42101c561bf7335","bdp_wmem","Wed Mar 15 2023 22:43:46 GMT-0400 (Eastern Daylight Time)","666414","Match,No Match","","1684","","","","","","<div class='trialBorder'><div class='targDiv'><div class='tc'><img class='introPic' src='trustrating_stim/white_mw085.bmp'><br><font color='red'><strong>Keep</strong></font></div></div><div class='respDiv'><div class='respDivL'>Match<br>(e)</div><div class='respDivR'>No Match<br>(i)</div></div></div>","e","TARGET","2","trustrating_stim/white_mw013.bmp,trustrating_stim/white_mw085.bmp","0,1","noMatchOutcome","i","3000","trustrating_stim/white_mw085.bmp","red","Keep","PRACTICE","0"
"html-keyboard-response","23","192313","0.0-5.0-5.3","61650ba8e42101c561bf7335","bdp_wmem","Wed Mar 15 2023 22:43:46 GMT-0400 (Eastern Daylight Time)","666414","Match,No Match","","null","","","","","","<div class='trialBorder'><div class='vertical-center'><img src='img/error.jpg'></div><div class='respDiv'><div class='respDivL'><font style='color:orange'>Match<br>(e)</font></div><div class='respDivR'>No Match<br>(i)</div></div></div>","null","FEEDBACK","","","","","","","","","","",""
"html-keyboard-response","24","192815","0.0-5.0-1.4","61650ba8e42101c561bf7335","bdp_wmem","Wed Mar 15 2023 22:43:46 GMT-0400 (Eastern Daylight Time)","666414","Match,No Match","","null","","","","","","<div class='trialBorder'><div class='vertical-center'><img src='img/fixation2_sml.jpg'</img></div></div>","null","FIX","","","","","","","","","","",""
"html-keyboard-response","25","195817","0.0-5.0-2.4","61650ba8e42101c561bf7335","bdp_wmem","Wed Mar 15 2023 22:43:46 GMT-0400 (Eastern Daylight Time)","666414","Match,No Match","","null","","","","","","<div class='trialBorder'><div class='vertical-center'><img style='vertical-align:center; align:center' src='img/fixation2_sml.jpg'></div><div class='arrayDiv2'><div class='tl'><img class='introPic' src='trustrating_stim/white_mw040.bmp'><br><font color='green'><strong>Share</strong></font></div><div class='tr'><img class='introPic' src='trustrating_stim/white_mw038.bmp'><br><font color='red'><strong>Keep</strong></font></div></div></div>","null","ARRAY","2","trustrating_stim/white_mw040.bmp,trustrating_stim/white_mw038.bmp","1,0","Match","e","3000","","","","",""
"html-keyboard-response","26","199819","0.0-5.0-3.4","61650ba8e42101c561bf7335","bdp_wmem","Wed Mar 15 2023 22:43:46 GMT-0400 (Eastern Daylight Time)","666414","Match,No Match","","null","","","","","","<div class='trialBorder'><div class='vertical-center'><img src='img/fixation2_sml.jpg'</img></div></div>","null","DELAY","","","","","","","","","","",""
"html-keyboard-response","27","200690","0.0-5.0-4.4","61650ba8e42101c561bf7335","bdp_wmem","Wed Mar 15 2023 22:43:46 GMT-0400 (Eastern Daylight Time)","666414","Match,No Match","","869","","","","","","<div class='trialBorder'><div class='targDiv'><div class='tc'><img class='introPic' src='trustrating_stim/white_mw038.bmp'><br><font color='red'><strong>Keep</strong></font></div></div><div class='respDiv'><div class='respDivL'>Match<br>(e)</div><div class='respDivR'>No Match<br>(i)</div></div></div>","e","TARGET","2","trustrating_stim/white_mw040.bmp,trustrating_stim/white_mw038.bmp","1,0","Match","e","3000","trustrating_stim/white_mw038.bmp","red","Keep","PRACTICE","1"
"html-keyboard-response","28","201192","0.0-5.0-5.4","61650ba8e42101c561bf7335","bdp_wmem","Wed Mar 15 2023 22:43:46 GMT-0400 (Eastern Daylight Time)","666414","Match,No Match","","null","","","","","","<div class='trialBorder'><div class='vertical-center'><img src='img/correct.jpg'></div><div class='respDiv'><div class='respDivL'><font style='color:orange'>Match<br>(e)</font></div><div class='respDivR'>No Match<br>(i)</div></div></div>","null","FEEDBACK","","","","","","","","","","",""
"html-keyboard-response","29","201694","0.0-5.0-1.5","61650ba8e42101c561bf7335","bdp_wmem","Wed Mar 15 2023 22:43:46 GMT-0400 (Eastern Daylight Time)","666414","Match,No Match","","null","","","","","","<div class='trialBorder'><div class='vertical-center'><img src='img/fixation2_sml.jpg'</img></div></div>","null","FIX","","","","","","","","","","",""
"html-keyboard-response","30","206198","0.0-5.0-2.5","61650ba8e42101c561bf7335","bdp_wmem","Wed Mar 15 2023 22:43:46 GMT-0400 (Eastern Daylight Time)","666414","Match,No Match","","null","","","","","","<div class='trialBorder'><div class='vertical-center'><img style='vertical-align:center; align:center' src='img/fixation2_sml.jpg'></div><div class='arrayDiv3'><div class='tl'><img class='introPic' src='trustrating_stim/white_mw078.bmp'><br><font color='red'><strong>Keep</strong></font></div><div class='tc'><img class='introPic' src='trustrating_stim/white_mw013.bmp'><br><font color='green'><strong>Share</strong></font></div><div class='tr'><img class='introPic' src='trustrating_stim/white_mw070.bmp'><br><font color='green'><strong>Share</strong></font></div></div></div>","null","ARRAY","3","trustrating_stim/white_mw078.bmp,trustrating_stim/white_mw013.bmp,trustrating_stim/white_mw070.bmp","0,1,1","noMatchOutcome","i","4500","","","","",""
"html-keyboard-response","31","210200","0.0-5.0-3.5","61650ba8e42101c561bf7335","bdp_wmem","Wed Mar 15 2023 22:43:46 GMT-0400 (Eastern Daylight Time)","666414","Match,No Match","","null","","","","","","<div class='trialBorder'><div class='vertical-center'><img src='img/fixation2_sml.jpg'</img></div></div>","null","DELAY","","","","","","","","","","",""
"html-keyboard-response","32","212463","0.0-5.0-4.5","61650ba8e42101c561bf7335","bdp_wmem","Wed Mar 15 2023 22:43:46 GMT-0400 (Eastern Daylight Time)","666414","Match,No Match","","2260","","","","","","<div class='trialBorder'><div class='targDiv'><div class='tc'><img class='introPic' src='trustrating_stim/white_mw013.bmp'><br><font color='red'><strong>Keep</strong></font></div></div><div class='respDiv'><div class='respDivL'>Match<br>(e)</div><div class='respDivR'>No Match<br>(i)</div></div></div>","e","TARGET","3","trustrating_stim/white_mw078.bmp,trustrating_stim/white_mw013.bmp,trustrating_stim/white_mw070.bmp","0,1,1","noMatchOutcome","i","4500","trustrating_stim/white_mw013.bmp","red","Keep","PRACTICE","0"
"html-keyboard-response","33","212964","0.0-5.0-5.5","61650ba8e42101c561bf7335","bdp_wmem","Wed Mar 15 2023 22:43:46 GMT-0400 (Eastern Daylight Time)","666414","Match,No Match","","null","","","","","","<div class='trialBorder'><div class='vertical-center'><img src='img/error.jpg'></div><div class='respDiv'><div class='respDivL'><font style='color:orange'>Match<br>(e)</font></div><div class='respDivR'>No Match<br>(i)</div></div></div>","null","FEEDBACK","","","","","","","","","","",""
"instructions","34","233594","0.0-6.0","61650ba8e42101c561bf7335","bdp_wmem","Wed Mar 15 2023 22:43:46 GMT-0400 (Eastern Daylight Time)","666414","Match,No Match","[{""page_index"":0,""viewing_time"":20629}]","20630","","","","","","","","","","","","","","","","","","",""
"html-keyboard-response","35","234096","0.0-7.0-1.0","61650ba8e42101c561bf7335","bdp_wmem","Wed Mar 15 2023 22:43:46 GMT-0400 (Eastern Daylight Time)","666414","Match,No Match","","null","","","","","","<div class='trialBorder'><div class='vertical-center'><img src='img/fixation2_sml.jpg'</img></div></div>","null","FIX","","","","","","","","","","",""
"html-keyboard-response","36","238600","0.0-7.0-2.0","61650ba8e42101c561bf7335","bdp_wmem","Wed Mar 15 2023 22:43:46 GMT-0400 (Eastern Daylight Time)","666414","Match,No Match","","null","","","","","","<div class='trialBorder'><div class='vertical-center'><img style='vertical-align:center; align:center' src='img/fixation2_sml.jpg'></div><div class='arrayDiv3'><div class='tl'><img class='introPic' src='trustrating_stim/white_mw085.bmp'><br><font color='red'><strong>Keep</strong></font></div><div class='tc'><img class='introPic' src='trustrating_stim/white_mw091.bmp'><br><font color='green'><strong>Share</strong></font></div><div class='tr'><img class='introPic' src='trustrating_stim/white_mw013.bmp'><br><font color='red'><strong>Keep</strong></font></div></div></div>","null","ARRAY","3","trustrating_stim/white_mw085.bmp,trustrating_stim/white_mw091.bmp,trustrating_stim/white_mw013.bmp","0,1,0","Match","e","4500","","","","",""
"html-keyboard-response","37","242602","0.0-7.0-3.0","61650ba8e42101c561bf7335","bdp_wmem","Wed Mar 15 2023 22:43:46 GMT-0400 (Eastern Daylight Time)","666414","Match,No Match","","null","","","","","","<div class='trialBorder'><div class='vertical-center'><img src='img/fixation2_sml.jpg'</img></div></div>","null","DELAY","","","","","","","","","","",""
"html-keyboard-response","38","244243","0.0-7.0-4.0","61650ba8e42101c561bf7335","bdp_wmem","Wed Mar 15 2023 22:43:46 GMT-0400 (Eastern Daylight Time)","666414","Match,No Match","","1639","","","","","","<div class='trialBorder'><div class='targDiv'><div class='tc'><img class='introPic' src='trustrating_stim/white_mw013.bmp'><br><font color='red'><strong>Keep</strong></font></div></div><div class='respDiv'><div class='respDivL'>Match<br>(e)</div><div class='respDivR'>No Match<br>(i)</div></div></div>","e","TARGET","3","trustrating_stim/white_mw085.bmp,trustrating_stim/white_mw091.bmp,trustrating_stim/white_mw013.bmp","0,1,0","Match","e","4500","trustrating_stim/white_mw013.bmp","red","Keep","REAL","1"
"html-keyboard-response","39","244745","0.0-7.0-5.0","61650ba8e42101c561bf7335","bdp_wmem","Wed Mar 15 2023 22:43:46 GMT-0400 (Eastern Daylight Time)","666414","Match,No Match","","null","","","","","","<div class='trialBorder'><div class='vertical-center'><img src='img/correct.jpg'></div><div class='respDiv'><div class='respDivL'><font style='color:orange'>Match<br>(e)</font></div><div class='respDivR'>No Match<br>(i)</div></div></div>","null","FEEDBACK","","","","","","","","","","",""
"html-keyboard-response","40","245247","0.0-7.0-1.1","61650ba8e42101c561bf7335","bdp_wmem","Wed Mar 15 2023 22:43:46 GMT-0400 (Eastern Daylight Time)","666414","Match,No Match","","null","","","","","","<div class='trialBorder'><div class='vertical-center'><img src='img/fixation2_sml.jpg'</img></div></div>","null","FIX","","","","","","","","","","",""
"html-keyboard-response","41","249749","0.0-7.0-2.1","61650ba8e42101c561bf7335","bdp_wmem","Wed Mar 15 2023 22:43:46 GMT-0400 (Eastern Daylight Time)","666414","Match,No Match","","null","","","","","","<div class='trialBorder'><div class='vertical-center'><img style='vertical-align:center; align:center' src='img/fixation2_sml.jpg'></div><div class='arrayDiv3'><div class='tl'><img class='introPic' src='trustrating_stim/white_mw078.bmp'><br><font color='green'><strong>Share</strong></font></div><div class='tc'><img class='introPic' src='trustrating_stim/white_mw092.bmp'><br><font color='red'><strong>Keep</strong></font></div><div class='tr'><img class='introPic' src='trustrating_stim/white_mw012.bmp'><br><font color='red'><strong>Keep</strong></font></div></div></div>","null","ARRAY","3","trustrating_stim/white_mw078.bmp,trustrating_stim/white_mw092.bmp,trustrating_stim/white_mw012.bmp","1,0,0","Match","e","4500","","","","",""
"html-keyboard-response","42","253752","0.0-7.0-3.1","61650ba8e42101c561bf7335","bdp_wmem","Wed Mar 15 2023 22:43:46 GMT-0400 (Eastern Daylight Time)","666414","Match,No Match","","null","","","","","","<div class='trialBorder'><div class='vertical-center'><img src='img/fixation2_sml.jpg'</img></div></div>","null","DELAY","","","","","","","","","","",""
"html-keyboard-response","43","255083","0.0-7.0-4.1","61650ba8e42101c561bf7335","bdp_wmem","Wed Mar 15 2023 22:43:46 GMT-0400 (Eastern Daylight Time)","666414","Match,No Match","","1329","","","","","","<div class='trialBorder'><div class='targDiv'><div class='tc'><img class='introPic' src='trustrating_stim/white_mw092.bmp'><br><font color='red'><strong>Keep</strong></font></div></div><div class='respDiv'><div class='respDivL'>Match<br>(e)</div><div class='respDivR'>No Match<br>(i)</div></div></div>","e","TARGET","3","trustrating_stim/white_mw078.bmp,trustrating_stim/white_mw092.bmp,trustrating_stim/white_mw012.bmp","1,0,0","Match","e","4500","trustrating_stim/white_mw092.bmp","red","Keep","REAL","1"
"html-keyboard-response","44","255584","0.0-7.0-5.1","61650ba8e42101c561bf7335","bdp_wmem","Wed Mar 15 2023 22:43:46 GMT-0400 (Eastern Daylight Time)","666414","Match,No Match","","null","","","","","","<div class='trialBorder'><div class='vertical-center'><img src='img/correct.jpg'></div><div class='respDiv'><div class='respDivL'><font style='color:orange'>Match<br>(e)</font></div><div class='respDivR'>No Match<br>(i)</div></div></div>","null","FEEDBACK","","","","","","","","","","",""
"html-keyboard-response","45","256087","0.0-7.0-1.2","61650ba8e42101c561bf7335","bdp_wmem","Wed Mar 15 2023 22:43:46 GMT-0400 (Eastern Daylight Time)","666414","Match,No Match","","null","","","","","","<div class='trialBorder'><div class='vertical-center'><img src='img/fixation2_sml.jpg'</img></div></div>","null","FIX","","","","","","","","","","",""
"html-keyboard-response","46","259089","0.0-7.0-2.2","61650ba8e42101c561bf7335","bdp_wmem","Wed Mar 15 2023 22:43:46 GMT-0400 (Eastern Daylight Time)","666414","Match,No Match","","null","","","","","","<div class='trialBorder'><div class='vertical-center'><img style='vertical-align:center; align:center' src='img/fixation2_sml.jpg'></div><div class='arrayDiv2'><div class='tl'><img class='introPic' src='trustrating_stim/white_mw003.bmp'><br><font color='red'><strong>Keep</strong></font></div><div class='tr'><img class='introPic' src='trustrating_stim/white_mw042.bmp'><br><font color='green'><strong>Share</strong></font></div></div></div>","null","ARRAY","2","trustrating_stim/white_mw003.bmp,trustrating_stim/white_mw042.bmp","0,1","Match","e","3000","","","","",""
"html-keyboard-response","47","263090","0.0-7.0-3.2","61650ba8e42101c561bf7335","bdp_wmem","Wed Mar 15 2023 22:43:46 GMT-0400 (Eastern Daylight Time)","666414","Match,No Match","","null","","","","","","<div class='trialBorder'><div class='vertical-center'><img src='img/fixation2_sml.jpg'</img></div></div>","null","DELAY","","","","","","","","","","",""
"html-keyboard-response","48","264295","0.0-7.0-4.2","61650ba8e42101c561bf7335","bdp_wmem","Wed Mar 15 2023 22:43:46 GMT-0400 (Eastern Daylight Time)","666414","Match,No Match","","1202","","","","","","<div class='trialBorder'><div class='targDiv'><div class='tc'><img class='introPic' src='trustrating_stim/white_mw003.bmp'><br><font color='red'><strong>Keep</strong></font></div></div><div class='respDiv'><div class='respDivL'>Match<br>(e)</div><div class='respDivR'>No Match<br>(i)</div></div></div>","e","TARGET","2","trustrating_stim/white_mw003.bmp,trustrating_stim/white_mw042.bmp","0,1","Match","e","3000","trustrating_stim/white_mw003.bmp","red","Keep","REAL","1"
"html-keyboard-response","49","264798","0.0-7.0-5.2","61650ba8e42101c561bf7335","bdp_wmem","Wed Mar 15 2023 22:43:46 GMT-0400 (Eastern Daylight Time)","666414","Match,No Match","","null","","","","","","<div class='trialBorder'><div class='vertical-center'><img src='img/correct.jpg'></div><div class='respDiv'><div class='respDivL'><font style='color:orange'>Match<br>(e)</font></div><div class='respDivR'>No Match<br>(i)</div></div></div>","null","FEEDBACK","","","","","","","","","","",""
"html-keyboard-response","50","265299","0.0-7.0-1.3","61650ba8e42101c561bf7335","bdp_wmem","Wed Mar 15 2023 22:43:46 GMT-0400 (Eastern Daylight Time)","666414","Match,No Match","","null","","","","","","<div class='trialBorder'><div class='vertical-center'><img src='img/fixation2_sml.jpg'</img></div></div>","null","FIX","","","","","","","","","","",""
"html-keyboard-response","51","268302","0.0-7.0-2.3","61650ba8e42101c561bf7335","bdp_wmem","Wed Mar 15 2023 22:43:46 GMT-0400 (Eastern Daylight Time)","666414","Match,No Match","","null","","","","","","<div class='trialBorder'><div class='vertical-center'><img style='vertical-align:center; align:center' src='img/fixation2_sml.jpg'></div><div class='arrayDiv2'><div class='tl'><img class='introPic' src='trustrating_stim/white_mw070.bmp'><br><font color='green'><strong>Share</strong></font></div><div class='tr'><img class='introPic' src='trustrating_stim/white_mw085.bmp'><br><font color='red'><strong>Keep</strong></font></div></div></div>","null","ARRAY","2","trustrating_stim/white_mw070.bmp,trustrating_stim/white_mw085.bmp","1,0","Match","e","3000","","","","",""
"html-keyboard-response","52","272304","0.0-7.0-3.3","61650ba8e42101c561bf7335","bdp_wmem","Wed Mar 15 2023 22:43:46 GMT-0400 (Eastern Daylight Time)","666414","Match,No Match","","null","","","","","","<div class='trialBorder'><div class='vertical-center'><img src='img/fixation2_sml.jpg'</img></div></div>","null","DELAY","","","","","","","","","","",""
"html-keyboard-response","53","273235","0.0-7.0-4.3","61650ba8e42101c561bf7335","bdp_wmem","Wed Mar 15 2023 22:43:46 GMT-0400 (Eastern Daylight Time)","666414","Match,No Match","","929","","","","","","<div class='trialBorder'><div class='targDiv'><div class='tc'><img class='introPic' src='trustrating_stim/white_mw085.bmp'><br><font color='red'><strong>Keep</strong></font></div></div><div class='respDiv'><div class='respDivL'>Match<br>(e)</div><div class='respDivR'>No Match<br>(i)</div></div></div>","e","TARGET","2","trustrating_stim/white_mw070.bmp,trustrating_stim/white_mw085.bmp","1,0","Match","e","3000","trustrating_stim/white_mw085.bmp","red","Keep","REAL","1"
"html-keyboard-response","54","273737","0.0-7.0-5.3","61650ba8e42101c561bf7335","bdp_wmem","Wed Mar 15 2023 22:43:46 GMT-0400 (Eastern Daylight Time)","666414","Match,No Match","","null","","","","","","<div class='trialBorder'><div class='vertical-center'><img src='img/correct.jpg'></div><div class='respDiv'><div class='respDivL'><font style='color:orange'>Match<br>(e)</font></div><div class='respDivR'>No Match<br>(i)</div></div></div>","null","FEEDBACK","","","","","","","","","","",""
"html-keyboard-response","55","274239","0.0-7.0-1.4","61650ba8e42101c561bf7335","bdp_wmem","Wed Mar 15 2023 22:43:46 GMT-0400 (Eastern Daylight Time)","666414","Match,No Match","","null","","","","","","<div class='trialBorder'><div class='vertical-center'><img src='img/fixation2_sml.jpg'</img></div></div>","null","FIX","","","","","","","","","","",""
"html-keyboard-response","56","278742","0.0-7.0-2.4","61650ba8e42101c561bf7335","bdp_wmem","Wed Mar 15 2023 22:43:46 GMT-0400 (Eastern Daylight Time)","666414","Match,No Match","","null","","","","","","<div class='trialBorder'><div class='vertical-center'><img style='vertical-align:center; align:center' src='img/fixation2_sml.jpg'></div><div class='arrayDiv3'><div class='tl'><img class='introPic' src='trustrating_stim/white_mw040.bmp'><br><font color='red'><strong>Keep</strong></font></div><div class='tc'><img class='introPic' src='trustrating_stim/white_mw012.bmp'><br><font color='green'><strong>Share</strong></font></div><div class='tr'><img class='introPic' src='trustrating_stim/white_mw038.bmp'><br><font color='green'><strong>Share</strong></font></div></div></div>","null","ARRAY","3","trustrating_stim/white_mw040.bmp,trustrating_stim/white_mw012.bmp,trustrating_stim/white_mw038.bmp","0,1,1","noMatchFace","i","4500","","","","",""
"html-keyboard-response","57","282744","0.0-7.0-3.4","61650ba8e42101c561bf7335","bdp_wmem","Wed Mar 15 2023 22:43:46 GMT-0400 (Eastern Daylight Time)","666414","Match,No Match","","null","","","","","","<div class='trialBorder'><div class='vertical-center'><img src='img/fixation2_sml.jpg'</img></div></div>","null","DELAY","","","","","","","","","","",""
"html-keyboard-response","58","283998","0.0-7.0-4.4","61650ba8e42101c561bf7335","bdp_wmem","Wed Mar 15 2023 22:43:46 GMT-0400 (Eastern Daylight Time)","666414","Match,No Match","","1250","","","","","","<div class='trialBorder'><div class='targDiv'><div class='tc'><img class='introPic' src='trustrating_stim/white_mw010.bmp'><br><font color='green'><strong>Share</strong></font></div></div><div class='respDiv'><div class='respDivL'>Match<br>(e)</div><div class='respDivR'>No Match<br>(i)</div></div></div>","i","TARGET","3","trustrating_stim/white_mw040.bmp,trustrating_stim/white_mw012.bmp,trustrating_stim/white_mw038.bmp","0,1,1","noMatchFace","i","4500","trustrating_stim/white_mw010.bmp","green","Share","REAL","1"
"html-keyboard-response","59","284499","0.0-7.0-5.4","61650ba8e42101c561bf7335","bdp_wmem","Wed Mar 15 2023 22:43:46 GMT-0400 (Eastern Daylight Time)","666414","Match,No Match","","null","","","","","","<div class='trialBorder'><div class='vertical-center'><img src='img/correct.jpg'></div><div class='respDiv'><div class='respDivL'>Match<br>(e)</div><div class='respDivR'><font style='color:orange'>No Match<br>(i)</font></div></div></div>","null","FEEDBACK","","","","","","","","","","",""
"html-keyboard-response","60","285000","0.0-7.0-1.5","61650ba8e42101c561bf7335","bdp_wmem","Wed Mar 15 2023 22:43:46 GMT-0400 (Eastern Daylight Time)","666414","Match,No Match","","null","","","","","","<div class='trialBorder'><div class='vertical-center'><img src='img/fixation2_sml.jpg'</img></div></div>","null","FIX","","","","","","","","","","",""
"html-keyboard-response","61","286502","0.0-7.0-2.5","61650ba8e42101c561bf7335","bdp_wmem","Wed Mar 15 2023 22:43:46 GMT-0400 (Eastern Daylight Time)","666414","Match,No Match","","null","","","","","","<div class='trialBorder'><div class='vertical-center'><img style='vertical-align:center; align:center' src='img/fixation2_sml.jpg'></div><div class='arrayDiv1'><div class='tc'><img class='introPic' src='trustrating_stim/white_mw003.bmp'><br><font color='green'><strong>Share</strong></font></div></div></div>","null","ARRAY","1","trustrating_stim/white_mw003.bmp","1","Match","e","1500","","","","",""
"html-keyboard-response","62","290504","0.0-7.0-3.5","61650ba8e42101c561bf7335","bdp_wmem","Wed Mar 15 2023 22:43:46 GMT-0400 (Eastern Daylight Time)","666414","Match,No Match","","null","","","","","","<div class='trialBorder'><div class='vertical-center'><img src='img/fixation2_sml.jpg'</img></div></div>","null","DELAY","","","","","","","","","","",""
"html-keyboard-response","63","292148","0.0-7.0-4.5","61650ba8e42101c561bf7335","bdp_wmem","Wed Mar 15 2023 22:43:46 GMT-0400 (Eastern Daylight Time)","666414","Match,No Match","","1641","","","","","","<div class='trialBorder'><div class='targDiv'><div class='tc'><img class='introPic' src='trustrating_stim/white_mw003.bmp'><br><font color='green'><strong>Share</strong></font></div></div><div class='respDiv'><div class='respDivL'>Match<br>(e)</div><div class='respDivR'>No Match<br>(i)</div></div></div>","e","TARGET","1","trustrating_stim/white_mw003.bmp","1","Match","e","1500","trustrating_stim/white_mw003.bmp","green","Share","REAL","1"
"html-keyboard-response","64","292650","0.0-7.0-5.5","61650ba8e42101c561bf7335","bdp_wmem","Wed Mar 15 2023 22:43:46 GMT-0400 (Eastern Daylight Time)","666414","Match,No Match","","null","","","","","","<div class='trialBorder'><div class='vertical-center'><img src='img/correct.jpg'></div><div class='respDiv'><div class='respDivL'><font style='color:orange'>Match<br>(e)</font></div><div class='respDivR'>No Match<br>(i)</div></div></div>","null","FEEDBACK","","","","","","","","","","",""
"html-keyboard-response","65","293152","0.0-7.0-1.6","61650ba8e42101c561bf7335","bdp_wmem","Wed Mar 15 2023 22:43:46 GMT-0400 (Eastern Daylight Time)","666414","Match,No Match","","null","","","","","","<div class='trialBorder'><div class='vertical-center'><img src='img/fixation2_sml.jpg'</img></div></div>","null","FIX","","","","","","","","","","",""
"html-keyboard-response","66","296155","0.0-7.0-2.6","61650ba8e42101c561bf7335","bdp_wmem","Wed Mar 15 2023 22:43:46 GMT-0400 (Eastern Daylight Time)","666414","Match,No Match","","null","","","","","","<div class='trialBorder'><div class='vertical-center'><img style='vertical-align:center; align:center' src='img/fixation2_sml.jpg'></div><div class='arrayDiv2'><div class='tl'><img class='introPic' src='trustrating_stim/white_mw070.bmp'><br><font color='red'><strong>Keep</strong></font></div><div class='tr'><img class='introPic' src='trustrating_stim/white_mw040.bmp'><br><font color='green'><strong>Share</strong></font></div></div></div>","null","ARRAY","2","trustrating_stim/white_mw070.bmp,trustrating_stim/white_mw040.bmp","0,1","Match","e","3000","","","","",""
"html-keyboard-response","67","300157","0.0-7.0-3.6","61650ba8e42101c561bf7335","bdp_wmem","Wed Mar 15 2023 22:43:46 GMT-0400 (Eastern Daylight Time)","666414","Match,No Match","","null","","","","","","<div class='trialBorder'><div class='vertical-center'><img src='img/fixation2_sml.jpg'</img></div></div>","null","DELAY","","","","","","","","","","",""
"html-keyboard-response","68","300676","0.0-7.0-4.6","61650ba8e42101c561bf7335","bdp_wmem","Wed Mar 15 2023 22:43:46 GMT-0400 (Eastern Daylight Time)","666414","Match,No Match","","517","","","","","","<div class='trialBorder'><div class='targDiv'><div class='tc'><img class='introPic' src='trustrating_stim/white_mw040.bmp'><br><font color='green'><strong>Share</strong></font></div></div><div class='respDiv'><div class='respDivL'>Match<br>(e)</div><div class='respDivR'>No Match<br>(i)</div></div></div>","e","TARGET","2","trustrating_stim/white_mw070.bmp,trustrating_stim/white_mw040.bmp","0,1","Match","e","3000","trustrating_stim/white_mw040.bmp","green","Share","REAL","1"
"html-keyboard-response","69","301177","0.0-7.0-5.6","61650ba8e42101c561bf7335","bdp_wmem","Wed Mar 15 2023 22:43:46 GMT-0400 (Eastern Daylight Time)","666414","Match,No Match","","null","","","","","","<div class='trialBorder'><div class='vertical-center'><img src='img/correct.jpg'></div><div class='respDiv'><div class='respDivL'><font style='color:orange'>Match<br>(e)</font></div><div class='respDivR'>No Match<br>(i)</div></div></div>","null","FEEDBACK","","","","","","","","","","",""
"html-keyboard-response","70","301680","0.0-7.0-1.7","61650ba8e42101c561bf7335","bdp_wmem","Wed Mar 15 2023 22:43:46 GMT-0400 (Eastern Daylight Time)","666414","Match,No Match","","null","","","","","","<div class='trialBorder'><div class='vertical-center'><img src='img/fixation2_sml.jpg'</img></div></div>","null","FIX","","","","","","","","","","",""
"html-keyboard-response","71","304682","0.0-7.0-2.7","61650ba8e42101c561bf7335","bdp_wmem","Wed Mar 15 2023 22:43:46 GMT-0400 (Eastern Daylight Time)","666414","Match,No Match","","null","","","","","","<div class='trialBorder'><div class='vertical-center'><img style='vertical-align:center; align:center' src='img/fixation2_sml.jpg'></div><div class='arrayDiv2'><div class='tl'><img class='introPic' src='trustrating_stim/white_mw070.bmp'><br><font color='red'><strong>Keep</strong></font></div><div class='tr'><img class='introPic' src='trustrating_stim/white_mw092.bmp'><br><font color='green'><strong>Share</strong></font></div></div></div>","null","ARRAY","2","trustrating_stim/white_mw070.bmp,trustrating_stim/white_mw092.bmp","0,1","Match","e","3000","","","","",""
"html-keyboard-response","72","308685","0.0-7.0-3.7","61650ba8e42101c561bf7335","bdp_wmem","Wed Mar 15 2023 22:43:46 GMT-0400 (Eastern Daylight Time)","666414","Match,No Match","","null","","","","","","<div class='trialBorder'><div class='vertical-center'><img src='img/fixation2_sml.jpg'</img></div></div>","null","DELAY","","","","","","","","","","",""
"html-keyboard-response","73","310483","0.0-7.0-4.7","61650ba8e42101c561bf7335","bdp_wmem","Wed Mar 15 2023 22:43:46 GMT-0400 (Eastern Daylight Time)","666414","Match,No Match","","1795","","","","","","<div class='trialBorder'><div class='targDiv'><div class='tc'><img class='introPic' src='trustrating_stim/white_mw070.bmp'><br><font color='red'><strong>Keep</strong></font></div></div><div class='respDiv'><div class='respDivL'>Match<br>(e)</div><div class='respDivR'>No Match<br>(i)</div></div></div>","i","TARGET","2","trustrating_stim/white_mw070.bmp,trustrating_stim/white_mw092.bmp","0,1","Match","e","3000","trustrating_stim/white_mw070.bmp","red","Keep","REAL","0"
"html-keyboard-response","74","310985","0.0-7.0-5.7","61650ba8e42101c561bf7335","bdp_wmem","Wed Mar 15 2023 22:43:46 GMT-0400 (Eastern Daylight Time)","666414","Match,No Match","","null","","","","","","<div class='trialBorder'><div class='vertical-center'><img src='img/error.jpg'></div><div class='respDiv'><div class='respDivL'>Match<br>(e)</div><div class='respDivR'><font style='color:orange'>No Match<br>(i)</font></div></div></div>","null","FEEDBACK","","","","","","","","","","",""
"html-keyboard-response","75","311487","0.0-7.0-1.8","61650ba8e42101c561bf7335","bdp_wmem","Wed Mar 15 2023 22:43:46 GMT-0400 (Eastern Daylight Time)","666414","Match,No Match","","null","","","","","","<div class='trialBorder'><div class='vertical-center'><img src='img/fixation2_sml.jpg'</img></div></div>","null","FIX","","","","","","","","","","",""
"html-keyboard-response","76","314490","0.0-7.0-2.8","61650ba8e42101c561bf7335","bdp_wmem","Wed Mar 15 2023 22:43:46 GMT-0400 (Eastern Daylight Time)","666414","Match,No Match","","null","","","","","","<div class='trialBorder'><div class='vertical-center'><img style='vertical-align:center; align:center' src='img/fixation2_sml.jpg'></div><div class='arrayDiv2'><div class='tl'><img class='introPic' src='trustrating_stim/white_mw038.bmp'><br><font color='red'><strong>Keep</strong></font></div><div class='tr'><img class='introPic' src='trustrating_stim/white_mw013.bmp'><br><font color='green'><strong>Share</strong></font></div></div></div>","null","ARRAY","2","trustrating_stim/white_mw038.bmp,trustrating_stim/white_mw013.bmp","0,1","noMatchOutcome","i","3000","","","","",""
"html-keyboard-response","77","318491","0.0-7.0-3.8","61650ba8e42101c561bf7335","bdp_wmem","Wed Mar 15 2023 22:43:46 GMT-0400 (Eastern Daylight Time)","666414","Match,No Match","","null","","","","","","<div class='trialBorder'><div class='vertical-center'><img src='img/fixation2_sml.jpg'</img></div></div>","null","DELAY","","","","","","","","","","",""
"html-keyboard-response","78","319537","0.0-7.0-4.8","61650ba8e42101c561bf7335","bdp_wmem","Wed Mar 15 2023 22:43:46 GMT-0400 (Eastern Daylight Time)","666414","Match,No Match","","1043","","","","","","<div class='trialBorder'><div class='targDiv'><div class='tc'><img class='introPic' src='trustrating_stim/white_mw013.bmp'><br><font color='red'><strong>Keep</strong></font></div></div><div class='respDiv'><div class='respDivL'>Match<br>(e)</div><div class='respDivR'>No Match<br>(i)</div></div></div>","i","TARGET","2","trustrating_stim/white_mw038.bmp,trustrating_stim/white_mw013.bmp","0,1","noMatchOutcome","i","3000","trustrating_stim/white_mw013.bmp","red","Keep","REAL","1"
"html-keyboard-response","79","320040","0.0-7.0-5.8","61650ba8e42101c561bf7335","bdp_wmem","Wed Mar 15 2023 22:43:46 GMT-0400 (Eastern Daylight Time)","666414","Match,No Match","","null","","","","","","<div class='trialBorder'><div class='vertical-center'><img src='img/correct.jpg'></div><div class='respDiv'><div class='respDivL'>Match<br>(e)</div><div class='respDivR'><font style='color:orange'>No Match<br>(i)</font></div></div></div>","null","FEEDBACK","","","","","","","","","","",""
"html-keyboard-response","80","320542","0.0-7.0-1.9","61650ba8e42101c561bf7335","bdp_wmem","Wed Mar 15 2023 22:43:46 GMT-0400 (Eastern Daylight Time)","666414","Match,No Match","","null","","","","","","<div class='trialBorder'><div class='vertical-center'><img src='img/fixation2_sml.jpg'</img></div></div>","null","FIX","","","","","","","","","","",""
"html-keyboard-response","81","325044","0.0-7.0-2.9","61650ba8e42101c561bf7335","bdp_wmem","Wed Mar 15 2023 22:43:46 GMT-0400 (Eastern Daylight Time)","666414","Match,No Match","","null","","","","","","<div class='trialBorder'><div class='vertical-center'><img style='vertical-align:center; align:center' src='img/fixation2_sml.jpg'></div><div class='arrayDiv3'><div class='tl'><img class='introPic' src='trustrating_stim/white_mw085.bmp'><br><font color='green'><strong>Share</strong></font></div><div class='tc'><img class='introPic' src='trustrating_stim/white_mw070.bmp'><br><font color='green'><strong>Share</strong></font></div><div class='tr'><img class='introPic' src='trustrating_stim/white_mw040.bmp'><br><font color='red'><strong>Keep</strong></font></div></div></div>","null","ARRAY","3","trustrating_stim/white_mw085.bmp,trustrating_stim/white_mw070.bmp,trustrating_stim/white_mw040.bmp","1,1,0","noMatchFace","i","4500","","","","",""
"html-keyboard-response","82","329047","0.0-7.0-3.9","61650ba8e42101c561bf7335","bdp_wmem","Wed Mar 15 2023 22:43:46 GMT-0400 (Eastern Daylight Time)","666414","Match,No Match","","null","","","","","","<div class='trialBorder'><div class='vertical-center'><img src='img/fixation2_sml.jpg'</img></div></div>","null","DELAY","","","","","","","","","","",""
"html-keyboard-response","83","329923","0.0-7.0-4.9","61650ba8e42101c561bf7335","bdp_wmem","Wed Mar 15 2023 22:43:46 GMT-0400 (Eastern Daylight Time)","666414","Match,No Match","","874","","","","","","<div class='trialBorder'><div class='targDiv'><div class='tc'><img class='introPic' src='trustrating_stim/white_mw078.bmp'><br><font color='red'><strong>Keep</strong></font></div></div><div class='respDiv'><div class='respDivL'>Match<br>(e)</div><div class='respDivR'>No Match<br>(i)</div></div></div>","i","TARGET","3","trustrating_stim/white_mw085.bmp,trustrating_stim/white_mw070.bmp,trustrating_stim/white_mw040.bmp","1,1,0","noMatchFace","i","4500","trustrating_stim/white_mw078.bmp","red","Keep","REAL","1"
"html-keyboard-response","84","330426","0.0-7.0-5.9","61650ba8e42101c561bf7335","bdp_wmem","Wed Mar 15 2023 22:43:46 GMT-0400 (Eastern Daylight Time)","666414","Match,No Match","","null","","","","","","<div class='trialBorder'><div class='vertical-center'><img src='img/correct.jpg'></div><div class='respDiv'><div class='respDivL'>Match<br>(e)</div><div class='respDivR'><font style='color:orange'>No Match<br>(i)</font></div></div></div>","null","FEEDBACK","","","","","","","","","","",""
"html-keyboard-response","85","330927","0.0-7.0-1.10","61650ba8e42101c561bf7335","bdp_wmem","Wed Mar 15 2023 22:43:46 GMT-0400 (Eastern Daylight Time)","666414","Match,No Match","","null","","","","","","<div class='trialBorder'><div class='vertical-center'><img src='img/fixation2_sml.jpg'</img></div></div>","null","FIX","","","","","","","","","","",""
"html-keyboard-response","86","333930","0.0-7.0-2.10","61650ba8e42101c561bf7335","bdp_wmem","Wed Mar 15 2023 22:43:46 GMT-0400 (Eastern Daylight Time)","666414","Match,No Match","","null","","","","","","<div class='trialBorder'><div class='vertical-center'><img style='vertical-align:center; align:center' src='img/fixation2_sml.jpg'></div><div class='arrayDiv2'><div class='tl'><img class='introPic' src='trustrating_stim/white_mw003.bmp'><br><font color='green'><strong>Share</strong></font></div><div class='tr'><img class='introPic' src='trustrating_stim/white_mw085.bmp'><br><font color='red'><strong>Keep</strong></font></div></div></div>","null","ARRAY","2","trustrating_stim/white_mw003.bmp,trustrating_stim/white_mw085.bmp","1,0","noMatchOutcome","i","3000","","","","",""
"html-keyboard-response","87","337932","0.0-7.0-3.10","61650ba8e42101c561bf7335","bdp_wmem","Wed Mar 15 2023 22:43:46 GMT-0400 (Eastern Daylight Time)","666414","Match,No Match","","null","","","","","","<div class='trialBorder'><div class='vertical-center'><img src='img/fixation2_sml.jpg'</img></div></div>","null","DELAY","","","","","","","","","","",""
"html-keyboard-response","88","339185","0.0-7.0-4.10","61650ba8e42101c561bf7335","bdp_wmem","Wed Mar 15 2023 22:43:46 GMT-0400 (Eastern Daylight Time)","666414","Match,No Match","","1250","","","","","","<div class='trialBorder'><div class='targDiv'><div class='tc'><img class='introPic' src='trustrating_stim/white_mw003.bmp'><br><font color='red'><strong>Keep</strong></font></div></div><div class='respDiv'><div class='respDivL'>Match<br>(e)</div><div class='respDivR'>No Match<br>(i)</div></div></div>","i","TARGET","2","trustrating_stim/white_mw003.bmp,trustrating_stim/white_mw085.bmp","1,0","noMatchOutcome","i","3000","trustrating_stim/white_mw003.bmp","red","Keep","REAL","1"
"html-keyboard-response","89","339687","0.0-7.0-5.10","61650ba8e42101c561bf7335","bdp_wmem","Wed Mar 15 2023 22:43:46 GMT-0400 (Eastern Daylight Time)","666414","Match,No Match","","null","","","","","","<div class='trialBorder'><div class='vertical-center'><img src='img/correct.jpg'></div><div class='respDiv'><div class='respDivL'>Match<br>(e)</div><div class='respDivR'><font style='color:orange'>No Match<br>(i)</font></div></div></div>","null","FEEDBACK","","","","","","","","","","",""
"html-keyboard-response","90","340190","0.0-7.0-1.11","61650ba8e42101c561bf7335","bdp_wmem","Wed Mar 15 2023 22:43:46 GMT-0400 (Eastern Daylight Time)","666414","Match,No Match","","null","","","","","","<div class='trialBorder'><div class='vertical-center'><img src='img/fixation2_sml.jpg'</img></div></div>","null","FIX","","","","","","","","","","",""
"html-keyboard-response","91","344692","0.0-7.0-2.11","61650ba8e42101c561bf7335","bdp_wmem","Wed Mar 15 2023 22:43:46 GMT-0400 (Eastern Daylight Time)","666414","Match,No Match","","null","","","","","","<div class='trialBorder'><div class='vertical-center'><img style='vertical-align:center; align:center' src='img/fixation2_sml.jpg'></div><div class='arrayDiv3'><div class='tl'><img class='introPic' src='trustrating_stim/white_mw091.bmp'><br><font color='red'><strong>Keep</strong></font></div><div class='tc'><img class='introPic' src='trustrating_stim/white_mw013.bmp'><br><font color='green'><strong>Share</strong></font></div><div class='tr'><img class='introPic' src='trustrating_stim/white_mw092.bmp'><br><font color='green'><strong>Share</strong></font></div></div></div>","null","ARRAY","3","trustrating_stim/white_mw091.bmp,trustrating_stim/white_mw013.bmp,trustrating_stim/white_mw092.bmp","0,1,1","noMatchOutcome","i","4500","","","","",""
"html-keyboard-response","92","348695","0.0-7.0-3.11","61650ba8e42101c561bf7335","bdp_wmem","Wed Mar 15 2023 22:43:46 GMT-0400 (Eastern Daylight Time)","666414","Match,No Match","","null","","","","","","<div class='trialBorder'><div class='vertical-center'><img src='img/fixation2_sml.jpg'</img></div></div>","null","DELAY","","","","","","","","","","",""
"html-keyboard-response","93","350233","0.0-7.0-4.11","61650ba8e42101c561bf7335","bdp_wmem","Wed Mar 15 2023 22:43:46 GMT-0400 (Eastern Daylight Time)","666414","Match,No Match","","1536","","","","","","<div class='trialBorder'><div class='targDiv'><div class='tc'><img class='introPic' src='trustrating_stim/white_mw091.bmp'><br><font color='green'><strong>Share</strong></font></div></div><div class='respDiv'><div class='respDivL'>Match<br>(e)</div><div class='respDivR'>No Match<br>(i)</div></div></div>","i","TARGET","3","trustrating_stim/white_mw091.bmp,trustrating_stim/white_mw013.bmp,trustrating_stim/white_mw092.bmp","0,1,1","noMatchOutcome","i","4500","trustrating_stim/white_mw091.bmp","green","Share","REAL","1"
"html-keyboard-response","94","350736","0.0-7.0-5.11","61650ba8e42101c561bf7335","bdp_wmem","Wed Mar 15 2023 22:43:46 GMT-0400 (Eastern Daylight Time)","666414","Match,No Match","","null","","","","","","<div class='trialBorder'><div class='vertical-center'><img src='img/correct.jpg'></div><div class='respDiv'><div class='respDivL'>Match<br>(e)</div><div class='respDivR'><font style='color:orange'>No Match<br>(i)</font></div></div></div>","null","FEEDBACK","","","","","","","","","","",""
"html-keyboard-response","95","351238","0.0-7.0-1.12","61650ba8e42101c561bf7335","bdp_wmem","Wed Mar 15 2023 22:43:46 GMT-0400 (Eastern Daylight Time)","666414","Match,No Match","","null","","","","","","<div class='trialBorder'><div class='vertical-center'><img src='img/fixation2_sml.jpg'</img></div></div>","null","FIX","","","","","","","","","","",""
"html-keyboard-response","96","354241","0.0-7.0-2.12","61650ba8e42101c561bf7335","bdp_wmem","Wed Mar 15 2023 22:43:46 GMT-0400 (Eastern Daylight Time)","666414","Match,No Match","","null","","","","","","<div class='trialBorder'><div class='vertical-center'><img style='vertical-align:center; align:center' src='img/fixation2_sml.jpg'></div><div class='arrayDiv2'><div class='tl'><img class='introPic' src='trustrating_stim/white_mw092.bmp'><br><font color='red'><strong>Keep</strong></font></div><div class='tr'><img class='introPic' src='trustrating_stim/white_mw091.bmp'><br><font color='green'><strong>Share</strong></font></div></div></div>","null","ARRAY","2","trustrating_stim/white_mw092.bmp,trustrating_stim/white_mw091.bmp","0,1","Match","e","3000","","","","",""
"html-keyboard-response","97","358243","0.0-7.0-3.12","61650ba8e42101c561bf7335","bdp_wmem","Wed Mar 15 2023 22:43:46 GMT-0400 (Eastern Daylight Time)","666414","Match,No Match","","null","","","","","","<div class='trialBorder'><div class='vertical-center'><img src='img/fixation2_sml.jpg'</img></div></div>","null","DELAY","","","","","","","","","","",""
"html-keyboard-response","98","359078","0.0-7.0-4.12","61650ba8e42101c561bf7335","bdp_wmem","Wed Mar 15 2023 22:43:46 GMT-0400 (Eastern Daylight Time)","666414","Match,No Match","","832","","","","","","<div class='trialBorder'><div class='targDiv'><div class='tc'><img class='introPic' src='trustrating_stim/white_mw091.bmp'><br><font color='green'><strong>Share</strong></font></div></div><div class='respDiv'><div class='respDivL'>Match<br>(e)</div><div class='respDivR'>No Match<br>(i)</div></div></div>","e","TARGET","2","trustrating_stim/white_mw092.bmp,trustrating_stim/white_mw091.bmp","0,1","Match","e","3000","trustrating_stim/white_mw091.bmp","green","Share","REAL","1"
"html-keyboard-response","99","359581","0.0-7.0-5.12","61650ba8e42101c561bf7335","bdp_wmem","Wed Mar 15 2023 22:43:46 GMT-0400 (Eastern Daylight Time)","666414","Match,No Match","","null","","","","","","<div class='trialBorder'><div class='vertical-center'><img src='img/correct.jpg'></div><div class='respDiv'><div class='respDivL'><font style='color:orange'>Match<br>(e)</font></div><div class='respDivR'>No Match<br>(i)</div></div></div>","null","FEEDBACK","","","","","","","","","","",""
"html-keyboard-response","100","360083","0.0-7.0-1.13","61650ba8e42101c561bf7335","bdp_wmem","Wed Mar 15 2023 22:43:46 GMT-0400 (Eastern Daylight Time)","666414","Match,No Match","","null","","","","","","<div class='trialBorder'><div class='vertical-center'><img src='img/fixation2_sml.jpg'</img></div></div>","null","FIX","","","","","","","","","","",""
"html-keyboard-response","101","361585","0.0-7.0-2.13","61650ba8e42101c561bf7335","bdp_wmem","Wed Mar 15 2023 22:43:46 GMT-0400 (Eastern Daylight Time)","666414","Match,No Match","","null","","","","","","<div class='trialBorder'><div class='vertical-center'><img style='vertical-align:center; align:center' src='img/fixation2_sml.jpg'></div><div class='arrayDiv1'><div class='tc'><img class='introPic' src='trustrating_stim/white_mw013.bmp'><br><font color='green'><strong>Share</strong></font></div></div></div>","null","ARRAY","1","trustrating_stim/white_mw013.bmp","1","Match","e","1500","","","","",""
"html-keyboard-response","102","365587","0.0-7.0-3.13","61650ba8e42101c561bf7335","bdp_wmem","Wed Mar 15 2023 22:43:46 GMT-0400 (Eastern Daylight Time)","666414","Match,No Match","","null","","","","","","<div class='trialBorder'><div class='vertical-center'><img src='img/fixation2_sml.jpg'</img></div></div>","null","DELAY","","","","","","","","","","",""
"html-keyboard-response","103","366291","0.0-7.0-4.13","61650ba8e42101c561bf7335","bdp_wmem","Wed Mar 15 2023 22:43:46 GMT-0400 (Eastern Daylight Time)","666414","Match,No Match","","702","","","","","","<div class='trialBorder'><div class='targDiv'><div class='tc'><img class='introPic' src='trustrating_stim/white_mw013.bmp'><br><font color='green'><strong>Share</strong></font></div></div><div class='respDiv'><div class='respDivL'>Match<br>(e)</div><div class='respDivR'>No Match<br>(i)</div></div></div>","e","TARGET","1","trustrating_stim/white_mw013.bmp","1","Match","e","1500","trustrating_stim/white_mw013.bmp","green","Share","REAL","1"
"html-keyboard-response","104","366794","0.0-7.0-5.13","61650ba8e42101c561bf7335","bdp_wmem","Wed Mar 15 2023 22:43:46 GMT-0400 (Eastern Daylight Time)","666414","Match,No Match","","null","","","","","","<div class='trialBorder'><div class='vertical-center'><img src='img/correct.jpg'></div><div class='respDiv'><div class='respDivL'><font style='color:orange'>Match<br>(e)</font></div><div class='respDivR'>No Match<br>(i)</div></div></div>","null","FEEDBACK","","","","","","","","","","",""
"html-keyboard-response","105","367296","0.0-7.0-1.14","61650ba8e42101c561bf7335","bdp_wmem","Wed Mar 15 2023 22:43:46 GMT-0400 (Eastern Daylight Time)","666414","Match,No Match","","null","","","","","","<div class='trialBorder'><div class='vertical-center'><img src='img/fixation2_sml.jpg'</img></div></div>","null","FIX","","","","","","","","","","",""
"html-keyboard-response","106","370298","0.0-7.0-2.14","61650ba8e42101c561bf7335","bdp_wmem","Wed Mar 15 2023 22:43:46 GMT-0400 (Eastern Daylight Time)","666414","Match,No Match","","null","","","","","","<div class='trialBorder'><div class='vertical-center'><img style='vertical-align:center; align:center' src='img/fixation2_sml.jpg'></div><div class='arrayDiv2'><div class='tl'><img class='introPic' src='trustrating_stim/white_mw042.bmp'><br><font color='red'><strong>Keep</strong></font></div><div class='tr'><img class='introPic' src='trustrating_stim/white_mw013.bmp'><br><font color='green'><strong>Share</strong></font></div></div></div>","null","ARRAY","2","trustrating_stim/white_mw042.bmp,trustrating_stim/white_mw013.bmp","0,1","Match","e","3000","","","","",""
"html-keyboard-response","107","374301","0.0-7.0-3.14","61650ba8e42101c561bf7335","bdp_wmem","Wed Mar 15 2023 22:43:46 GMT-0400 (Eastern Daylight Time)","666414","Match,No Match","","null","","","","","","<div class='trialBorder'><div class='vertical-center'><img src='img/fixation2_sml.jpg'</img></div></div>","null","DELAY","","","","","","","","","","",""
"html-keyboard-response","108","375330","0.0-7.0-4.14","61650ba8e42101c561bf7335","bdp_wmem","Wed Mar 15 2023 22:43:46 GMT-0400 (Eastern Daylight Time)","666414","Match,No Match","","1027","","","","","","<div class='trialBorder'><div class='targDiv'><div class='tc'><img class='introPic' src='trustrating_stim/white_mw013.bmp'><br><font color='green'><strong>Share</strong></font></div></div><div class='respDiv'><div class='respDivL'>Match<br>(e)</div><div class='respDivR'>No Match<br>(i)</div></div></div>","e","TARGET","2","trustrating_stim/white_mw042.bmp,trustrating_stim/white_mw013.bmp","0,1","Match","e","3000","trustrating_stim/white_mw013.bmp","green","Share","REAL","1"
"html-keyboard-response","109","375832","0.0-7.0-5.14","61650ba8e42101c561bf7335","bdp_wmem","Wed Mar 15 2023 22:43:46 GMT-0400 (Eastern Daylight Time)","666414","Match,No Match","","null","","","","","","<div class='trialBorder'><div class='vertical-center'><img src='img/correct.jpg'></div><div class='respDiv'><div class='respDivL'><font style='color:orange'>Match<br>(e)</font></div><div class='respDivR'>No Match<br>(i)</div></div></div>","null","FEEDBACK","","","","","","","","","","",""
"html-keyboard-response","110","376334","0.0-7.0-1.15","61650ba8e42101c561bf7335","bdp_wmem","Wed Mar 15 2023 22:43:46 GMT-0400 (Eastern Daylight Time)","666414","Match,No Match","","null","","","","","","<div class='trialBorder'><div class='vertical-center'><img src='img/fixation2_sml.jpg'</img></div></div>","null","FIX","","","","","","","","","","",""
"html-keyboard-response","111","380837","0.0-7.0-2.15","61650ba8e42101c561bf7335","bdp_wmem","Wed Mar 15 2023 22:43:46 GMT-0400 (Eastern Daylight Time)","666414","Match,No Match","","null","","","","","","<div class='trialBorder'><div class='vertical-center'><img style='vertical-align:center; align:center' src='img/fixation2_sml.jpg'></div><div class='arrayDiv3'><div class='tl'><img class='introPic' src='trustrating_stim/white_mw085.bmp'><br><font color='green'><strong>Share</strong></font></div><div class='tc'><img class='introPic' src='trustrating_stim/white_mw003.bmp'><br><font color='red'><strong>Keep</strong></font></div><div class='tr'><img class='introPic' src='trustrating_stim/white_mw078.bmp'><br><font color='red'><strong>Keep</strong></font></div></div></div>","null","ARRAY","3","trustrating_stim/white_mw085.bmp,trustrating_stim/white_mw003.bmp,trustrating_stim/white_mw078.bmp","1,0,0","noMatchOutcome","i","4500","","","","",""
"html-keyboard-response","112","384839","0.0-7.0-3.15","61650ba8e42101c561bf7335","bdp_wmem","Wed Mar 15 2023 22:43:46 GMT-0400 (Eastern Daylight Time)","666414","Match,No Match","","null","","","","","","<div class='trialBorder'><div class='vertical-center'><img src='img/fixation2_sml.jpg'</img></div></div>","null","DELAY","","","","","","","","","","",""
"html-keyboard-response","113","385994","0.0-7.0-4.15","61650ba8e42101c561bf7335","bdp_wmem","Wed Mar 15 2023 22:43:46 GMT-0400 (Eastern Daylight Time)","666414","Match,No Match","","1153","","","","","","<div class='trialBorder'><div class='targDiv'><div class='tc'><img class='introPic' src='trustrating_stim/white_mw078.bmp'><br><font color='green'><strong>Share</strong></font></div></div><div class='respDiv'><div class='respDivL'>Match<br>(e)</div><div class='respDivR'>No Match<br>(i)</div></div></div>","i","TARGET","3","trustrating_stim/white_mw085.bmp,trustrating_stim/white_mw003.bmp,trustrating_stim/white_mw078.bmp","1,0,0","noMatchOutcome","i","4500","trustrating_stim/white_mw078.bmp","green","Share","REAL","1"
"html-keyboard-response","114","386496","0.0-7.0-5.15","61650ba8e42101c561bf7335","bdp_wmem","Wed Mar 15 2023 22:43:46 GMT-0400 (Eastern Daylight Time)","666414","Match,No Match","","null","","","","","","<div class='trialBorder'><div class='vertical-center'><img src='img/correct.jpg'></div><div class='respDiv'><div class='respDivL'>Match<br>(e)</div><div class='respDivR'><font style='color:orange'>No Match<br>(i)</font></div></div></div>","null","FEEDBACK","","","","","","","","","","",""
"html-keyboard-response","115","386997","0.0-7.0-1.16","61650ba8e42101c561bf7335","bdp_wmem","Wed Mar 15 2023 22:43:46 GMT-0400 (Eastern Daylight Time)","666414","Match,No Match","","null","","","","","","<div class='trialBorder'><div class='vertical-center'><img src='img/fixation2_sml.jpg'</img></div></div>","null","FIX","","","","","","","","","","",""
"html-keyboard-response","116","389999","0.0-7.0-2.16","61650ba8e42101c561bf7335","bdp_wmem","Wed Mar 15 2023 22:43:46 GMT-0400 (Eastern Daylight Time)","666414","Match,No Match","","null","","","","","","<div class='trialBorder'><div class='vertical-center'><img style='vertical-align:center; align:center' src='img/fixation2_sml.jpg'></div><div class='arrayDiv2'><div class='tl'><img class='introPic' src='trustrating_stim/white_mw012.bmp'><br><font color='green'><strong>Share</strong></font></div><div class='tr'><img class='introPic' src='trustrating_stim/white_mw010.bmp'><br><font color='red'><strong>Keep</strong></font></div></div></div>","null","ARRAY","2","trustrating_stim/white_mw012.bmp,trustrating_stim/white_mw010.bmp","1,0","Match","e","3000","","","","",""
"html-keyboard-response","117","394002","0.0-7.0-3.16","61650ba8e42101c561bf7335","bdp_wmem","Wed Mar 15 2023 22:43:46 GMT-0400 (Eastern Daylight Time)","666414","Match,No Match","","null","","","","","","<div class='trialBorder'><div class='vertical-center'><img src='img/fixation2_sml.jpg'</img></div></div>","null","DELAY","","","","","","","","","","",""
"html-keyboard-response","118","395748","0.0-7.0-4.16","61650ba8e42101c561bf7335","bdp_wmem","Wed Mar 15 2023 22:43:46 GMT-0400 (Eastern Daylight Time)","666414","Match,No Match","","1745","","","","","","<div class='trialBorder'><div class='targDiv'><div class='tc'><img class='introPic' src='trustrating_stim/white_mw010.bmp'><br><font color='red'><strong>Keep</strong></font></div></div><div class='respDiv'><div class='respDivL'>Match<br>(e)</div><div class='respDivR'>No Match<br>(i)</div></div></div>","e","TARGET","2","trustrating_stim/white_mw012.bmp,trustrating_stim/white_mw010.bmp","1,0","Match","e","3000","trustrating_stim/white_mw010.bmp","red","Keep","REAL","1"
"html-keyboard-response","119","396251","0.0-7.0-5.16","61650ba8e42101c561bf7335","bdp_wmem","Wed Mar 15 2023 22:43:46 GMT-0400 (Eastern Daylight Time)","666414","Match,No Match","","null","","","","","","<div class='trialBorder'><div class='vertical-center'><img src='img/correct.jpg'></div><div class='respDiv'><div class='respDivL'><font style='color:orange'>Match<br>(e)</font></div><div class='respDivR'>No Match<br>(i)</div></div></div>","null","FEEDBACK","","","","","","","","","","",""
"html-keyboard-response","120","396753","0.0-7.0-1.17","61650ba8e42101c561bf7335","bdp_wmem","Wed Mar 15 2023 22:43:46 GMT-0400 (Eastern Daylight Time)","666414","Match,No Match","","null","","","","","","<div class='trialBorder'><div class='vertical-center'><img src='img/fixation2_sml.jpg'</img></div></div>","null","FIX","","","","","","","","","","",""
"html-keyboard-response","121","398256","0.0-7.0-2.17","61650ba8e42101c561bf7335","bdp_wmem","Wed Mar 15 2023 22:43:46 GMT-0400 (Eastern Daylight Time)","666414","Match,No Match","","null","","","","","","<div class='trialBorder'><div class='vertical-center'><img style='vertical-align:center; align:center' src='img/fixation2_sml.jpg'></div><div class='arrayDiv1'><div class='tc'><img class='introPic' src='trustrating_stim/white_mw012.bmp'><br><font color='green'><strong>Share</strong></font></div></div></div>","null","ARRAY","1","trustrating_stim/white_mw012.bmp","1","Match","e","1500","","","","",""
"html-keyboard-response","122","402258","0.0-7.0-3.17","61650ba8e42101c561bf7335","bdp_wmem","Wed Mar 15 2023 22:43:46 GMT-0400 (Eastern Daylight Time)","666414","Match,No Match","","null","","","","","","<div class='trialBorder'><div class='vertical-center'><img src='img/fixation2_sml.jpg'</img></div></div>","null","DELAY","","","","","","","","","","",""
"html-keyboard-response","123","402790","0.0-7.0-4.17","61650ba8e42101c561bf7335","bdp_wmem","Wed Mar 15 2023 22:43:46 GMT-0400 (Eastern Daylight Time)","666414","Match,No Match","","529","","","","","","<div class='trialBorder'><div class='targDiv'><div class='tc'><img class='introPic' src='trustrating_stim/white_mw012.bmp'><br><font color='green'><strong>Share</strong></font></div></div><div class='respDiv'><div class='respDivL'>Match<br>(e)</div><div class='respDivR'>No Match<br>(i)</div></div></div>","e","TARGET","1","trustrating_stim/white_mw012.bmp","1","Match","e","1500","trustrating_stim/white_mw012.bmp","green","Share","REAL","1"
"html-keyboard-response","124","403292","0.0-7.0-5.17","61650ba8e42101c561bf7335","bdp_wmem","Wed Mar 15 2023 22:43:46 GMT-0400 (Eastern Daylight Time)","666414","Match,No Match","","null","","","","","","<div class='trialBorder'><div class='vertical-center'><img src='img/correct.jpg'></div><div class='respDiv'><div class='respDivL'><font style='color:orange'>Match<br>(e)</font></div><div class='respDivR'>No Match<br>(i)</div></div></div>","null","FEEDBACK","","","","","","","","","","",""
"html-keyboard-response","125","403794","0.0-7.0-1.18","61650ba8e42101c561bf7335","bdp_wmem","Wed Mar 15 2023 22:43:46 GMT-0400 (Eastern Daylight Time)","666414","Match,No Match","","null","","","","","","<div class='trialBorder'><div class='vertical-center'><img src='img/fixation2_sml.jpg'</img></div></div>","null","FIX","","","","","","","","","","",""
"html-keyboard-response","126","406797","0.0-7.0-2.18","61650ba8e42101c561bf7335","bdp_wmem","Wed Mar 15 2023 22:43:46 GMT-0400 (Eastern Daylight Time)","666414","Match,No Match","","null","","","","","","<div class='trialBorder'><div class='vertical-center'><img style='vertical-align:center; align:center' src='img/fixation2_sml.jpg'></div><div class='arrayDiv2'><div class='tl'><img class='introPic' src='trustrating_stim/white_mw003.bmp'><br><font color='green'><strong>Share</strong></font></div><div class='tr'><img class='introPic' src='trustrating_stim/white_mw013.bmp'><br><font color='red'><strong>Keep</strong></font></div></div></div>","null","ARRAY","2","trustrating_stim/white_mw003.bmp,trustrating_stim/white_mw013.bmp","1,0","noMatchFace","i","3000","","","","",""
"html-keyboard-response","127","410799","0.0-7.0-3.18","61650ba8e42101c561bf7335","bdp_wmem","Wed Mar 15 2023 22:43:46 GMT-0400 (Eastern Daylight Time)","666414","Match,No Match","","null","","","","","","<div class='trialBorder'><div class='vertical-center'><img src='img/fixation2_sml.jpg'</img></div></div>","null","DELAY","","","","","","","","","","",""
"html-keyboard-response","128","411799","0.0-7.0-4.18","61650ba8e42101c561bf7335","bdp_wmem","Wed Mar 15 2023 22:43:46 GMT-0400 (Eastern Daylight Time)","666414","Match,No Match","","998","","","","","","<div class='trialBorder'><div class='targDiv'><div class='tc'><img class='introPic' src='trustrating_stim/white_mw010.bmp'><br><font color='red'><strong>Keep</strong></font></div></div><div class='respDiv'><div class='respDivL'>Match<br>(e)</div><div class='respDivR'>No Match<br>(i)</div></div></div>","i","TARGET","2","trustrating_stim/white_mw003.bmp,trustrating_stim/white_mw013.bmp","1,0","noMatchFace","i","3000","trustrating_stim/white_mw010.bmp","red","Keep","REAL","1"
"html-keyboard-response","129","412302","0.0-7.0-5.18","61650ba8e42101c561bf7335","bdp_wmem","Wed Mar 15 2023 22:43:46 GMT-0400 (Eastern Daylight Time)","666414","Match,No Match","","null","","","","","","<div class='trialBorder'><div class='vertical-center'><img src='img/correct.jpg'></div><div class='respDiv'><div class='respDivL'>Match<br>(e)</div><div class='respDivR'><font style='color:orange'>No Match<br>(i)</font></div></div></div>","null","FEEDBACK","","","","","","","","","","",""
"html-keyboard-response","130","412804","0.0-7.0-1.19","61650ba8e42101c561bf7335","bdp_wmem","Wed Mar 15 2023 22:43:46 GMT-0400 (Eastern Daylight Time)","666414","Match,No Match","","null","","","","","","<div class='trialBorder'><div class='vertical-center'><img src='img/fixation2_sml.jpg'</img></div></div>","null","FIX","","","","","","","","","","",""
"html-keyboard-response","131","414307","0.0-7.0-2.19","61650ba8e42101c561bf7335","bdp_wmem","Wed Mar 15 2023 22:43:46 GMT-0400 (Eastern Daylight Time)","666414","Match,No Match","","null","","","","","","<div class='trialBorder'><div class='vertical-center'><img style='vertical-align:center; align:center' src='img/fixation2_sml.jpg'></div><div class='arrayDiv1'><div class='tc'><img class='introPic' src='trustrating_stim/white_mw078.bmp'><br><font color='green'><strong>Share</strong></font></div></div></div>","null","ARRAY","1","trustrating_stim/white_mw078.bmp","1","noMatchFace","i","1500","","","","",""
"html-keyboard-response","132","418309","0.0-7.0-3.19","61650ba8e42101c561bf7335","bdp_wmem","Wed Mar 15 2023 22:43:46 GMT-0400 (Eastern Daylight Time)","666414","Match,No Match","","null","","","","","","<div class='trialBorder'><div class='vertical-center'><img src='img/fixation2_sml.jpg'</img></div></div>","null","DELAY","","","","","","","","","","",""
"html-keyboard-response","133","418925","0.0-7.0-4.19","61650ba8e42101c561bf7335","bdp_wmem","Wed Mar 15 2023 22:43:46 GMT-0400 (Eastern Daylight Time)","666414","Match,No Match","","614","","","","","","<div class='trialBorder'><div class='targDiv'><div class='tc'><img class='introPic' src='trustrating_stim/white_mw010.bmp'><br><font color='green'><strong>Share</strong></font></div></div><div class='respDiv'><div class='respDivL'>Match<br>(e)</div><div class='respDivR'>No Match<br>(i)</div></div></div>","i","TARGET","1","trustrating_stim/white_mw078.bmp","1","noMatchFace","i","1500","trustrating_stim/white_mw010.bmp","green","Share","REAL","1"
"html-keyboard-response","134","419428","0.0-7.0-5.19","61650ba8e42101c561bf7335","bdp_wmem","Wed Mar 15 2023 22:43:46 GMT-0400 (Eastern Daylight Time)","666414","Match,No Match","","null","","","","","","<div class='trialBorder'><div class='vertical-center'><img src='img/correct.jpg'></div><div class='respDiv'><div class='respDivL'>Match<br>(e)</div><div class='respDivR'><font style='color:orange'>No Match<br>(i)</font></div></div></div>","null","FEEDBACK","","","","","","","","","","",""
"html-keyboard-response","135","419930","0.0-7.0-1.20","61650ba8e42101c561bf7335","bdp_wmem","Wed Mar 15 2023 22:43:46 GMT-0400 (Eastern Daylight Time)","666414","Match,No Match","","null","","","","","","<div class='trialBorder'><div class='vertical-center'><img src='img/fixation2_sml.jpg'</img></div></div>","null","FIX","","","","","","","","","","",""
"html-keyboard-response","136","424432","0.0-7.0-2.20","61650ba8e42101c561bf7335","bdp_wmem","Wed Mar 15 2023 22:43:46 GMT-0400 (Eastern Daylight Time)","666414","Match,No Match","","null","","","","","","<div class='trialBorder'><div class='vertical-center'><img style='vertical-align:center; align:center' src='img/fixation2_sml.jpg'></div><div class='arrayDiv3'><div class='tl'><img class='introPic' src='trustrating_stim/white_mw091.bmp'><br><font color='red'><strong>Keep</strong></font></div><div class='tc'><img class='introPic' src='trustrating_stim/white_mw092.bmp'><br><font color='red'><strong>Keep</strong></font></div><div class='tr'><img class='introPic' src='trustrating_stim/white_mw078.bmp'><br><font color='green'><strong>Share</strong></font></div></div></div>","null","ARRAY","3","trustrating_stim/white_mw091.bmp,trustrating_stim/white_mw092.bmp,trustrating_stim/white_mw078.bmp","0,0,1","Match","e","4500","","","","",""
"html-keyboard-response","137","428434","0.0-7.0-3.20","61650ba8e42101c561bf7335","bdp_wmem","Wed Mar 15 2023 22:43:46 GMT-0400 (Eastern Daylight Time)","666414","Match,No Match","","null","","","","","","<div class='trialBorder'><div class='vertical-center'><img src='img/fixation2_sml.jpg'</img></div></div>","null","DELAY","","","","","","","","","","",""
"html-keyboard-response","138","429859","0.0-7.0-4.20","61650ba8e42101c561bf7335","bdp_wmem","Wed Mar 15 2023 22:43:46 GMT-0400 (Eastern Daylight Time)","666414","Match,No Match","","1423","","","","","","<div class='trialBorder'><div class='targDiv'><div class='tc'><img class='introPic' src='trustrating_stim/white_mw092.bmp'><br><font color='red'><strong>Keep</strong></font></div></div><div class='respDiv'><div class='respDivL'>Match<br>(e)</div><div class='respDivR'>No Match<br>(i)</div></div></div>","e","TARGET","3","trustrating_stim/white_mw091.bmp,trustrating_stim/white_mw092.bmp,trustrating_stim/white_mw078.bmp","0,0,1","Match","e","4500","trustrating_stim/white_mw092.bmp","red","Keep","REAL","1"
"html-keyboard-response","139","430362","0.0-7.0-5.20","61650ba8e42101c561bf7335","bdp_wmem","Wed Mar 15 2023 22:43:46 GMT-0400 (Eastern Daylight Time)","666414","Match,No Match","","null","","","","","","<div class='trialBorder'><div class='vertical-center'><img src='img/correct.jpg'></div><div class='respDiv'><div class='respDivL'><font style='color:orange'>Match<br>(e)</font></div><div class='respDivR'>No Match<br>(i)</div></div></div>","null","FEEDBACK","","","","","","","","","","",""
"html-keyboard-response","140","430863","0.0-7.0-1.21","61650ba8e42101c561bf7335","bdp_wmem","Wed Mar 15 2023 22:43:46 GMT-0400 (Eastern Daylight Time)","666414","Match,No Match","","null","","","","","","<div class='trialBorder'><div class='vertical-center'><img src='img/fixation2_sml.jpg'</img></div></div>","null","FIX","","","","","","","","","","",""
"html-keyboard-response","141","432367","0.0-7.0-2.21","61650ba8e42101c561bf7335","bdp_wmem","Wed Mar 15 2023 22:43:46 GMT-0400 (Eastern Daylight Time)","666414","Match,No Match","","null","","","","","","<div class='trialBorder'><div class='vertical-center'><img style='vertical-align:center; align:center' src='img/fixation2_sml.jpg'></div><div class='arrayDiv1'><div class='tc'><img class='introPic' src='trustrating_stim/white_mw070.bmp'><br><font color='green'><strong>Share</strong></font></div></div></div>","null","ARRAY","1","trustrating_stim/white_mw070.bmp","1","noMatchFace","i","1500","","","","",""
"html-keyboard-response","142","436369","0.0-7.0-3.21","61650ba8e42101c561bf7335","bdp_wmem","Wed Mar 15 2023 22:43:46 GMT-0400 (Eastern Daylight Time)","666414","Match,No Match","","null","","","","","","<div class='trialBorder'><div class='vertical-center'><img src='img/fixation2_sml.jpg'</img></div></div>","null","DELAY","","","","","","","","","","",""
"html-keyboard-response","143","436971","0.0-7.0-4.21","61650ba8e42101c561bf7335","bdp_wmem","Wed Mar 15 2023 22:43:46 GMT-0400 (Eastern Daylight Time)","666414","Match,No Match","","600","","","","","","<div class='trialBorder'><div class='targDiv'><div class='tc'><img class='introPic' src='trustrating_stim/white_mw012.bmp'><br><font color='green'><strong>Share</strong></font></div></div><div class='respDiv'><div class='respDivL'>Match<br>(e)</div><div class='respDivR'>No Match<br>(i)</div></div></div>","i","TARGET","1","trustrating_stim/white_mw070.bmp","1","noMatchFace","i","1500","trustrating_stim/white_mw012.bmp","green","Share","REAL","1"
"html-keyboard-response","144","437473","0.0-7.0-5.21","61650ba8e42101c561bf7335","bdp_wmem","Wed Mar 15 2023 22:43:46 GMT-0400 (Eastern Daylight Time)","666414","Match,No Match","","null","","","","","","<div class='trialBorder'><div class='vertical-center'><img src='img/correct.jpg'></div><div class='respDiv'><div class='respDivL'>Match<br>(e)</div><div class='respDivR'><font style='color:orange'>No Match<br>(i)</font></div></div></div>","null","FEEDBACK","","","","","","","","","","",""
"html-keyboard-response","145","437975","0.0-7.0-1.22","61650ba8e42101c561bf7335","bdp_wmem","Wed Mar 15 2023 22:43:46 GMT-0400 (Eastern Daylight Time)","666414","Match,No Match","","null","","","","","","<div class='trialBorder'><div class='vertical-center'><img src='img/fixation2_sml.jpg'</img></div></div>","null","FIX","","","","","","","","","","",""
"html-keyboard-response","146","440977","0.0-7.0-2.22","61650ba8e42101c561bf7335","bdp_wmem","Wed Mar 15 2023 22:43:46 GMT-0400 (Eastern Daylight Time)","666414","Match,No Match","","null","","","","","","<div class='trialBorder'><div class='vertical-center'><img style='vertical-align:center; align:center' src='img/fixation2_sml.jpg'></div><div class='arrayDiv2'><div class='tl'><img class='introPic' src='trustrating_stim/white_mw012.bmp'><br><font color='green'><strong>Share</strong></font></div><div class='tr'><img class='introPic' src='trustrating_stim/white_mw040.bmp'><br><font color='red'><strong>Keep</strong></font></div></div></div>","null","ARRAY","2","trustrating_stim/white_mw012.bmp,trustrating_stim/white_mw040.bmp","1,0","noMatchFace","i","3000","","","","",""
"html-keyboard-response","147","444979","0.0-7.0-3.22","61650ba8e42101c561bf7335","bdp_wmem","Wed Mar 15 2023 22:43:46 GMT-0400 (Eastern Daylight Time)","666414","Match,No Match","","null","","","","","","<div class='trialBorder'><div class='vertical-center'><img src='img/fixation2_sml.jpg'</img></div></div>","null","DELAY","","","","","","","","","","",""
"html-keyboard-response","148","446256","0.0-7.0-4.22","61650ba8e42101c561bf7335","bdp_wmem","Wed Mar 15 2023 22:43:46 GMT-0400 (Eastern Daylight Time)","666414","Match,No Match","","1273","","","","","","<div class='trialBorder'><div class='targDiv'><div class='tc'><img class='introPic' src='trustrating_stim/white_mw038.bmp'><br><font color='green'><strong>Share</strong></font></div></div><div class='respDiv'><div class='respDivL'>Match<br>(e)</div><div class='respDivR'>No Match<br>(i)</div></div></div>","i","TARGET","2","trustrating_stim/white_mw012.bmp,trustrating_stim/white_mw040.bmp","1,0","noMatchFace","i","3000","trustrating_stim/white_mw038.bmp","green","Share","REAL","1"
"html-keyboard-response","149","446757","0.0-7.0-5.22","61650ba8e42101c561bf7335","bdp_wmem","Wed Mar 15 2023 22:43:46 GMT-0400 (Eastern Daylight Time)","666414","Match,No Match","","null","","","","","","<div class='trialBorder'><div class='vertical-center'><img src='img/correct.jpg'></div><div class='respDiv'><div class='respDivL'>Match<br>(e)</div><div class='respDivR'><font style='color:orange'>No Match<br>(i)</font></div></div></div>","null","FEEDBACK","","","","","","","","","","",""
"html-keyboard-response","150","447259","0.0-7.0-1.23","61650ba8e42101c561bf7335","bdp_wmem","Wed Mar 15 2023 22:43:46 GMT-0400 (Eastern Daylight Time)","666414","Match,No Match","","null","","","","","","<div class='trialBorder'><div class='vertical-center'><img src='img/fixation2_sml.jpg'</img></div></div>","null","FIX","","","","","","","","","","",""
"html-keyboard-response","151","450261","0.0-7.0-2.23","61650ba8e42101c561bf7335","bdp_wmem","Wed Mar 15 2023 22:43:46 GMT-0400 (Eastern Daylight Time)","666414","Match,No Match","","null","","","","","","<div class='trialBorder'><div class='vertical-center'><img style='vertical-align:center; align:center' src='img/fixation2_sml.jpg'></div><div class='arrayDiv2'><div class='tl'><img class='introPic' src='trustrating_stim/white_mw013.bmp'><br><font color='red'><strong>Keep</strong></font></div><div class='tr'><img class='introPic' src='trustrating_stim/white_mw038.bmp'><br><font color='green'><strong>Share</strong></font></div></div></div>","null","ARRAY","2","trustrating_stim/white_mw013.bmp,trustrating_stim/white_mw038.bmp","0,1","noMatchFace","i","3000","","","","",""
"html-keyboard-response","152","454262","0.0-7.0-3.23","61650ba8e42101c561bf7335","bdp_wmem","Wed Mar 15 2023 22:43:46 GMT-0400 (Eastern Daylight Time)","666414","Match,No Match","","null","","","","","","<div class='trialBorder'><div class='vertical-center'><img src='img/fixation2_sml.jpg'</img></div></div>","null","DELAY","","","","","","","","","","",""
"html-keyboard-response","153","455116","0.0-7.0-4.23","61650ba8e42101c561bf7335","bdp_wmem","Wed Mar 15 2023 22:43:46 GMT-0400 (Eastern Daylight Time)","666414","Match,No Match","","851","","","","","","<div class='trialBorder'><div class='targDiv'><div class='tc'><img class='introPic' src='trustrating_stim/white_mw042.bmp'><br><font color='green'><strong>Share</strong></font></div></div><div class='respDiv'><div class='respDivL'>Match<br>(e)</div><div class='respDivR'>No Match<br>(i)</div></div></div>","i","TARGET","2","trustrating_stim/white_mw013.bmp,trustrating_stim/white_mw038.bmp","0,1","noMatchFace","i","3000","trustrating_stim/white_mw042.bmp","green","Share","REAL","1"
"html-keyboard-response","154","455618","0.0-7.0-5.23","61650ba8e42101c561bf7335","bdp_wmem","Wed Mar 15 2023 22:43:46 GMT-0400 (Eastern Daylight Time)","666414","Match,No Match","","null","","","","","","<div class='trialBorder'><div class='vertical-center'><img src='img/correct.jpg'></div><div class='respDiv'><div class='respDivL'>Match<br>(e)</div><div class='respDivR'><font style='color:orange'>No Match<br>(i)</font></div></div></div>","null","FEEDBACK","","","","","","","","","","",""
"html-keyboard-response","155","456120","0.0-7.0-1.24","61650ba8e42101c561bf7335","bdp_wmem","Wed Mar 15 2023 22:43:46 GMT-0400 (Eastern Daylight Time)","666414","Match,No Match","","null","","","","","","<div class='trialBorder'><div class='vertical-center'><img src='img/fixation2_sml.jpg'</img></div></div>","null","FIX","","","","","","","","","","",""
"html-keyboard-response","156","460624","0.0-7.0-2.24","61650ba8e42101c561bf7335","bdp_wmem","Wed Mar 15 2023 22:43:46 GMT-0400 (Eastern Daylight Time)","666414","Match,No Match","","null","","","","","","<div class='trialBorder'><div class='vertical-center'><img style='vertical-align:center; align:center' src='img/fixation2_sml.jpg'></div><div class='arrayDiv3'><div class='tl'><img class='introPic' src='trustrating_stim/white_mw013.bmp'><br><font color='red'><strong>Keep</strong></font></div><div class='tc'><img class='introPic' src='trustrating_stim/white_mw092.bmp'><br><font color='green'><strong>Share</strong></font></div><div class='tr'><img class='introPic' src='trustrating_stim/white_mw091.bmp'><br><font color='green'><strong>Share</strong></font></div></div></div>","null","ARRAY","3","trustrating_stim/white_mw013.bmp,trustrating_stim/white_mw092.bmp,trustrating_stim/white_mw091.bmp","0,1,1","Match","e","4500","","","","",""
"html-keyboard-response","157","464627","0.0-7.0-3.24","61650ba8e42101c561bf7335","bdp_wmem","Wed Mar 15 2023 22:43:46 GMT-0400 (Eastern Daylight Time)","666414","Match,No Match","","null","","","","","","<div class='trialBorder'><div class='vertical-center'><img src='img/fixation2_sml.jpg'</img></div></div>","null","DELAY","","","","","","","","","","",""
"html-keyboard-response","158","465669","0.0-7.0-4.24","61650ba8e42101c561bf7335","bdp_wmem","Wed Mar 15 2023 22:43:46 GMT-0400 (Eastern Daylight Time)","666414","Match,No Match","","1039","","","","","","<div class='trialBorder'><div class='targDiv'><div class='tc'><img class='introPic' src='trustrating_stim/white_mw091.bmp'><br><font color='green'><strong>Share</strong></font></div></div><div class='respDiv'><div class='respDivL'>Match<br>(e)</div><div class='respDivR'>No Match<br>(i)</div></div></div>","i","TARGET","3","trustrating_stim/white_mw013.bmp,trustrating_stim/white_mw092.bmp,trustrating_stim/white_mw091.bmp","0,1,1","Match","e","4500","trustrating_stim/white_mw091.bmp","green","Share","REAL","0"
"html-keyboard-response","159","466172","0.0-7.0-5.24","61650ba8e42101c561bf7335","bdp_wmem","Wed Mar 15 2023 22:43:46 GMT-0400 (Eastern Daylight Time)","666414","Match,No Match","","null","","","","","","<div class='trialBorder'><div class='vertical-center'><img src='img/error.jpg'></div><div class='respDiv'><div class='respDivL'>Match<br>(e)</div><div class='respDivR'><font style='color:orange'>No Match<br>(i)</font></div></div></div>","null","FEEDBACK","","","","","","","","","","",""
"html-keyboard-response","160","466674","0.0-7.0-1.25","61650ba8e42101c561bf7335","bdp_wmem","Wed Mar 15 2023 22:43:46 GMT-0400 (Eastern Daylight Time)","666414","Match,No Match","","null","","","","","","<div class='trialBorder'><div class='vertical-center'><img src='img/fixation2_sml.jpg'</img></div></div>","null","FIX","","","","","","","","","","",""
"html-keyboard-response","161","469679","0.0-7.0-2.25","61650ba8e42101c561bf7335","bdp_wmem","Wed Mar 15 2023 22:43:46 GMT-0400 (Eastern Daylight Time)","666414","Match,No Match","","null","","","","","","<div class='trialBorder'><div class='vertical-center'><img style='vertical-align:center; align:center' src='img/fixation2_sml.jpg'></div><div class='arrayDiv2'><div class='tl'><img class='introPic' src='trustrating_stim/white_mw038.bmp'><br><font color='green'><strong>Share</strong></font></div><div class='tr'><img class='introPic' src='trustrating_stim/white_mw040.bmp'><br><font color='red'><strong>Keep</strong></font></div></div></div>","null","ARRAY","2","trustrating_stim/white_mw038.bmp,trustrating_stim/white_mw040.bmp","1,0","noMatchOutcome","i","3000","","","","",""
"html-keyboard-response","162","473681","0.0-7.0-3.25","61650ba8e42101c561bf7335","bdp_wmem","Wed Mar 15 2023 22:43:46 GMT-0400 (Eastern Daylight Time)","666414","Match,No Match","","null","","","","","","<div class='trialBorder'><div class='vertical-center'><img src='img/fixation2_sml.jpg'</img></div></div>","null","DELAY","","","","","","","","","","",""
"html-keyboard-response","163","474756","0.0-7.0-4.25","61650ba8e42101c561bf7335","bdp_wmem","Wed Mar 15 2023 22:43:46 GMT-0400 (Eastern Daylight Time)","666414","Match,No Match","","1074","","","","","","<div class='trialBorder'><div class='targDiv'><div class='tc'><img class='introPic' src='trustrating_stim/white_mw040.bmp'><br><font color='green'><strong>Share</strong></font></div></div><div class='respDiv'><div class='respDivL'>Match<br>(e)</div><div class='respDivR'>No Match<br>(i)</div></div></div>","e","TARGET","2","trustrating_stim/white_mw038.bmp,trustrating_stim/white_mw040.bmp","1,0","noMatchOutcome","i","3000","trustrating_stim/white_mw040.bmp","green","Share","REAL","0"
"html-keyboard-response","164","475258","0.0-7.0-5.25","61650ba8e42101c561bf7335","bdp_wmem","Wed Mar 15 2023 22:43:46 GMT-0400 (Eastern Daylight Time)","666414","Match,No Match","","null","","","","","","<div class='trialBorder'><div class='vertical-center'><img src='img/error.jpg'></div><div class='respDiv'><div class='respDivL'><font style='color:orange'>Match<br>(e)</font></div><div class='respDivR'>No Match<br>(i)</div></div></div>","null","FEEDBACK","","","","","","","","","","",""
"html-keyboard-response","165","475760","0.0-7.0-1.26","61650ba8e42101c561bf7335","bdp_wmem","Wed Mar 15 2023 22:43:46 GMT-0400 (Eastern Daylight Time)","666414","Match,No Match","","null","","","","","","<div class='trialBorder'><div class='vertical-center'><img src='img/fixation2_sml.jpg'</img></div></div>","null","FIX","","","","","","","","","","",""
"html-keyboard-response","166","477264","0.0-7.0-2.26","61650ba8e42101c561bf7335","bdp_wmem","Wed Mar 15 2023 22:43:46 GMT-0400 (Eastern Daylight Time)","666414","Match,No Match","","null","","","","","","<div class='trialBorder'><div class='vertical-center'><img style='vertical-align:center; align:center' src='img/fixation2_sml.jpg'></div><div class='arrayDiv1'><div class='tc'><img class='introPic' src='trustrating_stim/white_mw038.bmp'><br><font color='red'><strong>Keep</strong></font></div></div></div>","null","ARRAY","1","trustrating_stim/white_mw038.bmp","0","noMatchOutcome","i","1500","","","","",""
"html-keyboard-response","167","481265","0.0-7.0-3.26","61650ba8e42101c561bf7335","bdp_wmem","Wed Mar 15 2023 22:43:46 GMT-0400 (Eastern Daylight Time)","666414","Match,No Match","","null","","","","","","<div class='trialBorder'><div class='vertical-center'><img src='img/fixation2_sml.jpg'</img></div></div>","null","DELAY","","","","","","","","","","",""
"html-keyboard-response","168","483756","0.0-7.0-4.26","61650ba8e42101c561bf7335","bdp_wmem","Wed Mar 15 2023 22:43:46 GMT-0400 (Eastern Daylight Time)","666414","Match,No Match","","2488","","","","","","<div class='trialBorder'><div class='targDiv'><div class='tc'><img class='introPic' src='trustrating_stim/white_mw038.bmp'><br><font color='green'><strong>Share</strong></font></div></div><div class='respDiv'><div class='respDivL'>Match<br>(e)</div><div class='respDivR'>No Match<br>(i)</div></div></div>","i","TARGET","1","trustrating_stim/white_mw038.bmp","0","noMatchOutcome","i","1500","trustrating_stim/white_mw038.bmp","green","Share","REAL","1"
"html-keyboard-response","169","484259","0.0-7.0-5.26","61650ba8e42101c561bf7335","bdp_wmem","Wed Mar 15 2023 22:43:46 GMT-0400 (Eastern Daylight Time)","666414","Match,No Match","","null","","","","","","<div class='trialBorder'><div class='vertical-center'><img src='img/correct.jpg'></div><div class='respDiv'><div class='respDivL'>Match<br>(e)</div><div class='respDivR'><font style='color:orange'>No Match<br>(i)</font></div></div></div>","null","FEEDBACK","","","","","","","","","","",""
"html-keyboard-response","170","484761","0.0-7.0-1.27","61650ba8e42101c561bf7335","bdp_wmem","Wed Mar 15 2023 22:43:46 GMT-0400 (Eastern Daylight Time)","666414","Match,No Match","","null","","","","","","<div class='trialBorder'><div class='vertical-center'><img src='img/fixation2_sml.jpg'</img></div></div>","null","FIX","","","","","","","","","","",""
"html-keyboard-response","171","486263","0.0-7.0-2.27","61650ba8e42101c561bf7335","bdp_wmem","Wed Mar 15 2023 22:43:46 GMT-0400 (Eastern Daylight Time)","666414","Match,No Match","","null","","","","","","<div class='trialBorder'><div class='vertical-center'><img style='vertical-align:center; align:center' src='img/fixation2_sml.jpg'></div><div class='arrayDiv1'><div class='tc'><img class='introPic' src='trustrating_stim/white_mw092.bmp'><br><font color='green'><strong>Share</strong></font></div></div></div>","null","ARRAY","1","trustrating_stim/white_mw092.bmp","1","Match","e","1500","","","","",""
"html-keyboard-response","172","490265","0.0-7.0-3.27","61650ba8e42101c561bf7335","bdp_wmem","Wed Mar 15 2023 22:43:46 GMT-0400 (Eastern Daylight Time)","666414","Match,No Match","","null","","","","","","<div class='trialBorder'><div class='vertical-center'><img src='img/fixation2_sml.jpg'</img></div></div>","null","DELAY","","","","","","","","","","",""
"html-keyboard-response","173","490951","0.0-7.0-4.27","61650ba8e42101c561bf7335","bdp_wmem","Wed Mar 15 2023 22:43:46 GMT-0400 (Eastern Daylight Time)","666414","Match,No Match","","686","","","","","","<div class='trialBorder'><div class='targDiv'><div class='tc'><img class='introPic' src='trustrating_stim/white_mw092.bmp'><br><font color='green'><strong>Share</strong></font></div></div><div class='respDiv'><div class='respDivL'>Match<br>(e)</div><div class='respDivR'>No Match<br>(i)</div></div></div>","i","TARGET","1","trustrating_stim/white_mw092.bmp","1","Match","e","1500","trustrating_stim/white_mw092.bmp","green","Share","REAL","0"
"html-keyboard-response","174","491453","0.0-7.0-5.27","61650ba8e42101c561bf7335","bdp_wmem","Wed Mar 15 2023 22:43:46 GMT-0400 (Eastern Daylight Time)","666414","Match,No Match","","null","","","","","","<div class='trialBorder'><div class='vertical-center'><img src='img/error.jpg'></div><div class='respDiv'><div class='respDivL'>Match<br>(e)</div><div class='respDivR'><font style='color:orange'>No Match<br>(i)</font></div></div></div>","null","FEEDBACK","","","","","","","","","","",""
"html-keyboard-response","175","491955","0.0-7.0-1.28","61650ba8e42101c561bf7335","bdp_wmem","Wed Mar 15 2023 22:43:46 GMT-0400 (Eastern Daylight Time)","666414","Match,No Match","","null","","","","","","<div class='trialBorder'><div class='vertical-center'><img src='img/fixation2_sml.jpg'</img></div></div>","null","FIX","","","","","","","","","","",""
"html-keyboard-response","176","494957","0.0-7.0-2.28","61650ba8e42101c561bf7335","bdp_wmem","Wed Mar 15 2023 22:43:46 GMT-0400 (Eastern Daylight Time)","666414","Match,No Match","","null","","","","","","<div class='trialBorder'><div class='vertical-center'><img style='vertical-align:center; align:center' src='img/fixation2_sml.jpg'></div><div class='arrayDiv2'><div class='tl'><img class='introPic' src='trustrating_stim/white_mw013.bmp'><br><font color='red'><strong>Keep</strong></font></div><div class='tr'><img class='introPic' src='trustrating_stim/white_mw038.bmp'><br><font color='green'><strong>Share</strong></font></div></div></div>","null","ARRAY","2","trustrating_stim/white_mw013.bmp,trustrating_stim/white_mw038.bmp","0,1","noMatchFace","i","3000","","","","",""
"html-keyboard-response","177","498959","0.0-7.0-3.28","61650ba8e42101c561bf7335","bdp_wmem","Wed Mar 15 2023 22:43:46 GMT-0400 (Eastern Daylight Time)","666414","Match,No Match","","null","","","","","","<div class='trialBorder'><div class='vertical-center'><img src='img/fixation2_sml.jpg'</img></div></div>","null","DELAY","","","","","","","","","","",""
"html-keyboard-response","178","499622","0.0-7.0-4.28","61650ba8e42101c561bf7335","bdp_wmem","Wed Mar 15 2023 22:43:46 GMT-0400 (Eastern Daylight Time)","666414","Match,No Match","","660","","","","","","<div class='trialBorder'><div class='targDiv'><div class='tc'><img class='introPic' src='trustrating_stim/white_mw091.bmp'><br><font color='green'><strong>Share</strong></font></div></div><div class='respDiv'><div class='respDivL'>Match<br>(e)</div><div class='respDivR'>No Match<br>(i)</div></div></div>","i","TARGET","2","trustrating_stim/white_mw013.bmp,trustrating_stim/white_mw038.bmp","0,1","noMatchFace","i","3000","trustrating_stim/white_mw091.bmp","green","Share","REAL","1"
"html-keyboard-response","179","500124","0.0-7.0-5.28","61650ba8e42101c561bf7335","bdp_wmem","Wed Mar 15 2023 22:43:46 GMT-0400 (Eastern Daylight Time)","666414","Match,No Match","","null","","","","","","<div class='trialBorder'><div class='vertical-center'><img src='img/correct.jpg'></div><div class='respDiv'><div class='respDivL'>Match<br>(e)</div><div class='respDivR'><font style='color:orange'>No Match<br>(i)</font></div></div></div>","null","FEEDBACK","","","","","","","","","","",""
"html-keyboard-response","180","500626","0.0-7.0-1.29","61650ba8e42101c561bf7335","bdp_wmem","Wed Mar 15 2023 22:43:46 GMT-0400 (Eastern Daylight Time)","666414","Match,No Match","","null","","","","","","<div class='trialBorder'><div class='vertical-center'><img src='img/fixation2_sml.jpg'</img></div></div>","null","FIX","","","","","","","","","","",""
"html-keyboard-response","181","505129","0.0-7.0-2.29","61650ba8e42101c561bf7335","bdp_wmem","Wed Mar 15 2023 22:43:46 GMT-0400 (Eastern Daylight Time)","666414","Match,No Match","","null","","","","","","<div class='trialBorder'><div class='vertical-center'><img style='vertical-align:center; align:center' src='img/fixation2_sml.jpg'></div><div class='arrayDiv3'><div class='tl'><img class='introPic' src='trustrating_stim/white_mw012.bmp'><br><font color='red'><strong>Keep</strong></font></div><div class='tc'><img class='introPic' src='trustrating_stim/white_mw010.bmp'><br><font color='red'><strong>Keep</strong></font></div><div class='tr'><img class='introPic' src='trustrating_stim/white_mw078.bmp'><br><font color='green'><strong>Share</strong></font></div></div></div>","null","ARRAY","3","trustrating_stim/white_mw012.bmp,trustrating_stim/white_mw010.bmp,trustrating_stim/white_mw078.bmp","0,0,1","noMatchFace","i","4500","","","","",""
"html-keyboard-response","182","509131","0.0-7.0-3.29","61650ba8e42101c561bf7335","bdp_wmem","Wed Mar 15 2023 22:43:46 GMT-0400 (Eastern Daylight Time)","666414","Match,No Match","","null","","","","","","<div class='trialBorder'><div class='vertical-center'><img src='img/fixation2_sml.jpg'</img></div></div>","null","DELAY","","","","","","","","","","",""
"html-keyboard-response","183","509836","0.0-7.0-4.29","61650ba8e42101c561bf7335","bdp_wmem","Wed Mar 15 2023 22:43:46 GMT-0400 (Eastern Daylight Time)","666414","Match,No Match","","703","","","","","","<div class='trialBorder'><div class='targDiv'><div class='tc'><img class='introPic' src='trustrating_stim/white_mw038.bmp'><br><font color='red'><strong>Keep</strong></font></div></div><div class='respDiv'><div class='respDivL'>Match<br>(e)</div><div class='respDivR'>No Match<br>(i)</div></div></div>","i","TARGET","3","trustrating_stim/white_mw012.bmp,trustrating_stim/white_mw010.bmp,trustrating_stim/white_mw078.bmp","0,0,1","noMatchFace","i","4500","trustrating_stim/white_mw038.bmp","red","Keep","REAL","1"
"html-keyboard-response","184","510339","0.0-7.0-5.29","61650ba8e42101c561bf7335","bdp_wmem","Wed Mar 15 2023 22:43:46 GMT-0400 (Eastern Daylight Time)","666414","Match,No Match","","null","","","","","","<div class='trialBorder'><div class='vertical-center'><img src='img/correct.jpg'></div><div class='respDiv'><div class='respDivL'>Match<br>(e)</div><div class='respDivR'><font style='color:orange'>No Match<br>(i)</font></div></div></div>","null","FEEDBACK","","","","","","","","","","",""
"html-keyboard-response","185","510841","0.0-7.0-1.30","61650ba8e42101c561bf7335","bdp_wmem","Wed Mar 15 2023 22:43:46 GMT-0400 (Eastern Daylight Time)","666414","Match,No Match","","null","","","","","","<div class='trialBorder'><div class='vertical-center'><img src='img/fixation2_sml.jpg'</img></div></div>","null","FIX","","","","","","","","","","",""
"html-keyboard-response","186","515344","0.0-7.0-2.30","61650ba8e42101c561bf7335","bdp_wmem","Wed Mar 15 2023 22:43:46 GMT-0400 (Eastern Daylight Time)","666414","Match,No Match","","null","","","","","","<div class='trialBorder'><div class='vertical-center'><img style='vertical-align:center; align:center' src='img/fixation2_sml.jpg'></div><div class='arrayDiv3'><div class='tl'><img class='introPic' src='trustrating_stim/white_mw078.bmp'><br><font color='red'><strong>Keep</strong></font></div><div class='tc'><img class='introPic' src='trustrating_stim/white_mw042.bmp'><br><font color='green'><strong>Share</strong></font></div><div class='tr'><img class='introPic' src='trustrating_stim/white_mw003.bmp'><br><font color='red'><strong>Keep</strong></font></div></div></div>","null","ARRAY","3","trustrating_stim/white_mw078.bmp,trustrating_stim/white_mw042.bmp,trustrating_stim/white_mw003.bmp","0,1,0","Match","e","4500","","","","",""
