"event","trial","time","trialtype","subject_id","task","startTime","totalTime","labels","numBlurs","trial_type","trial_index","time_elapsed","internal_node_id","view_history","rt","success","stimulus","key_press","stimType","arraySize","arrayFaces","arrayOutcomes","matchType","corrResp","arrayDur","targFace","targCol","targOutcome","trialType","corr"
"focus","0","0","focusevent","627ea14463f25dce42e73d51","bdp_wmem","Mon Mar 13 2023 13:59:48 GMT-0400 (Eastern Daylight Time)","1008725","Match,No Match","","","","","","","","","","","","","","","","","","","","","",""
"blur","0","0","blurevent","627ea14463f25dce42e73d51","bdp_wmem","Mon Mar 13 2023 13:59:48 GMT-0400 (Eastern Daylight Time)","1008725","Match,No Match","1","","","","","","","","","","","","","","","","","","","","",""
"","","","","627ea14463f25dce42e73d51","bdp_wmem","Mon Mar 13 2023 13:59:48 GMT-0400 (Eastern Daylight Time)","1008725","Match,No Match","","pavlovia","0","12","0.0-0.0","","","","","","","","","","","","","","","","",""
"focus","1","2100","focusevent","627ea14463f25dce42e73d51","bdp_wmem","Mon Mar 13 2023 13:59:48 GMT-0400 (Eastern Daylight Time)","1008725","Match,No Match","","","","","","","","","","","","","","","","","","","","","",""
"","","","","627ea14463f25dce42e73d51","bdp_wmem","Mon Mar 13 2023 13:59:48 GMT-0400 (Eastern Daylight Time)","1008725","Match,No Match","","instructions","1","6201","0.0-1.0","[{""page_index"":0,""viewing_time"":6185}]","6185","","","","","","","","","","","","","","",""
"fullscreenexit","2","9356","fullscreenexit","627ea14463f25dce42e73d51","bdp_wmem","Mon Mar 13 2023 13:59:48 GMT-0400 (Eastern Daylight Time)","1008725","Match,No Match","","","","","","","","","","","","","","","","","","","","","",""
"","","","","627ea14463f25dce42e73d51","bdp_wmem","Mon Mar 13 2023 13:59:48 GMT-0400 (Eastern Daylight Time)","1008725","Match,No Match","","fullscreen","2","10102","0.0-2.0","","","true","","","","","","","","","","","","","",""
"","","","fullscreenfail","627ea14463f25dce42e73d51","bdp_wmem","Mon Mar 13 2023 13:59:48 GMT-0400 (Eastern Daylight Time)","1008725","Match,No Match","","image-keyboard-response","3","60426","0.0-3.0-0.0","","50318","","","32","","","","","","","","","","","",""
"","","","","627ea14463f25dce42e73d51","bdp_wmem","Mon Mar 13 2023 13:59:48 GMT-0400 (Eastern Daylight Time)","1008725","Match,No Match","","instructions","4","431712","0.0-4.0","[{""page_index"":0,""viewing_time"":130614},{""page_index"":1,""viewing_time"":154159},{""page_index"":2,""viewing_time"":49820},{""page_index"":3,""viewing_time"":20133},{""page_index"":4,""viewing_time"":16299}]","371026","","","","","","","","","","","","","","",""
"","","","","627ea14463f25dce42e73d51","bdp_wmem","Mon Mar 13 2023 13:59:48 GMT-0400 (Eastern Daylight Time)","1008725","Match,No Match","","html-keyboard-response","5","432225","0.0-5.0-1.0","","null","","<div class='trialBorder'><div class='vertical-center'><img src='img/fixation2_sml.jpg'</img></div></div>","null","FIX","","","","","","","","","","",""
"","","","","627ea14463f25dce42e73d51","bdp_wmem","Mon Mar 13 2023 13:59:48 GMT-0400 (Eastern Daylight Time)","1008725","Match,No Match","","html-keyboard-response","6","436733","0.0-5.0-2.0","","null","","<div class='trialBorder'><div class='vertical-center'><img style='vertical-align:center; align:center' src='img/fixation2_sml.jpg'></div><div class='arrayDiv3'><div class='tl'><img class='introPic' src='trustrating_stim/white_mw070.bmp'><br><font color='green'><strong>Share</strong></font></div><div class='tc'><img class='introPic' src='trustrating_stim/white_mw042.bmp'><br><font color='red'><strong>Keep</strong></font></div><div class='tr'><img class='introPic' src='trustrating_stim/white_mw038.bmp'><br><font color='green'><strong>Share</strong></font></div></div></div>","null","ARRAY","3","trustrating_stim/white_mw070.bmp,trustrating_stim/white_mw042.bmp,trustrating_stim/white_mw038.bmp","1,0,1","Match","e","4500","","","","",""
"","","","","627ea14463f25dce42e73d51","bdp_wmem","Mon Mar 13 2023 13:59:48 GMT-0400 (Eastern Daylight Time)","1008725","Match,No Match","","html-keyboard-response","7","440739","0.0-5.0-3.0","","null","","<div class='trialBorder'><div class='vertical-center'><img src='img/fixation2_sml.jpg'</img></div></div>","null","DELAY","","","","","","","","","","",""
"","","","","627ea14463f25dce42e73d51","bdp_wmem","Mon Mar 13 2023 13:59:48 GMT-0400 (Eastern Daylight Time)","1008725","Match,No Match","","html-keyboard-response","8","443612","0.0-5.0-4.0","","2871","","<div class='trialBorder'><div class='targDiv'><div class='tc'><img class='introPic' src='trustrating_stim/white_mw070.bmp'><br><font color='green'><strong>Share</strong></font></div></div><div class='respDiv'><div class='respDivL'>Match<br>(e)</div><div class='respDivR'>No Match<br>(i)</div></div></div>","e","TARGET","3","trustrating_stim/white_mw070.bmp,trustrating_stim/white_mw042.bmp,trustrating_stim/white_mw038.bmp","1,0,1","Match","e","4500","trustrating_stim/white_mw070.bmp","green","Share","PRACTICE","1"
"","","","","627ea14463f25dce42e73d51","bdp_wmem","Mon Mar 13 2023 13:59:48 GMT-0400 (Eastern Daylight Time)","1008725","Match,No Match","","html-keyboard-response","9","444124","0.0-5.0-5.0","","null","","<div class='trialBorder'><div class='vertical-center'><img src='img/correct.jpg'></div><div class='respDiv'><div class='respDivL'><font style='color:orange'>Match<br>(e)</font></div><div class='respDivR'>No Match<br>(i)</div></div></div>","null","FEEDBACK","","","","","","","","","","",""
"","","","","627ea14463f25dce42e73d51","bdp_wmem","Mon Mar 13 2023 13:59:48 GMT-0400 (Eastern Daylight Time)","1008725","Match,No Match","","html-keyboard-response","10","444627","0.0-5.0-1.1","","null","","<div class='trialBorder'><div class='vertical-center'><img src='img/fixation2_sml.jpg'</img></div></div>","null","FIX","","","","","","","","","","",""
"","","","","627ea14463f25dce42e73d51","bdp_wmem","Mon Mar 13 2023 13:59:48 GMT-0400 (Eastern Daylight Time)","1008725","Match,No Match","","html-keyboard-response","11","447630","0.0-5.0-2.1","","null","","<div class='trialBorder'><div class='vertical-center'><img style='vertical-align:center; align:center' src='img/fixation2_sml.jpg'></div><div class='arrayDiv2'><div class='tl'><img class='introPic' src='trustrating_stim/white_mw042.bmp'><br><font color='red'><strong>Keep</strong></font></div><div class='tr'><img class='introPic' src='trustrating_stim/white_mw003.bmp'><br><font color='green'><strong>Share</strong></font></div></div></div>","null","ARRAY","2","trustrating_stim/white_mw042.bmp,trustrating_stim/white_mw003.bmp","0,1","Match","e","3000","","","","",""
"","","","","627ea14463f25dce42e73d51","bdp_wmem","Mon Mar 13 2023 13:59:48 GMT-0400 (Eastern Daylight Time)","1008725","Match,No Match","","html-keyboard-response","12","451632","0.0-5.0-3.1","","null","","<div class='trialBorder'><div class='vertical-center'><img src='img/fixation2_sml.jpg'</img></div></div>","null","DELAY","","","","","","","","","","",""
"","","","","627ea14463f25dce42e73d51","bdp_wmem","Mon Mar 13 2023 13:59:48 GMT-0400 (Eastern Daylight Time)","1008725","Match,No Match","","html-keyboard-response","13","453708","0.0-5.0-4.1","","2074","","<div class='trialBorder'><div class='targDiv'><div class='tc'><img class='introPic' src='trustrating_stim/white_mw003.bmp'><br><font color='green'><strong>Share</strong></font></div></div><div class='respDiv'><div class='respDivL'>Match<br>(e)</div><div class='respDivR'>No Match<br>(i)</div></div></div>","e","TARGET","2","trustrating_stim/white_mw042.bmp,trustrating_stim/white_mw003.bmp","0,1","Match","e","3000","trustrating_stim/white_mw003.bmp","green","Share","PRACTICE","1"
"","","","","627ea14463f25dce42e73d51","bdp_wmem","Mon Mar 13 2023 13:59:48 GMT-0400 (Eastern Daylight Time)","1008725","Match,No Match","","html-keyboard-response","14","454221","0.0-5.0-5.1","","null","","<div class='trialBorder'><div class='vertical-center'><img src='img/correct.jpg'></div><div class='respDiv'><div class='respDivL'><font style='color:orange'>Match<br>(e)</font></div><div class='respDivR'>No Match<br>(i)</div></div></div>","null","FEEDBACK","","","","","","","","","","",""
"","","","","627ea14463f25dce42e73d51","bdp_wmem","Mon Mar 13 2023 13:59:48 GMT-0400 (Eastern Daylight Time)","1008725","Match,No Match","","html-keyboard-response","15","454722","0.0-5.0-1.2","","null","","<div class='trialBorder'><div class='vertical-center'><img src='img/fixation2_sml.jpg'</img></div></div>","null","FIX","","","","","","","","","","",""
"","","","","627ea14463f25dce42e73d51","bdp_wmem","Mon Mar 13 2023 13:59:48 GMT-0400 (Eastern Daylight Time)","1008725","Match,No Match","","html-keyboard-response","16","456233","0.0-5.0-2.2","","null","","<div class='trialBorder'><div class='vertical-center'><img style='vertical-align:center; align:center' src='img/fixation2_sml.jpg'></div><div class='arrayDiv1'><div class='tc'><img class='introPic' src='trustrating_stim/white_mw040.bmp'><br><font color='green'><strong>Share</strong></font></div></div></div>","null","ARRAY","1","trustrating_stim/white_mw040.bmp","1","Match","e","1500","","","","",""
"","","","","627ea14463f25dce42e73d51","bdp_wmem","Mon Mar 13 2023 13:59:48 GMT-0400 (Eastern Daylight Time)","1008725","Match,No Match","","html-keyboard-response","17","460242","0.0-5.0-3.2","","null","","<div class='trialBorder'><div class='vertical-center'><img src='img/fixation2_sml.jpg'</img></div></div>","null","DELAY","","","","","","","","","","",""
"","","","","627ea14463f25dce42e73d51","bdp_wmem","Mon Mar 13 2023 13:59:48 GMT-0400 (Eastern Daylight Time)","1008725","Match,No Match","","html-keyboard-response","18","461872","0.0-5.0-4.2","","1629","","<div class='trialBorder'><div class='targDiv'><div class='tc'><img class='introPic' src='trustrating_stim/white_mw040.bmp'><br><font color='green'><strong>Share</strong></font></div></div><div class='respDiv'><div class='respDivL'>Match<br>(e)</div><div class='respDivR'>No Match<br>(i)</div></div></div>","e","TARGET","1","trustrating_stim/white_mw040.bmp","1","Match","e","1500","trustrating_stim/white_mw040.bmp","green","Share","PRACTICE","1"
"","","","","627ea14463f25dce42e73d51","bdp_wmem","Mon Mar 13 2023 13:59:48 GMT-0400 (Eastern Daylight Time)","1008725","Match,No Match","","html-keyboard-response","19","462380","0.0-5.0-5.2","","null","","<div class='trialBorder'><div class='vertical-center'><img src='img/correct.jpg'></div><div class='respDiv'><div class='respDivL'><font style='color:orange'>Match<br>(e)</font></div><div class='respDivR'>No Match<br>(i)</div></div></div>","null","FEEDBACK","","","","","","","","","","",""
"","","","","627ea14463f25dce42e73d51","bdp_wmem","Mon Mar 13 2023 13:59:48 GMT-0400 (Eastern Daylight Time)","1008725","Match,No Match","","html-keyboard-response","20","462884","0.0-5.0-1.3","","null","","<div class='trialBorder'><div class='vertical-center'><img src='img/fixation2_sml.jpg'</img></div></div>","null","FIX","","","","","","","","","","",""
"","","","","627ea14463f25dce42e73d51","bdp_wmem","Mon Mar 13 2023 13:59:48 GMT-0400 (Eastern Daylight Time)","1008725","Match,No Match","","html-keyboard-response","21","467393","0.0-5.0-2.3","","null","","<div class='trialBorder'><div class='vertical-center'><img style='vertical-align:center; align:center' src='img/fixation2_sml.jpg'></div><div class='arrayDiv3'><div class='tl'><img class='introPic' src='trustrating_stim/white_mw091.bmp'><br><font color='green'><strong>Share</strong></font></div><div class='tc'><img class='introPic' src='trustrating_stim/white_mw092.bmp'><br><font color='green'><strong>Share</strong></font></div><div class='tr'><img class='introPic' src='trustrating_stim/white_mw003.bmp'><br><font color='red'><strong>Keep</strong></font></div></div></div>","null","ARRAY","3","trustrating_stim/white_mw091.bmp,trustrating_stim/white_mw092.bmp,trustrating_stim/white_mw003.bmp","1,1,0","noMatchOutcome","i","4500","","","","",""
"","","","","627ea14463f25dce42e73d51","bdp_wmem","Mon Mar 13 2023 13:59:48 GMT-0400 (Eastern Daylight Time)","1008725","Match,No Match","","html-keyboard-response","22","471407","0.0-5.0-3.3","","null","","<div class='trialBorder'><div class='vertical-center'><img src='img/fixation2_sml.jpg'</img></div></div>","null","DELAY","","","","","","","","","","",""
"","","","","627ea14463f25dce42e73d51","bdp_wmem","Mon Mar 13 2023 13:59:48 GMT-0400 (Eastern Daylight Time)","1008725","Match,No Match","","html-keyboard-response","23","474417","0.0-5.0-4.3","","3008","","<div class='trialBorder'><div class='targDiv'><div class='tc'><img class='introPic' src='trustrating_stim/white_mw091.bmp'><br><font color='red'><strong>Keep</strong></font></div></div><div class='respDiv'><div class='respDivL'>Match<br>(e)</div><div class='respDivR'>No Match<br>(i)</div></div></div>","i","TARGET","3","trustrating_stim/white_mw091.bmp,trustrating_stim/white_mw092.bmp,trustrating_stim/white_mw003.bmp","1,1,0","noMatchOutcome","i","4500","trustrating_stim/white_mw091.bmp","red","Keep","PRACTICE","1"
"","","","","627ea14463f25dce42e73d51","bdp_wmem","Mon Mar 13 2023 13:59:48 GMT-0400 (Eastern Daylight Time)","1008725","Match,No Match","","html-keyboard-response","24","474923","0.0-5.0-5.3","","null","","<div class='trialBorder'><div class='vertical-center'><img src='img/correct.jpg'></div><div class='respDiv'><div class='respDivL'>Match<br>(e)</div><div class='respDivR'><font style='color:orange'>No Match<br>(i)</font></div></div></div>","null","FEEDBACK","","","","","","","","","","",""
"","","","","627ea14463f25dce42e73d51","bdp_wmem","Mon Mar 13 2023 13:59:48 GMT-0400 (Eastern Daylight Time)","1008725","Match,No Match","","html-keyboard-response","25","475438","0.0-5.0-1.4","","null","","<div class='trialBorder'><div class='vertical-center'><img src='img/fixation2_sml.jpg'</img></div></div>","null","FIX","","","","","","","","","","",""
"","","","","627ea14463f25dce42e73d51","bdp_wmem","Mon Mar 13 2023 13:59:48 GMT-0400 (Eastern Daylight Time)","1008725","Match,No Match","","html-keyboard-response","26","476942","0.0-5.0-2.4","","null","","<div class='trialBorder'><div class='vertical-center'><img style='vertical-align:center; align:center' src='img/fixation2_sml.jpg'></div><div class='arrayDiv1'><div class='tc'><img class='introPic' src='trustrating_stim/white_mw013.bmp'><br><font color='green'><strong>Share</strong></font></div></div></div>","null","ARRAY","1","trustrating_stim/white_mw013.bmp","1","noMatchFace","i","1500","","","","",""
"","","","","627ea14463f25dce42e73d51","bdp_wmem","Mon Mar 13 2023 13:59:48 GMT-0400 (Eastern Daylight Time)","1008725","Match,No Match","","html-keyboard-response","27","480950","0.0-5.0-3.4","","null","","<div class='trialBorder'><div class='vertical-center'><img src='img/fixation2_sml.jpg'</img></div></div>","null","DELAY","","","","","","","","","","",""
"","","","","627ea14463f25dce42e73d51","bdp_wmem","Mon Mar 13 2023 13:59:48 GMT-0400 (Eastern Daylight Time)","1008725","Match,No Match","","html-keyboard-response","28","484284","0.0-5.0-4.4","","3333","","<div class='trialBorder'><div class='targDiv'><div class='tc'><img class='introPic' src='trustrating_stim/white_mw078.bmp'><br><font color='green'><strong>Share</strong></font></div></div><div class='respDiv'><div class='respDivL'>Match<br>(e)</div><div class='respDivR'>No Match<br>(i)</div></div></div>","i","TARGET","1","trustrating_stim/white_mw013.bmp","1","noMatchFace","i","1500","trustrating_stim/white_mw078.bmp","green","Share","PRACTICE","1"
"","","","","627ea14463f25dce42e73d51","bdp_wmem","Mon Mar 13 2023 13:59:48 GMT-0400 (Eastern Daylight Time)","1008725","Match,No Match","","html-keyboard-response","29","484793","0.0-5.0-5.4","","null","","<div class='trialBorder'><div class='vertical-center'><img src='img/correct.jpg'></div><div class='respDiv'><div class='respDivL'>Match<br>(e)</div><div class='respDivR'><font style='color:orange'>No Match<br>(i)</font></div></div></div>","null","FEEDBACK","","","","","","","","","","",""
"","","","","627ea14463f25dce42e73d51","bdp_wmem","Mon Mar 13 2023 13:59:48 GMT-0400 (Eastern Daylight Time)","1008725","Match,No Match","","html-keyboard-response","30","485309","0.0-5.0-1.5","","null","","<div class='trialBorder'><div class='vertical-center'><img src='img/fixation2_sml.jpg'</img></div></div>","null","FIX","","","","","","","","","","",""
"","","","","627ea14463f25dce42e73d51","bdp_wmem","Mon Mar 13 2023 13:59:48 GMT-0400 (Eastern Daylight Time)","1008725","Match,No Match","","html-keyboard-response","31","488327","0.0-5.0-2.5","","null","","<div class='trialBorder'><div class='vertical-center'><img style='vertical-align:center; align:center' src='img/fixation2_sml.jpg'></div><div class='arrayDiv2'><div class='tl'><img class='introPic' src='trustrating_stim/white_mw040.bmp'><br><font color='green'><strong>Share</strong></font></div><div class='tr'><img class='introPic' src='trustrating_stim/white_mw012.bmp'><br><font color='red'><strong>Keep</strong></font></div></div></div>","null","ARRAY","2","trustrating_stim/white_mw040.bmp,trustrating_stim/white_mw012.bmp","1,0","noMatchFace","i","3000","","","","",""
"","","","","627ea14463f25dce42e73d51","bdp_wmem","Mon Mar 13 2023 13:59:48 GMT-0400 (Eastern Daylight Time)","1008725","Match,No Match","","html-keyboard-response","32","492334","0.0-5.0-3.5","","null","","<div class='trialBorder'><div class='vertical-center'><img src='img/fixation2_sml.jpg'</img></div></div>","null","DELAY","","","","","","","","","","",""
"","","","","627ea14463f25dce42e73d51","bdp_wmem","Mon Mar 13 2023 13:59:48 GMT-0400 (Eastern Daylight Time)","1008725","Match,No Match","","html-keyboard-response","33","494083","0.0-5.0-4.5","","1746","","<div class='trialBorder'><div class='targDiv'><div class='tc'><img class='introPic' src='trustrating_stim/white_mw091.bmp'><br><font color='green'><strong>Share</strong></font></div></div><div class='respDiv'><div class='respDivL'>Match<br>(e)</div><div class='respDivR'>No Match<br>(i)</div></div></div>","i","TARGET","2","trustrating_stim/white_mw040.bmp,trustrating_stim/white_mw012.bmp","1,0","noMatchFace","i","3000","trustrating_stim/white_mw091.bmp","green","Share","PRACTICE","1"
"","","","","627ea14463f25dce42e73d51","bdp_wmem","Mon Mar 13 2023 13:59:48 GMT-0400 (Eastern Daylight Time)","1008725","Match,No Match","","html-keyboard-response","34","494596","0.0-5.0-5.5","","null","","<div class='trialBorder'><div class='vertical-center'><img src='img/correct.jpg'></div><div class='respDiv'><div class='respDivL'>Match<br>(e)</div><div class='respDivR'><font style='color:orange'>No Match<br>(i)</font></div></div></div>","null","FEEDBACK","","","","","","","","","","",""
"","","","","627ea14463f25dce42e73d51","bdp_wmem","Mon Mar 13 2023 13:59:48 GMT-0400 (Eastern Daylight Time)","1008725","Match,No Match","","instructions","35","506244","0.0-6.0","[{""page_index"":0,""viewing_time"":11647}]","11648","","","","","","","","","","","","","","",""
"","","","","627ea14463f25dce42e73d51","bdp_wmem","Mon Mar 13 2023 13:59:48 GMT-0400 (Eastern Daylight Time)","1008725","Match,No Match","","html-keyboard-response","36","506747","0.0-7.0-1.0","","null","","<div class='trialBorder'><div class='vertical-center'><img src='img/fixation2_sml.jpg'</img></div></div>","null","FIX","","","","","","","","","","",""
"","","","","627ea14463f25dce42e73d51","bdp_wmem","Mon Mar 13 2023 13:59:48 GMT-0400 (Eastern Daylight Time)","1008725","Match,No Match","","html-keyboard-response","37","511256","0.0-7.0-2.0","","null","","<div class='trialBorder'><div class='vertical-center'><img style='vertical-align:center; align:center' src='img/fixation2_sml.jpg'></div><div class='arrayDiv3'><div class='tl'><img class='introPic' src='trustrating_stim/white_mw038.bmp'><br><font color='green'><strong>Share</strong></font></div><div class='tc'><img class='introPic' src='trustrating_stim/white_mw040.bmp'><br><font color='green'><strong>Share</strong></font></div><div class='tr'><img class='introPic' src='trustrating_stim/white_mw042.bmp'><br><font color='red'><strong>Keep</strong></font></div></div></div>","null","ARRAY","3","trustrating_stim/white_mw038.bmp,trustrating_stim/white_mw040.bmp,trustrating_stim/white_mw042.bmp","1,1,0","Match","e","4500","","","","",""
"","","","","627ea14463f25dce42e73d51","bdp_wmem","Mon Mar 13 2023 13:59:48 GMT-0400 (Eastern Daylight Time)","1008725","Match,No Match","","html-keyboard-response","38","515267","0.0-7.0-3.0","","null","","<div class='trialBorder'><div class='vertical-center'><img src='img/fixation2_sml.jpg'</img></div></div>","null","DELAY","","","","","","","","","","",""
"","","","","627ea14463f25dce42e73d51","bdp_wmem","Mon Mar 13 2023 13:59:48 GMT-0400 (Eastern Daylight Time)","1008725","Match,No Match","","html-keyboard-response","39","518326","0.0-7.0-4.0","","3058","","<div class='trialBorder'><div class='targDiv'><div class='tc'><img class='introPic' src='trustrating_stim/white_mw040.bmp'><br><font color='green'><strong>Share</strong></font></div></div><div class='respDiv'><div class='respDivL'>Match<br>(e)</div><div class='respDivR'>No Match<br>(i)</div></div></div>","e","TARGET","3","trustrating_stim/white_mw038.bmp,trustrating_stim/white_mw040.bmp,trustrating_stim/white_mw042.bmp","1,1,0","Match","e","4500","trustrating_stim/white_mw040.bmp","green","Share","REAL","1"
"","","","","627ea14463f25dce42e73d51","bdp_wmem","Mon Mar 13 2023 13:59:48 GMT-0400 (Eastern Daylight Time)","1008725","Match,No Match","","html-keyboard-response","40","518833","0.0-7.0-5.0","","null","","<div class='trialBorder'><div class='vertical-center'><img src='img/correct.jpg'></div><div class='respDiv'><div class='respDivL'><font style='color:orange'>Match<br>(e)</font></div><div class='respDivR'>No Match<br>(i)</div></div></div>","null","FEEDBACK","","","","","","","","","","",""
"","","","","627ea14463f25dce42e73d51","bdp_wmem","Mon Mar 13 2023 13:59:48 GMT-0400 (Eastern Daylight Time)","1008725","Match,No Match","","html-keyboard-response","41","519344","0.0-7.0-1.1","","null","","<div class='trialBorder'><div class='vertical-center'><img src='img/fixation2_sml.jpg'</img></div></div>","null","FIX","","","","","","","","","","",""
"","","","","627ea14463f25dce42e73d51","bdp_wmem","Mon Mar 13 2023 13:59:48 GMT-0400 (Eastern Daylight Time)","1008725","Match,No Match","","html-keyboard-response","42","520857","0.0-7.0-2.1","","null","","<div class='trialBorder'><div class='vertical-center'><img style='vertical-align:center; align:center' src='img/fixation2_sml.jpg'></div><div class='arrayDiv1'><div class='tc'><img class='introPic' src='trustrating_stim/white_mw092.bmp'><br><font color='green'><strong>Share</strong></font></div></div></div>","null","ARRAY","1","trustrating_stim/white_mw092.bmp","1","Match","e","1500","","","","",""
"","","","","627ea14463f25dce42e73d51","bdp_wmem","Mon Mar 13 2023 13:59:48 GMT-0400 (Eastern Daylight Time)","1008725","Match,No Match","","html-keyboard-response","43","524870","0.0-7.0-3.1","","null","","<div class='trialBorder'><div class='vertical-center'><img src='img/fixation2_sml.jpg'</img></div></div>","null","DELAY","","","","","","","","","","",""
"","","","","627ea14463f25dce42e73d51","bdp_wmem","Mon Mar 13 2023 13:59:48 GMT-0400 (Eastern Daylight Time)","1008725","Match,No Match","","html-keyboard-response","44","526562","0.0-7.0-4.1","","1692","","<div class='trialBorder'><div class='targDiv'><div class='tc'><img class='introPic' src='trustrating_stim/white_mw092.bmp'><br><font color='green'><strong>Share</strong></font></div></div><div class='respDiv'><div class='respDivL'>Match<br>(e)</div><div class='respDivR'>No Match<br>(i)</div></div></div>","e","TARGET","1","trustrating_stim/white_mw092.bmp","1","Match","e","1500","trustrating_stim/white_mw092.bmp","green","Share","REAL","1"
"","","","","627ea14463f25dce42e73d51","bdp_wmem","Mon Mar 13 2023 13:59:48 GMT-0400 (Eastern Daylight Time)","1008725","Match,No Match","","html-keyboard-response","45","527078","0.0-7.0-5.1","","null","","<div class='trialBorder'><div class='vertical-center'><img src='img/correct.jpg'></div><div class='respDiv'><div class='respDivL'><font style='color:orange'>Match<br>(e)</font></div><div class='respDivR'>No Match<br>(i)</div></div></div>","null","FEEDBACK","","","","","","","","","","",""
"","","","","627ea14463f25dce42e73d51","bdp_wmem","Mon Mar 13 2023 13:59:48 GMT-0400 (Eastern Daylight Time)","1008725","Match,No Match","","html-keyboard-response","46","527580","0.0-7.0-1.2","","null","","<div class='trialBorder'><div class='vertical-center'><img src='img/fixation2_sml.jpg'</img></div></div>","null","FIX","","","","","","","","","","",""
"","","","","627ea14463f25dce42e73d51","bdp_wmem","Mon Mar 13 2023 13:59:48 GMT-0400 (Eastern Daylight Time)","1008725","Match,No Match","","html-keyboard-response","47","530597","0.0-7.0-2.2","","null","","<div class='trialBorder'><div class='vertical-center'><img style='vertical-align:center; align:center' src='img/fixation2_sml.jpg'></div><div class='arrayDiv2'><div class='tl'><img class='introPic' src='trustrating_stim/white_mw012.bmp'><br><font color='red'><strong>Keep</strong></font></div><div class='tr'><img class='introPic' src='trustrating_stim/white_mw085.bmp'><br><font color='green'><strong>Share</strong></font></div></div></div>","null","ARRAY","2","trustrating_stim/white_mw012.bmp,trustrating_stim/white_mw085.bmp","0,1","Match","e","3000","","","","",""
"","","","","627ea14463f25dce42e73d51","bdp_wmem","Mon Mar 13 2023 13:59:48 GMT-0400 (Eastern Daylight Time)","1008725","Match,No Match","","html-keyboard-response","48","534602","0.0-7.0-3.2","","null","","<div class='trialBorder'><div class='vertical-center'><img src='img/fixation2_sml.jpg'</img></div></div>","null","DELAY","","","","","","","","","","",""
"","","","","627ea14463f25dce42e73d51","bdp_wmem","Mon Mar 13 2023 13:59:48 GMT-0400 (Eastern Daylight Time)","1008725","Match,No Match","","html-keyboard-response","49","535953","0.0-7.0-4.2","","1351","","<div class='trialBorder'><div class='targDiv'><div class='tc'><img class='introPic' src='trustrating_stim/white_mw012.bmp'><br><font color='red'><strong>Keep</strong></font></div></div><div class='respDiv'><div class='respDivL'>Match<br>(e)</div><div class='respDivR'>No Match<br>(i)</div></div></div>","e","TARGET","2","trustrating_stim/white_mw012.bmp,trustrating_stim/white_mw085.bmp","0,1","Match","e","3000","trustrating_stim/white_mw012.bmp","red","Keep","REAL","1"
"","","","","627ea14463f25dce42e73d51","bdp_wmem","Mon Mar 13 2023 13:59:48 GMT-0400 (Eastern Daylight Time)","1008725","Match,No Match","","html-keyboard-response","50","536461","0.0-7.0-5.2","","null","","<div class='trialBorder'><div class='vertical-center'><img src='img/correct.jpg'></div><div class='respDiv'><div class='respDivL'><font style='color:orange'>Match<br>(e)</font></div><div class='respDivR'>No Match<br>(i)</div></div></div>","null","FEEDBACK","","","","","","","","","","",""
"","","","","627ea14463f25dce42e73d51","bdp_wmem","Mon Mar 13 2023 13:59:48 GMT-0400 (Eastern Daylight Time)","1008725","Match,No Match","","html-keyboard-response","51","536962","0.0-7.0-1.3","","null","","<div class='trialBorder'><div class='vertical-center'><img src='img/fixation2_sml.jpg'</img></div></div>","null","FIX","","","","","","","","","","",""
"","","","","627ea14463f25dce42e73d51","bdp_wmem","Mon Mar 13 2023 13:59:48 GMT-0400 (Eastern Daylight Time)","1008725","Match,No Match","","html-keyboard-response","52","538468","0.0-7.0-2.3","","null","","<div class='trialBorder'><div class='vertical-center'><img style='vertical-align:center; align:center' src='img/fixation2_sml.jpg'></div><div class='arrayDiv1'><div class='tc'><img class='introPic' src='trustrating_stim/white_mw003.bmp'><br><font color='green'><strong>Share</strong></font></div></div></div>","null","ARRAY","1","trustrating_stim/white_mw003.bmp","1","noMatchFace","i","1500","","","","",""
"","","","","627ea14463f25dce42e73d51","bdp_wmem","Mon Mar 13 2023 13:59:48 GMT-0400 (Eastern Daylight Time)","1008725","Match,No Match","","html-keyboard-response","53","542478","0.0-7.0-3.3","","null","","<div class='trialBorder'><div class='vertical-center'><img src='img/fixation2_sml.jpg'</img></div></div>","null","DELAY","","","","","","","","","","",""
"","","","","627ea14463f25dce42e73d51","bdp_wmem","Mon Mar 13 2023 13:59:48 GMT-0400 (Eastern Daylight Time)","1008725","Match,No Match","","html-keyboard-response","54","545072","0.0-7.0-4.3","","2594","","<div class='trialBorder'><div class='targDiv'><div class='tc'><img class='introPic' src='trustrating_stim/white_mw042.bmp'><br><font color='green'><strong>Share</strong></font></div></div><div class='respDiv'><div class='respDivL'>Match<br>(e)</div><div class='respDivR'>No Match<br>(i)</div></div></div>","i","TARGET","1","trustrating_stim/white_mw003.bmp","1","noMatchFace","i","1500","trustrating_stim/white_mw042.bmp","green","Share","REAL","1"
"","","","","627ea14463f25dce42e73d51","bdp_wmem","Mon Mar 13 2023 13:59:48 GMT-0400 (Eastern Daylight Time)","1008725","Match,No Match","","html-keyboard-response","55","545583","0.0-7.0-5.3","","null","","<div class='trialBorder'><div class='vertical-center'><img src='img/correct.jpg'></div><div class='respDiv'><div class='respDivL'>Match<br>(e)</div><div class='respDivR'><font style='color:orange'>No Match<br>(i)</font></div></div></div>","null","FEEDBACK","","","","","","","","","","",""
"","","","","627ea14463f25dce42e73d51","bdp_wmem","Mon Mar 13 2023 13:59:48 GMT-0400 (Eastern Daylight Time)","1008725","Match,No Match","","html-keyboard-response","56","546090","0.0-7.0-1.4","","null","","<div class='trialBorder'><div class='vertical-center'><img src='img/fixation2_sml.jpg'</img></div></div>","null","FIX","","","","","","","","","","",""
"","","","","627ea14463f25dce42e73d51","bdp_wmem","Mon Mar 13 2023 13:59:48 GMT-0400 (Eastern Daylight Time)","1008725","Match,No Match","","html-keyboard-response","57","547598","0.0-7.0-2.4","","null","","<div class='trialBorder'><div class='vertical-center'><img style='vertical-align:center; align:center' src='img/fixation2_sml.jpg'></div><div class='arrayDiv1'><div class='tc'><img class='introPic' src='trustrating_stim/white_mw042.bmp'><br><font color='green'><strong>Share</strong></font></div></div></div>","null","ARRAY","1","trustrating_stim/white_mw042.bmp","1","Match","e","1500","","","","",""
"","","","","627ea14463f25dce42e73d51","bdp_wmem","Mon Mar 13 2023 13:59:48 GMT-0400 (Eastern Daylight Time)","1008725","Match,No Match","","html-keyboard-response","58","551614","0.0-7.0-3.4","","null","","<div class='trialBorder'><div class='vertical-center'><img src='img/fixation2_sml.jpg'</img></div></div>","null","DELAY","","","","","","","","","","",""
"","","","","627ea14463f25dce42e73d51","bdp_wmem","Mon Mar 13 2023 13:59:48 GMT-0400 (Eastern Daylight Time)","1008725","Match,No Match","","html-keyboard-response","59","553328","0.0-7.0-4.4","","1714","","<div class='trialBorder'><div class='targDiv'><div class='tc'><img class='introPic' src='trustrating_stim/white_mw042.bmp'><br><font color='green'><strong>Share</strong></font></div></div><div class='respDiv'><div class='respDivL'>Match<br>(e)</div><div class='respDivR'>No Match<br>(i)</div></div></div>","e","TARGET","1","trustrating_stim/white_mw042.bmp","1","Match","e","1500","trustrating_stim/white_mw042.bmp","green","Share","REAL","1"
"","","","","627ea14463f25dce42e73d51","bdp_wmem","Mon Mar 13 2023 13:59:48 GMT-0400 (Eastern Daylight Time)","1008725","Match,No Match","","html-keyboard-response","60","553842","0.0-7.0-5.4","","null","","<div class='trialBorder'><div class='vertical-center'><img src='img/correct.jpg'></div><div class='respDiv'><div class='respDivL'><font style='color:orange'>Match<br>(e)</font></div><div class='respDivR'>No Match<br>(i)</div></div></div>","null","FEEDBACK","","","","","","","","","","",""
"","","","","627ea14463f25dce42e73d51","bdp_wmem","Mon Mar 13 2023 13:59:48 GMT-0400 (Eastern Daylight Time)","1008725","Match,No Match","","html-keyboard-response","61","554345","0.0-7.0-1.5","","null","","<div class='trialBorder'><div class='vertical-center'><img src='img/fixation2_sml.jpg'</img></div></div>","null","FIX","","","","","","","","","","",""
"","","","","627ea14463f25dce42e73d51","bdp_wmem","Mon Mar 13 2023 13:59:48 GMT-0400 (Eastern Daylight Time)","1008725","Match,No Match","","html-keyboard-response","62","557362","0.0-7.0-2.5","","null","","<div class='trialBorder'><div class='vertical-center'><img style='vertical-align:center; align:center' src='img/fixation2_sml.jpg'></div><div class='arrayDiv2'><div class='tl'><img class='introPic' src='trustrating_stim/white_mw038.bmp'><br><font color='red'><strong>Keep</strong></font></div><div class='tr'><img class='introPic' src='trustrating_stim/white_mw013.bmp'><br><font color='green'><strong>Share</strong></font></div></div></div>","null","ARRAY","2","trustrating_stim/white_mw038.bmp,trustrating_stim/white_mw013.bmp","0,1","Match","e","3000","","","","",""
"","","","","627ea14463f25dce42e73d51","bdp_wmem","Mon Mar 13 2023 13:59:48 GMT-0400 (Eastern Daylight Time)","1008725","Match,No Match","","html-keyboard-response","63","561373","0.0-7.0-3.5","","null","","<div class='trialBorder'><div class='vertical-center'><img src='img/fixation2_sml.jpg'</img></div></div>","null","DELAY","","","","","","","","","","",""
"","","","","627ea14463f25dce42e73d51","bdp_wmem","Mon Mar 13 2023 13:59:48 GMT-0400 (Eastern Daylight Time)","1008725","Match,No Match","","html-keyboard-response","64","562685","0.0-7.0-4.5","","1311","","<div class='trialBorder'><div class='targDiv'><div class='tc'><img class='introPic' src='trustrating_stim/white_mw038.bmp'><br><font color='red'><strong>Keep</strong></font></div></div><div class='respDiv'><div class='respDivL'>Match<br>(e)</div><div class='respDivR'>No Match<br>(i)</div></div></div>","e","TARGET","2","trustrating_stim/white_mw038.bmp,trustrating_stim/white_mw013.bmp","0,1","Match","e","3000","trustrating_stim/white_mw038.bmp","red","Keep","REAL","1"
"","","","","627ea14463f25dce42e73d51","bdp_wmem","Mon Mar 13 2023 13:59:48 GMT-0400 (Eastern Daylight Time)","1008725","Match,No Match","","html-keyboard-response","65","563212","0.0-7.0-5.5","","null","","<div class='trialBorder'><div class='vertical-center'><img src='img/correct.jpg'></div><div class='respDiv'><div class='respDivL'><font style='color:orange'>Match<br>(e)</font></div><div class='respDivR'>No Match<br>(i)</div></div></div>","null","FEEDBACK","","","","","","","","","","",""
"","","","","627ea14463f25dce42e73d51","bdp_wmem","Mon Mar 13 2023 13:59:48 GMT-0400 (Eastern Daylight Time)","1008725","Match,No Match","","html-keyboard-response","66","563713","0.0-7.0-1.6","","null","","<div class='trialBorder'><div class='vertical-center'><img src='img/fixation2_sml.jpg'</img></div></div>","null","FIX","","","","","","","","","","",""
"","","","","627ea14463f25dce42e73d51","bdp_wmem","Mon Mar 13 2023 13:59:48 GMT-0400 (Eastern Daylight Time)","1008725","Match,No Match","","html-keyboard-response","67","565217","0.0-7.0-2.6","","null","","<div class='trialBorder'><div class='vertical-center'><img style='vertical-align:center; align:center' src='img/fixation2_sml.jpg'></div><div class='arrayDiv1'><div class='tc'><img class='introPic' src='trustrating_stim/white_mw003.bmp'><br><font color='green'><strong>Share</strong></font></div></div></div>","null","ARRAY","1","trustrating_stim/white_mw003.bmp","1","noMatchFace","i","1500","","","","",""
"","","","","627ea14463f25dce42e73d51","bdp_wmem","Mon Mar 13 2023 13:59:48 GMT-0400 (Eastern Daylight Time)","1008725","Match,No Match","","html-keyboard-response","68","569224","0.0-7.0-3.6","","null","","<div class='trialBorder'><div class='vertical-center'><img src='img/fixation2_sml.jpg'</img></div></div>","null","DELAY","","","","","","","","","","",""
"","","","","627ea14463f25dce42e73d51","bdp_wmem","Mon Mar 13 2023 13:59:48 GMT-0400 (Eastern Daylight Time)","1008725","Match,No Match","","html-keyboard-response","69","570426","0.0-7.0-4.6","","1200","","<div class='trialBorder'><div class='targDiv'><div class='tc'><img class='introPic' src='trustrating_stim/white_mw013.bmp'><br><font color='green'><strong>Share</strong></font></div></div><div class='respDiv'><div class='respDivL'>Match<br>(e)</div><div class='respDivR'>No Match<br>(i)</div></div></div>","i","TARGET","1","trustrating_stim/white_mw003.bmp","1","noMatchFace","i","1500","trustrating_stim/white_mw013.bmp","green","Share","REAL","1"
"","","","","627ea14463f25dce42e73d51","bdp_wmem","Mon Mar 13 2023 13:59:48 GMT-0400 (Eastern Daylight Time)","1008725","Match,No Match","","html-keyboard-response","70","570928","0.0-7.0-5.6","","null","","<div class='trialBorder'><div class='vertical-center'><img src='img/correct.jpg'></div><div class='respDiv'><div class='respDivL'>Match<br>(e)</div><div class='respDivR'><font style='color:orange'>No Match<br>(i)</font></div></div></div>","null","FEEDBACK","","","","","","","","","","",""
"","","","","627ea14463f25dce42e73d51","bdp_wmem","Mon Mar 13 2023 13:59:48 GMT-0400 (Eastern Daylight Time)","1008725","Match,No Match","","html-keyboard-response","71","571443","0.0-7.0-1.7","","null","","<div class='trialBorder'><div class='vertical-center'><img src='img/fixation2_sml.jpg'</img></div></div>","null","FIX","","","","","","","","","","",""
"","","","","627ea14463f25dce42e73d51","bdp_wmem","Mon Mar 13 2023 13:59:48 GMT-0400 (Eastern Daylight Time)","1008725","Match,No Match","","html-keyboard-response","72","574447","0.0-7.0-2.7","","null","","<div class='trialBorder'><div class='vertical-center'><img style='vertical-align:center; align:center' src='img/fixation2_sml.jpg'></div><div class='arrayDiv2'><div class='tl'><img class='introPic' src='trustrating_stim/white_mw010.bmp'><br><font color='red'><strong>Keep</strong></font></div><div class='tr'><img class='introPic' src='trustrating_stim/white_mw070.bmp'><br><font color='green'><strong>Share</strong></font></div></div></div>","null","ARRAY","2","trustrating_stim/white_mw010.bmp,trustrating_stim/white_mw070.bmp","0,1","noMatchOutcome","i","3000","","","","",""
"","","","","627ea14463f25dce42e73d51","bdp_wmem","Mon Mar 13 2023 13:59:48 GMT-0400 (Eastern Daylight Time)","1008725","Match,No Match","","html-keyboard-response","73","578451","0.0-7.0-3.7","","null","","<div class='trialBorder'><div class='vertical-center'><img src='img/fixation2_sml.jpg'</img></div></div>","null","DELAY","","","","","","","","","","",""
"","","","","627ea14463f25dce42e73d51","bdp_wmem","Mon Mar 13 2023 13:59:48 GMT-0400 (Eastern Daylight Time)","1008725","Match,No Match","","html-keyboard-response","74","581105","0.0-7.0-4.7","","2653","","<div class='trialBorder'><div class='targDiv'><div class='tc'><img class='introPic' src='trustrating_stim/white_mw070.bmp'><br><font color='red'><strong>Keep</strong></font></div></div><div class='respDiv'><div class='respDivL'>Match<br>(e)</div><div class='respDivR'>No Match<br>(i)</div></div></div>","i","TARGET","2","trustrating_stim/white_mw010.bmp,trustrating_stim/white_mw070.bmp","0,1","noMatchOutcome","i","3000","trustrating_stim/white_mw070.bmp","red","Keep","REAL","1"
"","","","","627ea14463f25dce42e73d51","bdp_wmem","Mon Mar 13 2023 13:59:48 GMT-0400 (Eastern Daylight Time)","1008725","Match,No Match","","html-keyboard-response","75","581607","0.0-7.0-5.7","","null","","<div class='trialBorder'><div class='vertical-center'><img src='img/correct.jpg'></div><div class='respDiv'><div class='respDivL'>Match<br>(e)</div><div class='respDivR'><font style='color:orange'>No Match<br>(i)</font></div></div></div>","null","FEEDBACK","","","","","","","","","","",""
"","","","","627ea14463f25dce42e73d51","bdp_wmem","Mon Mar 13 2023 13:59:48 GMT-0400 (Eastern Daylight Time)","1008725","Match,No Match","","html-keyboard-response","76","582118","0.0-7.0-1.8","","null","","<div class='trialBorder'><div class='vertical-center'><img src='img/fixation2_sml.jpg'</img></div></div>","null","FIX","","","","","","","","","","",""
"","","","","627ea14463f25dce42e73d51","bdp_wmem","Mon Mar 13 2023 13:59:48 GMT-0400 (Eastern Daylight Time)","1008725","Match,No Match","","html-keyboard-response","77","586621","0.0-7.0-2.8","","null","","<div class='trialBorder'><div class='vertical-center'><img style='vertical-align:center; align:center' src='img/fixation2_sml.jpg'></div><div class='arrayDiv3'><div class='tl'><img class='introPic' src='trustrating_stim/white_mw085.bmp'><br><font color='red'><strong>Keep</strong></font></div><div class='tc'><img class='introPic' src='trustrating_stim/white_mw003.bmp'><br><font color='green'><strong>Share</strong></font></div><div class='tr'><img class='introPic' src='trustrating_stim/white_mw038.bmp'><br><font color='green'><strong>Share</strong></font></div></div></div>","null","ARRAY","3","trustrating_stim/white_mw085.bmp,trustrating_stim/white_mw003.bmp,trustrating_stim/white_mw038.bmp","0,1,1","noMatchOutcome","i","4500","","","","",""
"","","","","627ea14463f25dce42e73d51","bdp_wmem","Mon Mar 13 2023 13:59:48 GMT-0400 (Eastern Daylight Time)","1008725","Match,No Match","","html-keyboard-response","78","590644","0.0-7.0-3.8","","null","","<div class='trialBorder'><div class='vertical-center'><img src='img/fixation2_sml.jpg'</img></div></div>","null","DELAY","","","","","","","","","","",""
"","","","","627ea14463f25dce42e73d51","bdp_wmem","Mon Mar 13 2023 13:59:48 GMT-0400 (Eastern Daylight Time)","1008725","Match,No Match","","html-keyboard-response","79","592756","0.0-7.0-4.8","","2111","","<div class='trialBorder'><div class='targDiv'><div class='tc'><img class='introPic' src='trustrating_stim/white_mw038.bmp'><br><font color='red'><strong>Keep</strong></font></div></div><div class='respDiv'><div class='respDivL'>Match<br>(e)</div><div class='respDivR'>No Match<br>(i)</div></div></div>","i","TARGET","3","trustrating_stim/white_mw085.bmp,trustrating_stim/white_mw003.bmp,trustrating_stim/white_mw038.bmp","0,1,1","noMatchOutcome","i","4500","trustrating_stim/white_mw038.bmp","red","Keep","REAL","1"
"","","","","627ea14463f25dce42e73d51","bdp_wmem","Mon Mar 13 2023 13:59:48 GMT-0400 (Eastern Daylight Time)","1008725","Match,No Match","","html-keyboard-response","80","593268","0.0-7.0-5.8","","null","","<div class='trialBorder'><div class='vertical-center'><img src='img/correct.jpg'></div><div class='respDiv'><div class='respDivL'>Match<br>(e)</div><div class='respDivR'><font style='color:orange'>No Match<br>(i)</font></div></div></div>","null","FEEDBACK","","","","","","","","","","",""
"","","","","627ea14463f25dce42e73d51","bdp_wmem","Mon Mar 13 2023 13:59:48 GMT-0400 (Eastern Daylight Time)","1008725","Match,No Match","","html-keyboard-response","81","593779","0.0-7.0-1.9","","null","","<div class='trialBorder'><div class='vertical-center'><img src='img/fixation2_sml.jpg'</img></div></div>","null","FIX","","","","","","","","","","",""
"","","","","627ea14463f25dce42e73d51","bdp_wmem","Mon Mar 13 2023 13:59:48 GMT-0400 (Eastern Daylight Time)","1008725","Match,No Match","","html-keyboard-response","82","596794","0.0-7.0-2.9","","null","","<div class='trialBorder'><div class='vertical-center'><img style='vertical-align:center; align:center' src='img/fixation2_sml.jpg'></div><div class='arrayDiv2'><div class='tl'><img class='introPic' src='trustrating_stim/white_mw092.bmp'><br><font color='red'><strong>Keep</strong></font></div><div class='tr'><img class='introPic' src='trustrating_stim/white_mw038.bmp'><br><font color='green'><strong>Share</strong></font></div></div></div>","null","ARRAY","2","trustrating_stim/white_mw092.bmp,trustrating_stim/white_mw038.bmp","0,1","Match","e","3000","","","","",""
"","","","","627ea14463f25dce42e73d51","bdp_wmem","Mon Mar 13 2023 13:59:48 GMT-0400 (Eastern Daylight Time)","1008725","Match,No Match","","html-keyboard-response","83","600799","0.0-7.0-3.9","","null","","<div class='trialBorder'><div class='vertical-center'><img src='img/fixation2_sml.jpg'</img></div></div>","null","DELAY","","","","","","","","","","",""
"","","","","627ea14463f25dce42e73d51","bdp_wmem","Mon Mar 13 2023 13:59:48 GMT-0400 (Eastern Daylight Time)","1008725","Match,No Match","","html-keyboard-response","84","602142","0.0-7.0-4.9","","1343","","<div class='trialBorder'><div class='targDiv'><div class='tc'><img class='introPic' src='trustrating_stim/white_mw092.bmp'><br><font color='red'><strong>Keep</strong></font></div></div><div class='respDiv'><div class='respDivL'>Match<br>(e)</div><div class='respDivR'>No Match<br>(i)</div></div></div>","e","TARGET","2","trustrating_stim/white_mw092.bmp,trustrating_stim/white_mw038.bmp","0,1","Match","e","3000","trustrating_stim/white_mw092.bmp","red","Keep","REAL","1"
"","","","","627ea14463f25dce42e73d51","bdp_wmem","Mon Mar 13 2023 13:59:48 GMT-0400 (Eastern Daylight Time)","1008725","Match,No Match","","html-keyboard-response","85","602647","0.0-7.0-5.9","","null","","<div class='trialBorder'><div class='vertical-center'><img src='img/correct.jpg'></div><div class='respDiv'><div class='respDivL'><font style='color:orange'>Match<br>(e)</font></div><div class='respDivR'>No Match<br>(i)</div></div></div>","null","FEEDBACK","","","","","","","","","","",""
"","","","","627ea14463f25dce42e73d51","bdp_wmem","Mon Mar 13 2023 13:59:48 GMT-0400 (Eastern Daylight Time)","1008725","Match,No Match","","html-keyboard-response","86","603164","0.0-7.0-1.10","","null","","<div class='trialBorder'><div class='vertical-center'><img src='img/fixation2_sml.jpg'</img></div></div>","null","FIX","","","","","","","","","","",""
"","","","","627ea14463f25dce42e73d51","bdp_wmem","Mon Mar 13 2023 13:59:48 GMT-0400 (Eastern Daylight Time)","1008725","Match,No Match","","html-keyboard-response","87","607690","0.0-7.0-2.10","","null","","<div class='trialBorder'><div class='vertical-center'><img style='vertical-align:center; align:center' src='img/fixation2_sml.jpg'></div><div class='arrayDiv3'><div class='tl'><img class='introPic' src='trustrating_stim/white_mw078.bmp'><br><font color='green'><strong>Share</strong></font></div><div class='tc'><img class='introPic' src='trustrating_stim/white_mw012.bmp'><br><font color='red'><strong>Keep</strong></font></div><div class='tr'><img class='introPic' src='trustrating_stim/white_mw042.bmp'><br><font color='red'><strong>Keep</strong></font></div></div></div>","null","ARRAY","3","trustrating_stim/white_mw078.bmp,trustrating_stim/white_mw012.bmp,trustrating_stim/white_mw042.bmp","1,0,0","noMatchFace","i","4500","","","","",""
"","","","","627ea14463f25dce42e73d51","bdp_wmem","Mon Mar 13 2023 13:59:48 GMT-0400 (Eastern Daylight Time)","1008725","Match,No Match","","html-keyboard-response","88","611700","0.0-7.0-3.10","","null","","<div class='trialBorder'><div class='vertical-center'><img src='img/fixation2_sml.jpg'</img></div></div>","null","DELAY","","","","","","","","","","",""
"","","","","627ea14463f25dce42e73d51","bdp_wmem","Mon Mar 13 2023 13:59:48 GMT-0400 (Eastern Daylight Time)","1008725","Match,No Match","","html-keyboard-response","89","615153","0.0-7.0-4.10","","3452","","<div class='trialBorder'><div class='targDiv'><div class='tc'><img class='introPic' src='trustrating_stim/white_mw038.bmp'><br><font color='red'><strong>Keep</strong></font></div></div><div class='respDiv'><div class='respDivL'>Match<br>(e)</div><div class='respDivR'>No Match<br>(i)</div></div></div>","e","TARGET","3","trustrating_stim/white_mw078.bmp,trustrating_stim/white_mw012.bmp,trustrating_stim/white_mw042.bmp","1,0,0","noMatchFace","i","4500","trustrating_stim/white_mw038.bmp","red","Keep","REAL","0"
"","","","","627ea14463f25dce42e73d51","bdp_wmem","Mon Mar 13 2023 13:59:48 GMT-0400 (Eastern Daylight Time)","1008725","Match,No Match","","html-keyboard-response","90","615668","0.0-7.0-5.10","","null","","<div class='trialBorder'><div class='vertical-center'><img src='img/error.jpg'></div><div class='respDiv'><div class='respDivL'><font style='color:orange'>Match<br>(e)</font></div><div class='respDivR'>No Match<br>(i)</div></div></div>","null","FEEDBACK","","","","","","","","","","",""
"","","","","627ea14463f25dce42e73d51","bdp_wmem","Mon Mar 13 2023 13:59:48 GMT-0400 (Eastern Daylight Time)","1008725","Match,No Match","","html-keyboard-response","91","616169","0.0-7.0-1.11","","null","","<div class='trialBorder'><div class='vertical-center'><img src='img/fixation2_sml.jpg'</img></div></div>","null","FIX","","","","","","","","","","",""
"","","","","627ea14463f25dce42e73d51","bdp_wmem","Mon Mar 13 2023 13:59:48 GMT-0400 (Eastern Daylight Time)","1008725","Match,No Match","","html-keyboard-response","92","617672","0.0-7.0-2.11","","null","","<div class='trialBorder'><div class='vertical-center'><img style='vertical-align:center; align:center' src='img/fixation2_sml.jpg'></div><div class='arrayDiv1'><div class='tc'><img class='introPic' src='trustrating_stim/white_mw038.bmp'><br><font color='red'><strong>Keep</strong></font></div></div></div>","null","ARRAY","1","trustrating_stim/white_mw038.bmp","0","noMatchFace","i","1500","","","","",""
"","","","","627ea14463f25dce42e73d51","bdp_wmem","Mon Mar 13 2023 13:59:48 GMT-0400 (Eastern Daylight Time)","1008725","Match,No Match","","html-keyboard-response","93","621674","0.0-7.0-3.11","","null","","<div class='trialBorder'><div class='vertical-center'><img src='img/fixation2_sml.jpg'</img></div></div>","null","DELAY","","","","","","","","","","",""
"","","","","627ea14463f25dce42e73d51","bdp_wmem","Mon Mar 13 2023 13:59:48 GMT-0400 (Eastern Daylight Time)","1008725","Match,No Match","","html-keyboard-response","94","623002","0.0-7.0-4.11","","1326","","<div class='trialBorder'><div class='targDiv'><div class='tc'><img class='introPic' src='trustrating_stim/white_mw085.bmp'><br><font color='red'><strong>Keep</strong></font></div></div><div class='respDiv'><div class='respDivL'>Match<br>(e)</div><div class='respDivR'>No Match<br>(i)</div></div></div>","i","TARGET","1","trustrating_stim/white_mw038.bmp","0","noMatchFace","i","1500","trustrating_stim/white_mw085.bmp","red","Keep","REAL","1"
"","","","","627ea14463f25dce42e73d51","bdp_wmem","Mon Mar 13 2023 13:59:48 GMT-0400 (Eastern Daylight Time)","1008725","Match,No Match","","html-keyboard-response","95","623513","0.0-7.0-5.11","","null","","<div class='trialBorder'><div class='vertical-center'><img src='img/correct.jpg'></div><div class='respDiv'><div class='respDivL'>Match<br>(e)</div><div class='respDivR'><font style='color:orange'>No Match<br>(i)</font></div></div></div>","null","FEEDBACK","","","","","","","","","","",""
"","","","","627ea14463f25dce42e73d51","bdp_wmem","Mon Mar 13 2023 13:59:48 GMT-0400 (Eastern Daylight Time)","1008725","Match,No Match","","html-keyboard-response","96","624015","0.0-7.0-1.12","","null","","<div class='trialBorder'><div class='vertical-center'><img src='img/fixation2_sml.jpg'</img></div></div>","null","FIX","","","","","","","","","","",""
"","","","","627ea14463f25dce42e73d51","bdp_wmem","Mon Mar 13 2023 13:59:48 GMT-0400 (Eastern Daylight Time)","1008725","Match,No Match","","html-keyboard-response","97","628516","0.0-7.0-2.12","","null","","<div class='trialBorder'><div class='vertical-center'><img style='vertical-align:center; align:center' src='img/fixation2_sml.jpg'></div><div class='arrayDiv3'><div class='tl'><img class='introPic' src='trustrating_stim/white_mw042.bmp'><br><font color='green'><strong>Share</strong></font></div><div class='tc'><img class='introPic' src='trustrating_stim/white_mw040.bmp'><br><font color='red'><strong>Keep</strong></font></div><div class='tr'><img class='introPic' src='trustrating_stim/white_mw091.bmp'><br><font color='green'><strong>Share</strong></font></div></div></div>","null","ARRAY","3","trustrating_stim/white_mw042.bmp,trustrating_stim/white_mw040.bmp,trustrating_stim/white_mw091.bmp","1,0,1","Match","e","4500","","","","",""
"","","","","627ea14463f25dce42e73d51","bdp_wmem","Mon Mar 13 2023 13:59:48 GMT-0400 (Eastern Daylight Time)","1008725","Match,No Match","","html-keyboard-response","98","632530","0.0-7.0-3.12","","null","","<div class='trialBorder'><div class='vertical-center'><img src='img/fixation2_sml.jpg'</img></div></div>","null","DELAY","","","","","","","","","","",""
"","","","","627ea14463f25dce42e73d51","bdp_wmem","Mon Mar 13 2023 13:59:48 GMT-0400 (Eastern Daylight Time)","1008725","Match,No Match","","html-keyboard-response","99","635066","0.0-7.0-4.12","","2534","","<div class='trialBorder'><div class='targDiv'><div class='tc'><img class='introPic' src='trustrating_stim/white_mw091.bmp'><br><font color='green'><strong>Share</strong></font></div></div><div class='respDiv'><div class='respDivL'>Match<br>(e)</div><div class='respDivR'>No Match<br>(i)</div></div></div>","i","TARGET","3","trustrating_stim/white_mw042.bmp,trustrating_stim/white_mw040.bmp,trustrating_stim/white_mw091.bmp","1,0,1","Match","e","4500","trustrating_stim/white_mw091.bmp","green","Share","REAL","0"
"","","","","627ea14463f25dce42e73d51","bdp_wmem","Mon Mar 13 2023 13:59:48 GMT-0400 (Eastern Daylight Time)","1008725","Match,No Match","","html-keyboard-response","100","635572","0.0-7.0-5.12","","null","","<div class='trialBorder'><div class='vertical-center'><img src='img/error.jpg'></div><div class='respDiv'><div class='respDivL'>Match<br>(e)</div><div class='respDivR'><font style='color:orange'>No Match<br>(i)</font></div></div></div>","null","FEEDBACK","","","","","","","","","","",""
"","","","","627ea14463f25dce42e73d51","bdp_wmem","Mon Mar 13 2023 13:59:48 GMT-0400 (Eastern Daylight Time)","1008725","Match,No Match","","html-keyboard-response","101","636094","0.0-7.0-1.13","","null","","<div class='trialBorder'><div class='vertical-center'><img src='img/fixation2_sml.jpg'</img></div></div>","null","FIX","","","","","","","","","","",""
"","","","","627ea14463f25dce42e73d51","bdp_wmem","Mon Mar 13 2023 13:59:48 GMT-0400 (Eastern Daylight Time)","1008725","Match,No Match","","html-keyboard-response","102","639108","0.0-7.0-2.13","","null","","<div class='trialBorder'><div class='vertical-center'><img style='vertical-align:center; align:center' src='img/fixation2_sml.jpg'></div><div class='arrayDiv2'><div class='tl'><img class='introPic' src='trustrating_stim/white_mw013.bmp'><br><font color='red'><strong>Keep</strong></font></div><div class='tr'><img class='introPic' src='trustrating_stim/white_mw091.bmp'><br><font color='green'><strong>Share</strong></font></div></div></div>","null","ARRAY","2","trustrating_stim/white_mw013.bmp,trustrating_stim/white_mw091.bmp","0,1","Match","e","3000","","","","",""
"","","","","627ea14463f25dce42e73d51","bdp_wmem","Mon Mar 13 2023 13:59:48 GMT-0400 (Eastern Daylight Time)","1008725","Match,No Match","","html-keyboard-response","103","643118","0.0-7.0-3.13","","null","","<div class='trialBorder'><div class='vertical-center'><img src='img/fixation2_sml.jpg'</img></div></div>","null","DELAY","","","","","","","","","","",""
"blur","104","645282","blurevent","627ea14463f25dce42e73d51","bdp_wmem","Mon Mar 13 2023 13:59:48 GMT-0400 (Eastern Daylight Time)","1008725","Match,No Match","2","","","","","","","","","","","","","","","","","","","","",""
"focus","104","647876","focusevent","627ea14463f25dce42e73d51","bdp_wmem","Mon Mar 13 2023 13:59:48 GMT-0400 (Eastern Daylight Time)","1008725","Match,No Match","","","","","","","","","","","","","","","","","","","","","",""
"blur","104","645282","","627ea14463f25dce42e73d51","bdp_wmem","Mon Mar 13 2023 13:59:48 GMT-0400 (Eastern Daylight Time)","1008725","Match,No Match","2","html-keyboard-response","104","648185","0.0-7.0-4.13","","5066","","<div class='trialBorder'><div class='targDiv'><div class='tc'><img class='introPic' src='trustrating_stim/white_mw013.bmp'><br><font color='red'><strong>Keep</strong></font></div></div><div class='respDiv'><div class='respDivL'>Match<br>(e)</div><div class='respDivR'>No Match<br>(i)</div></div></div>","e","TARGET","2","trustrating_stim/white_mw013.bmp,trustrating_stim/white_mw091.bmp","0,1","Match","e","3000","trustrating_stim/white_mw013.bmp","red","Keep","REAL","1"
"blur","104","645282","","627ea14463f25dce42e73d51","bdp_wmem","Mon Mar 13 2023 13:59:48 GMT-0400 (Eastern Daylight Time)","1008725","Match,No Match","2","html-keyboard-response","105","648696","0.0-7.0-5.13","","null","","<div class='trialBorder'><div class='vertical-center'><img src='img/correct.jpg'></div><div class='respDiv'><div class='respDivL'><font style='color:orange'>Match<br>(e)</font></div><div class='respDivR'>No Match<br>(i)</div></div></div>","null","FEEDBACK","","","","","","","","","","",""
"","","","blurwarn","627ea14463f25dce42e73d51","bdp_wmem","Mon Mar 13 2023 13:59:48 GMT-0400 (Eastern Daylight Time)","1008725","Match,No Match","2","image-keyboard-response","106","673753","0.0-7.0-0.14-0.14","","25056","","","49","","","","","","","","","","","",""
"","","","","627ea14463f25dce42e73d51","bdp_wmem","Mon Mar 13 2023 13:59:48 GMT-0400 (Eastern Daylight Time)","1008725","Match,No Match","","html-keyboard-response","107","674516","0.0-7.0-1.14","","null","","<div class='trialBorder'><div class='vertical-center'><img src='img/fixation2_sml.jpg'</img></div></div>","null","FIX","","","","","","","","","","",""
"","","","","627ea14463f25dce42e73d51","bdp_wmem","Mon Mar 13 2023 13:59:48 GMT-0400 (Eastern Daylight Time)","1008725","Match,No Match","","html-keyboard-response","108","676027","0.0-7.0-2.14","","null","","<div class='trialBorder'><div class='vertical-center'><img style='vertical-align:center; align:center' src='img/fixation2_sml.jpg'></div><div class='arrayDiv1'><div class='tc'><img class='introPic' src='trustrating_stim/white_mw012.bmp'><br><font color='red'><strong>Keep</strong></font></div></div></div>","null","ARRAY","1","trustrating_stim/white_mw012.bmp","0","Match","e","1500","","","","",""
"","","","","627ea14463f25dce42e73d51","bdp_wmem","Mon Mar 13 2023 13:59:48 GMT-0400 (Eastern Daylight Time)","1008725","Match,No Match","","html-keyboard-response","109","680041","0.0-7.0-3.14","","null","","<div class='trialBorder'><div class='vertical-center'><img src='img/fixation2_sml.jpg'</img></div></div>","null","DELAY","","","","","","","","","","",""
"","","","","627ea14463f25dce42e73d51","bdp_wmem","Mon Mar 13 2023 13:59:48 GMT-0400 (Eastern Daylight Time)","1008725","Match,No Match","","html-keyboard-response","110","681791","0.0-7.0-4.14","","1749","","<div class='trialBorder'><div class='targDiv'><div class='tc'><img class='introPic' src='trustrating_stim/white_mw012.bmp'><br><font color='red'><strong>Keep</strong></font></div></div><div class='respDiv'><div class='respDivL'>Match<br>(e)</div><div class='respDivR'>No Match<br>(i)</div></div></div>","e","TARGET","1","trustrating_stim/white_mw012.bmp","0","Match","e","1500","trustrating_stim/white_mw012.bmp","red","Keep","REAL","1"
"","","","","627ea14463f25dce42e73d51","bdp_wmem","Mon Mar 13 2023 13:59:48 GMT-0400 (Eastern Daylight Time)","1008725","Match,No Match","","html-keyboard-response","111","682300","0.0-7.0-5.14","","null","","<div class='trialBorder'><div class='vertical-center'><img src='img/correct.jpg'></div><div class='respDiv'><div class='respDivL'><font style='color:orange'>Match<br>(e)</font></div><div class='respDivR'>No Match<br>(i)</div></div></div>","null","FEEDBACK","","","","","","","","","","",""
"","","","","627ea14463f25dce42e73d51","bdp_wmem","Mon Mar 13 2023 13:59:48 GMT-0400 (Eastern Daylight Time)","1008725","Match,No Match","","html-keyboard-response","112","682801","0.0-7.0-1.15","","null","","<div class='trialBorder'><div class='vertical-center'><img src='img/fixation2_sml.jpg'</img></div></div>","null","FIX","","","","","","","","","","",""
"","","","","627ea14463f25dce42e73d51","bdp_wmem","Mon Mar 13 2023 13:59:48 GMT-0400 (Eastern Daylight Time)","1008725","Match,No Match","","html-keyboard-response","113","684312","0.0-7.0-2.15","","null","","<div class='trialBorder'><div class='vertical-center'><img style='vertical-align:center; align:center' src='img/fixation2_sml.jpg'></div><div class='arrayDiv1'><div class='tc'><img class='introPic' src='trustrating_stim/white_mw078.bmp'><br><font color='green'><strong>Share</strong></font></div></div></div>","null","ARRAY","1","trustrating_stim/white_mw078.bmp","1","noMatchOutcome","i","1500","","","","",""
"","","","","627ea14463f25dce42e73d51","bdp_wmem","Mon Mar 13 2023 13:59:48 GMT-0400 (Eastern Daylight Time)","1008725","Match,No Match","","html-keyboard-response","114","688313","0.0-7.0-3.15","","null","","<div class='trialBorder'><div class='vertical-center'><img src='img/fixation2_sml.jpg'</img></div></div>","null","DELAY","","","","","","","","","","",""
"","","","","627ea14463f25dce42e73d51","bdp_wmem","Mon Mar 13 2023 13:59:48 GMT-0400 (Eastern Daylight Time)","1008725","Match,No Match","","html-keyboard-response","115","689556","0.0-7.0-4.15","","1242","","<div class='trialBorder'><div class='targDiv'><div class='tc'><img class='introPic' src='trustrating_stim/white_mw078.bmp'><br><font color='red'><strong>Keep</strong></font></div></div><div class='respDiv'><div class='respDivL'>Match<br>(e)</div><div class='respDivR'>No Match<br>(i)</div></div></div>","i","TARGET","1","trustrating_stim/white_mw078.bmp","1","noMatchOutcome","i","1500","trustrating_stim/white_mw078.bmp","red","Keep","REAL","1"
"","","","","627ea14463f25dce42e73d51","bdp_wmem","Mon Mar 13 2023 13:59:48 GMT-0400 (Eastern Daylight Time)","1008725","Match,No Match","","html-keyboard-response","116","690060","0.0-7.0-5.15","","null","","<div class='trialBorder'><div class='vertical-center'><img src='img/correct.jpg'></div><div class='respDiv'><div class='respDivL'>Match<br>(e)</div><div class='respDivR'><font style='color:orange'>No Match<br>(i)</font></div></div></div>","null","FEEDBACK","","","","","","","","","","",""
"","","","","627ea14463f25dce42e73d51","bdp_wmem","Mon Mar 13 2023 13:59:48 GMT-0400 (Eastern Daylight Time)","1008725","Match,No Match","","html-keyboard-response","117","690585","0.0-7.0-1.16","","null","","<div class='trialBorder'><div class='vertical-center'><img src='img/fixation2_sml.jpg'</img></div></div>","null","FIX","","","","","","","","","","",""
"","","","","627ea14463f25dce42e73d51","bdp_wmem","Mon Mar 13 2023 13:59:48 GMT-0400 (Eastern Daylight Time)","1008725","Match,No Match","","html-keyboard-response","118","693588","0.0-7.0-2.16","","null","","<div class='trialBorder'><div class='vertical-center'><img style='vertical-align:center; align:center' src='img/fixation2_sml.jpg'></div><div class='arrayDiv2'><div class='tl'><img class='introPic' src='trustrating_stim/white_mw092.bmp'><br><font color='green'><strong>Share</strong></font></div><div class='tr'><img class='introPic' src='trustrating_stim/white_mw013.bmp'><br><font color='red'><strong>Keep</strong></font></div></div></div>","null","ARRAY","2","trustrating_stim/white_mw092.bmp,trustrating_stim/white_mw013.bmp","1,0","Match","e","3000","","","","",""
"","","","","627ea14463f25dce42e73d51","bdp_wmem","Mon Mar 13 2023 13:59:48 GMT-0400 (Eastern Daylight Time)","1008725","Match,No Match","","html-keyboard-response","119","697599","0.0-7.0-3.16","","null","","<div class='trialBorder'><div class='vertical-center'><img src='img/fixation2_sml.jpg'</img></div></div>","null","DELAY","","","","","","","","","","",""
"","","","","627ea14463f25dce42e73d51","bdp_wmem","Mon Mar 13 2023 13:59:48 GMT-0400 (Eastern Daylight Time)","1008725","Match,No Match","","html-keyboard-response","120","699845","0.0-7.0-4.16","","2244","","<div class='trialBorder'><div class='targDiv'><div class='tc'><img class='introPic' src='trustrating_stim/white_mw092.bmp'><br><font color='green'><strong>Share</strong></font></div></div><div class='respDiv'><div class='respDivL'>Match<br>(e)</div><div class='respDivR'>No Match<br>(i)</div></div></div>","e","TARGET","2","trustrating_stim/white_mw092.bmp,trustrating_stim/white_mw013.bmp","1,0","Match","e","3000","trustrating_stim/white_mw092.bmp","green","Share","REAL","1"
"","","","","627ea14463f25dce42e73d51","bdp_wmem","Mon Mar 13 2023 13:59:48 GMT-0400 (Eastern Daylight Time)","1008725","Match,No Match","","html-keyboard-response","121","700361","0.0-7.0-5.16","","null","","<div class='trialBorder'><div class='vertical-center'><img src='img/correct.jpg'></div><div class='respDiv'><div class='respDivL'><font style='color:orange'>Match<br>(e)</font></div><div class='respDivR'>No Match<br>(i)</div></div></div>","null","FEEDBACK","","","","","","","","","","",""
"","","","","627ea14463f25dce42e73d51","bdp_wmem","Mon Mar 13 2023 13:59:48 GMT-0400 (Eastern Daylight Time)","1008725","Match,No Match","","html-keyboard-response","122","700875","0.0-7.0-1.17","","null","","<div class='trialBorder'><div class='vertical-center'><img src='img/fixation2_sml.jpg'</img></div></div>","null","FIX","","","","","","","","","","",""
"","","","","627ea14463f25dce42e73d51","bdp_wmem","Mon Mar 13 2023 13:59:48 GMT-0400 (Eastern Daylight Time)","1008725","Match,No Match","","html-keyboard-response","123","702385","0.0-7.0-2.17","","null","","<div class='trialBorder'><div class='vertical-center'><img style='vertical-align:center; align:center' src='img/fixation2_sml.jpg'></div><div class='arrayDiv1'><div class='tc'><img class='introPic' src='trustrating_stim/white_mw010.bmp'><br><font color='red'><strong>Keep</strong></font></div></div></div>","null","ARRAY","1","trustrating_stim/white_mw010.bmp","0","Match","e","1500","","","","",""
"","","","","627ea14463f25dce42e73d51","bdp_wmem","Mon Mar 13 2023 13:59:48 GMT-0400 (Eastern Daylight Time)","1008725","Match,No Match","","html-keyboard-response","124","706401","0.0-7.0-3.17","","null","","<div class='trialBorder'><div class='vertical-center'><img src='img/fixation2_sml.jpg'</img></div></div>","null","DELAY","","","","","","","","","","",""
"","","","","627ea14463f25dce42e73d51","bdp_wmem","Mon Mar 13 2023 13:59:48 GMT-0400 (Eastern Daylight Time)","1008725","Match,No Match","","html-keyboard-response","125","708208","0.0-7.0-4.17","","1807","","<div class='trialBorder'><div class='targDiv'><div class='tc'><img class='introPic' src='trustrating_stim/white_mw010.bmp'><br><font color='red'><strong>Keep</strong></font></div></div><div class='respDiv'><div class='respDivL'>Match<br>(e)</div><div class='respDivR'>No Match<br>(i)</div></div></div>","e","TARGET","1","trustrating_stim/white_mw010.bmp","0","Match","e","1500","trustrating_stim/white_mw010.bmp","red","Keep","REAL","1"
"","","","","627ea14463f25dce42e73d51","bdp_wmem","Mon Mar 13 2023 13:59:48 GMT-0400 (Eastern Daylight Time)","1008725","Match,No Match","","html-keyboard-response","126","708714","0.0-7.0-5.17","","null","","<div class='trialBorder'><div class='vertical-center'><img src='img/correct.jpg'></div><div class='respDiv'><div class='respDivL'><font style='color:orange'>Match<br>(e)</font></div><div class='respDivR'>No Match<br>(i)</div></div></div>","null","FEEDBACK","","","","","","","","","","",""
"","","","","627ea14463f25dce42e73d51","bdp_wmem","Mon Mar 13 2023 13:59:48 GMT-0400 (Eastern Daylight Time)","1008725","Match,No Match","","html-keyboard-response","127","709231","0.0-7.0-1.18","","null","","<div class='trialBorder'><div class='vertical-center'><img src='img/fixation2_sml.jpg'</img></div></div>","null","FIX","","","","","","","","","","",""
"","","","","627ea14463f25dce42e73d51","bdp_wmem","Mon Mar 13 2023 13:59:48 GMT-0400 (Eastern Daylight Time)","1008725","Match,No Match","","html-keyboard-response","128","713744","0.0-7.0-2.18","","null","","<div class='trialBorder'><div class='vertical-center'><img style='vertical-align:center; align:center' src='img/fixation2_sml.jpg'></div><div class='arrayDiv3'><div class='tl'><img class='introPic' src='trustrating_stim/white_mw092.bmp'><br><font color='red'><strong>Keep</strong></font></div><div class='tc'><img class='introPic' src='trustrating_stim/white_mw038.bmp'><br><font color='green'><strong>Share</strong></font></div><div class='tr'><img class='introPic' src='trustrating_stim/white_mw003.bmp'><br><font color='green'><strong>Share</strong></font></div></div></div>","null","ARRAY","3","trustrating_stim/white_mw092.bmp,trustrating_stim/white_mw038.bmp,trustrating_stim/white_mw003.bmp","0,1,1","noMatchOutcome","i","4500","","","","",""
"","","","","627ea14463f25dce42e73d51","bdp_wmem","Mon Mar 13 2023 13:59:48 GMT-0400 (Eastern Daylight Time)","1008725","Match,No Match","","html-keyboard-response","129","717756","0.0-7.0-3.18","","null","","<div class='trialBorder'><div class='vertical-center'><img src='img/fixation2_sml.jpg'</img></div></div>","null","DELAY","","","","","","","","","","",""
"","","","","627ea14463f25dce42e73d51","bdp_wmem","Mon Mar 13 2023 13:59:48 GMT-0400 (Eastern Daylight Time)","1008725","Match,No Match","","html-keyboard-response","130","720051","0.0-7.0-4.18","","2294","","<div class='trialBorder'><div class='targDiv'><div class='tc'><img class='introPic' src='trustrating_stim/white_mw003.bmp'><br><font color='red'><strong>Keep</strong></font></div></div><div class='respDiv'><div class='respDivL'>Match<br>(e)</div><div class='respDivR'>No Match<br>(i)</div></div></div>","i","TARGET","3","trustrating_stim/white_mw092.bmp,trustrating_stim/white_mw038.bmp,trustrating_stim/white_mw003.bmp","0,1,1","noMatchOutcome","i","4500","trustrating_stim/white_mw003.bmp","red","Keep","REAL","1"
"","","","","627ea14463f25dce42e73d51","bdp_wmem","Mon Mar 13 2023 13:59:48 GMT-0400 (Eastern Daylight Time)","1008725","Match,No Match","","html-keyboard-response","131","720552","0.0-7.0-5.18","","null","","<div class='trialBorder'><div class='vertical-center'><img src='img/correct.jpg'></div><div class='respDiv'><div class='respDivL'>Match<br>(e)</div><div class='respDivR'><font style='color:orange'>No Match<br>(i)</font></div></div></div>","null","FEEDBACK","","","","","","","","","","",""
"","","","","627ea14463f25dce42e73d51","bdp_wmem","Mon Mar 13 2023 13:59:48 GMT-0400 (Eastern Daylight Time)","1008725","Match,No Match","","html-keyboard-response","132","721054","0.0-7.0-1.19","","null","","<div class='trialBorder'><div class='vertical-center'><img src='img/fixation2_sml.jpg'</img></div></div>","null","FIX","","","","","","","","","","",""
"","","","","627ea14463f25dce42e73d51","bdp_wmem","Mon Mar 13 2023 13:59:48 GMT-0400 (Eastern Daylight Time)","1008725","Match,No Match","","html-keyboard-response","133","724062","0.0-7.0-2.19","","null","","<div class='trialBorder'><div class='vertical-center'><img style='vertical-align:center; align:center' src='img/fixation2_sml.jpg'></div><div class='arrayDiv2'><div class='tl'><img class='introPic' src='trustrating_stim/white_mw003.bmp'><br><font color='green'><strong>Share</strong></font></div><div class='tr'><img class='introPic' src='trustrating_stim/white_mw085.bmp'><br><font color='red'><strong>Keep</strong></font></div></div></div>","null","ARRAY","2","trustrating_stim/white_mw003.bmp,trustrating_stim/white_mw085.bmp","1,0","noMatchOutcome","i","3000","","","","",""
"","","","","627ea14463f25dce42e73d51","bdp_wmem","Mon Mar 13 2023 13:59:48 GMT-0400 (Eastern Daylight Time)","1008725","Match,No Match","","html-keyboard-response","134","728065","0.0-7.0-3.19","","null","","<div class='trialBorder'><div class='vertical-center'><img src='img/fixation2_sml.jpg'</img></div></div>","null","DELAY","","","","","","","","","","",""
"","","","","627ea14463f25dce42e73d51","bdp_wmem","Mon Mar 13 2023 13:59:48 GMT-0400 (Eastern Daylight Time)","1008725","Match,No Match","","html-keyboard-response","135","729817","0.0-7.0-4.19","","1750","","<div class='trialBorder'><div class='targDiv'><div class='tc'><img class='introPic' src='trustrating_stim/white_mw085.bmp'><br><font color='green'><strong>Share</strong></font></div></div><div class='respDiv'><div class='respDivL'>Match<br>(e)</div><div class='respDivR'>No Match<br>(i)</div></div></div>","i","TARGET","2","trustrating_stim/white_mw003.bmp,trustrating_stim/white_mw085.bmp","1,0","noMatchOutcome","i","3000","trustrating_stim/white_mw085.bmp","green","Share","REAL","1"
"","","","","627ea14463f25dce42e73d51","bdp_wmem","Mon Mar 13 2023 13:59:48 GMT-0400 (Eastern Daylight Time)","1008725","Match,No Match","","html-keyboard-response","136","730328","0.0-7.0-5.19","","null","","<div class='trialBorder'><div class='vertical-center'><img src='img/correct.jpg'></div><div class='respDiv'><div class='respDivL'>Match<br>(e)</div><div class='respDivR'><font style='color:orange'>No Match<br>(i)</font></div></div></div>","null","FEEDBACK","","","","","","","","","","",""
"","","","","627ea14463f25dce42e73d51","bdp_wmem","Mon Mar 13 2023 13:59:48 GMT-0400 (Eastern Daylight Time)","1008725","Match,No Match","","html-keyboard-response","137","730828","0.0-7.0-1.20","","null","","<div class='trialBorder'><div class='vertical-center'><img src='img/fixation2_sml.jpg'</img></div></div>","null","FIX","","","","","","","","","","",""
"","","","","627ea14463f25dce42e73d51","bdp_wmem","Mon Mar 13 2023 13:59:48 GMT-0400 (Eastern Daylight Time)","1008725","Match,No Match","","html-keyboard-response","138","735337","0.0-7.0-2.20","","null","","<div class='trialBorder'><div class='vertical-center'><img style='vertical-align:center; align:center' src='img/fixation2_sml.jpg'></div><div class='arrayDiv3'><div class='tl'><img class='introPic' src='trustrating_stim/white_mw013.bmp'><br><font color='green'><strong>Share</strong></font></div><div class='tc'><img class='introPic' src='trustrating_stim/white_mw042.bmp'><br><font color='red'><strong>Keep</strong></font></div><div class='tr'><img class='introPic' src='trustrating_stim/white_mw092.bmp'><br><font color='green'><strong>Share</strong></font></div></div></div>","null","ARRAY","3","trustrating_stim/white_mw013.bmp,trustrating_stim/white_mw042.bmp,trustrating_stim/white_mw092.bmp","1,0,1","noMatchFace","i","4500","","","","",""
"","","","","627ea14463f25dce42e73d51","bdp_wmem","Mon Mar 13 2023 13:59:48 GMT-0400 (Eastern Daylight Time)","1008725","Match,No Match","","html-keyboard-response","139","739355","0.0-7.0-3.20","","null","","<div class='trialBorder'><div class='vertical-center'><img src='img/fixation2_sml.jpg'</img></div></div>","null","DELAY","","","","","","","","","","",""
"","","","","627ea14463f25dce42e73d51","bdp_wmem","Mon Mar 13 2023 13:59:48 GMT-0400 (Eastern Daylight Time)","1008725","Match,No Match","","html-keyboard-response","140","741545","0.0-7.0-4.20","","2189","","<div class='trialBorder'><div class='targDiv'><div class='tc'><img class='introPic' src='trustrating_stim/white_mw091.bmp'><br><font color='green'><strong>Share</strong></font></div></div><div class='respDiv'><div class='respDivL'>Match<br>(e)</div><div class='respDivR'>No Match<br>(i)</div></div></div>","i","TARGET","3","trustrating_stim/white_mw013.bmp,trustrating_stim/white_mw042.bmp,trustrating_stim/white_mw092.bmp","1,0,1","noMatchFace","i","4500","trustrating_stim/white_mw091.bmp","green","Share","REAL","1"
"","","","","627ea14463f25dce42e73d51","bdp_wmem","Mon Mar 13 2023 13:59:48 GMT-0400 (Eastern Daylight Time)","1008725","Match,No Match","","html-keyboard-response","141","742051","0.0-7.0-5.20","","null","","<div class='trialBorder'><div class='vertical-center'><img src='img/correct.jpg'></div><div class='respDiv'><div class='respDivL'>Match<br>(e)</div><div class='respDivR'><font style='color:orange'>No Match<br>(i)</font></div></div></div>","null","FEEDBACK","","","","","","","","","","",""
"","","","","627ea14463f25dce42e73d51","bdp_wmem","Mon Mar 13 2023 13:59:48 GMT-0400 (Eastern Daylight Time)","1008725","Match,No Match","","html-keyboard-response","142","742553","0.0-7.0-1.21","","null","","<div class='trialBorder'><div class='vertical-center'><img src='img/fixation2_sml.jpg'</img></div></div>","null","FIX","","","","","","","","","","",""
"","","","","627ea14463f25dce42e73d51","bdp_wmem","Mon Mar 13 2023 13:59:48 GMT-0400 (Eastern Daylight Time)","1008725","Match,No Match","","html-keyboard-response","143","744071","0.0-7.0-2.21","","null","","<div class='trialBorder'><div class='vertical-center'><img style='vertical-align:center; align:center' src='img/fixation2_sml.jpg'></div><div class='arrayDiv1'><div class='tc'><img class='introPic' src='trustrating_stim/white_mw091.bmp'><br><font color='green'><strong>Share</strong></font></div></div></div>","null","ARRAY","1","trustrating_stim/white_mw091.bmp","1","Match","e","1500","","","","",""
"","","","","627ea14463f25dce42e73d51","bdp_wmem","Mon Mar 13 2023 13:59:48 GMT-0400 (Eastern Daylight Time)","1008725","Match,No Match","","html-keyboard-response","144","748087","0.0-7.0-3.21","","null","","<div class='trialBorder'><div class='vertical-center'><img src='img/fixation2_sml.jpg'</img></div></div>","null","DELAY","","","","","","","","","","",""
"","","","","627ea14463f25dce42e73d51","bdp_wmem","Mon Mar 13 2023 13:59:48 GMT-0400 (Eastern Daylight Time)","1008725","Match,No Match","","html-keyboard-response","145","749466","0.0-7.0-4.21","","1378","","<div class='trialBorder'><div class='targDiv'><div class='tc'><img class='introPic' src='trustrating_stim/white_mw091.bmp'><br><font color='green'><strong>Share</strong></font></div></div><div class='respDiv'><div class='respDivL'>Match<br>(e)</div><div class='respDivR'>No Match<br>(i)</div></div></div>","e","TARGET","1","trustrating_stim/white_mw091.bmp","1","Match","e","1500","trustrating_stim/white_mw091.bmp","green","Share","REAL","1"
"","","","","627ea14463f25dce42e73d51","bdp_wmem","Mon Mar 13 2023 13:59:48 GMT-0400 (Eastern Daylight Time)","1008725","Match,No Match","","html-keyboard-response","146","749979","0.0-7.0-5.21","","null","","<div class='trialBorder'><div class='vertical-center'><img src='img/correct.jpg'></div><div class='respDiv'><div class='respDivL'><font style='color:orange'>Match<br>(e)</font></div><div class='respDivR'>No Match<br>(i)</div></div></div>","null","FEEDBACK","","","","","","","","","","",""
"","","","","627ea14463f25dce42e73d51","bdp_wmem","Mon Mar 13 2023 13:59:48 GMT-0400 (Eastern Daylight Time)","1008725","Match,No Match","","html-keyboard-response","147","750492","0.0-7.0-1.22","","null","","<div class='trialBorder'><div class='vertical-center'><img src='img/fixation2_sml.jpg'</img></div></div>","null","FIX","","","","","","","","","","",""
"","","","","627ea14463f25dce42e73d51","bdp_wmem","Mon Mar 13 2023 13:59:48 GMT-0400 (Eastern Daylight Time)","1008725","Match,No Match","","html-keyboard-response","148","751995","0.0-7.0-2.22","","null","","<div class='trialBorder'><div class='vertical-center'><img style='vertical-align:center; align:center' src='img/fixation2_sml.jpg'></div><div class='arrayDiv1'><div class='tc'><img class='introPic' src='trustrating_stim/white_mw038.bmp'><br><font color='red'><strong>Keep</strong></font></div></div></div>","null","ARRAY","1","trustrating_stim/white_mw038.bmp","0","noMatchOutcome","i","1500","","","","",""
"","","","","627ea14463f25dce42e73d51","bdp_wmem","Mon Mar 13 2023 13:59:48 GMT-0400 (Eastern Daylight Time)","1008725","Match,No Match","","html-keyboard-response","149","756003","0.0-7.0-3.22","","null","","<div class='trialBorder'><div class='vertical-center'><img src='img/fixation2_sml.jpg'</img></div></div>","null","DELAY","","","","","","","","","","",""
"","","","","627ea14463f25dce42e73d51","bdp_wmem","Mon Mar 13 2023 13:59:48 GMT-0400 (Eastern Daylight Time)","1008725","Match,No Match","","html-keyboard-response","150","757492","0.0-7.0-4.22","","1488","","<div class='trialBorder'><div class='targDiv'><div class='tc'><img class='introPic' src='trustrating_stim/white_mw038.bmp'><br><font color='green'><strong>Share</strong></font></div></div><div class='respDiv'><div class='respDivL'>Match<br>(e)</div><div class='respDivR'>No Match<br>(i)</div></div></div>","i","TARGET","1","trustrating_stim/white_mw038.bmp","0","noMatchOutcome","i","1500","trustrating_stim/white_mw038.bmp","green","Share","REAL","1"
"","","","","627ea14463f25dce42e73d51","bdp_wmem","Mon Mar 13 2023 13:59:48 GMT-0400 (Eastern Daylight Time)","1008725","Match,No Match","","html-keyboard-response","151","757996","0.0-7.0-5.22","","null","","<div class='trialBorder'><div class='vertical-center'><img src='img/correct.jpg'></div><div class='respDiv'><div class='respDivL'>Match<br>(e)</div><div class='respDivR'><font style='color:orange'>No Match<br>(i)</font></div></div></div>","null","FEEDBACK","","","","","","","","","","",""
"","","","","627ea14463f25dce42e73d51","bdp_wmem","Mon Mar 13 2023 13:59:48 GMT-0400 (Eastern Daylight Time)","1008725","Match,No Match","","html-keyboard-response","152","758499","0.0-7.0-1.23","","null","","<div class='trialBorder'><div class='vertical-center'><img src='img/fixation2_sml.jpg'</img></div></div>","null","FIX","","","","","","","","","","",""
"","","","","627ea14463f25dce42e73d51","bdp_wmem","Mon Mar 13 2023 13:59:48 GMT-0400 (Eastern Daylight Time)","1008725","Match,No Match","","html-keyboard-response","153","760005","0.0-7.0-2.23","","null","","<div class='trialBorder'><div class='vertical-center'><img style='vertical-align:center; align:center' src='img/fixation2_sml.jpg'></div><div class='arrayDiv1'><div class='tc'><img class='introPic' src='trustrating_stim/white_mw070.bmp'><br><font color='green'><strong>Share</strong></font></div></div></div>","null","ARRAY","1","trustrating_stim/white_mw070.bmp","1","noMatchOutcome","i","1500","","","","",""
"","","","","627ea14463f25dce42e73d51","bdp_wmem","Mon Mar 13 2023 13:59:48 GMT-0400 (Eastern Daylight Time)","1008725","Match,No Match","","html-keyboard-response","154","764020","0.0-7.0-3.23","","null","","<div class='trialBorder'><div class='vertical-center'><img src='img/fixation2_sml.jpg'</img></div></div>","null","DELAY","","","","","","","","","","",""
"","","","","627ea14463f25dce42e73d51","bdp_wmem","Mon Mar 13 2023 13:59:48 GMT-0400 (Eastern Daylight Time)","1008725","Match,No Match","","html-keyboard-response","155","765047","0.0-7.0-4.23","","1026","","<div class='trialBorder'><div class='targDiv'><div class='tc'><img class='introPic' src='trustrating_stim/white_mw070.bmp'><br><font color='red'><strong>Keep</strong></font></div></div><div class='respDiv'><div class='respDivL'>Match<br>(e)</div><div class='respDivR'>No Match<br>(i)</div></div></div>","i","TARGET","1","trustrating_stim/white_mw070.bmp","1","noMatchOutcome","i","1500","trustrating_stim/white_mw070.bmp","red","Keep","REAL","1"
"","","","","627ea14463f25dce42e73d51","bdp_wmem","Mon Mar 13 2023 13:59:48 GMT-0400 (Eastern Daylight Time)","1008725","Match,No Match","","html-keyboard-response","156","765556","0.0-7.0-5.23","","null","","<div class='trialBorder'><div class='vertical-center'><img src='img/correct.jpg'></div><div class='respDiv'><div class='respDivL'>Match<br>(e)</div><div class='respDivR'><font style='color:orange'>No Match<br>(i)</font></div></div></div>","null","FEEDBACK","","","","","","","","","","",""
"","","","","627ea14463f25dce42e73d51","bdp_wmem","Mon Mar 13 2023 13:59:48 GMT-0400 (Eastern Daylight Time)","1008725","Match,No Match","","html-keyboard-response","157","766062","0.0-7.0-1.24","","null","","<div class='trialBorder'><div class='vertical-center'><img src='img/fixation2_sml.jpg'</img></div></div>","null","FIX","","","","","","","","","","",""
"","","","","627ea14463f25dce42e73d51","bdp_wmem","Mon Mar 13 2023 13:59:48 GMT-0400 (Eastern Daylight Time)","1008725","Match,No Match","","html-keyboard-response","158","770571","0.0-7.0-2.24","","null","","<div class='trialBorder'><div class='vertical-center'><img style='vertical-align:center; align:center' src='img/fixation2_sml.jpg'></div><div class='arrayDiv3'><div class='tl'><img class='introPic' src='trustrating_stim/white_mw092.bmp'><br><font color='green'><strong>Share</strong></font></div><div class='tc'><img class='introPic' src='trustrating_stim/white_mw042.bmp'><br><font color='green'><strong>Share</strong></font></div><div class='tr'><img class='introPic' src='trustrating_stim/white_mw091.bmp'><br><font color='red'><strong>Keep</strong></font></div></div></div>","null","ARRAY","3","trustrating_stim/white_mw092.bmp,trustrating_stim/white_mw042.bmp,trustrating_stim/white_mw091.bmp","1,1,0","noMatchOutcome","i","4500","","","","",""
"","","","","627ea14463f25dce42e73d51","bdp_wmem","Mon Mar 13 2023 13:59:48 GMT-0400 (Eastern Daylight Time)","1008725","Match,No Match","","html-keyboard-response","159","774573","0.0-7.0-3.24","","null","","<div class='trialBorder'><div class='vertical-center'><img src='img/fixation2_sml.jpg'</img></div></div>","null","DELAY","","","","","","","","","","",""
"","","","","627ea14463f25dce42e73d51","bdp_wmem","Mon Mar 13 2023 13:59:48 GMT-0400 (Eastern Daylight Time)","1008725","Match,No Match","","html-keyboard-response","160","777084","0.0-7.0-4.24","","2509","","<div class='trialBorder'><div class='targDiv'><div class='tc'><img class='introPic' src='trustrating_stim/white_mw092.bmp'><br><font color='red'><strong>Keep</strong></font></div></div><div class='respDiv'><div class='respDivL'>Match<br>(e)</div><div class='respDivR'>No Match<br>(i)</div></div></div>","i","TARGET","3","trustrating_stim/white_mw092.bmp,trustrating_stim/white_mw042.bmp,trustrating_stim/white_mw091.bmp","1,1,0","noMatchOutcome","i","4500","trustrating_stim/white_mw092.bmp","red","Keep","REAL","1"
"","","","","627ea14463f25dce42e73d51","bdp_wmem","Mon Mar 13 2023 13:59:48 GMT-0400 (Eastern Daylight Time)","1008725","Match,No Match","","html-keyboard-response","161","777600","0.0-7.0-5.24","","null","","<div class='trialBorder'><div class='vertical-center'><img src='img/correct.jpg'></div><div class='respDiv'><div class='respDivL'>Match<br>(e)</div><div class='respDivR'><font style='color:orange'>No Match<br>(i)</font></div></div></div>","null","FEEDBACK","","","","","","","","","","",""
"","","","","627ea14463f25dce42e73d51","bdp_wmem","Mon Mar 13 2023 13:59:48 GMT-0400 (Eastern Daylight Time)","1008725","Match,No Match","","html-keyboard-response","162","778109","0.0-7.0-1.25","","null","","<div class='trialBorder'><div class='vertical-center'><img src='img/fixation2_sml.jpg'</img></div></div>","null","FIX","","","","","","","","","","",""
"","","","","627ea14463f25dce42e73d51","bdp_wmem","Mon Mar 13 2023 13:59:48 GMT-0400 (Eastern Daylight Time)","1008725","Match,No Match","","html-keyboard-response","163","782623","0.0-7.0-2.25","","null","","<div class='trialBorder'><div class='vertical-center'><img style='vertical-align:center; align:center' src='img/fixation2_sml.jpg'></div><div class='arrayDiv3'><div class='tl'><img class='introPic' src='trustrating_stim/white_mw013.bmp'><br><font color='red'><strong>Keep</strong></font></div><div class='tc'><img class='introPic' src='trustrating_stim/white_mw012.bmp'><br><font color='green'><strong>Share</strong></font></div><div class='tr'><img class='introPic' src='trustrating_stim/white_mw085.bmp'><br><font color='red'><strong>Keep</strong></font></div></div></div>","null","ARRAY","3","trustrating_stim/white_mw013.bmp,trustrating_stim/white_mw012.bmp,trustrating_stim/white_mw085.bmp","0,1,0","Match","e","4500","","","","",""
"","","","","627ea14463f25dce42e73d51","bdp_wmem","Mon Mar 13 2023 13:59:48 GMT-0400 (Eastern Daylight Time)","1008725","Match,No Match","","html-keyboard-response","164","786640","0.0-7.0-3.25","","null","","<div class='trialBorder'><div class='vertical-center'><img src='img/fixation2_sml.jpg'</img></div></div>","null","DELAY","","","","","","","","","","",""
"","","","","627ea14463f25dce42e73d51","bdp_wmem","Mon Mar 13 2023 13:59:48 GMT-0400 (Eastern Daylight Time)","1008725","Match,No Match","","html-keyboard-response","165","789280","0.0-7.0-4.25","","2640","","<div class='trialBorder'><div class='targDiv'><div class='tc'><img class='introPic' src='trustrating_stim/white_mw012.bmp'><br><font color='green'><strong>Share</strong></font></div></div><div class='respDiv'><div class='respDivL'>Match<br>(e)</div><div class='respDivR'>No Match<br>(i)</div></div></div>","i","TARGET","3","trustrating_stim/white_mw013.bmp,trustrating_stim/white_mw012.bmp,trustrating_stim/white_mw085.bmp","0,1,0","Match","e","4500","trustrating_stim/white_mw012.bmp","green","Share","REAL","0"
"","","","","627ea14463f25dce42e73d51","bdp_wmem","Mon Mar 13 2023 13:59:48 GMT-0400 (Eastern Daylight Time)","1008725","Match,No Match","","html-keyboard-response","166","789797","0.0-7.0-5.25","","null","","<div class='trialBorder'><div class='vertical-center'><img src='img/error.jpg'></div><div class='respDiv'><div class='respDivL'>Match<br>(e)</div><div class='respDivR'><font style='color:orange'>No Match<br>(i)</font></div></div></div>","null","FEEDBACK","","","","","","","","","","",""
"","","","","627ea14463f25dce42e73d51","bdp_wmem","Mon Mar 13 2023 13:59:48 GMT-0400 (Eastern Daylight Time)","1008725","Match,No Match","","html-keyboard-response","167","790317","0.0-7.0-1.26","","null","","<div class='trialBorder'><div class='vertical-center'><img src='img/fixation2_sml.jpg'</img></div></div>","null","FIX","","","","","","","","","","",""
"","","","","627ea14463f25dce42e73d51","bdp_wmem","Mon Mar 13 2023 13:59:48 GMT-0400 (Eastern Daylight Time)","1008725","Match,No Match","","html-keyboard-response","168","794830","0.0-7.0-2.26","","null","","<div class='trialBorder'><div class='vertical-center'><img style='vertical-align:center; align:center' src='img/fixation2_sml.jpg'></div><div class='arrayDiv3'><div class='tl'><img class='introPic' src='trustrating_stim/white_mw012.bmp'><br><font color='green'><strong>Share</strong></font></div><div class='tc'><img class='introPic' src='trustrating_stim/white_mw040.bmp'><br><font color='red'><strong>Keep</strong></font></div><div class='tr'><img class='introPic' src='trustrating_stim/white_mw042.bmp'><br><font color='green'><strong>Share</strong></font></div></div></div>","null","ARRAY","3","trustrating_stim/white_mw012.bmp,trustrating_stim/white_mw040.bmp,trustrating_stim/white_mw042.bmp","1,0,1","Match","e","4500","","","","",""
"","","","","627ea14463f25dce42e73d51","bdp_wmem","Mon Mar 13 2023 13:59:48 GMT-0400 (Eastern Daylight Time)","1008725","Match,No Match","","html-keyboard-response","169","798844","0.0-7.0-3.26","","null","","<div class='trialBorder'><div class='vertical-center'><img src='img/fixation2_sml.jpg'</img></div></div>","null","DELAY","","","","","","","","","","",""
"","","","","627ea14463f25dce42e73d51","bdp_wmem","Mon Mar 13 2023 13:59:48 GMT-0400 (Eastern Daylight Time)","1008725","Match,No Match","","html-keyboard-response","170","801770","0.0-7.0-4.26","","2925","","<div class='trialBorder'><div class='targDiv'><div class='tc'><img class='introPic' src='trustrating_stim/white_mw012.bmp'><br><font color='green'><strong>Share</strong></font></div></div><div class='respDiv'><div class='respDivL'>Match<br>(e)</div><div class='respDivR'>No Match<br>(i)</div></div></div>","e","TARGET","3","trustrating_stim/white_mw012.bmp,trustrating_stim/white_mw040.bmp,trustrating_stim/white_mw042.bmp","1,0,1","Match","e","4500","trustrating_stim/white_mw012.bmp","green","Share","REAL","1"
"","","","","627ea14463f25dce42e73d51","bdp_wmem","Mon Mar 13 2023 13:59:48 GMT-0400 (Eastern Daylight Time)","1008725","Match,No Match","","html-keyboard-response","171","802277","0.0-7.0-5.26","","null","","<div class='trialBorder'><div class='vertical-center'><img src='img/correct.jpg'></div><div class='respDiv'><div class='respDivL'><font style='color:orange'>Match<br>(e)</font></div><div class='respDivR'>No Match<br>(i)</div></div></div>","null","FEEDBACK","","","","","","","","","","",""
"","","","","627ea14463f25dce42e73d51","bdp_wmem","Mon Mar 13 2023 13:59:48 GMT-0400 (Eastern Daylight Time)","1008725","Match,No Match","","html-keyboard-response","172","802779","0.0-7.0-1.27","","null","","<div class='trialBorder'><div class='vertical-center'><img src='img/fixation2_sml.jpg'</img></div></div>","null","FIX","","","","","","","","","","",""
"","","","","627ea14463f25dce42e73d51","bdp_wmem","Mon Mar 13 2023 13:59:48 GMT-0400 (Eastern Daylight Time)","1008725","Match,No Match","","html-keyboard-response","173","804285","0.0-7.0-2.27","","null","","<div class='trialBorder'><div class='vertical-center'><img style='vertical-align:center; align:center' src='img/fixation2_sml.jpg'></div><div class='arrayDiv1'><div class='tc'><img class='introPic' src='trustrating_stim/white_mw010.bmp'><br><font color='green'><strong>Share</strong></font></div></div></div>","null","ARRAY","1","trustrating_stim/white_mw010.bmp","1","Match","e","1500","","","","",""
"","","","","627ea14463f25dce42e73d51","bdp_wmem","Mon Mar 13 2023 13:59:48 GMT-0400 (Eastern Daylight Time)","1008725","Match,No Match","","html-keyboard-response","174","808286","0.0-7.0-3.27","","null","","<div class='trialBorder'><div class='vertical-center'><img src='img/fixation2_sml.jpg'</img></div></div>","null","DELAY","","","","","","","","","","",""
"","","","","627ea14463f25dce42e73d51","bdp_wmem","Mon Mar 13 2023 13:59:48 GMT-0400 (Eastern Daylight Time)","1008725","Match,No Match","","html-keyboard-response","175","809475","0.0-7.0-4.27","","1188","","<div class='trialBorder'><div class='targDiv'><div class='tc'><img class='introPic' src='trustrating_stim/white_mw010.bmp'><br><font color='green'><strong>Share</strong></font></div></div><div class='respDiv'><div class='respDivL'>Match<br>(e)</div><div class='respDivR'>No Match<br>(i)</div></div></div>","e","TARGET","1","trustrating_stim/white_mw010.bmp","1","Match","e","1500","trustrating_stim/white_mw010.bmp","green","Share","REAL","1"
"","","","","627ea14463f25dce42e73d51","bdp_wmem","Mon Mar 13 2023 13:59:48 GMT-0400 (Eastern Daylight Time)","1008725","Match,No Match","","html-keyboard-response","176","809984","0.0-7.0-5.27","","null","","<div class='trialBorder'><div class='vertical-center'><img src='img/correct.jpg'></div><div class='respDiv'><div class='respDivL'><font style='color:orange'>Match<br>(e)</font></div><div class='respDivR'>No Match<br>(i)</div></div></div>","null","FEEDBACK","","","","","","","","","","",""
"","","","","627ea14463f25dce42e73d51","bdp_wmem","Mon Mar 13 2023 13:59:48 GMT-0400 (Eastern Daylight Time)","1008725","Match,No Match","","html-keyboard-response","177","810496","0.0-7.0-1.28","","null","","<div class='trialBorder'><div class='vertical-center'><img src='img/fixation2_sml.jpg'</img></div></div>","null","FIX","","","","","","","","","","",""
"","","","","627ea14463f25dce42e73d51","bdp_wmem","Mon Mar 13 2023 13:59:48 GMT-0400 (Eastern Daylight Time)","1008725","Match,No Match","","html-keyboard-response","178","815004","0.0-7.0-2.28","","null","","<div class='trialBorder'><div class='vertical-center'><img style='vertical-align:center; align:center' src='img/fixation2_sml.jpg'></div><div class='arrayDiv3'><div class='tl'><img class='introPic' src='trustrating_stim/white_mw070.bmp'><br><font color='red'><strong>Keep</strong></font></div><div class='tc'><img class='introPic' src='trustrating_stim/white_mw013.bmp'><br><font color='green'><strong>Share</strong></font></div><div class='tr'><img class='introPic' src='trustrating_stim/white_mw010.bmp'><br><font color='red'><strong>Keep</strong></font></div></div></div>","null","ARRAY","3","trustrating_stim/white_mw070.bmp,trustrating_stim/white_mw013.bmp,trustrating_stim/white_mw010.bmp","0,1,0","noMatchFace","i","4500","","","","",""
"","","","","627ea14463f25dce42e73d51","bdp_wmem","Mon Mar 13 2023 13:59:48 GMT-0400 (Eastern Daylight Time)","1008725","Match,No Match","","html-keyboard-response","179","819019","0.0-7.0-3.28","","null","","<div class='trialBorder'><div class='vertical-center'><img src='img/fixation2_sml.jpg'</img></div></div>","null","DELAY","","","","","","","","","","",""
"","","","","627ea14463f25dce42e73d51","bdp_wmem","Mon Mar 13 2023 13:59:48 GMT-0400 (Eastern Daylight Time)","1008725","Match,No Match","","html-keyboard-response","180","823222","0.0-7.0-4.28","","4202","","<div class='trialBorder'><div class='targDiv'><div class='tc'><img class='introPic' src='trustrating_stim/white_mw085.bmp'><br><font color='red'><strong>Keep</strong></font></div></div><div class='respDiv'><div class='respDivL'>Match<br>(e)</div><div class='respDivR'>No Match<br>(i)</div></div></div>","i","TARGET","3","trustrating_stim/white_mw070.bmp,trustrating_stim/white_mw013.bmp,trustrating_stim/white_mw010.bmp","0,1,0","noMatchFace","i","4500","trustrating_stim/white_mw085.bmp","red","Keep","REAL","1"
"","","","","627ea14463f25dce42e73d51","bdp_wmem","Mon Mar 13 2023 13:59:48 GMT-0400 (Eastern Daylight Time)","1008725","Match,No Match","","html-keyboard-response","181","823738","0.0-7.0-5.28","","null","","<div class='trialBorder'><div class='vertical-center'><img src='img/correct.jpg'></div><div class='respDiv'><div class='respDivL'>Match<br>(e)</div><div class='respDivR'><font style='color:orange'>No Match<br>(i)</font></div></div></div>","null","FEEDBACK","","","","","","","","","","",""
"","","","","627ea14463f25dce42e73d51","bdp_wmem","Mon Mar 13 2023 13:59:48 GMT-0400 (Eastern Daylight Time)","1008725","Match,No Match","","html-keyboard-response","182","824254","0.0-7.0-1.29","","null","","<div class='trialBorder'><div class='vertical-center'><img src='img/fixation2_sml.jpg'</img></div></div>","null","FIX","","","","","","","","","","",""
"","","","","627ea14463f25dce42e73d51","bdp_wmem","Mon Mar 13 2023 13:59:48 GMT-0400 (Eastern Daylight Time)","1008725","Match,No Match","","html-keyboard-response","183","828762","0.0-7.0-2.29","","null","","<div class='trialBorder'><div class='vertical-center'><img style='vertical-align:center; align:center' src='img/fixation2_sml.jpg'></div><div class='arrayDiv3'><div class='tl'><img class='introPic' src='trustrating_stim/white_mw085.bmp'><br><font color='red'><strong>Keep</strong></font></div><div class='tc'><img class='introPic' src='trustrating_stim/white_mw070.bmp'><br><font color='green'><strong>Share</strong></font></div><div class='tr'><img class='introPic' src='trustrating_stim/white_mw078.bmp'><br><font color='red'><strong>Keep</strong></font></div></div></div>","null","ARRAY","3","trustrating_stim/white_mw085.bmp,trustrating_stim/white_mw070.bmp,trustrating_stim/white_mw078.bmp","0,1,0","Match","e","4500","","","","",""
"","","","","627ea14463f25dce42e73d51","bdp_wmem","Mon Mar 13 2023 13:59:48 GMT-0400 (Eastern Daylight Time)","1008725","Match,No Match","","html-keyboard-response","184","832766","0.0-7.0-3.29","","null","","<div class='trialBorder'><div class='vertical-center'><img src='img/fixation2_sml.jpg'</img></div></div>","null","DELAY","","","","","","","","","","",""
"","","","","627ea14463f25dce42e73d51","bdp_wmem","Mon Mar 13 2023 13:59:48 GMT-0400 (Eastern Daylight Time)","1008725","Match,No Match","","html-keyboard-response","185","835324","0.0-7.0-4.29","","2558","","<div class='trialBorder'><div class='targDiv'><div class='tc'><img class='introPic' src='trustrating_stim/white_mw078.bmp'><br><font color='red'><strong>Keep</strong></font></div></div><div class='respDiv'><div class='respDivL'>Match<br>(e)</div><div class='respDivR'>No Match<br>(i)</div></div></div>","e","TARGET","3","trustrating_stim/white_mw085.bmp,trustrating_stim/white_mw070.bmp,trustrating_stim/white_mw078.bmp","0,1,0","Match","e","4500","trustrating_stim/white_mw078.bmp","red","Keep","REAL","1"
