"event","trial","time","trialtype","subject_id","task","startTime","totalTime","labels","trial_type","trial_index","time_elapsed","internal_node_id","view_history","rt","success","stimulus","key_press","stimType","arraySize","arrayFaces","arrayOutcomes","matchType","corrResp","arrayDur","targFace","targCol","targOutcome","trialType","corr","numBlurs"
"focus","0","0","focusevent","6075ed15dc9411d0165d4dd9","bdp_wmem","Tue May 11 2021 16:02:51 GMT-0400 (Eastern Daylight Time)","780051","Match,No Match","","","","","","","","","","","","","","","","","","","","","",""
"","","","","6075ed15dc9411d0165d4dd9","bdp_wmem","Tue May 11 2021 16:02:51 GMT-0400 (Eastern Daylight Time)","780051","Match,No Match","pavlovia","0","11","0.0-0.0","","","","","","","","","","","","","","","","","",""
"","","","","6075ed15dc9411d0165d4dd9","bdp_wmem","Tue May 11 2021 16:02:51 GMT-0400 (Eastern Daylight Time)","780051","Match,No Match","instructions","1","5942","0.0-1.0","[{""page_index"":0,""viewing_time"":5926}]","5927","","","","","","","","","","","","","","","",""
"fullscreenexit","2","10731","fullscreenexit","6075ed15dc9411d0165d4dd9","bdp_wmem","Tue May 11 2021 16:02:51 GMT-0400 (Eastern Daylight Time)","780051","Match,No Match","","","","","","","","","","","","","","","","","","","","","",""
"","","","","6075ed15dc9411d0165d4dd9","bdp_wmem","Tue May 11 2021 16:02:51 GMT-0400 (Eastern Daylight Time)","780051","Match,No Match","fullscreen","2","11729","0.0-2.0","","","true","","","","","","","","","","","","","","",""
"","","","fullscreenfail","6075ed15dc9411d0165d4dd9","bdp_wmem","Tue May 11 2021 16:02:51 GMT-0400 (Eastern Daylight Time)","780051","Match,No Match","image-keyboard-response","3","16064","0.0-3.0-0.0","","4330","","","32","","","","","","","","","","","","",""
"","","","","6075ed15dc9411d0165d4dd9","bdp_wmem","Tue May 11 2021 16:02:51 GMT-0400 (Eastern Daylight Time)","780051","Match,No Match","instructions","4","271677","0.0-4.0","[{""page_index"":0,""viewing_time"":78104},{""page_index"":1,""viewing_time"":87035},{""page_index"":2,""viewing_time"":43405},{""page_index"":3,""viewing_time"":23508},{""page_index"":4,""viewing_time"":23308}]","255361","","","","","","","","","","","","","","","",""
"","","","","6075ed15dc9411d0165d4dd9","bdp_wmem","Tue May 11 2021 16:02:51 GMT-0400 (Eastern Daylight Time)","780051","Match,No Match","html-keyboard-response","5","272189","0.0-5.0-1.0","","null","","<div class='trialBorder'><div class='vertical-center'><img src='img/fixation2_sml.jpg'</img></div></div>","null","FIX","","","","","","","","","","","",""
"","","","","6075ed15dc9411d0165d4dd9","bdp_wmem","Tue May 11 2021 16:02:51 GMT-0400 (Eastern Daylight Time)","780051","Match,No Match","html-keyboard-response","6","275195","0.0-5.0-2.0","","null","","<div class='trialBorder'><div class='vertical-center'><img style='vertical-align:center; align:center' src='img/fixation2_sml.jpg'></div><div class='arrayDiv2'><div class='tl'><img class='introPic' src='trustrating_stim/white_mw092.bmp'><br><font color='green'><strong>Share</strong></font></div><div class='tr'><img class='introPic' src='trustrating_stim/white_00807_941205_fb_edt.bmp'><br><font color='red'><strong>Keep</strong></font></div></div></div>","null","ARRAY","2","trustrating_stim/white_mw092.bmp,trustrating_stim/white_00807_941205_fb_edt.bmp","1,0","Match","e","3000","","","","","",""
"","","","","6075ed15dc9411d0165d4dd9","bdp_wmem","Tue May 11 2021 16:02:51 GMT-0400 (Eastern Daylight Time)","780051","Match,No Match","html-keyboard-response","7","279206","0.0-5.0-3.0","","null","","<div class='trialBorder'><div class='vertical-center'><img src='img/fixation2_sml.jpg'</img></div></div>","null","DELAY","","","","","","","","","","","",""
"","","","","6075ed15dc9411d0165d4dd9","bdp_wmem","Tue May 11 2021 16:02:51 GMT-0400 (Eastern Daylight Time)","780051","Match,No Match","html-keyboard-response","8","280859","0.0-5.0-4.0","","1650","","<div class='trialBorder'><div class='targDiv'><div class='tc'><img class='introPic' src='trustrating_stim/white_00807_941205_fb_edt.bmp'><br><font color='red'><strong>Keep</strong></font></div></div><div class='respDiv'><div class='respDivL'>Match<br>(e)</div><div class='respDivR'>No Match<br>(i)</div></div></div>","e","TARGET","2","trustrating_stim/white_mw092.bmp,trustrating_stim/white_00807_941205_fb_edt.bmp","1,0","Match","e","3000","trustrating_stim/white_00807_941205_fb_edt.bmp","red","Keep","PRACTICE","1",""
"","","","","6075ed15dc9411d0165d4dd9","bdp_wmem","Tue May 11 2021 16:02:51 GMT-0400 (Eastern Daylight Time)","780051","Match,No Match","html-keyboard-response","9","281363","0.0-5.0-5.0","","null","","<div class='trialBorder'><div class='vertical-center'><img src='img/correct.jpg'></div><div class='respDiv'><div class='respDivL'><font style='color:orange'>Match<br>(e)</font></div><div class='respDivR'>No Match<br>(i)</div></div></div>","null","FEEDBACK","","","","","","","","","","","",""
"","","","","6075ed15dc9411d0165d4dd9","bdp_wmem","Tue May 11 2021 16:02:51 GMT-0400 (Eastern Daylight Time)","780051","Match,No Match","html-keyboard-response","10","281869","0.0-5.0-1.1","","null","","<div class='trialBorder'><div class='vertical-center'><img src='img/fixation2_sml.jpg'</img></div></div>","null","FIX","","","","","","","","","","","",""
"","","","","6075ed15dc9411d0165d4dd9","bdp_wmem","Tue May 11 2021 16:02:51 GMT-0400 (Eastern Daylight Time)","780051","Match,No Match","html-keyboard-response","11","284871","0.0-5.0-2.1","","null","","<div class='trialBorder'><div class='vertical-center'><img style='vertical-align:center; align:center' src='img/fixation2_sml.jpg'></div><div class='arrayDiv2'><div class='tl'><img class='introPic' src='trustrating_stim/white_mw070.bmp'><br><font color='green'><strong>Share</strong></font></div><div class='tr'><img class='introPic' src='trustrating_stim/white_mw092.bmp'><br><font color='red'><strong>Keep</strong></font></div></div></div>","null","ARRAY","2","trustrating_stim/white_mw070.bmp,trustrating_stim/white_mw092.bmp","1,0","noMatchFace","i","3000","","","","","",""
"","","","","6075ed15dc9411d0165d4dd9","bdp_wmem","Tue May 11 2021 16:02:51 GMT-0400 (Eastern Daylight Time)","780051","Match,No Match","html-keyboard-response","12","288883","0.0-5.0-3.1","","null","","<div class='trialBorder'><div class='vertical-center'><img src='img/fixation2_sml.jpg'</img></div></div>","null","DELAY","","","","","","","","","","","",""
"","","","","6075ed15dc9411d0165d4dd9","bdp_wmem","Tue May 11 2021 16:02:51 GMT-0400 (Eastern Daylight Time)","780051","Match,No Match","html-keyboard-response","13","289856","0.0-5.0-4.1","","971","","<div class='trialBorder'><div class='targDiv'><div class='tc'><img class='introPic' src='trustrating_stim/white_mw013.bmp'><br><font color='red'><strong>Keep</strong></font></div></div><div class='respDiv'><div class='respDivL'>Match<br>(e)</div><div class='respDivR'>No Match<br>(i)</div></div></div>","e","TARGET","2","trustrating_stim/white_mw070.bmp,trustrating_stim/white_mw092.bmp","1,0","noMatchFace","i","3000","trustrating_stim/white_mw013.bmp","red","Keep","PRACTICE","0",""
"","","","","6075ed15dc9411d0165d4dd9","bdp_wmem","Tue May 11 2021 16:02:51 GMT-0400 (Eastern Daylight Time)","780051","Match,No Match","html-keyboard-response","14","290365","0.0-5.0-5.1","","null","","<div class='trialBorder'><div class='vertical-center'><img src='img/error.jpg'></div><div class='respDiv'><div class='respDivL'><font style='color:orange'>Match<br>(e)</font></div><div class='respDivR'>No Match<br>(i)</div></div></div>","null","FEEDBACK","","","","","","","","","","","",""
"","","","","6075ed15dc9411d0165d4dd9","bdp_wmem","Tue May 11 2021 16:02:51 GMT-0400 (Eastern Daylight Time)","780051","Match,No Match","html-keyboard-response","15","290877","0.0-5.0-1.2","","null","","<div class='trialBorder'><div class='vertical-center'><img src='img/fixation2_sml.jpg'</img></div></div>","null","FIX","","","","","","","","","","","",""
"","","","","6075ed15dc9411d0165d4dd9","bdp_wmem","Tue May 11 2021 16:02:51 GMT-0400 (Eastern Daylight Time)","780051","Match,No Match","html-keyboard-response","16","292392","0.0-5.0-2.2","","null","","<div class='trialBorder'><div class='vertical-center'><img style='vertical-align:center; align:center' src='img/fixation2_sml.jpg'></div><div class='arrayDiv1'><div class='tc'><img class='introPic' src='trustrating_stim/white_mw040.bmp'><br><font color='red'><strong>Keep</strong></font></div></div></div>","null","ARRAY","1","trustrating_stim/white_mw040.bmp","0","noMatchFace","i","1500","","","","","",""
"","","","","6075ed15dc9411d0165d4dd9","bdp_wmem","Tue May 11 2021 16:02:51 GMT-0400 (Eastern Daylight Time)","780051","Match,No Match","html-keyboard-response","17","296404","0.0-5.0-3.2","","null","","<div class='trialBorder'><div class='vertical-center'><img src='img/fixation2_sml.jpg'</img></div></div>","null","DELAY","","","","","","","","","","","",""
"","","","","6075ed15dc9411d0165d4dd9","bdp_wmem","Tue May 11 2021 16:02:51 GMT-0400 (Eastern Daylight Time)","780051","Match,No Match","html-keyboard-response","18","299089","0.0-5.0-4.2","","2682","","<div class='trialBorder'><div class='targDiv'><div class='tc'><img class='introPic' src='trustrating_stim/white_mw013.bmp'><br><font color='red'><strong>Keep</strong></font></div></div><div class='respDiv'><div class='respDivL'>Match<br>(e)</div><div class='respDivR'>No Match<br>(i)</div></div></div>","e","TARGET","1","trustrating_stim/white_mw040.bmp","0","noMatchFace","i","1500","trustrating_stim/white_mw013.bmp","red","Keep","PRACTICE","0",""
"","","","","6075ed15dc9411d0165d4dd9","bdp_wmem","Tue May 11 2021 16:02:51 GMT-0400 (Eastern Daylight Time)","780051","Match,No Match","html-keyboard-response","19","299595","0.0-5.0-5.2","","null","","<div class='trialBorder'><div class='vertical-center'><img src='img/error.jpg'></div><div class='respDiv'><div class='respDivL'><font style='color:orange'>Match<br>(e)</font></div><div class='respDivR'>No Match<br>(i)</div></div></div>","null","FEEDBACK","","","","","","","","","","","",""
"","","","","6075ed15dc9411d0165d4dd9","bdp_wmem","Tue May 11 2021 16:02:51 GMT-0400 (Eastern Daylight Time)","780051","Match,No Match","html-keyboard-response","20","300107","0.0-5.0-1.3","","null","","<div class='trialBorder'><div class='vertical-center'><img src='img/fixation2_sml.jpg'</img></div></div>","null","FIX","","","","","","","","","","","",""
"","","","","6075ed15dc9411d0165d4dd9","bdp_wmem","Tue May 11 2021 16:02:51 GMT-0400 (Eastern Daylight Time)","780051","Match,No Match","html-keyboard-response","21","304611","0.0-5.0-2.3","","null","","<div class='trialBorder'><div class='vertical-center'><img style='vertical-align:center; align:center' src='img/fixation2_sml.jpg'></div><div class='arrayDiv3'><div class='tl'><img class='introPic' src='trustrating_stim/white_mw070.bmp'><br><font color='red'><strong>Keep</strong></font></div><div class='tc'><img class='introPic' src='trustrating_stim/white_mw003.bmp'><br><font color='green'><strong>Share</strong></font></div><div class='tr'><img class='introPic' src='trustrating_stim/white_mw040.bmp'><br><font color='green'><strong>Share</strong></font></div></div></div>","null","ARRAY","3","trustrating_stim/white_mw070.bmp,trustrating_stim/white_mw003.bmp,trustrating_stim/white_mw040.bmp","0,1,1","Match","e","4500","","","","","",""
"","","","","6075ed15dc9411d0165d4dd9","bdp_wmem","Tue May 11 2021 16:02:51 GMT-0400 (Eastern Daylight Time)","780051","Match,No Match","html-keyboard-response","22","308618","0.0-5.0-3.3","","null","","<div class='trialBorder'><div class='vertical-center'><img src='img/fixation2_sml.jpg'</img></div></div>","null","DELAY","","","","","","","","","","","",""
"","","","","6075ed15dc9411d0165d4dd9","bdp_wmem","Tue May 11 2021 16:02:51 GMT-0400 (Eastern Daylight Time)","780051","Match,No Match","html-keyboard-response","23","309895","0.0-5.0-4.3","","1274","","<div class='trialBorder'><div class='targDiv'><div class='tc'><img class='introPic' src='trustrating_stim/white_mw040.bmp'><br><font color='green'><strong>Share</strong></font></div></div><div class='respDiv'><div class='respDivL'>Match<br>(e)</div><div class='respDivR'>No Match<br>(i)</div></div></div>","e","TARGET","3","trustrating_stim/white_mw070.bmp,trustrating_stim/white_mw003.bmp,trustrating_stim/white_mw040.bmp","0,1,1","Match","e","4500","trustrating_stim/white_mw040.bmp","green","Share","PRACTICE","1",""
"","","","","6075ed15dc9411d0165d4dd9","bdp_wmem","Tue May 11 2021 16:02:51 GMT-0400 (Eastern Daylight Time)","780051","Match,No Match","html-keyboard-response","24","310402","0.0-5.0-5.3","","null","","<div class='trialBorder'><div class='vertical-center'><img src='img/correct.jpg'></div><div class='respDiv'><div class='respDivL'><font style='color:orange'>Match<br>(e)</font></div><div class='respDivR'>No Match<br>(i)</div></div></div>","null","FEEDBACK","","","","","","","","","","","",""
"","","","","6075ed15dc9411d0165d4dd9","bdp_wmem","Tue May 11 2021 16:02:51 GMT-0400 (Eastern Daylight Time)","780051","Match,No Match","html-keyboard-response","25","310908","0.0-5.0-1.4","","null","","<div class='trialBorder'><div class='vertical-center'><img src='img/fixation2_sml.jpg'</img></div></div>","null","FIX","","","","","","","","","","","",""
"","","","","6075ed15dc9411d0165d4dd9","bdp_wmem","Tue May 11 2021 16:02:51 GMT-0400 (Eastern Daylight Time)","780051","Match,No Match","html-keyboard-response","26","315415","0.0-5.0-2.4","","null","","<div class='trialBorder'><div class='vertical-center'><img style='vertical-align:center; align:center' src='img/fixation2_sml.jpg'></div><div class='arrayDiv3'><div class='tl'><img class='introPic' src='trustrating_stim/white_00807_941205_fb_edt.bmp'><br><font color='red'><strong>Keep</strong></font></div><div class='tc'><img class='introPic' src='trustrating_stim/white_mw033.bmp'><br><font color='red'><strong>Keep</strong></font></div><div class='tr'><img class='introPic' src='trustrating_stim/white_mw070.bmp'><br><font color='green'><strong>Share</strong></font></div></div></div>","null","ARRAY","3","trustrating_stim/white_00807_941205_fb_edt.bmp,trustrating_stim/white_mw033.bmp,trustrating_stim/white_mw070.bmp","0,0,1","noMatchOutcome","i","4500","","","","","",""
"","","","","6075ed15dc9411d0165d4dd9","bdp_wmem","Tue May 11 2021 16:02:51 GMT-0400 (Eastern Daylight Time)","780051","Match,No Match","html-keyboard-response","27","319431","0.0-5.0-3.4","","null","","<div class='trialBorder'><div class='vertical-center'><img src='img/fixation2_sml.jpg'</img></div></div>","null","DELAY","","","","","","","","","","","",""
"","","","","6075ed15dc9411d0165d4dd9","bdp_wmem","Tue May 11 2021 16:02:51 GMT-0400 (Eastern Daylight Time)","780051","Match,No Match","html-keyboard-response","28","320962","0.0-5.0-4.4","","1530","","<div class='trialBorder'><div class='targDiv'><div class='tc'><img class='introPic' src='trustrating_stim/white_mw033.bmp'><br><font color='green'><strong>Share</strong></font></div></div><div class='respDiv'><div class='respDivL'>Match<br>(e)</div><div class='respDivR'>No Match<br>(i)</div></div></div>","e","TARGET","3","trustrating_stim/white_00807_941205_fb_edt.bmp,trustrating_stim/white_mw033.bmp,trustrating_stim/white_mw070.bmp","0,0,1","noMatchOutcome","i","4500","trustrating_stim/white_mw033.bmp","green","Share","PRACTICE","0",""
"","","","","6075ed15dc9411d0165d4dd9","bdp_wmem","Tue May 11 2021 16:02:51 GMT-0400 (Eastern Daylight Time)","780051","Match,No Match","html-keyboard-response","29","321468","0.0-5.0-5.4","","null","","<div class='trialBorder'><div class='vertical-center'><img src='img/error.jpg'></div><div class='respDiv'><div class='respDivL'><font style='color:orange'>Match<br>(e)</font></div><div class='respDivR'>No Match<br>(i)</div></div></div>","null","FEEDBACK","","","","","","","","","","","",""
"","","","","6075ed15dc9411d0165d4dd9","bdp_wmem","Tue May 11 2021 16:02:51 GMT-0400 (Eastern Daylight Time)","780051","Match,No Match","html-keyboard-response","30","321978","0.0-5.0-1.5","","null","","<div class='trialBorder'><div class='vertical-center'><img src='img/fixation2_sml.jpg'</img></div></div>","null","FIX","","","","","","","","","","","",""
"","","","","6075ed15dc9411d0165d4dd9","bdp_wmem","Tue May 11 2021 16:02:51 GMT-0400 (Eastern Daylight Time)","780051","Match,No Match","html-keyboard-response","31","323481","0.0-5.0-2.5","","null","","<div class='trialBorder'><div class='vertical-center'><img style='vertical-align:center; align:center' src='img/fixation2_sml.jpg'></div><div class='arrayDiv1'><div class='tc'><img class='introPic' src='trustrating_stim/white_00807_941205_fb_edt.bmp'><br><font color='green'><strong>Share</strong></font></div></div></div>","null","ARRAY","1","trustrating_stim/white_00807_941205_fb_edt.bmp","1","Match","e","1500","","","","","",""
"","","","","6075ed15dc9411d0165d4dd9","bdp_wmem","Tue May 11 2021 16:02:51 GMT-0400 (Eastern Daylight Time)","780051","Match,No Match","html-keyboard-response","32","327495","0.0-5.0-3.5","","null","","<div class='trialBorder'><div class='vertical-center'><img src='img/fixation2_sml.jpg'</img></div></div>","null","DELAY","","","","","","","","","","","",""
"","","","","6075ed15dc9411d0165d4dd9","bdp_wmem","Tue May 11 2021 16:02:51 GMT-0400 (Eastern Daylight Time)","780051","Match,No Match","html-keyboard-response","33","329228","0.0-5.0-4.5","","1731","","<div class='trialBorder'><div class='targDiv'><div class='tc'><img class='introPic' src='trustrating_stim/white_00807_941205_fb_edt.bmp'><br><font color='green'><strong>Share</strong></font></div></div><div class='respDiv'><div class='respDivL'>Match<br>(e)</div><div class='respDivR'>No Match<br>(i)</div></div></div>","e","TARGET","1","trustrating_stim/white_00807_941205_fb_edt.bmp","1","Match","e","1500","trustrating_stim/white_00807_941205_fb_edt.bmp","green","Share","PRACTICE","1",""
"","","","","6075ed15dc9411d0165d4dd9","bdp_wmem","Tue May 11 2021 16:02:51 GMT-0400 (Eastern Daylight Time)","780051","Match,No Match","html-keyboard-response","34","329744","0.0-5.0-5.5","","null","","<div class='trialBorder'><div class='vertical-center'><img src='img/correct.jpg'></div><div class='respDiv'><div class='respDivL'><font style='color:orange'>Match<br>(e)</font></div><div class='respDivR'>No Match<br>(i)</div></div></div>","null","FEEDBACK","","","","","","","","","","","",""
"","","","","6075ed15dc9411d0165d4dd9","bdp_wmem","Tue May 11 2021 16:02:51 GMT-0400 (Eastern Daylight Time)","780051","Match,No Match","instructions","35","335471","0.0-6.0","[{""page_index"":0,""viewing_time"":5725}]","5726","","","","","","","","","","","","","","","",""
"","","","","6075ed15dc9411d0165d4dd9","bdp_wmem","Tue May 11 2021 16:02:51 GMT-0400 (Eastern Daylight Time)","780051","Match,No Match","html-keyboard-response","36","335982","0.0-7.0-1.0","","null","","<div class='trialBorder'><div class='vertical-center'><img src='img/fixation2_sml.jpg'</img></div></div>","null","FIX","","","","","","","","","","","",""
"","","","","6075ed15dc9411d0165d4dd9","bdp_wmem","Tue May 11 2021 16:02:51 GMT-0400 (Eastern Daylight Time)","780051","Match,No Match","html-keyboard-response","37","340491","0.0-7.0-2.0","","null","","<div class='trialBorder'><div class='vertical-center'><img style='vertical-align:center; align:center' src='img/fixation2_sml.jpg'></div><div class='arrayDiv3'><div class='tl'><img class='introPic' src='trustrating_stim/white_00050_931230_fa_edt.bmp'><br><font color='red'><strong>Keep</strong></font></div><div class='tc'><img class='introPic' src='trustrating_stim/white_mw070.bmp'><br><font color='red'><strong>Keep</strong></font></div><div class='tr'><img class='introPic' src='trustrating_stim/white_mw003.bmp'><br><font color='green'><strong>Share</strong></font></div></div></div>","null","ARRAY","3","trustrating_stim/white_00050_931230_fa_edt.bmp,trustrating_stim/white_mw070.bmp,trustrating_stim/white_mw003.bmp","0,0,1","noMatchOutcome","i","4500","","","","","",""
"","","","","6075ed15dc9411d0165d4dd9","bdp_wmem","Tue May 11 2021 16:02:51 GMT-0400 (Eastern Daylight Time)","780051","Match,No Match","html-keyboard-response","38","344498","0.0-7.0-3.0","","null","","<div class='trialBorder'><div class='vertical-center'><img src='img/fixation2_sml.jpg'</img></div></div>","null","DELAY","","","","","","","","","","","",""
"","","","","6075ed15dc9411d0165d4dd9","bdp_wmem","Tue May 11 2021 16:02:51 GMT-0400 (Eastern Daylight Time)","780051","Match,No Match","html-keyboard-response","39","345417","0.0-7.0-4.0","","918","","<div class='trialBorder'><div class='targDiv'><div class='tc'><img class='introPic' src='trustrating_stim/white_mw003.bmp'><br><font color='red'><strong>Keep</strong></font></div></div><div class='respDiv'><div class='respDivL'>Match<br>(e)</div><div class='respDivR'>No Match<br>(i)</div></div></div>","e","TARGET","3","trustrating_stim/white_00050_931230_fa_edt.bmp,trustrating_stim/white_mw070.bmp,trustrating_stim/white_mw003.bmp","0,0,1","noMatchOutcome","i","4500","trustrating_stim/white_mw003.bmp","red","Keep","REAL","0",""
"","","","","6075ed15dc9411d0165d4dd9","bdp_wmem","Tue May 11 2021 16:02:51 GMT-0400 (Eastern Daylight Time)","780051","Match,No Match","html-keyboard-response","40","345934","0.0-7.0-5.0","","null","","<div class='trialBorder'><div class='vertical-center'><img src='img/error.jpg'></div><div class='respDiv'><div class='respDivL'><font style='color:orange'>Match<br>(e)</font></div><div class='respDivR'>No Match<br>(i)</div></div></div>","null","FEEDBACK","","","","","","","","","","","",""
"","","","","6075ed15dc9411d0165d4dd9","bdp_wmem","Tue May 11 2021 16:02:51 GMT-0400 (Eastern Daylight Time)","780051","Match,No Match","html-keyboard-response","41","346440","0.0-7.0-1.1","","null","","<div class='trialBorder'><div class='vertical-center'><img src='img/fixation2_sml.jpg'</img></div></div>","null","FIX","","","","","","","","","","","",""
"","","","","6075ed15dc9411d0165d4dd9","bdp_wmem","Tue May 11 2021 16:02:51 GMT-0400 (Eastern Daylight Time)","780051","Match,No Match","html-keyboard-response","42","350949","0.0-7.0-2.1","","null","","<div class='trialBorder'><div class='vertical-center'><img style='vertical-align:center; align:center' src='img/fixation2_sml.jpg'></div><div class='arrayDiv3'><div class='tl'><img class='introPic' src='trustrating_stim/white_mw040.bmp'><br><font color='green'><strong>Share</strong></font></div><div class='tc'><img class='introPic' src='trustrating_stim/white_mw012.bmp'><br><font color='red'><strong>Keep</strong></font></div><div class='tr'><img class='introPic' src='trustrating_stim/white_mw038.bmp'><br><font color='red'><strong>Keep</strong></font></div></div></div>","null","ARRAY","3","trustrating_stim/white_mw040.bmp,trustrating_stim/white_mw012.bmp,trustrating_stim/white_mw038.bmp","1,0,0","noMatchFace","i","4500","","","","","",""
"","","","","6075ed15dc9411d0165d4dd9","bdp_wmem","Tue May 11 2021 16:02:51 GMT-0400 (Eastern Daylight Time)","780051","Match,No Match","html-keyboard-response","43","354956","0.0-7.0-3.1","","null","","<div class='trialBorder'><div class='vertical-center'><img src='img/fixation2_sml.jpg'</img></div></div>","null","DELAY","","","","","","","","","","","",""
"","","","","6075ed15dc9411d0165d4dd9","bdp_wmem","Tue May 11 2021 16:02:51 GMT-0400 (Eastern Daylight Time)","780051","Match,No Match","html-keyboard-response","44","356065","0.0-7.0-4.1","","1107","","<div class='trialBorder'><div class='targDiv'><div class='tc'><img class='introPic' src='trustrating_stim/white_00807_941205_fb_edt.bmp'><br><font color='red'><strong>Keep</strong></font></div></div><div class='respDiv'><div class='respDivL'>Match<br>(e)</div><div class='respDivR'>No Match<br>(i)</div></div></div>","i","TARGET","3","trustrating_stim/white_mw040.bmp,trustrating_stim/white_mw012.bmp,trustrating_stim/white_mw038.bmp","1,0,0","noMatchFace","i","4500","trustrating_stim/white_00807_941205_fb_edt.bmp","red","Keep","REAL","1",""
"","","","","6075ed15dc9411d0165d4dd9","bdp_wmem","Tue May 11 2021 16:02:51 GMT-0400 (Eastern Daylight Time)","780051","Match,No Match","html-keyboard-response","45","356573","0.0-7.0-5.1","","null","","<div class='trialBorder'><div class='vertical-center'><img src='img/correct.jpg'></div><div class='respDiv'><div class='respDivL'>Match<br>(e)</div><div class='respDivR'><font style='color:orange'>No Match<br>(i)</font></div></div></div>","null","FEEDBACK","","","","","","","","","","","",""
"","","","","6075ed15dc9411d0165d4dd9","bdp_wmem","Tue May 11 2021 16:02:51 GMT-0400 (Eastern Daylight Time)","780051","Match,No Match","html-keyboard-response","46","357084","0.0-7.0-1.2","","null","","<div class='trialBorder'><div class='vertical-center'><img src='img/fixation2_sml.jpg'</img></div></div>","null","FIX","","","","","","","","","","","",""
"","","","","6075ed15dc9411d0165d4dd9","bdp_wmem","Tue May 11 2021 16:02:51 GMT-0400 (Eastern Daylight Time)","780051","Match,No Match","html-keyboard-response","47","360091","0.0-7.0-2.2","","null","","<div class='trialBorder'><div class='vertical-center'><img style='vertical-align:center; align:center' src='img/fixation2_sml.jpg'></div><div class='arrayDiv2'><div class='tl'><img class='introPic' src='trustrating_stim/white_00807_941205_fb_edt.bmp'><br><font color='green'><strong>Share</strong></font></div><div class='tr'><img class='introPic' src='trustrating_stim/white_mw033.bmp'><br><font color='red'><strong>Keep</strong></font></div></div></div>","null","ARRAY","2","trustrating_stim/white_00807_941205_fb_edt.bmp,trustrating_stim/white_mw033.bmp","1,0","noMatchOutcome","i","3000","","","","","",""
"","","","","6075ed15dc9411d0165d4dd9","bdp_wmem","Tue May 11 2021 16:02:51 GMT-0400 (Eastern Daylight Time)","780051","Match,No Match","html-keyboard-response","48","364105","0.0-7.0-3.2","","null","","<div class='trialBorder'><div class='vertical-center'><img src='img/fixation2_sml.jpg'</img></div></div>","null","DELAY","","","","","","","","","","","",""
"","","","","6075ed15dc9411d0165d4dd9","bdp_wmem","Tue May 11 2021 16:02:51 GMT-0400 (Eastern Daylight Time)","780051","Match,No Match","html-keyboard-response","49","365078","0.0-7.0-4.2","","970","","<div class='trialBorder'><div class='targDiv'><div class='tc'><img class='introPic' src='trustrating_stim/white_00807_941205_fb_edt.bmp'><br><font color='red'><strong>Keep</strong></font></div></div><div class='respDiv'><div class='respDivL'>Match<br>(e)</div><div class='respDivR'>No Match<br>(i)</div></div></div>","e","TARGET","2","trustrating_stim/white_00807_941205_fb_edt.bmp,trustrating_stim/white_mw033.bmp","1,0","noMatchOutcome","i","3000","trustrating_stim/white_00807_941205_fb_edt.bmp","red","Keep","REAL","0",""
"","","","","6075ed15dc9411d0165d4dd9","bdp_wmem","Tue May 11 2021 16:02:51 GMT-0400 (Eastern Daylight Time)","780051","Match,No Match","html-keyboard-response","50","365589","0.0-7.0-5.2","","null","","<div class='trialBorder'><div class='vertical-center'><img src='img/error.jpg'></div><div class='respDiv'><div class='respDivL'><font style='color:orange'>Match<br>(e)</font></div><div class='respDivR'>No Match<br>(i)</div></div></div>","null","FEEDBACK","","","","","","","","","","","",""
"","","","","6075ed15dc9411d0165d4dd9","bdp_wmem","Tue May 11 2021 16:02:51 GMT-0400 (Eastern Daylight Time)","780051","Match,No Match","html-keyboard-response","51","366099","0.0-7.0-1.3","","null","","<div class='trialBorder'><div class='vertical-center'><img src='img/fixation2_sml.jpg'</img></div></div>","null","FIX","","","","","","","","","","","",""
"","","","","6075ed15dc9411d0165d4dd9","bdp_wmem","Tue May 11 2021 16:02:51 GMT-0400 (Eastern Daylight Time)","780051","Match,No Match","html-keyboard-response","52","370603","0.0-7.0-2.3","","null","","<div class='trialBorder'><div class='vertical-center'><img style='vertical-align:center; align:center' src='img/fixation2_sml.jpg'></div><div class='arrayDiv3'><div class='tl'><img class='introPic' src='trustrating_stim/white_mw092.bmp'><br><font color='green'><strong>Share</strong></font></div><div class='tc'><img class='introPic' src='trustrating_stim/white_mw091.bmp'><br><font color='red'><strong>Keep</strong></font></div><div class='tr'><img class='introPic' src='trustrating_stim/white_mw038.bmp'><br><font color='red'><strong>Keep</strong></font></div></div></div>","null","ARRAY","3","trustrating_stim/white_mw092.bmp,trustrating_stim/white_mw091.bmp,trustrating_stim/white_mw038.bmp","1,0,0","noMatchOutcome","i","4500","","","","","",""
"","","","","6075ed15dc9411d0165d4dd9","bdp_wmem","Tue May 11 2021 16:02:51 GMT-0400 (Eastern Daylight Time)","780051","Match,No Match","html-keyboard-response","53","374618","0.0-7.0-3.3","","null","","<div class='trialBorder'><div class='vertical-center'><img src='img/fixation2_sml.jpg'</img></div></div>","null","DELAY","","","","","","","","","","","",""
"","","","","6075ed15dc9411d0165d4dd9","bdp_wmem","Tue May 11 2021 16:02:51 GMT-0400 (Eastern Daylight Time)","780051","Match,No Match","html-keyboard-response","54","375666","0.0-7.0-4.3","","1046","","<div class='trialBorder'><div class='targDiv'><div class='tc'><img class='introPic' src='trustrating_stim/white_mw092.bmp'><br><font color='red'><strong>Keep</strong></font></div></div><div class='respDiv'><div class='respDivL'>Match<br>(e)</div><div class='respDivR'>No Match<br>(i)</div></div></div>","e","TARGET","3","trustrating_stim/white_mw092.bmp,trustrating_stim/white_mw091.bmp,trustrating_stim/white_mw038.bmp","1,0,0","noMatchOutcome","i","4500","trustrating_stim/white_mw092.bmp","red","Keep","REAL","0",""
"","","","","6075ed15dc9411d0165d4dd9","bdp_wmem","Tue May 11 2021 16:02:51 GMT-0400 (Eastern Daylight Time)","780051","Match,No Match","html-keyboard-response","55","376168","0.0-7.0-5.3","","null","","<div class='trialBorder'><div class='vertical-center'><img src='img/error.jpg'></div><div class='respDiv'><div class='respDivL'><font style='color:orange'>Match<br>(e)</font></div><div class='respDivR'>No Match<br>(i)</div></div></div>","null","FEEDBACK","","","","","","","","","","","",""
"","","","","6075ed15dc9411d0165d4dd9","bdp_wmem","Tue May 11 2021 16:02:51 GMT-0400 (Eastern Daylight Time)","780051","Match,No Match","html-keyboard-response","56","376680","0.0-7.0-1.4","","null","","<div class='trialBorder'><div class='vertical-center'><img src='img/fixation2_sml.jpg'</img></div></div>","null","FIX","","","","","","","","","","","",""
"","","","","6075ed15dc9411d0165d4dd9","bdp_wmem","Tue May 11 2021 16:02:51 GMT-0400 (Eastern Daylight Time)","780051","Match,No Match","html-keyboard-response","57","379692","0.0-7.0-2.4","","null","","<div class='trialBorder'><div class='vertical-center'><img style='vertical-align:center; align:center' src='img/fixation2_sml.jpg'></div><div class='arrayDiv2'><div class='tl'><img class='introPic' src='trustrating_stim/white_mw013.bmp'><br><font color='green'><strong>Share</strong></font></div><div class='tr'><img class='introPic' src='trustrating_stim/white_00050_931230_fa_edt.bmp'><br><font color='red'><strong>Keep</strong></font></div></div></div>","null","ARRAY","2","trustrating_stim/white_mw013.bmp,trustrating_stim/white_00050_931230_fa_edt.bmp","1,0","Match","e","3000","","","","","",""
"","","","","6075ed15dc9411d0165d4dd9","bdp_wmem","Tue May 11 2021 16:02:51 GMT-0400 (Eastern Daylight Time)","780051","Match,No Match","html-keyboard-response","58","383701","0.0-7.0-3.4","","null","","<div class='trialBorder'><div class='vertical-center'><img src='img/fixation2_sml.jpg'</img></div></div>","null","DELAY","","","","","","","","","","","",""
"","","","","6075ed15dc9411d0165d4dd9","bdp_wmem","Tue May 11 2021 16:02:51 GMT-0400 (Eastern Daylight Time)","780051","Match,No Match","html-keyboard-response","59","384778","0.0-7.0-4.4","","1075","","<div class='trialBorder'><div class='targDiv'><div class='tc'><img class='introPic' src='trustrating_stim/white_00050_931230_fa_edt.bmp'><br><font color='red'><strong>Keep</strong></font></div></div><div class='respDiv'><div class='respDivL'>Match<br>(e)</div><div class='respDivR'>No Match<br>(i)</div></div></div>","i","TARGET","2","trustrating_stim/white_mw013.bmp,trustrating_stim/white_00050_931230_fa_edt.bmp","1,0","Match","e","3000","trustrating_stim/white_00050_931230_fa_edt.bmp","red","Keep","REAL","0",""
"","","","","6075ed15dc9411d0165d4dd9","bdp_wmem","Tue May 11 2021 16:02:51 GMT-0400 (Eastern Daylight Time)","780051","Match,No Match","html-keyboard-response","60","385293","0.0-7.0-5.4","","null","","<div class='trialBorder'><div class='vertical-center'><img src='img/error.jpg'></div><div class='respDiv'><div class='respDivL'>Match<br>(e)</div><div class='respDivR'><font style='color:orange'>No Match<br>(i)</font></div></div></div>","null","FEEDBACK","","","","","","","","","","","",""
"","","","","6075ed15dc9411d0165d4dd9","bdp_wmem","Tue May 11 2021 16:02:51 GMT-0400 (Eastern Daylight Time)","780051","Match,No Match","html-keyboard-response","61","385803","0.0-7.0-1.5","","null","","<div class='trialBorder'><div class='vertical-center'><img src='img/fixation2_sml.jpg'</img></div></div>","null","FIX","","","","","","","","","","","",""
"","","","","6075ed15dc9411d0165d4dd9","bdp_wmem","Tue May 11 2021 16:02:51 GMT-0400 (Eastern Daylight Time)","780051","Match,No Match","html-keyboard-response","62","387308","0.0-7.0-2.5","","null","","<div class='trialBorder'><div class='vertical-center'><img style='vertical-align:center; align:center' src='img/fixation2_sml.jpg'></div><div class='arrayDiv1'><div class='tc'><img class='introPic' src='trustrating_stim/white_mw015.bmp'><br><font color='green'><strong>Share</strong></font></div></div></div>","null","ARRAY","1","trustrating_stim/white_mw015.bmp","1","noMatchOutcome","i","1500","","","","","",""
"","","","","6075ed15dc9411d0165d4dd9","bdp_wmem","Tue May 11 2021 16:02:51 GMT-0400 (Eastern Daylight Time)","780051","Match,No Match","html-keyboard-response","63","391324","0.0-7.0-3.5","","null","","<div class='trialBorder'><div class='vertical-center'><img src='img/fixation2_sml.jpg'</img></div></div>","null","DELAY","","","","","","","","","","","",""
"","","","","6075ed15dc9411d0165d4dd9","bdp_wmem","Tue May 11 2021 16:02:51 GMT-0400 (Eastern Daylight Time)","780051","Match,No Match","html-keyboard-response","64","393032","0.0-7.0-4.5","","1706","","<div class='trialBorder'><div class='targDiv'><div class='tc'><img class='introPic' src='trustrating_stim/white_mw015.bmp'><br><font color='red'><strong>Keep</strong></font></div></div><div class='respDiv'><div class='respDivL'>Match<br>(e)</div><div class='respDivR'>No Match<br>(i)</div></div></div>","e","TARGET","1","trustrating_stim/white_mw015.bmp","1","noMatchOutcome","i","1500","trustrating_stim/white_mw015.bmp","red","Keep","REAL","0",""
"","","","","6075ed15dc9411d0165d4dd9","bdp_wmem","Tue May 11 2021 16:02:51 GMT-0400 (Eastern Daylight Time)","780051","Match,No Match","html-keyboard-response","65","393539","0.0-7.0-5.5","","null","","<div class='trialBorder'><div class='vertical-center'><img src='img/error.jpg'></div><div class='respDiv'><div class='respDivL'><font style='color:orange'>Match<br>(e)</font></div><div class='respDivR'>No Match<br>(i)</div></div></div>","null","FEEDBACK","","","","","","","","","","","",""
"","","","","6075ed15dc9411d0165d4dd9","bdp_wmem","Tue May 11 2021 16:02:51 GMT-0400 (Eastern Daylight Time)","780051","Match,No Match","html-keyboard-response","66","394044","0.0-7.0-1.6","","null","","<div class='trialBorder'><div class='vertical-center'><img src='img/fixation2_sml.jpg'</img></div></div>","null","FIX","","","","","","","","","","","",""
"","","","","6075ed15dc9411d0165d4dd9","bdp_wmem","Tue May 11 2021 16:02:51 GMT-0400 (Eastern Daylight Time)","780051","Match,No Match","html-keyboard-response","67","397062","0.0-7.0-2.6","","null","","<div class='trialBorder'><div class='vertical-center'><img style='vertical-align:center; align:center' src='img/fixation2_sml.jpg'></div><div class='arrayDiv2'><div class='tl'><img class='introPic' src='trustrating_stim/white_mw092.bmp'><br><font color='red'><strong>Keep</strong></font></div><div class='tr'><img class='introPic' src='trustrating_stim/white_mw040.bmp'><br><font color='green'><strong>Share</strong></font></div></div></div>","null","ARRAY","2","trustrating_stim/white_mw092.bmp,trustrating_stim/white_mw040.bmp","0,1","Match","e","3000","","","","","",""
"","","","","6075ed15dc9411d0165d4dd9","bdp_wmem","Tue May 11 2021 16:02:51 GMT-0400 (Eastern Daylight Time)","780051","Match,No Match","html-keyboard-response","68","401066","0.0-7.0-3.6","","null","","<div class='trialBorder'><div class='vertical-center'><img src='img/fixation2_sml.jpg'</img></div></div>","null","DELAY","","","","","","","","","","","",""
"","","","","6075ed15dc9411d0165d4dd9","bdp_wmem","Tue May 11 2021 16:02:51 GMT-0400 (Eastern Daylight Time)","780051","Match,No Match","html-keyboard-response","69","402266","0.0-7.0-4.6","","1199","","<div class='trialBorder'><div class='targDiv'><div class='tc'><img class='introPic' src='trustrating_stim/white_mw040.bmp'><br><font color='green'><strong>Share</strong></font></div></div><div class='respDiv'><div class='respDivL'>Match<br>(e)</div><div class='respDivR'>No Match<br>(i)</div></div></div>","i","TARGET","2","trustrating_stim/white_mw092.bmp,trustrating_stim/white_mw040.bmp","0,1","Match","e","3000","trustrating_stim/white_mw040.bmp","green","Share","REAL","0",""
"","","","","6075ed15dc9411d0165d4dd9","bdp_wmem","Tue May 11 2021 16:02:51 GMT-0400 (Eastern Daylight Time)","780051","Match,No Match","html-keyboard-response","70","402777","0.0-7.0-5.6","","null","","<div class='trialBorder'><div class='vertical-center'><img src='img/error.jpg'></div><div class='respDiv'><div class='respDivL'>Match<br>(e)</div><div class='respDivR'><font style='color:orange'>No Match<br>(i)</font></div></div></div>","null","FEEDBACK","","","","","","","","","","","",""
"","","","","6075ed15dc9411d0165d4dd9","bdp_wmem","Tue May 11 2021 16:02:51 GMT-0400 (Eastern Daylight Time)","780051","Match,No Match","html-keyboard-response","71","403283","0.0-7.0-1.7","","null","","<div class='trialBorder'><div class='vertical-center'><img src='img/fixation2_sml.jpg'</img></div></div>","null","FIX","","","","","","","","","","","",""
"","","","","6075ed15dc9411d0165d4dd9","bdp_wmem","Tue May 11 2021 16:02:51 GMT-0400 (Eastern Daylight Time)","780051","Match,No Match","html-keyboard-response","72","407790","0.0-7.0-2.7","","null","","<div class='trialBorder'><div class='vertical-center'><img style='vertical-align:center; align:center' src='img/fixation2_sml.jpg'></div><div class='arrayDiv3'><div class='tl'><img class='introPic' src='trustrating_stim/white_mw040.bmp'><br><font color='green'><strong>Share</strong></font></div><div class='tc'><img class='introPic' src='trustrating_stim/white_mw092.bmp'><br><font color='red'><strong>Keep</strong></font></div><div class='tr'><img class='introPic' src='trustrating_stim/white_mw070.bmp'><br><font color='red'><strong>Keep</strong></font></div></div></div>","null","ARRAY","3","trustrating_stim/white_mw040.bmp,trustrating_stim/white_mw092.bmp,trustrating_stim/white_mw070.bmp","1,0,0","Match","e","4500","","","","","",""
"","","","","6075ed15dc9411d0165d4dd9","bdp_wmem","Tue May 11 2021 16:02:51 GMT-0400 (Eastern Daylight Time)","780051","Match,No Match","html-keyboard-response","73","411797","0.0-7.0-3.7","","null","","<div class='trialBorder'><div class='vertical-center'><img src='img/fixation2_sml.jpg'</img></div></div>","null","DELAY","","","","","","","","","","","",""
"","","","","6075ed15dc9411d0165d4dd9","bdp_wmem","Tue May 11 2021 16:02:51 GMT-0400 (Eastern Daylight Time)","780051","Match,No Match","html-keyboard-response","74","412734","0.0-7.0-4.7","","936","","<div class='trialBorder'><div class='targDiv'><div class='tc'><img class='introPic' src='trustrating_stim/white_mw040.bmp'><br><font color='green'><strong>Share</strong></font></div></div><div class='respDiv'><div class='respDivL'>Match<br>(e)</div><div class='respDivR'>No Match<br>(i)</div></div></div>","e","TARGET","3","trustrating_stim/white_mw040.bmp,trustrating_stim/white_mw092.bmp,trustrating_stim/white_mw070.bmp","1,0,0","Match","e","4500","trustrating_stim/white_mw040.bmp","green","Share","REAL","1",""
"","","","","6075ed15dc9411d0165d4dd9","bdp_wmem","Tue May 11 2021 16:02:51 GMT-0400 (Eastern Daylight Time)","780051","Match,No Match","html-keyboard-response","75","413250","0.0-7.0-5.7","","null","","<div class='trialBorder'><div class='vertical-center'><img src='img/correct.jpg'></div><div class='respDiv'><div class='respDivL'><font style='color:orange'>Match<br>(e)</font></div><div class='respDivR'>No Match<br>(i)</div></div></div>","null","FEEDBACK","","","","","","","","","","","",""
"","","","","6075ed15dc9411d0165d4dd9","bdp_wmem","Tue May 11 2021 16:02:51 GMT-0400 (Eastern Daylight Time)","780051","Match,No Match","html-keyboard-response","76","413759","0.0-7.0-1.8","","null","","<div class='trialBorder'><div class='vertical-center'><img src='img/fixation2_sml.jpg'</img></div></div>","null","FIX","","","","","","","","","","","",""
"","","","","6075ed15dc9411d0165d4dd9","bdp_wmem","Tue May 11 2021 16:02:51 GMT-0400 (Eastern Daylight Time)","780051","Match,No Match","html-keyboard-response","77","416776","0.0-7.0-2.8","","null","","<div class='trialBorder'><div class='vertical-center'><img style='vertical-align:center; align:center' src='img/fixation2_sml.jpg'></div><div class='arrayDiv2'><div class='tl'><img class='introPic' src='trustrating_stim/white_mw040.bmp'><br><font color='green'><strong>Share</strong></font></div><div class='tr'><img class='introPic' src='trustrating_stim/white_00807_941205_fb_edt.bmp'><br><font color='red'><strong>Keep</strong></font></div></div></div>","null","ARRAY","2","trustrating_stim/white_mw040.bmp,trustrating_stim/white_00807_941205_fb_edt.bmp","1,0","noMatchFace","i","3000","","","","","",""
"","","","","6075ed15dc9411d0165d4dd9","bdp_wmem","Tue May 11 2021 16:02:51 GMT-0400 (Eastern Daylight Time)","780051","Match,No Match","html-keyboard-response","78","420788","0.0-7.0-3.8","","null","","<div class='trialBorder'><div class='vertical-center'><img src='img/fixation2_sml.jpg'</img></div></div>","null","DELAY","","","","","","","","","","","",""
"","","","","6075ed15dc9411d0165d4dd9","bdp_wmem","Tue May 11 2021 16:02:51 GMT-0400 (Eastern Daylight Time)","780051","Match,No Match","html-keyboard-response","79","421688","0.0-7.0-4.8","","900","","<div class='trialBorder'><div class='targDiv'><div class='tc'><img class='introPic' src='trustrating_stim/white_mw091.bmp'><br><font color='red'><strong>Keep</strong></font></div></div><div class='respDiv'><div class='respDivL'>Match<br>(e)</div><div class='respDivR'>No Match<br>(i)</div></div></div>","i","TARGET","2","trustrating_stim/white_mw040.bmp,trustrating_stim/white_00807_941205_fb_edt.bmp","1,0","noMatchFace","i","3000","trustrating_stim/white_mw091.bmp","red","Keep","REAL","1",""
"","","","","6075ed15dc9411d0165d4dd9","bdp_wmem","Tue May 11 2021 16:02:51 GMT-0400 (Eastern Daylight Time)","780051","Match,No Match","html-keyboard-response","80","422194","0.0-7.0-5.8","","null","","<div class='trialBorder'><div class='vertical-center'><img src='img/correct.jpg'></div><div class='respDiv'><div class='respDivL'>Match<br>(e)</div><div class='respDivR'><font style='color:orange'>No Match<br>(i)</font></div></div></div>","null","FEEDBACK","","","","","","","","","","","",""
"","","","","6075ed15dc9411d0165d4dd9","bdp_wmem","Tue May 11 2021 16:02:51 GMT-0400 (Eastern Daylight Time)","780051","Match,No Match","html-keyboard-response","81","422695","0.0-7.0-1.9","","null","","<div class='trialBorder'><div class='vertical-center'><img src='img/fixation2_sml.jpg'</img></div></div>","null","FIX","","","","","","","","","","","",""
"","","","","6075ed15dc9411d0165d4dd9","bdp_wmem","Tue May 11 2021 16:02:51 GMT-0400 (Eastern Daylight Time)","780051","Match,No Match","html-keyboard-response","82","427208","0.0-7.0-2.9","","null","","<div class='trialBorder'><div class='vertical-center'><img style='vertical-align:center; align:center' src='img/fixation2_sml.jpg'></div><div class='arrayDiv3'><div class='tl'><img class='introPic' src='trustrating_stim/white_00050_931230_fa_edt.bmp'><br><font color='red'><strong>Keep</strong></font></div><div class='tc'><img class='introPic' src='trustrating_stim/white_mw015.bmp'><br><font color='green'><strong>Share</strong></font></div><div class='tr'><img class='introPic' src='trustrating_stim/white_mw003.bmp'><br><font color='red'><strong>Keep</strong></font></div></div></div>","null","ARRAY","3","trustrating_stim/white_00050_931230_fa_edt.bmp,trustrating_stim/white_mw015.bmp,trustrating_stim/white_mw003.bmp","0,1,0","Match","e","4500","","","","","",""
"","","","","6075ed15dc9411d0165d4dd9","bdp_wmem","Tue May 11 2021 16:02:51 GMT-0400 (Eastern Daylight Time)","780051","Match,No Match","html-keyboard-response","83","431217","0.0-7.0-3.9","","null","","<div class='trialBorder'><div class='vertical-center'><img src='img/fixation2_sml.jpg'</img></div></div>","null","DELAY","","","","","","","","","","","",""
"","","","","6075ed15dc9411d0165d4dd9","bdp_wmem","Tue May 11 2021 16:02:51 GMT-0400 (Eastern Daylight Time)","780051","Match,No Match","html-keyboard-response","84","432420","0.0-7.0-4.9","","1201","","<div class='trialBorder'><div class='targDiv'><div class='tc'><img class='introPic' src='trustrating_stim/white_00050_931230_fa_edt.bmp'><br><font color='red'><strong>Keep</strong></font></div></div><div class='respDiv'><div class='respDivL'>Match<br>(e)</div><div class='respDivR'>No Match<br>(i)</div></div></div>","e","TARGET","3","trustrating_stim/white_00050_931230_fa_edt.bmp,trustrating_stim/white_mw015.bmp,trustrating_stim/white_mw003.bmp","0,1,0","Match","e","4500","trustrating_stim/white_00050_931230_fa_edt.bmp","red","Keep","REAL","1",""
"","","","","6075ed15dc9411d0165d4dd9","bdp_wmem","Tue May 11 2021 16:02:51 GMT-0400 (Eastern Daylight Time)","780051","Match,No Match","html-keyboard-response","85","432930","0.0-7.0-5.9","","null","","<div class='trialBorder'><div class='vertical-center'><img src='img/correct.jpg'></div><div class='respDiv'><div class='respDivL'><font style='color:orange'>Match<br>(e)</font></div><div class='respDivR'>No Match<br>(i)</div></div></div>","null","FEEDBACK","","","","","","","","","","","",""
"","","","","6075ed15dc9411d0165d4dd9","bdp_wmem","Tue May 11 2021 16:02:51 GMT-0400 (Eastern Daylight Time)","780051","Match,No Match","html-keyboard-response","86","433436","0.0-7.0-1.10","","null","","<div class='trialBorder'><div class='vertical-center'><img src='img/fixation2_sml.jpg'</img></div></div>","null","FIX","","","","","","","","","","","",""
"","","","","6075ed15dc9411d0165d4dd9","bdp_wmem","Tue May 11 2021 16:02:51 GMT-0400 (Eastern Daylight Time)","780051","Match,No Match","html-keyboard-response","87","437947","0.0-7.0-2.10","","null","","<div class='trialBorder'><div class='vertical-center'><img style='vertical-align:center; align:center' src='img/fixation2_sml.jpg'></div><div class='arrayDiv3'><div class='tl'><img class='introPic' src='trustrating_stim/white_00807_941205_fb_edt.bmp'><br><font color='red'><strong>Keep</strong></font></div><div class='tc'><img class='introPic' src='trustrating_stim/white_mw033.bmp'><br><font color='green'><strong>Share</strong></font></div><div class='tr'><img class='introPic' src='trustrating_stim/white_mw012.bmp'><br><font color='red'><strong>Keep</strong></font></div></div></div>","null","ARRAY","3","trustrating_stim/white_00807_941205_fb_edt.bmp,trustrating_stim/white_mw033.bmp,trustrating_stim/white_mw012.bmp","0,1,0","Match","e","4500","","","","","",""
"","","","","6075ed15dc9411d0165d4dd9","bdp_wmem","Tue May 11 2021 16:02:51 GMT-0400 (Eastern Daylight Time)","780051","Match,No Match","html-keyboard-response","88","441949","0.0-7.0-3.10","","null","","<div class='trialBorder'><div class='vertical-center'><img src='img/fixation2_sml.jpg'</img></div></div>","null","DELAY","","","","","","","","","","","",""
"","","","","6075ed15dc9411d0165d4dd9","bdp_wmem","Tue May 11 2021 16:02:51 GMT-0400 (Eastern Daylight Time)","780051","Match,No Match","html-keyboard-response","89","442840","0.0-7.0-4.10","","889","","<div class='trialBorder'><div class='targDiv'><div class='tc'><img class='introPic' src='trustrating_stim/white_00807_941205_fb_edt.bmp'><br><font color='red'><strong>Keep</strong></font></div></div><div class='respDiv'><div class='respDivL'>Match<br>(e)</div><div class='respDivR'>No Match<br>(i)</div></div></div>","e","TARGET","3","trustrating_stim/white_00807_941205_fb_edt.bmp,trustrating_stim/white_mw033.bmp,trustrating_stim/white_mw012.bmp","0,1,0","Match","e","4500","trustrating_stim/white_00807_941205_fb_edt.bmp","red","Keep","REAL","1",""
"","","","","6075ed15dc9411d0165d4dd9","bdp_wmem","Tue May 11 2021 16:02:51 GMT-0400 (Eastern Daylight Time)","780051","Match,No Match","html-keyboard-response","90","443345","0.0-7.0-5.10","","null","","<div class='trialBorder'><div class='vertical-center'><img src='img/correct.jpg'></div><div class='respDiv'><div class='respDivL'><font style='color:orange'>Match<br>(e)</font></div><div class='respDivR'>No Match<br>(i)</div></div></div>","null","FEEDBACK","","","","","","","","","","","",""
"","","","","6075ed15dc9411d0165d4dd9","bdp_wmem","Tue May 11 2021 16:02:51 GMT-0400 (Eastern Daylight Time)","780051","Match,No Match","html-keyboard-response","91","443851","0.0-7.0-1.11","","null","","<div class='trialBorder'><div class='vertical-center'><img src='img/fixation2_sml.jpg'</img></div></div>","null","FIX","","","","","","","","","","","",""
"","","","","6075ed15dc9411d0165d4dd9","bdp_wmem","Tue May 11 2021 16:02:51 GMT-0400 (Eastern Daylight Time)","780051","Match,No Match","html-keyboard-response","92","446865","0.0-7.0-2.11","","null","","<div class='trialBorder'><div class='vertical-center'><img style='vertical-align:center; align:center' src='img/fixation2_sml.jpg'></div><div class='arrayDiv2'><div class='tl'><img class='introPic' src='trustrating_stim/white_mw015.bmp'><br><font color='red'><strong>Keep</strong></font></div><div class='tr'><img class='introPic' src='trustrating_stim/white_mw091.bmp'><br><font color='green'><strong>Share</strong></font></div></div></div>","null","ARRAY","2","trustrating_stim/white_mw015.bmp,trustrating_stim/white_mw091.bmp","0,1","noMatchOutcome","i","3000","","","","","",""
"","","","","6075ed15dc9411d0165d4dd9","bdp_wmem","Tue May 11 2021 16:02:51 GMT-0400 (Eastern Daylight Time)","780051","Match,No Match","html-keyboard-response","93","450870","0.0-7.0-3.11","","null","","<div class='trialBorder'><div class='vertical-center'><img src='img/fixation2_sml.jpg'</img></div></div>","null","DELAY","","","","","","","","","","","",""
"","","","","6075ed15dc9411d0165d4dd9","bdp_wmem","Tue May 11 2021 16:02:51 GMT-0400 (Eastern Daylight Time)","780051","Match,No Match","html-keyboard-response","94","452171","0.0-7.0-4.11","","1301","","<div class='trialBorder'><div class='targDiv'><div class='tc'><img class='introPic' src='trustrating_stim/white_mw091.bmp'><br><font color='red'><strong>Keep</strong></font></div></div><div class='respDiv'><div class='respDivL'>Match<br>(e)</div><div class='respDivR'>No Match<br>(i)</div></div></div>","e","TARGET","2","trustrating_stim/white_mw015.bmp,trustrating_stim/white_mw091.bmp","0,1","noMatchOutcome","i","3000","trustrating_stim/white_mw091.bmp","red","Keep","REAL","0",""
"","","","","6075ed15dc9411d0165d4dd9","bdp_wmem","Tue May 11 2021 16:02:51 GMT-0400 (Eastern Daylight Time)","780051","Match,No Match","html-keyboard-response","95","452686","0.0-7.0-5.11","","null","","<div class='trialBorder'><div class='vertical-center'><img src='img/error.jpg'></div><div class='respDiv'><div class='respDivL'><font style='color:orange'>Match<br>(e)</font></div><div class='respDivR'>No Match<br>(i)</div></div></div>","null","FEEDBACK","","","","","","","","","","","",""
"","","","","6075ed15dc9411d0165d4dd9","bdp_wmem","Tue May 11 2021 16:02:51 GMT-0400 (Eastern Daylight Time)","780051","Match,No Match","html-keyboard-response","96","453197","0.0-7.0-1.12","","null","","<div class='trialBorder'><div class='vertical-center'><img src='img/fixation2_sml.jpg'</img></div></div>","null","FIX","","","","","","","","","","","",""
"","","","","6075ed15dc9411d0165d4dd9","bdp_wmem","Tue May 11 2021 16:02:51 GMT-0400 (Eastern Daylight Time)","780051","Match,No Match","html-keyboard-response","97","457712","0.0-7.0-2.12","","null","","<div class='trialBorder'><div class='vertical-center'><img style='vertical-align:center; align:center' src='img/fixation2_sml.jpg'></div><div class='arrayDiv3'><div class='tl'><img class='introPic' src='trustrating_stim/white_mw040.bmp'><br><font color='green'><strong>Share</strong></font></div><div class='tc'><img class='introPic' src='trustrating_stim/white_mw003.bmp'><br><font color='green'><strong>Share</strong></font></div><div class='tr'><img class='introPic' src='trustrating_stim/white_mw038.bmp'><br><font color='red'><strong>Keep</strong></font></div></div></div>","null","ARRAY","3","trustrating_stim/white_mw040.bmp,trustrating_stim/white_mw003.bmp,trustrating_stim/white_mw038.bmp","1,1,0","Match","e","4500","","","","","",""
"","","","","6075ed15dc9411d0165d4dd9","bdp_wmem","Tue May 11 2021 16:02:51 GMT-0400 (Eastern Daylight Time)","780051","Match,No Match","html-keyboard-response","98","461717","0.0-7.0-3.12","","null","","<div class='trialBorder'><div class='vertical-center'><img src='img/fixation2_sml.jpg'</img></div></div>","null","DELAY","","","","","","","","","","","",""
"","","","","6075ed15dc9411d0165d4dd9","bdp_wmem","Tue May 11 2021 16:02:51 GMT-0400 (Eastern Daylight Time)","780051","Match,No Match","html-keyboard-response","99","462952","0.0-7.0-4.12","","1233","","<div class='trialBorder'><div class='targDiv'><div class='tc'><img class='introPic' src='trustrating_stim/white_mw003.bmp'><br><font color='green'><strong>Share</strong></font></div></div><div class='respDiv'><div class='respDivL'>Match<br>(e)</div><div class='respDivR'>No Match<br>(i)</div></div></div>","e","TARGET","3","trustrating_stim/white_mw040.bmp,trustrating_stim/white_mw003.bmp,trustrating_stim/white_mw038.bmp","1,1,0","Match","e","4500","trustrating_stim/white_mw003.bmp","green","Share","REAL","1",""
"","","","","6075ed15dc9411d0165d4dd9","bdp_wmem","Tue May 11 2021 16:02:51 GMT-0400 (Eastern Daylight Time)","780051","Match,No Match","html-keyboard-response","100","463457","0.0-7.0-5.12","","null","","<div class='trialBorder'><div class='vertical-center'><img src='img/correct.jpg'></div><div class='respDiv'><div class='respDivL'><font style='color:orange'>Match<br>(e)</font></div><div class='respDivR'>No Match<br>(i)</div></div></div>","null","FEEDBACK","","","","","","","","","","","",""
"","","","","6075ed15dc9411d0165d4dd9","bdp_wmem","Tue May 11 2021 16:02:51 GMT-0400 (Eastern Daylight Time)","780051","Match,No Match","html-keyboard-response","101","463970","0.0-7.0-1.13","","null","","<div class='trialBorder'><div class='vertical-center'><img src='img/fixation2_sml.jpg'</img></div></div>","null","FIX","","","","","","","","","","","",""
"","","","","6075ed15dc9411d0165d4dd9","bdp_wmem","Tue May 11 2021 16:02:51 GMT-0400 (Eastern Daylight Time)","780051","Match,No Match","html-keyboard-response","102","465472","0.0-7.0-2.13","","null","","<div class='trialBorder'><div class='vertical-center'><img style='vertical-align:center; align:center' src='img/fixation2_sml.jpg'></div><div class='arrayDiv1'><div class='tc'><img class='introPic' src='trustrating_stim/white_00050_931230_fa_edt.bmp'><br><font color='red'><strong>Keep</strong></font></div></div></div>","null","ARRAY","1","trustrating_stim/white_00050_931230_fa_edt.bmp","0","noMatchOutcome","i","1500","","","","","",""
"","","","","6075ed15dc9411d0165d4dd9","bdp_wmem","Tue May 11 2021 16:02:51 GMT-0400 (Eastern Daylight Time)","780051","Match,No Match","html-keyboard-response","103","469478","0.0-7.0-3.13","","null","","<div class='trialBorder'><div class='vertical-center'><img src='img/fixation2_sml.jpg'</img></div></div>","null","DELAY","","","","","","","","","","","",""
"","","","","6075ed15dc9411d0165d4dd9","bdp_wmem","Tue May 11 2021 16:02:51 GMT-0400 (Eastern Daylight Time)","780051","Match,No Match","html-keyboard-response","104","471052","0.0-7.0-4.13","","1572","","<div class='trialBorder'><div class='targDiv'><div class='tc'><img class='introPic' src='trustrating_stim/white_00050_931230_fa_edt.bmp'><br><font color='green'><strong>Share</strong></font></div></div><div class='respDiv'><div class='respDivL'>Match<br>(e)</div><div class='respDivR'>No Match<br>(i)</div></div></div>","i","TARGET","1","trustrating_stim/white_00050_931230_fa_edt.bmp","0","noMatchOutcome","i","1500","trustrating_stim/white_00050_931230_fa_edt.bmp","green","Share","REAL","1",""
"","","","","6075ed15dc9411d0165d4dd9","bdp_wmem","Tue May 11 2021 16:02:51 GMT-0400 (Eastern Daylight Time)","780051","Match,No Match","html-keyboard-response","105","471554","0.0-7.0-5.13","","null","","<div class='trialBorder'><div class='vertical-center'><img src='img/correct.jpg'></div><div class='respDiv'><div class='respDivL'>Match<br>(e)</div><div class='respDivR'><font style='color:orange'>No Match<br>(i)</font></div></div></div>","null","FEEDBACK","","","","","","","","","","","",""
"","","","","6075ed15dc9411d0165d4dd9","bdp_wmem","Tue May 11 2021 16:02:51 GMT-0400 (Eastern Daylight Time)","780051","Match,No Match","html-keyboard-response","106","472062","0.0-7.0-1.14","","null","","<div class='trialBorder'><div class='vertical-center'><img src='img/fixation2_sml.jpg'</img></div></div>","null","FIX","","","","","","","","","","","",""
"","","","","6075ed15dc9411d0165d4dd9","bdp_wmem","Tue May 11 2021 16:02:51 GMT-0400 (Eastern Daylight Time)","780051","Match,No Match","html-keyboard-response","107","476573","0.0-7.0-2.14","","null","","<div class='trialBorder'><div class='vertical-center'><img style='vertical-align:center; align:center' src='img/fixation2_sml.jpg'></div><div class='arrayDiv3'><div class='tl'><img class='introPic' src='trustrating_stim/white_00050_931230_fa_edt.bmp'><br><font color='green'><strong>Share</strong></font></div><div class='tc'><img class='introPic' src='trustrating_stim/white_mw003.bmp'><br><font color='red'><strong>Keep</strong></font></div><div class='tr'><img class='introPic' src='trustrating_stim/white_mw040.bmp'><br><font color='red'><strong>Keep</strong></font></div></div></div>","null","ARRAY","3","trustrating_stim/white_00050_931230_fa_edt.bmp,trustrating_stim/white_mw003.bmp,trustrating_stim/white_mw040.bmp","1,0,0","Match","e","4500","","","","","",""
"","","","","6075ed15dc9411d0165d4dd9","bdp_wmem","Tue May 11 2021 16:02:51 GMT-0400 (Eastern Daylight Time)","780051","Match,No Match","html-keyboard-response","108","480590","0.0-7.0-3.14","","null","","<div class='trialBorder'><div class='vertical-center'><img src='img/fixation2_sml.jpg'</img></div></div>","null","DELAY","","","","","","","","","","","",""
"","","","","6075ed15dc9411d0165d4dd9","bdp_wmem","Tue May 11 2021 16:02:51 GMT-0400 (Eastern Daylight Time)","780051","Match,No Match","html-keyboard-response","109","482209","0.0-7.0-4.14","","1618","","<div class='trialBorder'><div class='targDiv'><div class='tc'><img class='introPic' src='trustrating_stim/white_00050_931230_fa_edt.bmp'><br><font color='green'><strong>Share</strong></font></div></div><div class='respDiv'><div class='respDivL'>Match<br>(e)</div><div class='respDivR'>No Match<br>(i)</div></div></div>","e","TARGET","3","trustrating_stim/white_00050_931230_fa_edt.bmp,trustrating_stim/white_mw003.bmp,trustrating_stim/white_mw040.bmp","1,0,0","Match","e","4500","trustrating_stim/white_00050_931230_fa_edt.bmp","green","Share","REAL","1",""
"","","","","6075ed15dc9411d0165d4dd9","bdp_wmem","Tue May 11 2021 16:02:51 GMT-0400 (Eastern Daylight Time)","780051","Match,No Match","html-keyboard-response","110","482722","0.0-7.0-5.14","","null","","<div class='trialBorder'><div class='vertical-center'><img src='img/correct.jpg'></div><div class='respDiv'><div class='respDivL'><font style='color:orange'>Match<br>(e)</font></div><div class='respDivR'>No Match<br>(i)</div></div></div>","null","FEEDBACK","","","","","","","","","","","",""
"","","","","6075ed15dc9411d0165d4dd9","bdp_wmem","Tue May 11 2021 16:02:51 GMT-0400 (Eastern Daylight Time)","780051","Match,No Match","html-keyboard-response","111","483232","0.0-7.0-1.15","","null","","<div class='trialBorder'><div class='vertical-center'><img src='img/fixation2_sml.jpg'</img></div></div>","null","FIX","","","","","","","","","","","",""
"","","","","6075ed15dc9411d0165d4dd9","bdp_wmem","Tue May 11 2021 16:02:51 GMT-0400 (Eastern Daylight Time)","780051","Match,No Match","html-keyboard-response","112","486233","0.0-7.0-2.15","","null","","<div class='trialBorder'><div class='vertical-center'><img style='vertical-align:center; align:center' src='img/fixation2_sml.jpg'></div><div class='arrayDiv2'><div class='tl'><img class='introPic' src='trustrating_stim/white_mw070.bmp'><br><font color='green'><strong>Share</strong></font></div><div class='tr'><img class='introPic' src='trustrating_stim/white_mw092.bmp'><br><font color='red'><strong>Keep</strong></font></div></div></div>","null","ARRAY","2","trustrating_stim/white_mw070.bmp,trustrating_stim/white_mw092.bmp","1,0","Match","e","3000","","","","","",""
"","","","","6075ed15dc9411d0165d4dd9","bdp_wmem","Tue May 11 2021 16:02:51 GMT-0400 (Eastern Daylight Time)","780051","Match,No Match","html-keyboard-response","113","490247","0.0-7.0-3.15","","null","","<div class='trialBorder'><div class='vertical-center'><img src='img/fixation2_sml.jpg'</img></div></div>","null","DELAY","","","","","","","","","","","",""
"","","","","6075ed15dc9411d0165d4dd9","bdp_wmem","Tue May 11 2021 16:02:51 GMT-0400 (Eastern Daylight Time)","780051","Match,No Match","html-keyboard-response","114","491493","0.0-7.0-4.15","","1245","","<div class='trialBorder'><div class='targDiv'><div class='tc'><img class='introPic' src='trustrating_stim/white_mw070.bmp'><br><font color='green'><strong>Share</strong></font></div></div><div class='respDiv'><div class='respDivL'>Match<br>(e)</div><div class='respDivR'>No Match<br>(i)</div></div></div>","e","TARGET","2","trustrating_stim/white_mw070.bmp,trustrating_stim/white_mw092.bmp","1,0","Match","e","3000","trustrating_stim/white_mw070.bmp","green","Share","REAL","1",""
"","","","","6075ed15dc9411d0165d4dd9","bdp_wmem","Tue May 11 2021 16:02:51 GMT-0400 (Eastern Daylight Time)","780051","Match,No Match","html-keyboard-response","115","492003","0.0-7.0-5.15","","null","","<div class='trialBorder'><div class='vertical-center'><img src='img/correct.jpg'></div><div class='respDiv'><div class='respDivL'><font style='color:orange'>Match<br>(e)</font></div><div class='respDivR'>No Match<br>(i)</div></div></div>","null","FEEDBACK","","","","","","","","","","","",""
"","","","","6075ed15dc9411d0165d4dd9","bdp_wmem","Tue May 11 2021 16:02:51 GMT-0400 (Eastern Daylight Time)","780051","Match,No Match","html-keyboard-response","116","492515","0.0-7.0-1.16","","null","","<div class='trialBorder'><div class='vertical-center'><img src='img/fixation2_sml.jpg'</img></div></div>","null","FIX","","","","","","","","","","","",""
"","","","","6075ed15dc9411d0165d4dd9","bdp_wmem","Tue May 11 2021 16:02:51 GMT-0400 (Eastern Daylight Time)","780051","Match,No Match","html-keyboard-response","117","497020","0.0-7.0-2.16","","null","","<div class='trialBorder'><div class='vertical-center'><img style='vertical-align:center; align:center' src='img/fixation2_sml.jpg'></div><div class='arrayDiv3'><div class='tl'><img class='introPic' src='trustrating_stim/white_00050_931230_fa_edt.bmp'><br><font color='red'><strong>Keep</strong></font></div><div class='tc'><img class='introPic' src='trustrating_stim/white_mw015.bmp'><br><font color='red'><strong>Keep</strong></font></div><div class='tr'><img class='introPic' src='trustrating_stim/white_mw038.bmp'><br><font color='green'><strong>Share</strong></font></div></div></div>","null","ARRAY","3","trustrating_stim/white_00050_931230_fa_edt.bmp,trustrating_stim/white_mw015.bmp,trustrating_stim/white_mw038.bmp","0,0,1","noMatchFace","i","4500","","","","","",""
"","","","","6075ed15dc9411d0165d4dd9","bdp_wmem","Tue May 11 2021 16:02:51 GMT-0400 (Eastern Daylight Time)","780051","Match,No Match","html-keyboard-response","118","501025","0.0-7.0-3.16","","null","","<div class='trialBorder'><div class='vertical-center'><img src='img/fixation2_sml.jpg'</img></div></div>","null","DELAY","","","","","","","","","","","",""
"","","","","6075ed15dc9411d0165d4dd9","bdp_wmem","Tue May 11 2021 16:02:51 GMT-0400 (Eastern Daylight Time)","780051","Match,No Match","html-keyboard-response","119","502352","0.0-7.0-4.16","","1325","","<div class='trialBorder'><div class='targDiv'><div class='tc'><img class='introPic' src='trustrating_stim/white_mw003.bmp'><br><font color='red'><strong>Keep</strong></font></div></div><div class='respDiv'><div class='respDivL'>Match<br>(e)</div><div class='respDivR'>No Match<br>(i)</div></div></div>","i","TARGET","3","trustrating_stim/white_00050_931230_fa_edt.bmp,trustrating_stim/white_mw015.bmp,trustrating_stim/white_mw038.bmp","0,0,1","noMatchFace","i","4500","trustrating_stim/white_mw003.bmp","red","Keep","REAL","1",""
"","","","","6075ed15dc9411d0165d4dd9","bdp_wmem","Tue May 11 2021 16:02:51 GMT-0400 (Eastern Daylight Time)","780051","Match,No Match","html-keyboard-response","120","502866","0.0-7.0-5.16","","null","","<div class='trialBorder'><div class='vertical-center'><img src='img/correct.jpg'></div><div class='respDiv'><div class='respDivL'>Match<br>(e)</div><div class='respDivR'><font style='color:orange'>No Match<br>(i)</font></div></div></div>","null","FEEDBACK","","","","","","","","","","","",""
"","","","","6075ed15dc9411d0165d4dd9","bdp_wmem","Tue May 11 2021 16:02:51 GMT-0400 (Eastern Daylight Time)","780051","Match,No Match","html-keyboard-response","121","503377","0.0-7.0-1.17","","null","","<div class='trialBorder'><div class='vertical-center'><img src='img/fixation2_sml.jpg'</img></div></div>","null","FIX","","","","","","","","","","","",""
"","","","","6075ed15dc9411d0165d4dd9","bdp_wmem","Tue May 11 2021 16:02:51 GMT-0400 (Eastern Daylight Time)","780051","Match,No Match","html-keyboard-response","122","507890","0.0-7.0-2.17","","null","","<div class='trialBorder'><div class='vertical-center'><img style='vertical-align:center; align:center' src='img/fixation2_sml.jpg'></div><div class='arrayDiv3'><div class='tl'><img class='introPic' src='trustrating_stim/white_mw038.bmp'><br><font color='green'><strong>Share</strong></font></div><div class='tc'><img class='introPic' src='trustrating_stim/white_00807_941205_fb_edt.bmp'><br><font color='red'><strong>Keep</strong></font></div><div class='tr'><img class='introPic' src='trustrating_stim/white_mw013.bmp'><br><font color='red'><strong>Keep</strong></font></div></div></div>","null","ARRAY","3","trustrating_stim/white_mw038.bmp,trustrating_stim/white_00807_941205_fb_edt.bmp,trustrating_stim/white_mw013.bmp","1,0,0","noMatchFace","i","4500","","","","","",""
"","","","","6075ed15dc9411d0165d4dd9","bdp_wmem","Tue May 11 2021 16:02:51 GMT-0400 (Eastern Daylight Time)","780051","Match,No Match","html-keyboard-response","123","511901","0.0-7.0-3.17","","null","","<div class='trialBorder'><div class='vertical-center'><img src='img/fixation2_sml.jpg'</img></div></div>","null","DELAY","","","","","","","","","","","",""
"","","","","6075ed15dc9411d0165d4dd9","bdp_wmem","Tue May 11 2021 16:02:51 GMT-0400 (Eastern Daylight Time)","780051","Match,No Match","html-keyboard-response","124","513173","0.0-7.0-4.17","","1271","","<div class='trialBorder'><div class='targDiv'><div class='tc'><img class='introPic' src='trustrating_stim/white_mw040.bmp'><br><font color='red'><strong>Keep</strong></font></div></div><div class='respDiv'><div class='respDivL'>Match<br>(e)</div><div class='respDivR'>No Match<br>(i)</div></div></div>","i","TARGET","3","trustrating_stim/white_mw038.bmp,trustrating_stim/white_00807_941205_fb_edt.bmp,trustrating_stim/white_mw013.bmp","1,0,0","noMatchFace","i","4500","trustrating_stim/white_mw040.bmp","red","Keep","REAL","1",""
"","","","","6075ed15dc9411d0165d4dd9","bdp_wmem","Tue May 11 2021 16:02:51 GMT-0400 (Eastern Daylight Time)","780051","Match,No Match","html-keyboard-response","125","513689","0.0-7.0-5.17","","null","","<div class='trialBorder'><div class='vertical-center'><img src='img/correct.jpg'></div><div class='respDiv'><div class='respDivL'>Match<br>(e)</div><div class='respDivR'><font style='color:orange'>No Match<br>(i)</font></div></div></div>","null","FEEDBACK","","","","","","","","","","","",""
"","","","","6075ed15dc9411d0165d4dd9","bdp_wmem","Tue May 11 2021 16:02:51 GMT-0400 (Eastern Daylight Time)","780051","Match,No Match","html-keyboard-response","126","514200","0.0-7.0-1.18","","null","","<div class='trialBorder'><div class='vertical-center'><img src='img/fixation2_sml.jpg'</img></div></div>","null","FIX","","","","","","","","","","","",""
"","","","","6075ed15dc9411d0165d4dd9","bdp_wmem","Tue May 11 2021 16:02:51 GMT-0400 (Eastern Daylight Time)","780051","Match,No Match","html-keyboard-response","127","517214","0.0-7.0-2.18","","null","","<div class='trialBorder'><div class='vertical-center'><img style='vertical-align:center; align:center' src='img/fixation2_sml.jpg'></div><div class='arrayDiv2'><div class='tl'><img class='introPic' src='trustrating_stim/white_mw040.bmp'><br><font color='red'><strong>Keep</strong></font></div><div class='tr'><img class='introPic' src='trustrating_stim/white_mw091.bmp'><br><font color='green'><strong>Share</strong></font></div></div></div>","null","ARRAY","2","trustrating_stim/white_mw040.bmp,trustrating_stim/white_mw091.bmp","0,1","Match","e","3000","","","","","",""
"","","","","6075ed15dc9411d0165d4dd9","bdp_wmem","Tue May 11 2021 16:02:51 GMT-0400 (Eastern Daylight Time)","780051","Match,No Match","html-keyboard-response","128","521224","0.0-7.0-3.18","","null","","<div class='trialBorder'><div class='vertical-center'><img src='img/fixation2_sml.jpg'</img></div></div>","null","DELAY","","","","","","","","","","","",""
"","","","","6075ed15dc9411d0165d4dd9","bdp_wmem","Tue May 11 2021 16:02:51 GMT-0400 (Eastern Daylight Time)","780051","Match,No Match","html-keyboard-response","129","522584","0.0-7.0-4.18","","1358","","<div class='trialBorder'><div class='targDiv'><div class='tc'><img class='introPic' src='trustrating_stim/white_mw091.bmp'><br><font color='green'><strong>Share</strong></font></div></div><div class='respDiv'><div class='respDivL'>Match<br>(e)</div><div class='respDivR'>No Match<br>(i)</div></div></div>","e","TARGET","2","trustrating_stim/white_mw040.bmp,trustrating_stim/white_mw091.bmp","0,1","Match","e","3000","trustrating_stim/white_mw091.bmp","green","Share","REAL","1",""
"","","","","6075ed15dc9411d0165d4dd9","bdp_wmem","Tue May 11 2021 16:02:51 GMT-0400 (Eastern Daylight Time)","780051","Match,No Match","html-keyboard-response","130","523090","0.0-7.0-5.18","","null","","<div class='trialBorder'><div class='vertical-center'><img src='img/correct.jpg'></div><div class='respDiv'><div class='respDivL'><font style='color:orange'>Match<br>(e)</font></div><div class='respDivR'>No Match<br>(i)</div></div></div>","null","FEEDBACK","","","","","","","","","","","",""
"","","","","6075ed15dc9411d0165d4dd9","bdp_wmem","Tue May 11 2021 16:02:51 GMT-0400 (Eastern Daylight Time)","780051","Match,No Match","html-keyboard-response","131","523603","0.0-7.0-1.19","","null","","<div class='trialBorder'><div class='vertical-center'><img src='img/fixation2_sml.jpg'</img></div></div>","null","FIX","","","","","","","","","","","",""
"","","","","6075ed15dc9411d0165d4dd9","bdp_wmem","Tue May 11 2021 16:02:51 GMT-0400 (Eastern Daylight Time)","780051","Match,No Match","html-keyboard-response","132","525107","0.0-7.0-2.19","","null","","<div class='trialBorder'><div class='vertical-center'><img style='vertical-align:center; align:center' src='img/fixation2_sml.jpg'></div><div class='arrayDiv1'><div class='tc'><img class='introPic' src='trustrating_stim/white_mw015.bmp'><br><font color='red'><strong>Keep</strong></font></div></div></div>","null","ARRAY","1","trustrating_stim/white_mw015.bmp","0","noMatchFace","i","1500","","","","","",""
"","","","","6075ed15dc9411d0165d4dd9","bdp_wmem","Tue May 11 2021 16:02:51 GMT-0400 (Eastern Daylight Time)","780051","Match,No Match","html-keyboard-response","133","529112","0.0-7.0-3.19","","null","","<div class='trialBorder'><div class='vertical-center'><img src='img/fixation2_sml.jpg'</img></div></div>","null","DELAY","","","","","","","","","","","",""
"","","","","6075ed15dc9411d0165d4dd9","bdp_wmem","Tue May 11 2021 16:02:51 GMT-0400 (Eastern Daylight Time)","780051","Match,No Match","html-keyboard-response","134","531420","0.0-7.0-4.19","","2306","","<div class='trialBorder'><div class='targDiv'><div class='tc'><img class='introPic' src='trustrating_stim/white_00807_941205_fb_edt.bmp'><br><font color='red'><strong>Keep</strong></font></div></div><div class='respDiv'><div class='respDivL'>Match<br>(e)</div><div class='respDivR'>No Match<br>(i)</div></div></div>","e","TARGET","1","trustrating_stim/white_mw015.bmp","0","noMatchFace","i","1500","trustrating_stim/white_00807_941205_fb_edt.bmp","red","Keep","REAL","0",""
"","","","","6075ed15dc9411d0165d4dd9","bdp_wmem","Tue May 11 2021 16:02:51 GMT-0400 (Eastern Daylight Time)","780051","Match,No Match","html-keyboard-response","135","531936","0.0-7.0-5.19","","null","","<div class='trialBorder'><div class='vertical-center'><img src='img/error.jpg'></div><div class='respDiv'><div class='respDivL'><font style='color:orange'>Match<br>(e)</font></div><div class='respDivR'>No Match<br>(i)</div></div></div>","null","FEEDBACK","","","","","","","","","","","",""
"","","","","6075ed15dc9411d0165d4dd9","bdp_wmem","Tue May 11 2021 16:02:51 GMT-0400 (Eastern Daylight Time)","780051","Match,No Match","html-keyboard-response","136","532442","0.0-7.0-1.20","","null","","<div class='trialBorder'><div class='vertical-center'><img src='img/fixation2_sml.jpg'</img></div></div>","null","FIX","","","","","","","","","","","",""
"","","","","6075ed15dc9411d0165d4dd9","bdp_wmem","Tue May 11 2021 16:02:51 GMT-0400 (Eastern Daylight Time)","780051","Match,No Match","html-keyboard-response","137","536958","0.0-7.0-2.20","","null","","<div class='trialBorder'><div class='vertical-center'><img style='vertical-align:center; align:center' src='img/fixation2_sml.jpg'></div><div class='arrayDiv3'><div class='tl'><img class='introPic' src='trustrating_stim/white_00807_941205_fb_edt.bmp'><br><font color='green'><strong>Share</strong></font></div><div class='tc'><img class='introPic' src='trustrating_stim/white_mw038.bmp'><br><font color='red'><strong>Keep</strong></font></div><div class='tr'><img class='introPic' src='trustrating_stim/white_mw040.bmp'><br><font color='green'><strong>Share</strong></font></div></div></div>","null","ARRAY","3","trustrating_stim/white_00807_941205_fb_edt.bmp,trustrating_stim/white_mw038.bmp,trustrating_stim/white_mw040.bmp","1,0,1","Match","e","4500","","","","","",""
"","","","","6075ed15dc9411d0165d4dd9","bdp_wmem","Tue May 11 2021 16:02:51 GMT-0400 (Eastern Daylight Time)","780051","Match,No Match","html-keyboard-response","138","540971","0.0-7.0-3.20","","null","","<div class='trialBorder'><div class='vertical-center'><img src='img/fixation2_sml.jpg'</img></div></div>","null","DELAY","","","","","","","","","","","",""
"","","","","6075ed15dc9411d0165d4dd9","bdp_wmem","Tue May 11 2021 16:02:51 GMT-0400 (Eastern Daylight Time)","780051","Match,No Match","html-keyboard-response","139","542231","0.0-7.0-4.20","","1260","","<div class='trialBorder'><div class='targDiv'><div class='tc'><img class='introPic' src='trustrating_stim/white_mw040.bmp'><br><font color='green'><strong>Share</strong></font></div></div><div class='respDiv'><div class='respDivL'>Match<br>(e)</div><div class='respDivR'>No Match<br>(i)</div></div></div>","i","TARGET","3","trustrating_stim/white_00807_941205_fb_edt.bmp,trustrating_stim/white_mw038.bmp,trustrating_stim/white_mw040.bmp","1,0,1","Match","e","4500","trustrating_stim/white_mw040.bmp","green","Share","REAL","0",""
"","","","","6075ed15dc9411d0165d4dd9","bdp_wmem","Tue May 11 2021 16:02:51 GMT-0400 (Eastern Daylight Time)","780051","Match,No Match","html-keyboard-response","140","542738","0.0-7.0-5.20","","null","","<div class='trialBorder'><div class='vertical-center'><img src='img/error.jpg'></div><div class='respDiv'><div class='respDivL'>Match<br>(e)</div><div class='respDivR'><font style='color:orange'>No Match<br>(i)</font></div></div></div>","null","FEEDBACK","","","","","","","","","","","",""
"","","","","6075ed15dc9411d0165d4dd9","bdp_wmem","Tue May 11 2021 16:02:51 GMT-0400 (Eastern Daylight Time)","780051","Match,No Match","html-keyboard-response","141","543250","0.0-7.0-1.21","","null","","<div class='trialBorder'><div class='vertical-center'><img src='img/fixation2_sml.jpg'</img></div></div>","null","FIX","","","","","","","","","","","",""
"","","","","6075ed15dc9411d0165d4dd9","bdp_wmem","Tue May 11 2021 16:02:51 GMT-0400 (Eastern Daylight Time)","780051","Match,No Match","html-keyboard-response","142","546254","0.0-7.0-2.21","","null","","<div class='trialBorder'><div class='vertical-center'><img style='vertical-align:center; align:center' src='img/fixation2_sml.jpg'></div><div class='arrayDiv2'><div class='tl'><img class='introPic' src='trustrating_stim/white_mw012.bmp'><br><font color='red'><strong>Keep</strong></font></div><div class='tr'><img class='introPic' src='trustrating_stim/white_00050_931230_fa_edt.bmp'><br><font color='green'><strong>Share</strong></font></div></div></div>","null","ARRAY","2","trustrating_stim/white_mw012.bmp,trustrating_stim/white_00050_931230_fa_edt.bmp","0,1","Match","e","3000","","","","","",""
"","","","","6075ed15dc9411d0165d4dd9","bdp_wmem","Tue May 11 2021 16:02:51 GMT-0400 (Eastern Daylight Time)","780051","Match,No Match","html-keyboard-response","143","550261","0.0-7.0-3.21","","null","","<div class='trialBorder'><div class='vertical-center'><img src='img/fixation2_sml.jpg'</img></div></div>","null","DELAY","","","","","","","","","","","",""
"","","","","6075ed15dc9411d0165d4dd9","bdp_wmem","Tue May 11 2021 16:02:51 GMT-0400 (Eastern Daylight Time)","780051","Match,No Match","html-keyboard-response","144","551693","0.0-7.0-4.21","","1431","","<div class='trialBorder'><div class='targDiv'><div class='tc'><img class='introPic' src='trustrating_stim/white_mw012.bmp'><br><font color='red'><strong>Keep</strong></font></div></div><div class='respDiv'><div class='respDivL'>Match<br>(e)</div><div class='respDivR'>No Match<br>(i)</div></div></div>","e","TARGET","2","trustrating_stim/white_mw012.bmp,trustrating_stim/white_00050_931230_fa_edt.bmp","0,1","Match","e","3000","trustrating_stim/white_mw012.bmp","red","Keep","REAL","1",""
"","","","","6075ed15dc9411d0165d4dd9","bdp_wmem","Tue May 11 2021 16:02:51 GMT-0400 (Eastern Daylight Time)","780051","Match,No Match","html-keyboard-response","145","552207","0.0-7.0-5.21","","null","","<div class='trialBorder'><div class='vertical-center'><img src='img/correct.jpg'></div><div class='respDiv'><div class='respDivL'><font style='color:orange'>Match<br>(e)</font></div><div class='respDivR'>No Match<br>(i)</div></div></div>","null","FEEDBACK","","","","","","","","","","","",""
"","","","","6075ed15dc9411d0165d4dd9","bdp_wmem","Tue May 11 2021 16:02:51 GMT-0400 (Eastern Daylight Time)","780051","Match,No Match","html-keyboard-response","146","552717","0.0-7.0-1.22","","null","","<div class='trialBorder'><div class='vertical-center'><img src='img/fixation2_sml.jpg'</img></div></div>","null","FIX","","","","","","","","","","","",""
"","","","","6075ed15dc9411d0165d4dd9","bdp_wmem","Tue May 11 2021 16:02:51 GMT-0400 (Eastern Daylight Time)","780051","Match,No Match","html-keyboard-response","147","557233","0.0-7.0-2.22","","null","","<div class='trialBorder'><div class='vertical-center'><img style='vertical-align:center; align:center' src='img/fixation2_sml.jpg'></div><div class='arrayDiv3'><div class='tl'><img class='introPic' src='trustrating_stim/white_mw092.bmp'><br><font color='red'><strong>Keep</strong></font></div><div class='tc'><img class='introPic' src='trustrating_stim/white_mw040.bmp'><br><font color='green'><strong>Share</strong></font></div><div class='tr'><img class='introPic' src='trustrating_stim/white_mw013.bmp'><br><font color='green'><strong>Share</strong></font></div></div></div>","null","ARRAY","3","trustrating_stim/white_mw092.bmp,trustrating_stim/white_mw040.bmp,trustrating_stim/white_mw013.bmp","0,1,1","Match","e","4500","","","","","",""
"","","","","6075ed15dc9411d0165d4dd9","bdp_wmem","Tue May 11 2021 16:02:51 GMT-0400 (Eastern Daylight Time)","780051","Match,No Match","html-keyboard-response","148","561245","0.0-7.0-3.22","","null","","<div class='trialBorder'><div class='vertical-center'><img src='img/fixation2_sml.jpg'</img></div></div>","null","DELAY","","","","","","","","","","","",""
"","","","","6075ed15dc9411d0165d4dd9","bdp_wmem","Tue May 11 2021 16:02:51 GMT-0400 (Eastern Daylight Time)","780051","Match,No Match","html-keyboard-response","149","562573","0.0-7.0-4.22","","1327","","<div class='trialBorder'><div class='targDiv'><div class='tc'><img class='introPic' src='trustrating_stim/white_mw092.bmp'><br><font color='red'><strong>Keep</strong></font></div></div><div class='respDiv'><div class='respDivL'>Match<br>(e)</div><div class='respDivR'>No Match<br>(i)</div></div></div>","e","TARGET","3","trustrating_stim/white_mw092.bmp,trustrating_stim/white_mw040.bmp,trustrating_stim/white_mw013.bmp","0,1,1","Match","e","4500","trustrating_stim/white_mw092.bmp","red","Keep","REAL","1",""
"","","","","6075ed15dc9411d0165d4dd9","bdp_wmem","Tue May 11 2021 16:02:51 GMT-0400 (Eastern Daylight Time)","780051","Match,No Match","html-keyboard-response","150","563080","0.0-7.0-5.22","","null","","<div class='trialBorder'><div class='vertical-center'><img src='img/correct.jpg'></div><div class='respDiv'><div class='respDivL'><font style='color:orange'>Match<br>(e)</font></div><div class='respDivR'>No Match<br>(i)</div></div></div>","null","FEEDBACK","","","","","","","","","","","",""
"","","","","6075ed15dc9411d0165d4dd9","bdp_wmem","Tue May 11 2021 16:02:51 GMT-0400 (Eastern Daylight Time)","780051","Match,No Match","html-keyboard-response","151","563588","0.0-7.0-1.23","","null","","<div class='trialBorder'><div class='vertical-center'><img src='img/fixation2_sml.jpg'</img></div></div>","null","FIX","","","","","","","","","","","",""
"","","","","6075ed15dc9411d0165d4dd9","bdp_wmem","Tue May 11 2021 16:02:51 GMT-0400 (Eastern Daylight Time)","780051","Match,No Match","html-keyboard-response","152","565095","0.0-7.0-2.23","","null","","<div class='trialBorder'><div class='vertical-center'><img style='vertical-align:center; align:center' src='img/fixation2_sml.jpg'></div><div class='arrayDiv1'><div class='tc'><img class='introPic' src='trustrating_stim/white_mw013.bmp'><br><font color='green'><strong>Share</strong></font></div></div></div>","null","ARRAY","1","trustrating_stim/white_mw013.bmp","1","noMatchOutcome","i","1500","","","","","",""
"","","","","6075ed15dc9411d0165d4dd9","bdp_wmem","Tue May 11 2021 16:02:51 GMT-0400 (Eastern Daylight Time)","780051","Match,No Match","html-keyboard-response","153","569103","0.0-7.0-3.23","","null","","<div class='trialBorder'><div class='vertical-center'><img src='img/fixation2_sml.jpg'</img></div></div>","null","DELAY","","","","","","","","","","","",""
"","","","","6075ed15dc9411d0165d4dd9","bdp_wmem","Tue May 11 2021 16:02:51 GMT-0400 (Eastern Daylight Time)","780051","Match,No Match","html-keyboard-response","154","570751","0.0-7.0-4.23","","1648","","<div class='trialBorder'><div class='targDiv'><div class='tc'><img class='introPic' src='trustrating_stim/white_mw013.bmp'><br><font color='red'><strong>Keep</strong></font></div></div><div class='respDiv'><div class='respDivL'>Match<br>(e)</div><div class='respDivR'>No Match<br>(i)</div></div></div>","i","TARGET","1","trustrating_stim/white_mw013.bmp","1","noMatchOutcome","i","1500","trustrating_stim/white_mw013.bmp","red","Keep","REAL","1",""
"","","","","6075ed15dc9411d0165d4dd9","bdp_wmem","Tue May 11 2021 16:02:51 GMT-0400 (Eastern Daylight Time)","780051","Match,No Match","html-keyboard-response","155","571260","0.0-7.0-5.23","","null","","<div class='trialBorder'><div class='vertical-center'><img src='img/correct.jpg'></div><div class='respDiv'><div class='respDivL'>Match<br>(e)</div><div class='respDivR'><font style='color:orange'>No Match<br>(i)</font></div></div></div>","null","FEEDBACK","","","","","","","","","","","",""
"","","","","6075ed15dc9411d0165d4dd9","bdp_wmem","Tue May 11 2021 16:02:51 GMT-0400 (Eastern Daylight Time)","780051","Match,No Match","html-keyboard-response","156","571771","0.0-7.0-1.24","","null","","<div class='trialBorder'><div class='vertical-center'><img src='img/fixation2_sml.jpg'</img></div></div>","null","FIX","","","","","","","","","","","",""
"","","","","6075ed15dc9411d0165d4dd9","bdp_wmem","Tue May 11 2021 16:02:51 GMT-0400 (Eastern Daylight Time)","780051","Match,No Match","html-keyboard-response","157","574780","0.0-7.0-2.24","","null","","<div class='trialBorder'><div class='vertical-center'><img style='vertical-align:center; align:center' src='img/fixation2_sml.jpg'></div><div class='arrayDiv2'><div class='tl'><img class='introPic' src='trustrating_stim/white_mw070.bmp'><br><font color='red'><strong>Keep</strong></font></div><div class='tr'><img class='introPic' src='trustrating_stim/white_00807_941205_fb_edt.bmp'><br><font color='green'><strong>Share</strong></font></div></div></div>","null","ARRAY","2","trustrating_stim/white_mw070.bmp,trustrating_stim/white_00807_941205_fb_edt.bmp","0,1","Match","e","3000","","","","","",""
"","","","","6075ed15dc9411d0165d4dd9","bdp_wmem","Tue May 11 2021 16:02:51 GMT-0400 (Eastern Daylight Time)","780051","Match,No Match","html-keyboard-response","158","578794","0.0-7.0-3.24","","null","","<div class='trialBorder'><div class='vertical-center'><img src='img/fixation2_sml.jpg'</img></div></div>","null","DELAY","","","","","","","","","","","",""
"","","","","6075ed15dc9411d0165d4dd9","bdp_wmem","Tue May 11 2021 16:02:51 GMT-0400 (Eastern Daylight Time)","780051","Match,No Match","html-keyboard-response","159","579883","0.0-7.0-4.24","","1088","","<div class='trialBorder'><div class='targDiv'><div class='tc'><img class='introPic' src='trustrating_stim/white_00807_941205_fb_edt.bmp'><br><font color='green'><strong>Share</strong></font></div></div><div class='respDiv'><div class='respDivL'>Match<br>(e)</div><div class='respDivR'>No Match<br>(i)</div></div></div>","e","TARGET","2","trustrating_stim/white_mw070.bmp,trustrating_stim/white_00807_941205_fb_edt.bmp","0,1","Match","e","3000","trustrating_stim/white_00807_941205_fb_edt.bmp","green","Share","REAL","1",""
"","","","","6075ed15dc9411d0165d4dd9","bdp_wmem","Tue May 11 2021 16:02:51 GMT-0400 (Eastern Daylight Time)","780051","Match,No Match","html-keyboard-response","160","580387","0.0-7.0-5.24","","null","","<div class='trialBorder'><div class='vertical-center'><img src='img/correct.jpg'></div><div class='respDiv'><div class='respDivL'><font style='color:orange'>Match<br>(e)</font></div><div class='respDivR'>No Match<br>(i)</div></div></div>","null","FEEDBACK","","","","","","","","","","","",""
"","","","","6075ed15dc9411d0165d4dd9","bdp_wmem","Tue May 11 2021 16:02:51 GMT-0400 (Eastern Daylight Time)","780051","Match,No Match","html-keyboard-response","161","580899","0.0-7.0-1.25","","null","","<div class='trialBorder'><div class='vertical-center'><img src='img/fixation2_sml.jpg'</img></div></div>","null","FIX","","","","","","","","","","","",""
"","","","","6075ed15dc9411d0165d4dd9","bdp_wmem","Tue May 11 2021 16:02:51 GMT-0400 (Eastern Daylight Time)","780051","Match,No Match","html-keyboard-response","162","585405","0.0-7.0-2.25","","null","","<div class='trialBorder'><div class='vertical-center'><img style='vertical-align:center; align:center' src='img/fixation2_sml.jpg'></div><div class='arrayDiv3'><div class='tl'><img class='introPic' src='trustrating_stim/white_mw040.bmp'><br><font color='red'><strong>Keep</strong></font></div><div class='tc'><img class='introPic' src='trustrating_stim/white_00050_931230_fa_edt.bmp'><br><font color='red'><strong>Keep</strong></font></div><div class='tr'><img class='introPic' src='trustrating_stim/white_mw092.bmp'><br><font color='green'><strong>Share</strong></font></div></div></div>","null","ARRAY","3","trustrating_stim/white_mw040.bmp,trustrating_stim/white_00050_931230_fa_edt.bmp,trustrating_stim/white_mw092.bmp","0,0,1","noMatchFace","i","4500","","","","","",""
"","","","","6075ed15dc9411d0165d4dd9","bdp_wmem","Tue May 11 2021 16:02:51 GMT-0400 (Eastern Daylight Time)","780051","Match,No Match","html-keyboard-response","163","589411","0.0-7.0-3.25","","null","","<div class='trialBorder'><div class='vertical-center'><img src='img/fixation2_sml.jpg'</img></div></div>","null","DELAY","","","","","","","","","","","",""
"","","","","6075ed15dc9411d0165d4dd9","bdp_wmem","Tue May 11 2021 16:02:51 GMT-0400 (Eastern Daylight Time)","780051","Match,No Match","html-keyboard-response","164","590418","0.0-7.0-4.25","","1006","","<div class='trialBorder'><div class='targDiv'><div class='tc'><img class='introPic' src='trustrating_stim/white_mw003.bmp'><br><font color='red'><strong>Keep</strong></font></div></div><div class='respDiv'><div class='respDivL'>Match<br>(e)</div><div class='respDivR'>No Match<br>(i)</div></div></div>","i","TARGET","3","trustrating_stim/white_mw040.bmp,trustrating_stim/white_00050_931230_fa_edt.bmp,trustrating_stim/white_mw092.bmp","0,0,1","noMatchFace","i","4500","trustrating_stim/white_mw003.bmp","red","Keep","REAL","1",""
"","","","","6075ed15dc9411d0165d4dd9","bdp_wmem","Tue May 11 2021 16:02:51 GMT-0400 (Eastern Daylight Time)","780051","Match,No Match","html-keyboard-response","165","590921","0.0-7.0-5.25","","null","","<div class='trialBorder'><div class='vertical-center'><img src='img/correct.jpg'></div><div class='respDiv'><div class='respDivL'>Match<br>(e)</div><div class='respDivR'><font style='color:orange'>No Match<br>(i)</font></div></div></div>","null","FEEDBACK","","","","","","","","","","","",""
"","","","","6075ed15dc9411d0165d4dd9","bdp_wmem","Tue May 11 2021 16:02:51 GMT-0400 (Eastern Daylight Time)","780051","Match,No Match","html-keyboard-response","166","591428","0.0-7.0-1.26","","null","","<div class='trialBorder'><div class='vertical-center'><img src='img/fixation2_sml.jpg'</img></div></div>","null","FIX","","","","","","","","","","","",""
"","","","","6075ed15dc9411d0165d4dd9","bdp_wmem","Tue May 11 2021 16:02:51 GMT-0400 (Eastern Daylight Time)","780051","Match,No Match","html-keyboard-response","167","592936","0.0-7.0-2.26","","null","","<div class='trialBorder'><div class='vertical-center'><img style='vertical-align:center; align:center' src='img/fixation2_sml.jpg'></div><div class='arrayDiv1'><div class='tc'><img class='introPic' src='trustrating_stim/white_00050_931230_fa_edt.bmp'><br><font color='green'><strong>Share</strong></font></div></div></div>","null","ARRAY","1","trustrating_stim/white_00050_931230_fa_edt.bmp","1","Match","e","1500","","","","","",""
"","","","","6075ed15dc9411d0165d4dd9","bdp_wmem","Tue May 11 2021 16:02:51 GMT-0400 (Eastern Daylight Time)","780051","Match,No Match","html-keyboard-response","168","596947","0.0-7.0-3.26","","null","","<div class='trialBorder'><div class='vertical-center'><img src='img/fixation2_sml.jpg'</img></div></div>","null","DELAY","","","","","","","","","","","",""
"","","","","6075ed15dc9411d0165d4dd9","bdp_wmem","Tue May 11 2021 16:02:51 GMT-0400 (Eastern Daylight Time)","780051","Match,No Match","html-keyboard-response","169","598006","0.0-7.0-4.26","","1057","","<div class='trialBorder'><div class='targDiv'><div class='tc'><img class='introPic' src='trustrating_stim/white_00050_931230_fa_edt.bmp'><br><font color='green'><strong>Share</strong></font></div></div><div class='respDiv'><div class='respDivL'>Match<br>(e)</div><div class='respDivR'>No Match<br>(i)</div></div></div>","e","TARGET","1","trustrating_stim/white_00050_931230_fa_edt.bmp","1","Match","e","1500","trustrating_stim/white_00050_931230_fa_edt.bmp","green","Share","REAL","1",""
"","","","","6075ed15dc9411d0165d4dd9","bdp_wmem","Tue May 11 2021 16:02:51 GMT-0400 (Eastern Daylight Time)","780051","Match,No Match","html-keyboard-response","170","598514","0.0-7.0-5.26","","null","","<div class='trialBorder'><div class='vertical-center'><img src='img/correct.jpg'></div><div class='respDiv'><div class='respDivL'><font style='color:orange'>Match<br>(e)</font></div><div class='respDivR'>No Match<br>(i)</div></div></div>","null","FEEDBACK","","","","","","","","","","","",""
"","","","","6075ed15dc9411d0165d4dd9","bdp_wmem","Tue May 11 2021 16:02:51 GMT-0400 (Eastern Daylight Time)","780051","Match,No Match","html-keyboard-response","171","599025","0.0-7.0-1.27","","null","","<div class='trialBorder'><div class='vertical-center'><img src='img/fixation2_sml.jpg'</img></div></div>","null","FIX","","","","","","","","","","","",""
"","","","","6075ed15dc9411d0165d4dd9","bdp_wmem","Tue May 11 2021 16:02:51 GMT-0400 (Eastern Daylight Time)","780051","Match,No Match","html-keyboard-response","172","600529","0.0-7.0-2.27","","null","","<div class='trialBorder'><div class='vertical-center'><img style='vertical-align:center; align:center' src='img/fixation2_sml.jpg'></div><div class='arrayDiv1'><div class='tc'><img class='introPic' src='trustrating_stim/white_mw003.bmp'><br><font color='green'><strong>Share</strong></font></div></div></div>","null","ARRAY","1","trustrating_stim/white_mw003.bmp","1","Match","e","1500","","","","","",""
"","","","","6075ed15dc9411d0165d4dd9","bdp_wmem","Tue May 11 2021 16:02:51 GMT-0400 (Eastern Daylight Time)","780051","Match,No Match","html-keyboard-response","173","604533","0.0-7.0-3.27","","null","","<div class='trialBorder'><div class='vertical-center'><img src='img/fixation2_sml.jpg'</img></div></div>","null","DELAY","","","","","","","","","","","",""
"","","","","6075ed15dc9411d0165d4dd9","bdp_wmem","Tue May 11 2021 16:02:51 GMT-0400 (Eastern Daylight Time)","780051","Match,No Match","html-keyboard-response","174","605433","0.0-7.0-4.27","","899","","<div class='trialBorder'><div class='targDiv'><div class='tc'><img class='introPic' src='trustrating_stim/white_mw003.bmp'><br><font color='green'><strong>Share</strong></font></div></div><div class='respDiv'><div class='respDivL'>Match<br>(e)</div><div class='respDivR'>No Match<br>(i)</div></div></div>","e","TARGET","1","trustrating_stim/white_mw003.bmp","1","Match","e","1500","trustrating_stim/white_mw003.bmp","green","Share","REAL","1",""
"","","","","6075ed15dc9411d0165d4dd9","bdp_wmem","Tue May 11 2021 16:02:51 GMT-0400 (Eastern Daylight Time)","780051","Match,No Match","html-keyboard-response","175","605949","0.0-7.0-5.27","","null","","<div class='trialBorder'><div class='vertical-center'><img src='img/correct.jpg'></div><div class='respDiv'><div class='respDivL'><font style='color:orange'>Match<br>(e)</font></div><div class='respDivR'>No Match<br>(i)</div></div></div>","null","FEEDBACK","","","","","","","","","","","",""
"","","","","6075ed15dc9411d0165d4dd9","bdp_wmem","Tue May 11 2021 16:02:51 GMT-0400 (Eastern Daylight Time)","780051","Match,No Match","html-keyboard-response","176","606457","0.0-7.0-1.28","","null","","<div class='trialBorder'><div class='vertical-center'><img src='img/fixation2_sml.jpg'</img></div></div>","null","FIX","","","","","","","","","","","",""
"","","","","6075ed15dc9411d0165d4dd9","bdp_wmem","Tue May 11 2021 16:02:51 GMT-0400 (Eastern Daylight Time)","780051","Match,No Match","html-keyboard-response","177","609462","0.0-7.0-2.28","","null","","<div class='trialBorder'><div class='vertical-center'><img style='vertical-align:center; align:center' src='img/fixation2_sml.jpg'></div><div class='arrayDiv2'><div class='tl'><img class='introPic' src='trustrating_stim/white_mw038.bmp'><br><font color='green'><strong>Share</strong></font></div><div class='tr'><img class='introPic' src='trustrating_stim/white_mw012.bmp'><br><font color='red'><strong>Keep</strong></font></div></div></div>","null","ARRAY","2","trustrating_stim/white_mw038.bmp,trustrating_stim/white_mw012.bmp","1,0","noMatchFace","i","3000","","","","","",""
"","","","","6075ed15dc9411d0165d4dd9","bdp_wmem","Tue May 11 2021 16:02:51 GMT-0400 (Eastern Daylight Time)","780051","Match,No Match","html-keyboard-response","178","613464","0.0-7.0-3.28","","null","","<div class='trialBorder'><div class='vertical-center'><img src='img/fixation2_sml.jpg'</img></div></div>","null","DELAY","","","","","","","","","","","",""
"","","","","6075ed15dc9411d0165d4dd9","bdp_wmem","Tue May 11 2021 16:02:51 GMT-0400 (Eastern Daylight Time)","780051","Match,No Match","html-keyboard-response","179","614406","0.0-7.0-4.28","","942","","<div class='trialBorder'><div class='targDiv'><div class='tc'><img class='introPic' src='trustrating_stim/white_00050_931230_fa_edt.bmp'><br><font color='green'><strong>Share</strong></font></div></div><div class='respDiv'><div class='respDivL'>Match<br>(e)</div><div class='respDivR'>No Match<br>(i)</div></div></div>","i","TARGET","2","trustrating_stim/white_mw038.bmp,trustrating_stim/white_mw012.bmp","1,0","noMatchFace","i","3000","trustrating_stim/white_00050_931230_fa_edt.bmp","green","Share","REAL","1",""
"","","","","6075ed15dc9411d0165d4dd9","bdp_wmem","Tue May 11 2021 16:02:51 GMT-0400 (Eastern Daylight Time)","780051","Match,No Match","html-keyboard-response","180","614923","0.0-7.0-5.28","","null","","<div class='trialBorder'><div class='vertical-center'><img src='img/correct.jpg'></div><div class='respDiv'><div class='respDivL'>Match<br>(e)</div><div class='respDivR'><font style='color:orange'>No Match<br>(i)</font></div></div></div>","null","FEEDBACK","","","","","","","","","","","",""
"","","","","6075ed15dc9411d0165d4dd9","bdp_wmem","Tue May 11 2021 16:02:51 GMT-0400 (Eastern Daylight Time)","780051","Match,No Match","html-keyboard-response","181","615427","0.0-7.0-1.29","","null","","<div class='trialBorder'><div class='vertical-center'><img src='img/fixation2_sml.jpg'</img></div></div>","null","FIX","","","","","","","","","","","",""
"","","","","6075ed15dc9411d0165d4dd9","bdp_wmem","Tue May 11 2021 16:02:51 GMT-0400 (Eastern Daylight Time)","780051","Match,No Match","html-keyboard-response","182","616941","0.0-7.0-2.29","","null","","<div class='trialBorder'><div class='vertical-center'><img style='vertical-align:center; align:center' src='img/fixation2_sml.jpg'></div><div class='arrayDiv1'><div class='tc'><img class='introPic' src='trustrating_stim/white_mw092.bmp'><br><font color='red'><strong>Keep</strong></font></div></div></div>","null","ARRAY","1","trustrating_stim/white_mw092.bmp","0","noMatchOutcome","i","1500","","","","","",""
