"trial_type","trial_index","time_elapsed","internal_node_id","subject_id","task","startTime","totalTime","labels","view_history","rt","event","trial","time","trialtype","success","stimulus","key_press","stimType","arraySize","arrayFaces","arrayOutcomes","matchType","corrResp","arrayDur","targFace","targCol","targOutcome","trialType","corr"
"pavlovia","0","3","0.0-0.0","60d2d061fd054556769ca306","bdp_wmem","Mon Mar 13 2023 00:12:20 GMT-0400 (Eastern Daylight Time)","728141","Match,No Match","","","","","","","","","","","","","","","","","","","","",""
"instructions","1","2352","0.0-1.0","60d2d061fd054556769ca306","bdp_wmem","Mon Mar 13 2023 00:12:20 GMT-0400 (Eastern Daylight Time)","728141","Match,No Match","[{""page_index"":0,""viewing_time"":2349}]","2349","","","","","","","","","","","","","","","","","","",""
"","","","","60d2d061fd054556769ca306","bdp_wmem","Mon Mar 13 2023 00:12:20 GMT-0400 (Eastern Daylight Time)","728141","Match,No Match","","","fullscreenenter","2","5069","fullscreenenter","","","","","","","","","","","","","","",""
"fullscreen","2","6054","0.0-2.0","60d2d061fd054556769ca306","bdp_wmem","Mon Mar 13 2023 00:12:20 GMT-0400 (Eastern Daylight Time)","728141","Match,No Match","","","","","","","true","","","","","","","","","","","","","",""
"instructions","3","51657","0.0-4.0","60d2d061fd054556769ca306","bdp_wmem","Mon Mar 13 2023 00:12:20 GMT-0400 (Eastern Daylight Time)","728141","Match,No Match","[{""page_index"":0,""viewing_time"":11682},{""page_index"":1,""viewing_time"":2292},{""page_index"":2,""viewing_time"":7296},{""page_index"":3,""viewing_time"":5337},{""page_index"":4,""viewing_time"":18995}]","45602","","","","","","","","","","","","","","","","","","",""
"html-keyboard-response","4","52162","0.0-5.0-1.0","60d2d061fd054556769ca306","bdp_wmem","Mon Mar 13 2023 00:12:20 GMT-0400 (Eastern Daylight Time)","728141","Match,No Match","","null","","","","","","<div class='trialBorder'><div class='vertical-center'><img src='img/fixation2_sml.jpg'</img></div></div>","null","FIX","","","","","","","","","","",""
"html-keyboard-response","5","55164","0.0-5.0-2.0","60d2d061fd054556769ca306","bdp_wmem","Mon Mar 13 2023 00:12:20 GMT-0400 (Eastern Daylight Time)","728141","Match,No Match","","null","","","","","","<div class='trialBorder'><div class='vertical-center'><img style='vertical-align:center; align:center' src='img/fixation2_sml.jpg'></div><div class='arrayDiv2'><div class='tl'><img class='introPic' src='trustrating_stim/white_mw038.bmp'><br><font color='green'><strong>Share</strong></font></div><div class='tr'><img class='introPic' src='trustrating_stim/white_mw012.bmp'><br><font color='red'><strong>Keep</strong></font></div></div></div>","null","ARRAY","2","trustrating_stim/white_mw038.bmp,trustrating_stim/white_mw012.bmp","1,0","noMatchOutcome","i","3000","","","","",""
"html-keyboard-response","6","59166","0.0-5.0-3.0","60d2d061fd054556769ca306","bdp_wmem","Mon Mar 13 2023 00:12:20 GMT-0400 (Eastern Daylight Time)","728141","Match,No Match","","null","","","","","","<div class='trialBorder'><div class='vertical-center'><img src='img/fixation2_sml.jpg'</img></div></div>","null","DELAY","","","","","","","","","","",""
"html-keyboard-response","7","61963","0.0-5.0-4.0","60d2d061fd054556769ca306","bdp_wmem","Mon Mar 13 2023 00:12:20 GMT-0400 (Eastern Daylight Time)","728141","Match,No Match","","2794","","","","","","<div class='trialBorder'><div class='targDiv'><div class='tc'><img class='introPic' src='trustrating_stim/white_mw012.bmp'><br><font color='green'><strong>Share</strong></font></div></div><div class='respDiv'><div class='respDivL'>Match<br>(e)</div><div class='respDivR'>No Match<br>(i)</div></div></div>","e","TARGET","2","trustrating_stim/white_mw038.bmp,trustrating_stim/white_mw012.bmp","1,0","noMatchOutcome","i","3000","trustrating_stim/white_mw012.bmp","green","Share","PRACTICE","0"
"html-keyboard-response","8","62466","0.0-5.0-5.0","60d2d061fd054556769ca306","bdp_wmem","Mon Mar 13 2023 00:12:20 GMT-0400 (Eastern Daylight Time)","728141","Match,No Match","","null","","","","","","<div class='trialBorder'><div class='vertical-center'><img src='img/error.jpg'></div><div class='respDiv'><div class='respDivL'><font style='color:orange'>Match<br>(e)</font></div><div class='respDivR'>No Match<br>(i)</div></div></div>","null","FEEDBACK","","","","","","","","","","",""
"html-keyboard-response","9","62968","0.0-5.0-1.1","60d2d061fd054556769ca306","bdp_wmem","Mon Mar 13 2023 00:12:20 GMT-0400 (Eastern Daylight Time)","728141","Match,No Match","","null","","","","","","<div class='trialBorder'><div class='vertical-center'><img src='img/fixation2_sml.jpg'</img></div></div>","null","FIX","","","","","","","","","","",""
"html-keyboard-response","10","67471","0.0-5.0-2.1","60d2d061fd054556769ca306","bdp_wmem","Mon Mar 13 2023 00:12:20 GMT-0400 (Eastern Daylight Time)","728141","Match,No Match","","null","","","","","","<div class='trialBorder'><div class='vertical-center'><img style='vertical-align:center; align:center' src='img/fixation2_sml.jpg'></div><div class='arrayDiv3'><div class='tl'><img class='introPic' src='trustrating_stim/white_mw085.bmp'><br><font color='red'><strong>Keep</strong></font></div><div class='tc'><img class='introPic' src='trustrating_stim/white_mw010.bmp'><br><font color='green'><strong>Share</strong></font></div><div class='tr'><img class='introPic' src='trustrating_stim/white_mw091.bmp'><br><font color='red'><strong>Keep</strong></font></div></div></div>","null","ARRAY","3","trustrating_stim/white_mw085.bmp,trustrating_stim/white_mw010.bmp,trustrating_stim/white_mw091.bmp","0,1,0","Match","e","4500","","","","",""
"html-keyboard-response","11","71473","0.0-5.0-3.1","60d2d061fd054556769ca306","bdp_wmem","Mon Mar 13 2023 00:12:20 GMT-0400 (Eastern Daylight Time)","728141","Match,No Match","","null","","","","","","<div class='trialBorder'><div class='vertical-center'><img src='img/fixation2_sml.jpg'</img></div></div>","null","DELAY","","","","","","","","","","",""
"html-keyboard-response","12","74424","0.0-5.0-4.1","60d2d061fd054556769ca306","bdp_wmem","Mon Mar 13 2023 00:12:20 GMT-0400 (Eastern Daylight Time)","728141","Match,No Match","","2948","","","","","","<div class='trialBorder'><div class='targDiv'><div class='tc'><img class='introPic' src='trustrating_stim/white_mw085.bmp'><br><font color='red'><strong>Keep</strong></font></div></div><div class='respDiv'><div class='respDivL'>Match<br>(e)</div><div class='respDivR'>No Match<br>(i)</div></div></div>","e","TARGET","3","trustrating_stim/white_mw085.bmp,trustrating_stim/white_mw010.bmp,trustrating_stim/white_mw091.bmp","0,1,0","Match","e","4500","trustrating_stim/white_mw085.bmp","red","Keep","PRACTICE","1"
"html-keyboard-response","13","74925","0.0-5.0-5.1","60d2d061fd054556769ca306","bdp_wmem","Mon Mar 13 2023 00:12:20 GMT-0400 (Eastern Daylight Time)","728141","Match,No Match","","null","","","","","","<div class='trialBorder'><div class='vertical-center'><img src='img/correct.jpg'></div><div class='respDiv'><div class='respDivL'><font style='color:orange'>Match<br>(e)</font></div><div class='respDivR'>No Match<br>(i)</div></div></div>","null","FEEDBACK","","","","","","","","","","",""
"html-keyboard-response","14","75427","0.0-5.0-1.2","60d2d061fd054556769ca306","bdp_wmem","Mon Mar 13 2023 00:12:20 GMT-0400 (Eastern Daylight Time)","728141","Match,No Match","","null","","","","","","<div class='trialBorder'><div class='vertical-center'><img src='img/fixation2_sml.jpg'</img></div></div>","null","FIX","","","","","","","","","","",""
"html-keyboard-response","15","79930","0.0-5.0-2.2","60d2d061fd054556769ca306","bdp_wmem","Mon Mar 13 2023 00:12:20 GMT-0400 (Eastern Daylight Time)","728141","Match,No Match","","null","","","","","","<div class='trialBorder'><div class='vertical-center'><img style='vertical-align:center; align:center' src='img/fixation2_sml.jpg'></div><div class='arrayDiv3'><div class='tl'><img class='introPic' src='trustrating_stim/white_mw070.bmp'><br><font color='green'><strong>Share</strong></font></div><div class='tc'><img class='introPic' src='trustrating_stim/white_mw078.bmp'><br><font color='red'><strong>Keep</strong></font></div><div class='tr'><img class='introPic' src='trustrating_stim/white_mw092.bmp'><br><font color='red'><strong>Keep</strong></font></div></div></div>","null","ARRAY","3","trustrating_stim/white_mw070.bmp,trustrating_stim/white_mw078.bmp,trustrating_stim/white_mw092.bmp","1,0,0","noMatchOutcome","i","4500","","","","",""
"html-keyboard-response","16","83932","0.0-5.0-3.2","60d2d061fd054556769ca306","bdp_wmem","Mon Mar 13 2023 00:12:20 GMT-0400 (Eastern Daylight Time)","728141","Match,No Match","","null","","","","","","<div class='trialBorder'><div class='vertical-center'><img src='img/fixation2_sml.jpg'</img></div></div>","null","DELAY","","","","","","","","","","",""
"html-keyboard-response","17","86728","0.0-5.0-4.2","60d2d061fd054556769ca306","bdp_wmem","Mon Mar 13 2023 00:12:20 GMT-0400 (Eastern Daylight Time)","728141","Match,No Match","","2795","","","","","","<div class='trialBorder'><div class='targDiv'><div class='tc'><img class='introPic' src='trustrating_stim/white_mw070.bmp'><br><font color='red'><strong>Keep</strong></font></div></div><div class='respDiv'><div class='respDivL'>Match<br>(e)</div><div class='respDivR'>No Match<br>(i)</div></div></div>","i","TARGET","3","trustrating_stim/white_mw070.bmp,trustrating_stim/white_mw078.bmp,trustrating_stim/white_mw092.bmp","1,0,0","noMatchOutcome","i","4500","trustrating_stim/white_mw070.bmp","red","Keep","PRACTICE","1"
"html-keyboard-response","18","87231","0.0-5.0-5.2","60d2d061fd054556769ca306","bdp_wmem","Mon Mar 13 2023 00:12:20 GMT-0400 (Eastern Daylight Time)","728141","Match,No Match","","null","","","","","","<div class='trialBorder'><div class='vertical-center'><img src='img/correct.jpg'></div><div class='respDiv'><div class='respDivL'>Match<br>(e)</div><div class='respDivR'><font style='color:orange'>No Match<br>(i)</font></div></div></div>","null","FEEDBACK","","","","","","","","","","",""
"html-keyboard-response","19","87732","0.0-5.0-1.3","60d2d061fd054556769ca306","bdp_wmem","Mon Mar 13 2023 00:12:20 GMT-0400 (Eastern Daylight Time)","728141","Match,No Match","","null","","","","","","<div class='trialBorder'><div class='vertical-center'><img src='img/fixation2_sml.jpg'</img></div></div>","null","FIX","","","","","","","","","","",""
"html-keyboard-response","20","89235","0.0-5.0-2.3","60d2d061fd054556769ca306","bdp_wmem","Mon Mar 13 2023 00:12:20 GMT-0400 (Eastern Daylight Time)","728141","Match,No Match","","null","","","","","","<div class='trialBorder'><div class='vertical-center'><img style='vertical-align:center; align:center' src='img/fixation2_sml.jpg'></div><div class='arrayDiv1'><div class='tc'><img class='introPic' src='trustrating_stim/white_mw042.bmp'><br><font color='green'><strong>Share</strong></font></div></div></div>","null","ARRAY","1","trustrating_stim/white_mw042.bmp","1","Match","e","1500","","","","",""
"html-keyboard-response","21","93237","0.0-5.0-3.3","60d2d061fd054556769ca306","bdp_wmem","Mon Mar 13 2023 00:12:20 GMT-0400 (Eastern Daylight Time)","728141","Match,No Match","","null","","","","","","<div class='trialBorder'><div class='vertical-center'><img src='img/fixation2_sml.jpg'</img></div></div>","null","DELAY","","","","","","","","","","",""
"html-keyboard-response","22","94090","0.0-5.0-4.3","60d2d061fd054556769ca306","bdp_wmem","Mon Mar 13 2023 00:12:20 GMT-0400 (Eastern Daylight Time)","728141","Match,No Match","","850","","","","","","<div class='trialBorder'><div class='targDiv'><div class='tc'><img class='introPic' src='trustrating_stim/white_mw042.bmp'><br><font color='green'><strong>Share</strong></font></div></div><div class='respDiv'><div class='respDivL'>Match<br>(e)</div><div class='respDivR'>No Match<br>(i)</div></div></div>","e","TARGET","1","trustrating_stim/white_mw042.bmp","1","Match","e","1500","trustrating_stim/white_mw042.bmp","green","Share","PRACTICE","1"
"html-keyboard-response","23","94591","0.0-5.0-5.3","60d2d061fd054556769ca306","bdp_wmem","Mon Mar 13 2023 00:12:20 GMT-0400 (Eastern Daylight Time)","728141","Match,No Match","","null","","","","","","<div class='trialBorder'><div class='vertical-center'><img src='img/correct.jpg'></div><div class='respDiv'><div class='respDivL'><font style='color:orange'>Match<br>(e)</font></div><div class='respDivR'>No Match<br>(i)</div></div></div>","null","FEEDBACK","","","","","","","","","","",""
"html-keyboard-response","24","95092","0.0-5.0-1.4","60d2d061fd054556769ca306","bdp_wmem","Mon Mar 13 2023 00:12:20 GMT-0400 (Eastern Daylight Time)","728141","Match,No Match","","null","","","","","","<div class='trialBorder'><div class='vertical-center'><img src='img/fixation2_sml.jpg'</img></div></div>","null","FIX","","","","","","","","","","",""
"html-keyboard-response","25","98094","0.0-5.0-2.4","60d2d061fd054556769ca306","bdp_wmem","Mon Mar 13 2023 00:12:20 GMT-0400 (Eastern Daylight Time)","728141","Match,No Match","","null","","","","","","<div class='trialBorder'><div class='vertical-center'><img style='vertical-align:center; align:center' src='img/fixation2_sml.jpg'></div><div class='arrayDiv2'><div class='tl'><img class='introPic' src='trustrating_stim/white_mw085.bmp'><br><font color='green'><strong>Share</strong></font></div><div class='tr'><img class='introPic' src='trustrating_stim/white_mw010.bmp'><br><font color='red'><strong>Keep</strong></font></div></div></div>","null","ARRAY","2","trustrating_stim/white_mw085.bmp,trustrating_stim/white_mw010.bmp","1,0","Match","e","3000","","","","",""
"html-keyboard-response","26","102097","0.0-5.0-3.4","60d2d061fd054556769ca306","bdp_wmem","Mon Mar 13 2023 00:12:20 GMT-0400 (Eastern Daylight Time)","728141","Match,No Match","","null","","","","","","<div class='trialBorder'><div class='vertical-center'><img src='img/fixation2_sml.jpg'</img></div></div>","null","DELAY","","","","","","","","","","",""
"html-keyboard-response","27","107772","0.0-5.0-4.4","60d2d061fd054556769ca306","bdp_wmem","Mon Mar 13 2023 00:12:20 GMT-0400 (Eastern Daylight Time)","728141","Match,No Match","","5673","","","","","","<div class='trialBorder'><div class='targDiv'><div class='tc'><img class='introPic' src='trustrating_stim/white_mw010.bmp'><br><font color='red'><strong>Keep</strong></font></div></div><div class='respDiv'><div class='respDivL'>Match<br>(e)</div><div class='respDivR'>No Match<br>(i)</div></div></div>","i","TARGET","2","trustrating_stim/white_mw085.bmp,trustrating_stim/white_mw010.bmp","1,0","Match","e","3000","trustrating_stim/white_mw010.bmp","red","Keep","PRACTICE","0"
"html-keyboard-response","28","108274","0.0-5.0-5.4","60d2d061fd054556769ca306","bdp_wmem","Mon Mar 13 2023 00:12:20 GMT-0400 (Eastern Daylight Time)","728141","Match,No Match","","null","","","","","","<div class='trialBorder'><div class='vertical-center'><img src='img/error.jpg'></div><div class='respDiv'><div class='respDivL'>Match<br>(e)</div><div class='respDivR'><font style='color:orange'>No Match<br>(i)</font></div></div></div>","null","FEEDBACK","","","","","","","","","","",""
"html-keyboard-response","29","108775","0.0-5.0-1.5","60d2d061fd054556769ca306","bdp_wmem","Mon Mar 13 2023 00:12:20 GMT-0400 (Eastern Daylight Time)","728141","Match,No Match","","null","","","","","","<div class='trialBorder'><div class='vertical-center'><img src='img/fixation2_sml.jpg'</img></div></div>","null","FIX","","","","","","","","","","",""
"html-keyboard-response","30","110278","0.0-5.0-2.5","60d2d061fd054556769ca306","bdp_wmem","Mon Mar 13 2023 00:12:20 GMT-0400 (Eastern Daylight Time)","728141","Match,No Match","","null","","","","","","<div class='trialBorder'><div class='vertical-center'><img style='vertical-align:center; align:center' src='img/fixation2_sml.jpg'></div><div class='arrayDiv1'><div class='tc'><img class='introPic' src='trustrating_stim/white_mw038.bmp'><br><font color='red'><strong>Keep</strong></font></div></div></div>","null","ARRAY","1","trustrating_stim/white_mw038.bmp","0","noMatchFace","i","1500","","","","",""
"html-keyboard-response","31","114280","0.0-5.0-3.5","60d2d061fd054556769ca306","bdp_wmem","Mon Mar 13 2023 00:12:20 GMT-0400 (Eastern Daylight Time)","728141","Match,No Match","","null","","","","","","<div class='trialBorder'><div class='vertical-center'><img src='img/fixation2_sml.jpg'</img></div></div>","null","DELAY","","","","","","","","","","",""
"html-keyboard-response","32","115933","0.0-5.0-4.5","60d2d061fd054556769ca306","bdp_wmem","Mon Mar 13 2023 00:12:20 GMT-0400 (Eastern Daylight Time)","728141","Match,No Match","","1651","","","","","","<div class='trialBorder'><div class='targDiv'><div class='tc'><img class='introPic' src='trustrating_stim/white_mw070.bmp'><br><font color='red'><strong>Keep</strong></font></div></div><div class='respDiv'><div class='respDivL'>Match<br>(e)</div><div class='respDivR'>No Match<br>(i)</div></div></div>","e","TARGET","1","trustrating_stim/white_mw038.bmp","0","noMatchFace","i","1500","trustrating_stim/white_mw070.bmp","red","Keep","PRACTICE","0"
"html-keyboard-response","33","116435","0.0-5.0-5.5","60d2d061fd054556769ca306","bdp_wmem","Mon Mar 13 2023 00:12:20 GMT-0400 (Eastern Daylight Time)","728141","Match,No Match","","null","","","","","","<div class='trialBorder'><div class='vertical-center'><img src='img/error.jpg'></div><div class='respDiv'><div class='respDivL'><font style='color:orange'>Match<br>(e)</font></div><div class='respDivR'>No Match<br>(i)</div></div></div>","null","FEEDBACK","","","","","","","","","","",""
"instructions","34","123204","0.0-6.0","60d2d061fd054556769ca306","bdp_wmem","Mon Mar 13 2023 00:12:20 GMT-0400 (Eastern Daylight Time)","728141","Match,No Match","[{""page_index"":0,""viewing_time"":6769}]","6769","","","","","","","","","","","","","","","","","","",""
"html-keyboard-response","35","123706","0.0-7.0-1.0","60d2d061fd054556769ca306","bdp_wmem","Mon Mar 13 2023 00:12:20 GMT-0400 (Eastern Daylight Time)","728141","Match,No Match","","null","","","","","","<div class='trialBorder'><div class='vertical-center'><img src='img/fixation2_sml.jpg'</img></div></div>","null","FIX","","","","","","","","","","",""
"html-keyboard-response","36","125208","0.0-7.0-2.0","60d2d061fd054556769ca306","bdp_wmem","Mon Mar 13 2023 00:12:20 GMT-0400 (Eastern Daylight Time)","728141","Match,No Match","","null","","","","","","<div class='trialBorder'><div class='vertical-center'><img style='vertical-align:center; align:center' src='img/fixation2_sml.jpg'></div><div class='arrayDiv1'><div class='tc'><img class='introPic' src='trustrating_stim/white_mw040.bmp'><br><font color='green'><strong>Share</strong></font></div></div></div>","null","ARRAY","1","trustrating_stim/white_mw040.bmp","1","Match","e","1500","","","","",""
"html-keyboard-response","37","129210","0.0-7.0-3.0","60d2d061fd054556769ca306","bdp_wmem","Mon Mar 13 2023 00:12:20 GMT-0400 (Eastern Daylight Time)","728141","Match,No Match","","null","","","","","","<div class='trialBorder'><div class='vertical-center'><img src='img/fixation2_sml.jpg'</img></div></div>","null","DELAY","","","","","","","","","","",""
"html-keyboard-response","38","130136","0.0-7.0-4.0","60d2d061fd054556769ca306","bdp_wmem","Mon Mar 13 2023 00:12:20 GMT-0400 (Eastern Daylight Time)","728141","Match,No Match","","925","","","","","","<div class='trialBorder'><div class='targDiv'><div class='tc'><img class='introPic' src='trustrating_stim/white_mw040.bmp'><br><font color='green'><strong>Share</strong></font></div></div><div class='respDiv'><div class='respDivL'>Match<br>(e)</div><div class='respDivR'>No Match<br>(i)</div></div></div>","e","TARGET","1","trustrating_stim/white_mw040.bmp","1","Match","e","1500","trustrating_stim/white_mw040.bmp","green","Share","REAL","1"
"html-keyboard-response","39","130638","0.0-7.0-5.0","60d2d061fd054556769ca306","bdp_wmem","Mon Mar 13 2023 00:12:20 GMT-0400 (Eastern Daylight Time)","728141","Match,No Match","","null","","","","","","<div class='trialBorder'><div class='vertical-center'><img src='img/correct.jpg'></div><div class='respDiv'><div class='respDivL'><font style='color:orange'>Match<br>(e)</font></div><div class='respDivR'>No Match<br>(i)</div></div></div>","null","FEEDBACK","","","","","","","","","","",""
"html-keyboard-response","40","131140","0.0-7.0-1.1","60d2d061fd054556769ca306","bdp_wmem","Mon Mar 13 2023 00:12:20 GMT-0400 (Eastern Daylight Time)","728141","Match,No Match","","null","","","","","","<div class='trialBorder'><div class='vertical-center'><img src='img/fixation2_sml.jpg'</img></div></div>","null","FIX","","","","","","","","","","",""
"html-keyboard-response","41","132641","0.0-7.0-2.1","60d2d061fd054556769ca306","bdp_wmem","Mon Mar 13 2023 00:12:20 GMT-0400 (Eastern Daylight Time)","728141","Match,No Match","","null","","","","","","<div class='trialBorder'><div class='vertical-center'><img style='vertical-align:center; align:center' src='img/fixation2_sml.jpg'></div><div class='arrayDiv1'><div class='tc'><img class='introPic' src='trustrating_stim/white_mw013.bmp'><br><font color='green'><strong>Share</strong></font></div></div></div>","null","ARRAY","1","trustrating_stim/white_mw013.bmp","1","noMatchFace","i","1500","","","","",""
"html-keyboard-response","42","136643","0.0-7.0-3.1","60d2d061fd054556769ca306","bdp_wmem","Mon Mar 13 2023 00:12:20 GMT-0400 (Eastern Daylight Time)","728141","Match,No Match","","null","","","","","","<div class='trialBorder'><div class='vertical-center'><img src='img/fixation2_sml.jpg'</img></div></div>","null","DELAY","","","","","","","","","","",""
"html-keyboard-response","43","138707","0.0-7.0-4.1","60d2d061fd054556769ca306","bdp_wmem","Mon Mar 13 2023 00:12:20 GMT-0400 (Eastern Daylight Time)","728141","Match,No Match","","2062","","","","","","<div class='trialBorder'><div class='targDiv'><div class='tc'><img class='introPic' src='trustrating_stim/white_mw070.bmp'><br><font color='green'><strong>Share</strong></font></div></div><div class='respDiv'><div class='respDivL'>Match<br>(e)</div><div class='respDivR'>No Match<br>(i)</div></div></div>","e","TARGET","1","trustrating_stim/white_mw013.bmp","1","noMatchFace","i","1500","trustrating_stim/white_mw070.bmp","green","Share","REAL","0"
"html-keyboard-response","44","139209","0.0-7.0-5.1","60d2d061fd054556769ca306","bdp_wmem","Mon Mar 13 2023 00:12:20 GMT-0400 (Eastern Daylight Time)","728141","Match,No Match","","null","","","","","","<div class='trialBorder'><div class='vertical-center'><img src='img/error.jpg'></div><div class='respDiv'><div class='respDivL'><font style='color:orange'>Match<br>(e)</font></div><div class='respDivR'>No Match<br>(i)</div></div></div>","null","FEEDBACK","","","","","","","","","","",""
"html-keyboard-response","45","139711","0.0-7.0-1.2","60d2d061fd054556769ca306","bdp_wmem","Mon Mar 13 2023 00:12:20 GMT-0400 (Eastern Daylight Time)","728141","Match,No Match","","null","","","","","","<div class='trialBorder'><div class='vertical-center'><img src='img/fixation2_sml.jpg'</img></div></div>","null","FIX","","","","","","","","","","",""
"html-keyboard-response","46","144213","0.0-7.0-2.2","60d2d061fd054556769ca306","bdp_wmem","Mon Mar 13 2023 00:12:20 GMT-0400 (Eastern Daylight Time)","728141","Match,No Match","","null","","","","","","<div class='trialBorder'><div class='vertical-center'><img style='vertical-align:center; align:center' src='img/fixation2_sml.jpg'></div><div class='arrayDiv3'><div class='tl'><img class='introPic' src='trustrating_stim/white_mw013.bmp'><br><font color='green'><strong>Share</strong></font></div><div class='tc'><img class='introPic' src='trustrating_stim/white_mw003.bmp'><br><font color='red'><strong>Keep</strong></font></div><div class='tr'><img class='introPic' src='trustrating_stim/white_mw040.bmp'><br><font color='red'><strong>Keep</strong></font></div></div></div>","null","ARRAY","3","trustrating_stim/white_mw013.bmp,trustrating_stim/white_mw003.bmp,trustrating_stim/white_mw040.bmp","1,0,0","Match","e","4500","","","","",""
"html-keyboard-response","47","148216","0.0-7.0-3.2","60d2d061fd054556769ca306","bdp_wmem","Mon Mar 13 2023 00:12:20 GMT-0400 (Eastern Daylight Time)","728141","Match,No Match","","null","","","","","","<div class='trialBorder'><div class='vertical-center'><img src='img/fixation2_sml.jpg'</img></div></div>","null","DELAY","","","","","","","","","","",""
"html-keyboard-response","48","149529","0.0-7.0-4.2","60d2d061fd054556769ca306","bdp_wmem","Mon Mar 13 2023 00:12:20 GMT-0400 (Eastern Daylight Time)","728141","Match,No Match","","1311","","","","","","<div class='trialBorder'><div class='targDiv'><div class='tc'><img class='introPic' src='trustrating_stim/white_mw003.bmp'><br><font color='red'><strong>Keep</strong></font></div></div><div class='respDiv'><div class='respDivL'>Match<br>(e)</div><div class='respDivR'>No Match<br>(i)</div></div></div>","i","TARGET","3","trustrating_stim/white_mw013.bmp,trustrating_stim/white_mw003.bmp,trustrating_stim/white_mw040.bmp","1,0,0","Match","e","4500","trustrating_stim/white_mw003.bmp","red","Keep","REAL","0"
"html-keyboard-response","49","150030","0.0-7.0-5.2","60d2d061fd054556769ca306","bdp_wmem","Mon Mar 13 2023 00:12:20 GMT-0400 (Eastern Daylight Time)","728141","Match,No Match","","null","","","","","","<div class='trialBorder'><div class='vertical-center'><img src='img/error.jpg'></div><div class='respDiv'><div class='respDivL'>Match<br>(e)</div><div class='respDivR'><font style='color:orange'>No Match<br>(i)</font></div></div></div>","null","FEEDBACK","","","","","","","","","","",""
"html-keyboard-response","50","150532","0.0-7.0-1.3","60d2d061fd054556769ca306","bdp_wmem","Mon Mar 13 2023 00:12:20 GMT-0400 (Eastern Daylight Time)","728141","Match,No Match","","null","","","","","","<div class='trialBorder'><div class='vertical-center'><img src='img/fixation2_sml.jpg'</img></div></div>","null","FIX","","","","","","","","","","",""
"html-keyboard-response","51","155034","0.0-7.0-2.3","60d2d061fd054556769ca306","bdp_wmem","Mon Mar 13 2023 00:12:20 GMT-0400 (Eastern Daylight Time)","728141","Match,No Match","","null","","","","","","<div class='trialBorder'><div class='vertical-center'><img style='vertical-align:center; align:center' src='img/fixation2_sml.jpg'></div><div class='arrayDiv3'><div class='tl'><img class='introPic' src='trustrating_stim/white_mw078.bmp'><br><font color='red'><strong>Keep</strong></font></div><div class='tc'><img class='introPic' src='trustrating_stim/white_mw085.bmp'><br><font color='red'><strong>Keep</strong></font></div><div class='tr'><img class='introPic' src='trustrating_stim/white_mw042.bmp'><br><font color='green'><strong>Share</strong></font></div></div></div>","null","ARRAY","3","trustrating_stim/white_mw078.bmp,trustrating_stim/white_mw085.bmp,trustrating_stim/white_mw042.bmp","0,0,1","noMatchOutcome","i","4500","","","","",""
"html-keyboard-response","52","159036","0.0-7.0-3.3","60d2d061fd054556769ca306","bdp_wmem","Mon Mar 13 2023 00:12:20 GMT-0400 (Eastern Daylight Time)","728141","Match,No Match","","null","","","","","","<div class='trialBorder'><div class='vertical-center'><img src='img/fixation2_sml.jpg'</img></div></div>","null","DELAY","","","","","","","","","","",""
"html-keyboard-response","53","160181","0.0-7.0-4.3","60d2d061fd054556769ca306","bdp_wmem","Mon Mar 13 2023 00:12:20 GMT-0400 (Eastern Daylight Time)","728141","Match,No Match","","1143","","","","","","<div class='trialBorder'><div class='targDiv'><div class='tc'><img class='introPic' src='trustrating_stim/white_mw042.bmp'><br><font color='red'><strong>Keep</strong></font></div></div><div class='respDiv'><div class='respDivL'>Match<br>(e)</div><div class='respDivR'>No Match<br>(i)</div></div></div>","e","TARGET","3","trustrating_stim/white_mw078.bmp,trustrating_stim/white_mw085.bmp,trustrating_stim/white_mw042.bmp","0,0,1","noMatchOutcome","i","4500","trustrating_stim/white_mw042.bmp","red","Keep","REAL","0"
"html-keyboard-response","54","160683","0.0-7.0-5.3","60d2d061fd054556769ca306","bdp_wmem","Mon Mar 13 2023 00:12:20 GMT-0400 (Eastern Daylight Time)","728141","Match,No Match","","null","","","","","","<div class='trialBorder'><div class='vertical-center'><img src='img/error.jpg'></div><div class='respDiv'><div class='respDivL'><font style='color:orange'>Match<br>(e)</font></div><div class='respDivR'>No Match<br>(i)</div></div></div>","null","FEEDBACK","","","","","","","","","","",""
"html-keyboard-response","55","161186","0.0-7.0-1.4","60d2d061fd054556769ca306","bdp_wmem","Mon Mar 13 2023 00:12:20 GMT-0400 (Eastern Daylight Time)","728141","Match,No Match","","null","","","","","","<div class='trialBorder'><div class='vertical-center'><img src='img/fixation2_sml.jpg'</img></div></div>","null","FIX","","","","","","","","","","",""
"html-keyboard-response","56","162687","0.0-7.0-2.4","60d2d061fd054556769ca306","bdp_wmem","Mon Mar 13 2023 00:12:20 GMT-0400 (Eastern Daylight Time)","728141","Match,No Match","","null","","","","","","<div class='trialBorder'><div class='vertical-center'><img style='vertical-align:center; align:center' src='img/fixation2_sml.jpg'></div><div class='arrayDiv1'><div class='tc'><img class='introPic' src='trustrating_stim/white_mw013.bmp'><br><font color='green'><strong>Share</strong></font></div></div></div>","null","ARRAY","1","trustrating_stim/white_mw013.bmp","1","noMatchOutcome","i","1500","","","","",""
"html-keyboard-response","57","166690","0.0-7.0-3.4","60d2d061fd054556769ca306","bdp_wmem","Mon Mar 13 2023 00:12:20 GMT-0400 (Eastern Daylight Time)","728141","Match,No Match","","null","","","","","","<div class='trialBorder'><div class='vertical-center'><img src='img/fixation2_sml.jpg'</img></div></div>","null","DELAY","","","","","","","","","","",""
"html-keyboard-response","58","167558","0.0-7.0-4.4","60d2d061fd054556769ca306","bdp_wmem","Mon Mar 13 2023 00:12:20 GMT-0400 (Eastern Daylight Time)","728141","Match,No Match","","866","","","","","","<div class='trialBorder'><div class='targDiv'><div class='tc'><img class='introPic' src='trustrating_stim/white_mw013.bmp'><br><font color='red'><strong>Keep</strong></font></div></div><div class='respDiv'><div class='respDivL'>Match<br>(e)</div><div class='respDivR'>No Match<br>(i)</div></div></div>","e","TARGET","1","trustrating_stim/white_mw013.bmp","1","noMatchOutcome","i","1500","trustrating_stim/white_mw013.bmp","red","Keep","REAL","0"
"html-keyboard-response","59","168060","0.0-7.0-5.4","60d2d061fd054556769ca306","bdp_wmem","Mon Mar 13 2023 00:12:20 GMT-0400 (Eastern Daylight Time)","728141","Match,No Match","","null","","","","","","<div class='trialBorder'><div class='vertical-center'><img src='img/error.jpg'></div><div class='respDiv'><div class='respDivL'><font style='color:orange'>Match<br>(e)</font></div><div class='respDivR'>No Match<br>(i)</div></div></div>","null","FEEDBACK","","","","","","","","","","",""
"html-keyboard-response","60","168562","0.0-7.0-1.5","60d2d061fd054556769ca306","bdp_wmem","Mon Mar 13 2023 00:12:20 GMT-0400 (Eastern Daylight Time)","728141","Match,No Match","","null","","","","","","<div class='trialBorder'><div class='vertical-center'><img src='img/fixation2_sml.jpg'</img></div></div>","null","FIX","","","","","","","","","","",""
"html-keyboard-response","61","173064","0.0-7.0-2.5","60d2d061fd054556769ca306","bdp_wmem","Mon Mar 13 2023 00:12:20 GMT-0400 (Eastern Daylight Time)","728141","Match,No Match","","null","","","","","","<div class='trialBorder'><div class='vertical-center'><img style='vertical-align:center; align:center' src='img/fixation2_sml.jpg'></div><div class='arrayDiv3'><div class='tl'><img class='introPic' src='trustrating_stim/white_mw091.bmp'><br><font color='green'><strong>Share</strong></font></div><div class='tc'><img class='introPic' src='trustrating_stim/white_mw042.bmp'><br><font color='red'><strong>Keep</strong></font></div><div class='tr'><img class='introPic' src='trustrating_stim/white_mw092.bmp'><br><font color='red'><strong>Keep</strong></font></div></div></div>","null","ARRAY","3","trustrating_stim/white_mw091.bmp,trustrating_stim/white_mw042.bmp,trustrating_stim/white_mw092.bmp","1,0,0","Match","e","4500","","","","",""
"html-keyboard-response","62","177067","0.0-7.0-3.5","60d2d061fd054556769ca306","bdp_wmem","Mon Mar 13 2023 00:12:20 GMT-0400 (Eastern Daylight Time)","728141","Match,No Match","","null","","","","","","<div class='trialBorder'><div class='vertical-center'><img src='img/fixation2_sml.jpg'</img></div></div>","null","DELAY","","","","","","","","","","",""
"html-keyboard-response","63","177716","0.0-7.0-4.5","60d2d061fd054556769ca306","bdp_wmem","Mon Mar 13 2023 00:12:20 GMT-0400 (Eastern Daylight Time)","728141","Match,No Match","","647","","","","","","<div class='trialBorder'><div class='targDiv'><div class='tc'><img class='introPic' src='trustrating_stim/white_mw091.bmp'><br><font color='green'><strong>Share</strong></font></div></div><div class='respDiv'><div class='respDivL'>Match<br>(e)</div><div class='respDivR'>No Match<br>(i)</div></div></div>","i","TARGET","3","trustrating_stim/white_mw091.bmp,trustrating_stim/white_mw042.bmp,trustrating_stim/white_mw092.bmp","1,0,0","Match","e","4500","trustrating_stim/white_mw091.bmp","green","Share","REAL","0"
"html-keyboard-response","64","178218","0.0-7.0-5.5","60d2d061fd054556769ca306","bdp_wmem","Mon Mar 13 2023 00:12:20 GMT-0400 (Eastern Daylight Time)","728141","Match,No Match","","null","","","","","","<div class='trialBorder'><div class='vertical-center'><img src='img/error.jpg'></div><div class='respDiv'><div class='respDivL'>Match<br>(e)</div><div class='respDivR'><font style='color:orange'>No Match<br>(i)</font></div></div></div>","null","FEEDBACK","","","","","","","","","","",""
"html-keyboard-response","65","178719","0.0-7.0-1.6","60d2d061fd054556769ca306","bdp_wmem","Mon Mar 13 2023 00:12:20 GMT-0400 (Eastern Daylight Time)","728141","Match,No Match","","null","","","","","","<div class='trialBorder'><div class='vertical-center'><img src='img/fixation2_sml.jpg'</img></div></div>","null","FIX","","","","","","","","","","",""
"html-keyboard-response","66","180221","0.0-7.0-2.6","60d2d061fd054556769ca306","bdp_wmem","Mon Mar 13 2023 00:12:20 GMT-0400 (Eastern Daylight Time)","728141","Match,No Match","","null","","","","","","<div class='trialBorder'><div class='vertical-center'><img style='vertical-align:center; align:center' src='img/fixation2_sml.jpg'></div><div class='arrayDiv1'><div class='tc'><img class='introPic' src='trustrating_stim/white_mw040.bmp'><br><font color='red'><strong>Keep</strong></font></div></div></div>","null","ARRAY","1","trustrating_stim/white_mw040.bmp","0","noMatchFace","i","1500","","","","",""
"html-keyboard-response","67","184224","0.0-7.0-3.6","60d2d061fd054556769ca306","bdp_wmem","Mon Mar 13 2023 00:12:20 GMT-0400 (Eastern Daylight Time)","728141","Match,No Match","","null","","","","","","<div class='trialBorder'><div class='vertical-center'><img src='img/fixation2_sml.jpg'</img></div></div>","null","DELAY","","","","","","","","","","",""
"html-keyboard-response","68","185841","0.0-7.0-4.6","60d2d061fd054556769ca306","bdp_wmem","Mon Mar 13 2023 00:12:20 GMT-0400 (Eastern Daylight Time)","728141","Match,No Match","","1616","","","","","","<div class='trialBorder'><div class='targDiv'><div class='tc'><img class='introPic' src='trustrating_stim/white_mw012.bmp'><br><font color='red'><strong>Keep</strong></font></div></div><div class='respDiv'><div class='respDivL'>Match<br>(e)</div><div class='respDivR'>No Match<br>(i)</div></div></div>","i","TARGET","1","trustrating_stim/white_mw040.bmp","0","noMatchFace","i","1500","trustrating_stim/white_mw012.bmp","red","Keep","REAL","1"
"html-keyboard-response","69","186343","0.0-7.0-5.6","60d2d061fd054556769ca306","bdp_wmem","Mon Mar 13 2023 00:12:20 GMT-0400 (Eastern Daylight Time)","728141","Match,No Match","","null","","","","","","<div class='trialBorder'><div class='vertical-center'><img src='img/correct.jpg'></div><div class='respDiv'><div class='respDivL'>Match<br>(e)</div><div class='respDivR'><font style='color:orange'>No Match<br>(i)</font></div></div></div>","null","FEEDBACK","","","","","","","","","","",""
"html-keyboard-response","70","186844","0.0-7.0-1.7","60d2d061fd054556769ca306","bdp_wmem","Mon Mar 13 2023 00:12:20 GMT-0400 (Eastern Daylight Time)","728141","Match,No Match","","null","","","","","","<div class='trialBorder'><div class='vertical-center'><img src='img/fixation2_sml.jpg'</img></div></div>","null","FIX","","","","","","","","","","",""
"html-keyboard-response","71","189847","0.0-7.0-2.7","60d2d061fd054556769ca306","bdp_wmem","Mon Mar 13 2023 00:12:20 GMT-0400 (Eastern Daylight Time)","728141","Match,No Match","","null","","","","","","<div class='trialBorder'><div class='vertical-center'><img style='vertical-align:center; align:center' src='img/fixation2_sml.jpg'></div><div class='arrayDiv2'><div class='tl'><img class='introPic' src='trustrating_stim/white_mw092.bmp'><br><font color='green'><strong>Share</strong></font></div><div class='tr'><img class='introPic' src='trustrating_stim/white_mw010.bmp'><br><font color='red'><strong>Keep</strong></font></div></div></div>","null","ARRAY","2","trustrating_stim/white_mw092.bmp,trustrating_stim/white_mw010.bmp","1,0","Match","e","3000","","","","",""
"html-keyboard-response","72","193849","0.0-7.0-3.7","60d2d061fd054556769ca306","bdp_wmem","Mon Mar 13 2023 00:12:20 GMT-0400 (Eastern Daylight Time)","728141","Match,No Match","","null","","","","","","<div class='trialBorder'><div class='vertical-center'><img src='img/fixation2_sml.jpg'</img></div></div>","null","DELAY","","","","","","","","","","",""
"html-keyboard-response","73","194754","0.0-7.0-4.7","60d2d061fd054556769ca306","bdp_wmem","Mon Mar 13 2023 00:12:20 GMT-0400 (Eastern Daylight Time)","728141","Match,No Match","","904","","","","","","<div class='trialBorder'><div class='targDiv'><div class='tc'><img class='introPic' src='trustrating_stim/white_mw092.bmp'><br><font color='green'><strong>Share</strong></font></div></div><div class='respDiv'><div class='respDivL'>Match<br>(e)</div><div class='respDivR'>No Match<br>(i)</div></div></div>","e","TARGET","2","trustrating_stim/white_mw092.bmp,trustrating_stim/white_mw010.bmp","1,0","Match","e","3000","trustrating_stim/white_mw092.bmp","green","Share","REAL","1"
"html-keyboard-response","74","195256","0.0-7.0-5.7","60d2d061fd054556769ca306","bdp_wmem","Mon Mar 13 2023 00:12:20 GMT-0400 (Eastern Daylight Time)","728141","Match,No Match","","null","","","","","","<div class='trialBorder'><div class='vertical-center'><img src='img/correct.jpg'></div><div class='respDiv'><div class='respDivL'><font style='color:orange'>Match<br>(e)</font></div><div class='respDivR'>No Match<br>(i)</div></div></div>","null","FEEDBACK","","","","","","","","","","",""
"html-keyboard-response","75","195757","0.0-7.0-1.8","60d2d061fd054556769ca306","bdp_wmem","Mon Mar 13 2023 00:12:20 GMT-0400 (Eastern Daylight Time)","728141","Match,No Match","","null","","","","","","<div class='trialBorder'><div class='vertical-center'><img src='img/fixation2_sml.jpg'</img></div></div>","null","FIX","","","","","","","","","","",""
"html-keyboard-response","76","200259","0.0-7.0-2.8","60d2d061fd054556769ca306","bdp_wmem","Mon Mar 13 2023 00:12:20 GMT-0400 (Eastern Daylight Time)","728141","Match,No Match","","null","","","","","","<div class='trialBorder'><div class='vertical-center'><img style='vertical-align:center; align:center' src='img/fixation2_sml.jpg'></div><div class='arrayDiv3'><div class='tl'><img class='introPic' src='trustrating_stim/white_mw078.bmp'><br><font color='green'><strong>Share</strong></font></div><div class='tc'><img class='introPic' src='trustrating_stim/white_mw013.bmp'><br><font color='red'><strong>Keep</strong></font></div><div class='tr'><img class='introPic' src='trustrating_stim/white_mw038.bmp'><br><font color='green'><strong>Share</strong></font></div></div></div>","null","ARRAY","3","trustrating_stim/white_mw078.bmp,trustrating_stim/white_mw013.bmp,trustrating_stim/white_mw038.bmp","1,0,1","Match","e","4500","","","","",""
"html-keyboard-response","77","204261","0.0-7.0-3.8","60d2d061fd054556769ca306","bdp_wmem","Mon Mar 13 2023 00:12:20 GMT-0400 (Eastern Daylight Time)","728141","Match,No Match","","null","","","","","","<div class='trialBorder'><div class='vertical-center'><img src='img/fixation2_sml.jpg'</img></div></div>","null","DELAY","","","","","","","","","","",""
"html-keyboard-response","78","205547","0.0-7.0-4.8","60d2d061fd054556769ca306","bdp_wmem","Mon Mar 13 2023 00:12:20 GMT-0400 (Eastern Daylight Time)","728141","Match,No Match","","1284","","","","","","<div class='trialBorder'><div class='targDiv'><div class='tc'><img class='introPic' src='trustrating_stim/white_mw078.bmp'><br><font color='green'><strong>Share</strong></font></div></div><div class='respDiv'><div class='respDivL'>Match<br>(e)</div><div class='respDivR'>No Match<br>(i)</div></div></div>","e","TARGET","3","trustrating_stim/white_mw078.bmp,trustrating_stim/white_mw013.bmp,trustrating_stim/white_mw038.bmp","1,0,1","Match","e","4500","trustrating_stim/white_mw078.bmp","green","Share","REAL","1"
"html-keyboard-response","79","206048","0.0-7.0-5.8","60d2d061fd054556769ca306","bdp_wmem","Mon Mar 13 2023 00:12:20 GMT-0400 (Eastern Daylight Time)","728141","Match,No Match","","null","","","","","","<div class='trialBorder'><div class='vertical-center'><img src='img/correct.jpg'></div><div class='respDiv'><div class='respDivL'><font style='color:orange'>Match<br>(e)</font></div><div class='respDivR'>No Match<br>(i)</div></div></div>","null","FEEDBACK","","","","","","","","","","",""
"html-keyboard-response","80","206550","0.0-7.0-1.9","60d2d061fd054556769ca306","bdp_wmem","Mon Mar 13 2023 00:12:20 GMT-0400 (Eastern Daylight Time)","728141","Match,No Match","","null","","","","","","<div class='trialBorder'><div class='vertical-center'><img src='img/fixation2_sml.jpg'</img></div></div>","null","FIX","","","","","","","","","","",""
"html-keyboard-response","81","208053","0.0-7.0-2.9","60d2d061fd054556769ca306","bdp_wmem","Mon Mar 13 2023 00:12:20 GMT-0400 (Eastern Daylight Time)","728141","Match,No Match","","null","","","","","","<div class='trialBorder'><div class='vertical-center'><img style='vertical-align:center; align:center' src='img/fixation2_sml.jpg'></div><div class='arrayDiv1'><div class='tc'><img class='introPic' src='trustrating_stim/white_mw092.bmp'><br><font color='green'><strong>Share</strong></font></div></div></div>","null","ARRAY","1","trustrating_stim/white_mw092.bmp","1","Match","e","1500","","","","",""
"html-keyboard-response","82","212055","0.0-7.0-3.9","60d2d061fd054556769ca306","bdp_wmem","Mon Mar 13 2023 00:12:20 GMT-0400 (Eastern Daylight Time)","728141","Match,No Match","","null","","","","","","<div class='trialBorder'><div class='vertical-center'><img src='img/fixation2_sml.jpg'</img></div></div>","null","DELAY","","","","","","","","","","",""
"html-keyboard-response","83","215541","0.0-7.0-4.9","60d2d061fd054556769ca306","bdp_wmem","Mon Mar 13 2023 00:12:20 GMT-0400 (Eastern Daylight Time)","728141","Match,No Match","","3484","","","","","","<div class='trialBorder'><div class='targDiv'><div class='tc'><img class='introPic' src='trustrating_stim/white_mw092.bmp'><br><font color='green'><strong>Share</strong></font></div></div><div class='respDiv'><div class='respDivL'>Match<br>(e)</div><div class='respDivR'>No Match<br>(i)</div></div></div>","e","TARGET","1","trustrating_stim/white_mw092.bmp","1","Match","e","1500","trustrating_stim/white_mw092.bmp","green","Share","REAL","1"
"html-keyboard-response","84","216043","0.0-7.0-5.9","60d2d061fd054556769ca306","bdp_wmem","Mon Mar 13 2023 00:12:20 GMT-0400 (Eastern Daylight Time)","728141","Match,No Match","","null","","","","","","<div class='trialBorder'><div class='vertical-center'><img src='img/correct.jpg'></div><div class='respDiv'><div class='respDivL'><font style='color:orange'>Match<br>(e)</font></div><div class='respDivR'>No Match<br>(i)</div></div></div>","null","FEEDBACK","","","","","","","","","","",""
"html-keyboard-response","85","216545","0.0-7.0-1.10","60d2d061fd054556769ca306","bdp_wmem","Mon Mar 13 2023 00:12:20 GMT-0400 (Eastern Daylight Time)","728141","Match,No Match","","null","","","","","","<div class='trialBorder'><div class='vertical-center'><img src='img/fixation2_sml.jpg'</img></div></div>","null","FIX","","","","","","","","","","",""
"html-keyboard-response","86","219546","0.0-7.0-2.10","60d2d061fd054556769ca306","bdp_wmem","Mon Mar 13 2023 00:12:20 GMT-0400 (Eastern Daylight Time)","728141","Match,No Match","","null","","","","","","<div class='trialBorder'><div class='vertical-center'><img style='vertical-align:center; align:center' src='img/fixation2_sml.jpg'></div><div class='arrayDiv2'><div class='tl'><img class='introPic' src='trustrating_stim/white_mw070.bmp'><br><font color='green'><strong>Share</strong></font></div><div class='tr'><img class='introPic' src='trustrating_stim/white_mw038.bmp'><br><font color='red'><strong>Keep</strong></font></div></div></div>","null","ARRAY","2","trustrating_stim/white_mw070.bmp,trustrating_stim/white_mw038.bmp","1,0","noMatchFace","i","3000","","","","",""
"html-keyboard-response","87","223548","0.0-7.0-3.10","60d2d061fd054556769ca306","bdp_wmem","Mon Mar 13 2023 00:12:20 GMT-0400 (Eastern Daylight Time)","728141","Match,No Match","","null","","","","","","<div class='trialBorder'><div class='vertical-center'><img src='img/fixation2_sml.jpg'</img></div></div>","null","DELAY","","","","","","","","","","",""
"html-keyboard-response","88","224709","0.0-7.0-4.10","60d2d061fd054556769ca306","bdp_wmem","Mon Mar 13 2023 00:12:20 GMT-0400 (Eastern Daylight Time)","728141","Match,No Match","","1158","","","","","","<div class='trialBorder'><div class='targDiv'><div class='tc'><img class='introPic' src='trustrating_stim/white_mw013.bmp'><br><font color='red'><strong>Keep</strong></font></div></div><div class='respDiv'><div class='respDivL'>Match<br>(e)</div><div class='respDivR'>No Match<br>(i)</div></div></div>","i","TARGET","2","trustrating_stim/white_mw070.bmp,trustrating_stim/white_mw038.bmp","1,0","noMatchFace","i","3000","trustrating_stim/white_mw013.bmp","red","Keep","REAL","1"
"html-keyboard-response","89","225210","0.0-7.0-5.10","60d2d061fd054556769ca306","bdp_wmem","Mon Mar 13 2023 00:12:20 GMT-0400 (Eastern Daylight Time)","728141","Match,No Match","","null","","","","","","<div class='trialBorder'><div class='vertical-center'><img src='img/correct.jpg'></div><div class='respDiv'><div class='respDivL'>Match<br>(e)</div><div class='respDivR'><font style='color:orange'>No Match<br>(i)</font></div></div></div>","null","FEEDBACK","","","","","","","","","","",""
"html-keyboard-response","90","225711","0.0-7.0-1.11","60d2d061fd054556769ca306","bdp_wmem","Mon Mar 13 2023 00:12:20 GMT-0400 (Eastern Daylight Time)","728141","Match,No Match","","null","","","","","","<div class='trialBorder'><div class='vertical-center'><img src='img/fixation2_sml.jpg'</img></div></div>","null","FIX","","","","","","","","","","",""
"html-keyboard-response","91","228713","0.0-7.0-2.11","60d2d061fd054556769ca306","bdp_wmem","Mon Mar 13 2023 00:12:20 GMT-0400 (Eastern Daylight Time)","728141","Match,No Match","","null","","","","","","<div class='trialBorder'><div class='vertical-center'><img style='vertical-align:center; align:center' src='img/fixation2_sml.jpg'></div><div class='arrayDiv2'><div class='tl'><img class='introPic' src='trustrating_stim/white_mw042.bmp'><br><font color='red'><strong>Keep</strong></font></div><div class='tr'><img class='introPic' src='trustrating_stim/white_mw070.bmp'><br><font color='green'><strong>Share</strong></font></div></div></div>","null","ARRAY","2","trustrating_stim/white_mw042.bmp,trustrating_stim/white_mw070.bmp","0,1","Match","e","3000","","","","",""
"html-keyboard-response","92","232715","0.0-7.0-3.11","60d2d061fd054556769ca306","bdp_wmem","Mon Mar 13 2023 00:12:20 GMT-0400 (Eastern Daylight Time)","728141","Match,No Match","","null","","","","","","<div class='trialBorder'><div class='vertical-center'><img src='img/fixation2_sml.jpg'</img></div></div>","null","DELAY","","","","","","","","","","",""
"html-keyboard-response","93","233640","0.0-7.0-4.11","60d2d061fd054556769ca306","bdp_wmem","Mon Mar 13 2023 00:12:20 GMT-0400 (Eastern Daylight Time)","728141","Match,No Match","","922","","","","","","<div class='trialBorder'><div class='targDiv'><div class='tc'><img class='introPic' src='trustrating_stim/white_mw070.bmp'><br><font color='green'><strong>Share</strong></font></div></div><div class='respDiv'><div class='respDivL'>Match<br>(e)</div><div class='respDivR'>No Match<br>(i)</div></div></div>","i","TARGET","2","trustrating_stim/white_mw042.bmp,trustrating_stim/white_mw070.bmp","0,1","Match","e","3000","trustrating_stim/white_mw070.bmp","green","Share","REAL","0"
"html-keyboard-response","94","234141","0.0-7.0-5.11","60d2d061fd054556769ca306","bdp_wmem","Mon Mar 13 2023 00:12:20 GMT-0400 (Eastern Daylight Time)","728141","Match,No Match","","null","","","","","","<div class='trialBorder'><div class='vertical-center'><img src='img/error.jpg'></div><div class='respDiv'><div class='respDivL'>Match<br>(e)</div><div class='respDivR'><font style='color:orange'>No Match<br>(i)</font></div></div></div>","null","FEEDBACK","","","","","","","","","","",""
"html-keyboard-response","95","234642","0.0-7.0-1.12","60d2d061fd054556769ca306","bdp_wmem","Mon Mar 13 2023 00:12:20 GMT-0400 (Eastern Daylight Time)","728141","Match,No Match","","null","","","","","","<div class='trialBorder'><div class='vertical-center'><img src='img/fixation2_sml.jpg'</img></div></div>","null","FIX","","","","","","","","","","",""
"html-keyboard-response","96","239144","0.0-7.0-2.12","60d2d061fd054556769ca306","bdp_wmem","Mon Mar 13 2023 00:12:20 GMT-0400 (Eastern Daylight Time)","728141","Match,No Match","","null","","","","","","<div class='trialBorder'><div class='vertical-center'><img style='vertical-align:center; align:center' src='img/fixation2_sml.jpg'></div><div class='arrayDiv3'><div class='tl'><img class='introPic' src='trustrating_stim/white_mw078.bmp'><br><font color='red'><strong>Keep</strong></font></div><div class='tc'><img class='introPic' src='trustrating_stim/white_mw091.bmp'><br><font color='green'><strong>Share</strong></font></div><div class='tr'><img class='introPic' src='trustrating_stim/white_mw040.bmp'><br><font color='red'><strong>Keep</strong></font></div></div></div>","null","ARRAY","3","trustrating_stim/white_mw078.bmp,trustrating_stim/white_mw091.bmp,trustrating_stim/white_mw040.bmp","0,1,0","Match","e","4500","","","","",""
"html-keyboard-response","97","243146","0.0-7.0-3.12","60d2d061fd054556769ca306","bdp_wmem","Mon Mar 13 2023 00:12:20 GMT-0400 (Eastern Daylight Time)","728141","Match,No Match","","null","","","","","","<div class='trialBorder'><div class='vertical-center'><img src='img/fixation2_sml.jpg'</img></div></div>","null","DELAY","","","","","","","","","","",""
"html-keyboard-response","98","244297","0.0-7.0-4.12","60d2d061fd054556769ca306","bdp_wmem","Mon Mar 13 2023 00:12:20 GMT-0400 (Eastern Daylight Time)","728141","Match,No Match","","1149","","","","","","<div class='trialBorder'><div class='targDiv'><div class='tc'><img class='introPic' src='trustrating_stim/white_mw078.bmp'><br><font color='red'><strong>Keep</strong></font></div></div><div class='respDiv'><div class='respDivL'>Match<br>(e)</div><div class='respDivR'>No Match<br>(i)</div></div></div>","e","TARGET","3","trustrating_stim/white_mw078.bmp,trustrating_stim/white_mw091.bmp,trustrating_stim/white_mw040.bmp","0,1,0","Match","e","4500","trustrating_stim/white_mw078.bmp","red","Keep","REAL","1"
"html-keyboard-response","99","244798","0.0-7.0-5.12","60d2d061fd054556769ca306","bdp_wmem","Mon Mar 13 2023 00:12:20 GMT-0400 (Eastern Daylight Time)","728141","Match,No Match","","null","","","","","","<div class='trialBorder'><div class='vertical-center'><img src='img/correct.jpg'></div><div class='respDiv'><div class='respDivL'><font style='color:orange'>Match<br>(e)</font></div><div class='respDivR'>No Match<br>(i)</div></div></div>","null","FEEDBACK","","","","","","","","","","",""
"html-keyboard-response","100","245299","0.0-7.0-1.13","60d2d061fd054556769ca306","bdp_wmem","Mon Mar 13 2023 00:12:20 GMT-0400 (Eastern Daylight Time)","728141","Match,No Match","","null","","","","","","<div class='trialBorder'><div class='vertical-center'><img src='img/fixation2_sml.jpg'</img></div></div>","null","FIX","","","","","","","","","","",""
"html-keyboard-response","101","246802","0.0-7.0-2.13","60d2d061fd054556769ca306","bdp_wmem","Mon Mar 13 2023 00:12:20 GMT-0400 (Eastern Daylight Time)","728141","Match,No Match","","null","","","","","","<div class='trialBorder'><div class='vertical-center'><img style='vertical-align:center; align:center' src='img/fixation2_sml.jpg'></div><div class='arrayDiv1'><div class='tc'><img class='introPic' src='trustrating_stim/white_mw042.bmp'><br><font color='green'><strong>Share</strong></font></div></div></div>","null","ARRAY","1","trustrating_stim/white_mw042.bmp","1","Match","e","1500","","","","",""
"html-keyboard-response","102","250805","0.0-7.0-3.13","60d2d061fd054556769ca306","bdp_wmem","Mon Mar 13 2023 00:12:20 GMT-0400 (Eastern Daylight Time)","728141","Match,No Match","","null","","","","","","<div class='trialBorder'><div class='vertical-center'><img src='img/fixation2_sml.jpg'</img></div></div>","null","DELAY","","","","","","","","","","",""
"html-keyboard-response","103","254254","0.0-7.0-4.13","60d2d061fd054556769ca306","bdp_wmem","Mon Mar 13 2023 00:12:20 GMT-0400 (Eastern Daylight Time)","728141","Match,No Match","","3447","","","","","","<div class='trialBorder'><div class='targDiv'><div class='tc'><img class='introPic' src='trustrating_stim/white_mw042.bmp'><br><font color='green'><strong>Share</strong></font></div></div><div class='respDiv'><div class='respDivL'>Match<br>(e)</div><div class='respDivR'>No Match<br>(i)</div></div></div>","e","TARGET","1","trustrating_stim/white_mw042.bmp","1","Match","e","1500","trustrating_stim/white_mw042.bmp","green","Share","REAL","1"
"html-keyboard-response","104","254755","0.0-7.0-5.13","60d2d061fd054556769ca306","bdp_wmem","Mon Mar 13 2023 00:12:20 GMT-0400 (Eastern Daylight Time)","728141","Match,No Match","","null","","","","","","<div class='trialBorder'><div class='vertical-center'><img src='img/correct.jpg'></div><div class='respDiv'><div class='respDivL'><font style='color:orange'>Match<br>(e)</font></div><div class='respDivR'>No Match<br>(i)</div></div></div>","null","FEEDBACK","","","","","","","","","","",""
"html-keyboard-response","105","255257","0.0-7.0-1.14","60d2d061fd054556769ca306","bdp_wmem","Mon Mar 13 2023 00:12:20 GMT-0400 (Eastern Daylight Time)","728141","Match,No Match","","null","","","","","","<div class='trialBorder'><div class='vertical-center'><img src='img/fixation2_sml.jpg'</img></div></div>","null","FIX","","","","","","","","","","",""
"html-keyboard-response","106","259760","0.0-7.0-2.14","60d2d061fd054556769ca306","bdp_wmem","Mon Mar 13 2023 00:12:20 GMT-0400 (Eastern Daylight Time)","728141","Match,No Match","","null","","","","","","<div class='trialBorder'><div class='vertical-center'><img style='vertical-align:center; align:center' src='img/fixation2_sml.jpg'></div><div class='arrayDiv3'><div class='tl'><img class='introPic' src='trustrating_stim/white_mw038.bmp'><br><font color='green'><strong>Share</strong></font></div><div class='tc'><img class='introPic' src='trustrating_stim/white_mw085.bmp'><br><font color='red'><strong>Keep</strong></font></div><div class='tr'><img class='introPic' src='trustrating_stim/white_mw042.bmp'><br><font color='red'><strong>Keep</strong></font></div></div></div>","null","ARRAY","3","trustrating_stim/white_mw038.bmp,trustrating_stim/white_mw085.bmp,trustrating_stim/white_mw042.bmp","1,0,0","noMatchFace","i","4500","","","","",""
"html-keyboard-response","107","263762","0.0-7.0-3.14","60d2d061fd054556769ca306","bdp_wmem","Mon Mar 13 2023 00:12:20 GMT-0400 (Eastern Daylight Time)","728141","Match,No Match","","null","","","","","","<div class='trialBorder'><div class='vertical-center'><img src='img/fixation2_sml.jpg'</img></div></div>","null","DELAY","","","","","","","","","","",""
"html-keyboard-response","108","266616","0.0-7.0-4.14","60d2d061fd054556769ca306","bdp_wmem","Mon Mar 13 2023 00:12:20 GMT-0400 (Eastern Daylight Time)","728141","Match,No Match","","2852","","","","","","<div class='trialBorder'><div class='targDiv'><div class='tc'><img class='introPic' src='trustrating_stim/white_mw070.bmp'><br><font color='red'><strong>Keep</strong></font></div></div><div class='respDiv'><div class='respDivL'>Match<br>(e)</div><div class='respDivR'>No Match<br>(i)</div></div></div>","i","TARGET","3","trustrating_stim/white_mw038.bmp,trustrating_stim/white_mw085.bmp,trustrating_stim/white_mw042.bmp","1,0,0","noMatchFace","i","4500","trustrating_stim/white_mw070.bmp","red","Keep","REAL","1"
"html-keyboard-response","109","267119","0.0-7.0-5.14","60d2d061fd054556769ca306","bdp_wmem","Mon Mar 13 2023 00:12:20 GMT-0400 (Eastern Daylight Time)","728141","Match,No Match","","null","","","","","","<div class='trialBorder'><div class='vertical-center'><img src='img/correct.jpg'></div><div class='respDiv'><div class='respDivL'>Match<br>(e)</div><div class='respDivR'><font style='color:orange'>No Match<br>(i)</font></div></div></div>","null","FEEDBACK","","","","","","","","","","",""
"html-keyboard-response","110","267621","0.0-7.0-1.15","60d2d061fd054556769ca306","bdp_wmem","Mon Mar 13 2023 00:12:20 GMT-0400 (Eastern Daylight Time)","728141","Match,No Match","","null","","","","","","<div class='trialBorder'><div class='vertical-center'><img src='img/fixation2_sml.jpg'</img></div></div>","null","FIX","","","","","","","","","","",""
"html-keyboard-response","111","269123","0.0-7.0-2.15","60d2d061fd054556769ca306","bdp_wmem","Mon Mar 13 2023 00:12:20 GMT-0400 (Eastern Daylight Time)","728141","Match,No Match","","null","","","","","","<div class='trialBorder'><div class='vertical-center'><img style='vertical-align:center; align:center' src='img/fixation2_sml.jpg'></div><div class='arrayDiv1'><div class='tc'><img class='introPic' src='trustrating_stim/white_mw012.bmp'><br><font color='red'><strong>Keep</strong></font></div></div></div>","null","ARRAY","1","trustrating_stim/white_mw012.bmp","0","Match","e","1500","","","","",""
"html-keyboard-response","112","273124","0.0-7.0-3.15","60d2d061fd054556769ca306","bdp_wmem","Mon Mar 13 2023 00:12:20 GMT-0400 (Eastern Daylight Time)","728141","Match,No Match","","null","","","","","","<div class='trialBorder'><div class='vertical-center'><img src='img/fixation2_sml.jpg'</img></div></div>","null","DELAY","","","","","","","","","","",""
"html-keyboard-response","113","278749","0.0-7.0-4.15","60d2d061fd054556769ca306","bdp_wmem","Mon Mar 13 2023 00:12:20 GMT-0400 (Eastern Daylight Time)","728141","Match,No Match","","5623","","","","","","<div class='trialBorder'><div class='targDiv'><div class='tc'><img class='introPic' src='trustrating_stim/white_mw012.bmp'><br><font color='red'><strong>Keep</strong></font></div></div><div class='respDiv'><div class='respDivL'>Match<br>(e)</div><div class='respDivR'>No Match<br>(i)</div></div></div>","e","TARGET","1","trustrating_stim/white_mw012.bmp","0","Match","e","1500","trustrating_stim/white_mw012.bmp","red","Keep","REAL","1"
"html-keyboard-response","114","279252","0.0-7.0-5.15","60d2d061fd054556769ca306","bdp_wmem","Mon Mar 13 2023 00:12:20 GMT-0400 (Eastern Daylight Time)","728141","Match,No Match","","null","","","","","","<div class='trialBorder'><div class='vertical-center'><img src='img/correct.jpg'></div><div class='respDiv'><div class='respDivL'><font style='color:orange'>Match<br>(e)</font></div><div class='respDivR'>No Match<br>(i)</div></div></div>","null","FEEDBACK","","","","","","","","","","",""
"html-keyboard-response","115","279753","0.0-7.0-1.16","60d2d061fd054556769ca306","bdp_wmem","Mon Mar 13 2023 00:12:20 GMT-0400 (Eastern Daylight Time)","728141","Match,No Match","","null","","","","","","<div class='trialBorder'><div class='vertical-center'><img src='img/fixation2_sml.jpg'</img></div></div>","null","FIX","","","","","","","","","","",""
"html-keyboard-response","116","281256","0.0-7.0-2.16","60d2d061fd054556769ca306","bdp_wmem","Mon Mar 13 2023 00:12:20 GMT-0400 (Eastern Daylight Time)","728141","Match,No Match","","null","","","","","","<div class='trialBorder'><div class='vertical-center'><img style='vertical-align:center; align:center' src='img/fixation2_sml.jpg'></div><div class='arrayDiv1'><div class='tc'><img class='introPic' src='trustrating_stim/white_mw038.bmp'><br><font color='red'><strong>Keep</strong></font></div></div></div>","null","ARRAY","1","trustrating_stim/white_mw038.bmp","0","noMatchOutcome","i","1500","","","","",""
"html-keyboard-response","117","285258","0.0-7.0-3.16","60d2d061fd054556769ca306","bdp_wmem","Mon Mar 13 2023 00:12:20 GMT-0400 (Eastern Daylight Time)","728141","Match,No Match","","null","","","","","","<div class='trialBorder'><div class='vertical-center'><img src='img/fixation2_sml.jpg'</img></div></div>","null","DELAY","","","","","","","","","","",""
"html-keyboard-response","118","286042","0.0-7.0-4.16","60d2d061fd054556769ca306","bdp_wmem","Mon Mar 13 2023 00:12:20 GMT-0400 (Eastern Daylight Time)","728141","Match,No Match","","783","","","","","","<div class='trialBorder'><div class='targDiv'><div class='tc'><img class='introPic' src='trustrating_stim/white_mw038.bmp'><br><font color='green'><strong>Share</strong></font></div></div><div class='respDiv'><div class='respDivL'>Match<br>(e)</div><div class='respDivR'>No Match<br>(i)</div></div></div>","e","TARGET","1","trustrating_stim/white_mw038.bmp","0","noMatchOutcome","i","1500","trustrating_stim/white_mw038.bmp","green","Share","REAL","0"
"html-keyboard-response","119","286543","0.0-7.0-5.16","60d2d061fd054556769ca306","bdp_wmem","Mon Mar 13 2023 00:12:20 GMT-0400 (Eastern Daylight Time)","728141","Match,No Match","","null","","","","","","<div class='trialBorder'><div class='vertical-center'><img src='img/error.jpg'></div><div class='respDiv'><div class='respDivL'><font style='color:orange'>Match<br>(e)</font></div><div class='respDivR'>No Match<br>(i)</div></div></div>","null","FEEDBACK","","","","","","","","","","",""
"html-keyboard-response","120","287046","0.0-7.0-1.17","60d2d061fd054556769ca306","bdp_wmem","Mon Mar 13 2023 00:12:20 GMT-0400 (Eastern Daylight Time)","728141","Match,No Match","","null","","","","","","<div class='trialBorder'><div class='vertical-center'><img src='img/fixation2_sml.jpg'</img></div></div>","null","FIX","","","","","","","","","","",""
"html-keyboard-response","121","288548","0.0-7.0-2.17","60d2d061fd054556769ca306","bdp_wmem","Mon Mar 13 2023 00:12:20 GMT-0400 (Eastern Daylight Time)","728141","Match,No Match","","null","","","","","","<div class='trialBorder'><div class='vertical-center'><img style='vertical-align:center; align:center' src='img/fixation2_sml.jpg'></div><div class='arrayDiv1'><div class='tc'><img class='introPic' src='trustrating_stim/white_mw013.bmp'><br><font color='red'><strong>Keep</strong></font></div></div></div>","null","ARRAY","1","trustrating_stim/white_mw013.bmp","0","Match","e","1500","","","","",""
"html-keyboard-response","122","292549","0.0-7.0-3.17","60d2d061fd054556769ca306","bdp_wmem","Mon Mar 13 2023 00:12:20 GMT-0400 (Eastern Daylight Time)","728141","Match,No Match","","null","","","","","","<div class='trialBorder'><div class='vertical-center'><img src='img/fixation2_sml.jpg'</img></div></div>","null","DELAY","","","","","","","","","","",""
"html-keyboard-response","123","297109","0.0-7.0-4.17","60d2d061fd054556769ca306","bdp_wmem","Mon Mar 13 2023 00:12:20 GMT-0400 (Eastern Daylight Time)","728141","Match,No Match","","4557","","","","","","<div class='trialBorder'><div class='targDiv'><div class='tc'><img class='introPic' src='trustrating_stim/white_mw013.bmp'><br><font color='red'><strong>Keep</strong></font></div></div><div class='respDiv'><div class='respDivL'>Match<br>(e)</div><div class='respDivR'>No Match<br>(i)</div></div></div>","e","TARGET","1","trustrating_stim/white_mw013.bmp","0","Match","e","1500","trustrating_stim/white_mw013.bmp","red","Keep","REAL","1"
"html-keyboard-response","124","297610","0.0-7.0-5.17","60d2d061fd054556769ca306","bdp_wmem","Mon Mar 13 2023 00:12:20 GMT-0400 (Eastern Daylight Time)","728141","Match,No Match","","null","","","","","","<div class='trialBorder'><div class='vertical-center'><img src='img/correct.jpg'></div><div class='respDiv'><div class='respDivL'><font style='color:orange'>Match<br>(e)</font></div><div class='respDivR'>No Match<br>(i)</div></div></div>","null","FEEDBACK","","","","","","","","","","",""
"html-keyboard-response","125","298115","0.0-7.0-1.18","60d2d061fd054556769ca306","bdp_wmem","Mon Mar 13 2023 00:12:20 GMT-0400 (Eastern Daylight Time)","728141","Match,No Match","","null","","","","","","<div class='trialBorder'><div class='vertical-center'><img src='img/fixation2_sml.jpg'</img></div></div>","null","FIX","","","","","","","","","","",""
"html-keyboard-response","126","302618","0.0-7.0-2.18","60d2d061fd054556769ca306","bdp_wmem","Mon Mar 13 2023 00:12:20 GMT-0400 (Eastern Daylight Time)","728141","Match,No Match","","null","","","","","","<div class='trialBorder'><div class='vertical-center'><img style='vertical-align:center; align:center' src='img/fixation2_sml.jpg'></div><div class='arrayDiv3'><div class='tl'><img class='introPic' src='trustrating_stim/white_mw070.bmp'><br><font color='red'><strong>Keep</strong></font></div><div class='tc'><img class='introPic' src='trustrating_stim/white_mw038.bmp'><br><font color='red'><strong>Keep</strong></font></div><div class='tr'><img class='introPic' src='trustrating_stim/white_mw003.bmp'><br><font color='green'><strong>Share</strong></font></div></div></div>","null","ARRAY","3","trustrating_stim/white_mw070.bmp,trustrating_stim/white_mw038.bmp,trustrating_stim/white_mw003.bmp","0,0,1","noMatchFace","i","4500","","","","",""
"html-keyboard-response","127","306620","0.0-7.0-3.18","60d2d061fd054556769ca306","bdp_wmem","Mon Mar 13 2023 00:12:20 GMT-0400 (Eastern Daylight Time)","728141","Match,No Match","","null","","","","","","<div class='trialBorder'><div class='vertical-center'><img src='img/fixation2_sml.jpg'</img></div></div>","null","DELAY","","","","","","","","","","",""
"html-keyboard-response","128","316572","0.0-7.0-4.18","60d2d061fd054556769ca306","bdp_wmem","Mon Mar 13 2023 00:12:20 GMT-0400 (Eastern Daylight Time)","728141","Match,No Match","","9950","","","","","","<div class='trialBorder'><div class='targDiv'><div class='tc'><img class='introPic' src='trustrating_stim/white_mw040.bmp'><br><font color='red'><strong>Keep</strong></font></div></div><div class='respDiv'><div class='respDivL'>Match<br>(e)</div><div class='respDivR'>No Match<br>(i)</div></div></div>","e","TARGET","3","trustrating_stim/white_mw070.bmp,trustrating_stim/white_mw038.bmp,trustrating_stim/white_mw003.bmp","0,0,1","noMatchFace","i","4500","trustrating_stim/white_mw040.bmp","red","Keep","REAL","0"
"html-keyboard-response","129","317075","0.0-7.0-5.18","60d2d061fd054556769ca306","bdp_wmem","Mon Mar 13 2023 00:12:20 GMT-0400 (Eastern Daylight Time)","728141","Match,No Match","","null","","","","","","<div class='trialBorder'><div class='vertical-center'><img src='img/error.jpg'></div><div class='respDiv'><div class='respDivL'><font style='color:orange'>Match<br>(e)</font></div><div class='respDivR'>No Match<br>(i)</div></div></div>","null","FEEDBACK","","","","","","","","","","",""
"html-keyboard-response","130","317577","0.0-7.0-1.19","60d2d061fd054556769ca306","bdp_wmem","Mon Mar 13 2023 00:12:20 GMT-0400 (Eastern Daylight Time)","728141","Match,No Match","","null","","","","","","<div class='trialBorder'><div class='vertical-center'><img src='img/fixation2_sml.jpg'</img></div></div>","null","FIX","","","","","","","","","","",""
"html-keyboard-response","131","322079","0.0-7.0-2.19","60d2d061fd054556769ca306","bdp_wmem","Mon Mar 13 2023 00:12:20 GMT-0400 (Eastern Daylight Time)","728141","Match,No Match","","null","","","","","","<div class='trialBorder'><div class='vertical-center'><img style='vertical-align:center; align:center' src='img/fixation2_sml.jpg'></div><div class='arrayDiv3'><div class='tl'><img class='introPic' src='trustrating_stim/white_mw085.bmp'><br><font color='red'><strong>Keep</strong></font></div><div class='tc'><img class='introPic' src='trustrating_stim/white_mw003.bmp'><br><font color='green'><strong>Share</strong></font></div><div class='tr'><img class='introPic' src='trustrating_stim/white_mw013.bmp'><br><font color='red'><strong>Keep</strong></font></div></div></div>","null","ARRAY","3","trustrating_stim/white_mw085.bmp,trustrating_stim/white_mw003.bmp,trustrating_stim/white_mw013.bmp","0,1,0","noMatchFace","i","4500","","","","",""
"html-keyboard-response","132","326081","0.0-7.0-3.19","60d2d061fd054556769ca306","bdp_wmem","Mon Mar 13 2023 00:12:20 GMT-0400 (Eastern Daylight Time)","728141","Match,No Match","","null","","","","","","<div class='trialBorder'><div class='vertical-center'><img src='img/fixation2_sml.jpg'</img></div></div>","null","DELAY","","","","","","","","","","",""
"html-keyboard-response","133","326739","0.0-7.0-4.19","60d2d061fd054556769ca306","bdp_wmem","Mon Mar 13 2023 00:12:20 GMT-0400 (Eastern Daylight Time)","728141","Match,No Match","","657","","","","","","<div class='trialBorder'><div class='targDiv'><div class='tc'><img class='introPic' src='trustrating_stim/white_mw010.bmp'><br><font color='green'><strong>Share</strong></font></div></div><div class='respDiv'><div class='respDivL'>Match<br>(e)</div><div class='respDivR'>No Match<br>(i)</div></div></div>","e","TARGET","3","trustrating_stim/white_mw085.bmp,trustrating_stim/white_mw003.bmp,trustrating_stim/white_mw013.bmp","0,1,0","noMatchFace","i","4500","trustrating_stim/white_mw010.bmp","green","Share","REAL","0"
"html-keyboard-response","134","327241","0.0-7.0-5.19","60d2d061fd054556769ca306","bdp_wmem","Mon Mar 13 2023 00:12:20 GMT-0400 (Eastern Daylight Time)","728141","Match,No Match","","null","","","","","","<div class='trialBorder'><div class='vertical-center'><img src='img/error.jpg'></div><div class='respDiv'><div class='respDivL'><font style='color:orange'>Match<br>(e)</font></div><div class='respDivR'>No Match<br>(i)</div></div></div>","null","FEEDBACK","","","","","","","","","","",""
"html-keyboard-response","135","327742","0.0-7.0-1.20","60d2d061fd054556769ca306","bdp_wmem","Mon Mar 13 2023 00:12:20 GMT-0400 (Eastern Daylight Time)","728141","Match,No Match","","null","","","","","","<div class='trialBorder'><div class='vertical-center'><img src='img/fixation2_sml.jpg'</img></div></div>","null","FIX","","","","","","","","","","",""
"html-keyboard-response","136","329244","0.0-7.0-2.20","60d2d061fd054556769ca306","bdp_wmem","Mon Mar 13 2023 00:12:20 GMT-0400 (Eastern Daylight Time)","728141","Match,No Match","","null","","","","","","<div class='trialBorder'><div class='vertical-center'><img style='vertical-align:center; align:center' src='img/fixation2_sml.jpg'></div><div class='arrayDiv1'><div class='tc'><img class='introPic' src='trustrating_stim/white_mw091.bmp'><br><font color='green'><strong>Share</strong></font></div></div></div>","null","ARRAY","1","trustrating_stim/white_mw091.bmp","1","Match","e","1500","","","","",""
"html-keyboard-response","137","333246","0.0-7.0-3.20","60d2d061fd054556769ca306","bdp_wmem","Mon Mar 13 2023 00:12:20 GMT-0400 (Eastern Daylight Time)","728141","Match,No Match","","null","","","","","","<div class='trialBorder'><div class='vertical-center'><img src='img/fixation2_sml.jpg'</img></div></div>","null","DELAY","","","","","","","","","","",""
"html-keyboard-response","138","334071","0.0-7.0-4.20","60d2d061fd054556769ca306","bdp_wmem","Mon Mar 13 2023 00:12:20 GMT-0400 (Eastern Daylight Time)","728141","Match,No Match","","824","","","","","","<div class='trialBorder'><div class='targDiv'><div class='tc'><img class='introPic' src='trustrating_stim/white_mw091.bmp'><br><font color='green'><strong>Share</strong></font></div></div><div class='respDiv'><div class='respDivL'>Match<br>(e)</div><div class='respDivR'>No Match<br>(i)</div></div></div>","e","TARGET","1","trustrating_stim/white_mw091.bmp","1","Match","e","1500","trustrating_stim/white_mw091.bmp","green","Share","REAL","1"
"html-keyboard-response","139","334573","0.0-7.0-5.20","60d2d061fd054556769ca306","bdp_wmem","Mon Mar 13 2023 00:12:20 GMT-0400 (Eastern Daylight Time)","728141","Match,No Match","","null","","","","","","<div class='trialBorder'><div class='vertical-center'><img src='img/correct.jpg'></div><div class='respDiv'><div class='respDivL'><font style='color:orange'>Match<br>(e)</font></div><div class='respDivR'>No Match<br>(i)</div></div></div>","null","FEEDBACK","","","","","","","","","","",""
"html-keyboard-response","140","335074","0.0-7.0-1.21","60d2d061fd054556769ca306","bdp_wmem","Mon Mar 13 2023 00:12:20 GMT-0400 (Eastern Daylight Time)","728141","Match,No Match","","null","","","","","","<div class='trialBorder'><div class='vertical-center'><img src='img/fixation2_sml.jpg'</img></div></div>","null","FIX","","","","","","","","","","",""
"html-keyboard-response","141","338077","0.0-7.0-2.21","60d2d061fd054556769ca306","bdp_wmem","Mon Mar 13 2023 00:12:20 GMT-0400 (Eastern Daylight Time)","728141","Match,No Match","","null","","","","","","<div class='trialBorder'><div class='vertical-center'><img style='vertical-align:center; align:center' src='img/fixation2_sml.jpg'></div><div class='arrayDiv2'><div class='tl'><img class='introPic' src='trustrating_stim/white_mw003.bmp'><br><font color='red'><strong>Keep</strong></font></div><div class='tr'><img class='introPic' src='trustrating_stim/white_mw078.bmp'><br><font color='green'><strong>Share</strong></font></div></div></div>","null","ARRAY","2","trustrating_stim/white_mw003.bmp,trustrating_stim/white_mw078.bmp","0,1","noMatchOutcome","i","3000","","","","",""
"html-keyboard-response","142","342078","0.0-7.0-3.21","60d2d061fd054556769ca306","bdp_wmem","Mon Mar 13 2023 00:12:20 GMT-0400 (Eastern Daylight Time)","728141","Match,No Match","","null","","","","","","<div class='trialBorder'><div class='vertical-center'><img src='img/fixation2_sml.jpg'</img></div></div>","null","DELAY","","","","","","","","","","",""
"html-keyboard-response","143","350648","0.0-7.0-4.21","60d2d061fd054556769ca306","bdp_wmem","Mon Mar 13 2023 00:12:20 GMT-0400 (Eastern Daylight Time)","728141","Match,No Match","","8568","","","","","","<div class='trialBorder'><div class='targDiv'><div class='tc'><img class='introPic' src='trustrating_stim/white_mw003.bmp'><br><font color='green'><strong>Share</strong></font></div></div><div class='respDiv'><div class='respDivL'>Match<br>(e)</div><div class='respDivR'>No Match<br>(i)</div></div></div>","e","TARGET","2","trustrating_stim/white_mw003.bmp,trustrating_stim/white_mw078.bmp","0,1","noMatchOutcome","i","3000","trustrating_stim/white_mw003.bmp","green","Share","REAL","0"
"html-keyboard-response","144","351150","0.0-7.0-5.21","60d2d061fd054556769ca306","bdp_wmem","Mon Mar 13 2023 00:12:20 GMT-0400 (Eastern Daylight Time)","728141","Match,No Match","","null","","","","","","<div class='trialBorder'><div class='vertical-center'><img src='img/error.jpg'></div><div class='respDiv'><div class='respDivL'><font style='color:orange'>Match<br>(e)</font></div><div class='respDivR'>No Match<br>(i)</div></div></div>","null","FEEDBACK","","","","","","","","","","",""
"html-keyboard-response","145","351651","0.0-7.0-1.22","60d2d061fd054556769ca306","bdp_wmem","Mon Mar 13 2023 00:12:20 GMT-0400 (Eastern Daylight Time)","728141","Match,No Match","","null","","","","","","<div class='trialBorder'><div class='vertical-center'><img src='img/fixation2_sml.jpg'</img></div></div>","null","FIX","","","","","","","","","","",""
"html-keyboard-response","146","354653","0.0-7.0-2.22","60d2d061fd054556769ca306","bdp_wmem","Mon Mar 13 2023 00:12:20 GMT-0400 (Eastern Daylight Time)","728141","Match,No Match","","null","","","","","","<div class='trialBorder'><div class='vertical-center'><img style='vertical-align:center; align:center' src='img/fixation2_sml.jpg'></div><div class='arrayDiv2'><div class='tl'><img class='introPic' src='trustrating_stim/white_mw042.bmp'><br><font color='green'><strong>Share</strong></font></div><div class='tr'><img class='introPic' src='trustrating_stim/white_mw013.bmp'><br><font color='red'><strong>Keep</strong></font></div></div></div>","null","ARRAY","2","trustrating_stim/white_mw042.bmp,trustrating_stim/white_mw013.bmp","1,0","Match","e","3000","","","","",""
"html-keyboard-response","147","358654","0.0-7.0-3.22","60d2d061fd054556769ca306","bdp_wmem","Mon Mar 13 2023 00:12:20 GMT-0400 (Eastern Daylight Time)","728141","Match,No Match","","null","","","","","","<div class='trialBorder'><div class='vertical-center'><img src='img/fixation2_sml.jpg'</img></div></div>","null","DELAY","","","","","","","","","","",""
"html-keyboard-response","148","371391","0.0-7.0-4.22","60d2d061fd054556769ca306","bdp_wmem","Mon Mar 13 2023 00:12:20 GMT-0400 (Eastern Daylight Time)","728141","Match,No Match","","12735","","","","","","<div class='trialBorder'><div class='targDiv'><div class='tc'><img class='introPic' src='trustrating_stim/white_mw013.bmp'><br><font color='red'><strong>Keep</strong></font></div></div><div class='respDiv'><div class='respDivL'>Match<br>(e)</div><div class='respDivR'>No Match<br>(i)</div></div></div>","e","TARGET","2","trustrating_stim/white_mw042.bmp,trustrating_stim/white_mw013.bmp","1,0","Match","e","3000","trustrating_stim/white_mw013.bmp","red","Keep","REAL","1"
"html-keyboard-response","149","371894","0.0-7.0-5.22","60d2d061fd054556769ca306","bdp_wmem","Mon Mar 13 2023 00:12:20 GMT-0400 (Eastern Daylight Time)","728141","Match,No Match","","null","","","","","","<div class='trialBorder'><div class='vertical-center'><img src='img/correct.jpg'></div><div class='respDiv'><div class='respDivL'><font style='color:orange'>Match<br>(e)</font></div><div class='respDivR'>No Match<br>(i)</div></div></div>","null","FEEDBACK","","","","","","","","","","",""
"html-keyboard-response","150","372395","0.0-7.0-1.23","60d2d061fd054556769ca306","bdp_wmem","Mon Mar 13 2023 00:12:20 GMT-0400 (Eastern Daylight Time)","728141","Match,No Match","","null","","","","","","<div class='trialBorder'><div class='vertical-center'><img src='img/fixation2_sml.jpg'</img></div></div>","null","FIX","","","","","","","","","","",""
"html-keyboard-response","151","376897","0.0-7.0-2.23","60d2d061fd054556769ca306","bdp_wmem","Mon Mar 13 2023 00:12:20 GMT-0400 (Eastern Daylight Time)","728141","Match,No Match","","null","","","","","","<div class='trialBorder'><div class='vertical-center'><img style='vertical-align:center; align:center' src='img/fixation2_sml.jpg'></div><div class='arrayDiv3'><div class='tl'><img class='introPic' src='trustrating_stim/white_mw091.bmp'><br><font color='red'><strong>Keep</strong></font></div><div class='tc'><img class='introPic' src='trustrating_stim/white_mw003.bmp'><br><font color='green'><strong>Share</strong></font></div><div class='tr'><img class='introPic' src='trustrating_stim/white_mw042.bmp'><br><font color='green'><strong>Share</strong></font></div></div></div>","null","ARRAY","3","trustrating_stim/white_mw091.bmp,trustrating_stim/white_mw003.bmp,trustrating_stim/white_mw042.bmp","0,1,1","Match","e","4500","","","","",""
"html-keyboard-response","152","380899","0.0-7.0-3.23","60d2d061fd054556769ca306","bdp_wmem","Mon Mar 13 2023 00:12:20 GMT-0400 (Eastern Daylight Time)","728141","Match,No Match","","null","","","","","","<div class='trialBorder'><div class='vertical-center'><img src='img/fixation2_sml.jpg'</img></div></div>","null","DELAY","","","","","","","","","","",""
"html-keyboard-response","153","392571","0.0-7.0-4.23","60d2d061fd054556769ca306","bdp_wmem","Mon Mar 13 2023 00:12:20 GMT-0400 (Eastern Daylight Time)","728141","Match,No Match","","11670","","","","","","<div class='trialBorder'><div class='targDiv'><div class='tc'><img class='introPic' src='trustrating_stim/white_mw042.bmp'><br><font color='green'><strong>Share</strong></font></div></div><div class='respDiv'><div class='respDivL'>Match<br>(e)</div><div class='respDivR'>No Match<br>(i)</div></div></div>","e","TARGET","3","trustrating_stim/white_mw091.bmp,trustrating_stim/white_mw003.bmp,trustrating_stim/white_mw042.bmp","0,1,1","Match","e","4500","trustrating_stim/white_mw042.bmp","green","Share","REAL","1"
"html-keyboard-response","154","393073","0.0-7.0-5.23","60d2d061fd054556769ca306","bdp_wmem","Mon Mar 13 2023 00:12:20 GMT-0400 (Eastern Daylight Time)","728141","Match,No Match","","null","","","","","","<div class='trialBorder'><div class='vertical-center'><img src='img/correct.jpg'></div><div class='respDiv'><div class='respDivL'><font style='color:orange'>Match<br>(e)</font></div><div class='respDivR'>No Match<br>(i)</div></div></div>","null","FEEDBACK","","","","","","","","","","",""
"html-keyboard-response","155","393575","0.0-7.0-1.24","60d2d061fd054556769ca306","bdp_wmem","Mon Mar 13 2023 00:12:20 GMT-0400 (Eastern Daylight Time)","728141","Match,No Match","","null","","","","","","<div class='trialBorder'><div class='vertical-center'><img src='img/fixation2_sml.jpg'</img></div></div>","null","FIX","","","","","","","","","","",""
"html-keyboard-response","156","395077","0.0-7.0-2.24","60d2d061fd054556769ca306","bdp_wmem","Mon Mar 13 2023 00:12:20 GMT-0400 (Eastern Daylight Time)","728141","Match,No Match","","null","","","","","","<div class='trialBorder'><div class='vertical-center'><img style='vertical-align:center; align:center' src='img/fixation2_sml.jpg'></div><div class='arrayDiv1'><div class='tc'><img class='introPic' src='trustrating_stim/white_mw092.bmp'><br><font color='green'><strong>Share</strong></font></div></div></div>","null","ARRAY","1","trustrating_stim/white_mw092.bmp","1","Match","e","1500","","","","",""
"html-keyboard-response","157","399079","0.0-7.0-3.24","60d2d061fd054556769ca306","bdp_wmem","Mon Mar 13 2023 00:12:20 GMT-0400 (Eastern Daylight Time)","728141","Match,No Match","","null","","","","","","<div class='trialBorder'><div class='vertical-center'><img src='img/fixation2_sml.jpg'</img></div></div>","null","DELAY","","","","","","","","","","",""
"html-keyboard-response","158","399159","0.0-7.0-4.24","60d2d061fd054556769ca306","bdp_wmem","Mon Mar 13 2023 00:12:20 GMT-0400 (Eastern Daylight Time)","728141","Match,No Match","","78","","","","","","<div class='trialBorder'><div class='targDiv'><div class='tc'><img class='introPic' src='trustrating_stim/white_mw092.bmp'><br><font color='green'><strong>Share</strong></font></div></div><div class='respDiv'><div class='respDivL'>Match<br>(e)</div><div class='respDivR'>No Match<br>(i)</div></div></div>","e","TARGET","1","trustrating_stim/white_mw092.bmp","1","Match","e","1500","trustrating_stim/white_mw092.bmp","green","Share","REAL","1"
"html-keyboard-response","159","399662","0.0-7.0-5.24","60d2d061fd054556769ca306","bdp_wmem","Mon Mar 13 2023 00:12:20 GMT-0400 (Eastern Daylight Time)","728141","Match,No Match","","null","","","","","","<div class='trialBorder'><div class='vertical-center'><img src='img/correct.jpg'></div><div class='respDiv'><div class='respDivL'><font style='color:orange'>Match<br>(e)</font></div><div class='respDivR'>No Match<br>(i)</div></div></div>","null","FEEDBACK","","","","","","","","","","",""
"html-keyboard-response","160","400163","0.0-7.0-1.25","60d2d061fd054556769ca306","bdp_wmem","Mon Mar 13 2023 00:12:20 GMT-0400 (Eastern Daylight Time)","728141","Match,No Match","","null","","","","","","<div class='trialBorder'><div class='vertical-center'><img src='img/fixation2_sml.jpg'</img></div></div>","null","FIX","","","","","","","","","","",""
"html-keyboard-response","161","403165","0.0-7.0-2.25","60d2d061fd054556769ca306","bdp_wmem","Mon Mar 13 2023 00:12:20 GMT-0400 (Eastern Daylight Time)","728141","Match,No Match","","null","","","","","","<div class='trialBorder'><div class='vertical-center'><img style='vertical-align:center; align:center' src='img/fixation2_sml.jpg'></div><div class='arrayDiv2'><div class='tl'><img class='introPic' src='trustrating_stim/white_mw010.bmp'><br><font color='green'><strong>Share</strong></font></div><div class='tr'><img class='introPic' src='trustrating_stim/white_mw012.bmp'><br><font color='red'><strong>Keep</strong></font></div></div></div>","null","ARRAY","2","trustrating_stim/white_mw010.bmp,trustrating_stim/white_mw012.bmp","1,0","Match","e","3000","","","","",""
"html-keyboard-response","162","407168","0.0-7.0-3.25","60d2d061fd054556769ca306","bdp_wmem","Mon Mar 13 2023 00:12:20 GMT-0400 (Eastern Daylight Time)","728141","Match,No Match","","null","","","","","","<div class='trialBorder'><div class='vertical-center'><img src='img/fixation2_sml.jpg'</img></div></div>","null","DELAY","","","","","","","","","","",""
"html-keyboard-response","163","408915","0.0-7.0-4.25","60d2d061fd054556769ca306","bdp_wmem","Mon Mar 13 2023 00:12:20 GMT-0400 (Eastern Daylight Time)","728141","Match,No Match","","1746","","","","","","<div class='trialBorder'><div class='targDiv'><div class='tc'><img class='introPic' src='trustrating_stim/white_mw010.bmp'><br><font color='green'><strong>Share</strong></font></div></div><div class='respDiv'><div class='respDivL'>Match<br>(e)</div><div class='respDivR'>No Match<br>(i)</div></div></div>","e","TARGET","2","trustrating_stim/white_mw010.bmp,trustrating_stim/white_mw012.bmp","1,0","Match","e","3000","trustrating_stim/white_mw010.bmp","green","Share","REAL","1"
"html-keyboard-response","164","409417","0.0-7.0-5.25","60d2d061fd054556769ca306","bdp_wmem","Mon Mar 13 2023 00:12:20 GMT-0400 (Eastern Daylight Time)","728141","Match,No Match","","null","","","","","","<div class='trialBorder'><div class='vertical-center'><img src='img/correct.jpg'></div><div class='respDiv'><div class='respDivL'><font style='color:orange'>Match<br>(e)</font></div><div class='respDivR'>No Match<br>(i)</div></div></div>","null","FEEDBACK","","","","","","","","","","",""
"html-keyboard-response","165","409919","0.0-7.0-1.26","60d2d061fd054556769ca306","bdp_wmem","Mon Mar 13 2023 00:12:20 GMT-0400 (Eastern Daylight Time)","728141","Match,No Match","","null","","","","","","<div class='trialBorder'><div class='vertical-center'><img src='img/fixation2_sml.jpg'</img></div></div>","null","FIX","","","","","","","","","","",""
"html-keyboard-response","166","411421","0.0-7.0-2.26","60d2d061fd054556769ca306","bdp_wmem","Mon Mar 13 2023 00:12:20 GMT-0400 (Eastern Daylight Time)","728141","Match,No Match","","null","","","","","","<div class='trialBorder'><div class='vertical-center'><img style='vertical-align:center; align:center' src='img/fixation2_sml.jpg'></div><div class='arrayDiv1'><div class='tc'><img class='introPic' src='trustrating_stim/white_mw042.bmp'><br><font color='green'><strong>Share</strong></font></div></div></div>","null","ARRAY","1","trustrating_stim/white_mw042.bmp","1","noMatchOutcome","i","1500","","","","",""
"html-keyboard-response","167","415423","0.0-7.0-3.26","60d2d061fd054556769ca306","bdp_wmem","Mon Mar 13 2023 00:12:20 GMT-0400 (Eastern Daylight Time)","728141","Match,No Match","","null","","","","","","<div class='trialBorder'><div class='vertical-center'><img src='img/fixation2_sml.jpg'</img></div></div>","null","DELAY","","","","","","","","","","",""
"html-keyboard-response","168","421929","0.0-7.0-4.26","60d2d061fd054556769ca306","bdp_wmem","Mon Mar 13 2023 00:12:20 GMT-0400 (Eastern Daylight Time)","728141","Match,No Match","","6505","","","","","","<div class='trialBorder'><div class='targDiv'><div class='tc'><img class='introPic' src='trustrating_stim/white_mw042.bmp'><br><font color='red'><strong>Keep</strong></font></div></div><div class='respDiv'><div class='respDivL'>Match<br>(e)</div><div class='respDivR'>No Match<br>(i)</div></div></div>","i","TARGET","1","trustrating_stim/white_mw042.bmp","1","noMatchOutcome","i","1500","trustrating_stim/white_mw042.bmp","red","Keep","REAL","1"
"html-keyboard-response","169","422431","0.0-7.0-5.26","60d2d061fd054556769ca306","bdp_wmem","Mon Mar 13 2023 00:12:20 GMT-0400 (Eastern Daylight Time)","728141","Match,No Match","","null","","","","","","<div class='trialBorder'><div class='vertical-center'><img src='img/correct.jpg'></div><div class='respDiv'><div class='respDivL'>Match<br>(e)</div><div class='respDivR'><font style='color:orange'>No Match<br>(i)</font></div></div></div>","null","FEEDBACK","","","","","","","","","","",""
"html-keyboard-response","170","422932","0.0-7.0-1.27","60d2d061fd054556769ca306","bdp_wmem","Mon Mar 13 2023 00:12:20 GMT-0400 (Eastern Daylight Time)","728141","Match,No Match","","null","","","","","","<div class='trialBorder'><div class='vertical-center'><img src='img/fixation2_sml.jpg'</img></div></div>","null","FIX","","","","","","","","","","",""
"html-keyboard-response","171","424435","0.0-7.0-2.27","60d2d061fd054556769ca306","bdp_wmem","Mon Mar 13 2023 00:12:20 GMT-0400 (Eastern Daylight Time)","728141","Match,No Match","","null","","","","","","<div class='trialBorder'><div class='vertical-center'><img style='vertical-align:center; align:center' src='img/fixation2_sml.jpg'></div><div class='arrayDiv1'><div class='tc'><img class='introPic' src='trustrating_stim/white_mw078.bmp'><br><font color='red'><strong>Keep</strong></font></div></div></div>","null","ARRAY","1","trustrating_stim/white_mw078.bmp","0","Match","e","1500","","","","",""
"html-keyboard-response","172","428437","0.0-7.0-3.27","60d2d061fd054556769ca306","bdp_wmem","Mon Mar 13 2023 00:12:20 GMT-0400 (Eastern Daylight Time)","728141","Match,No Match","","null","","","","","","<div class='trialBorder'><div class='vertical-center'><img src='img/fixation2_sml.jpg'</img></div></div>","null","DELAY","","","","","","","","","","",""
"html-keyboard-response","173","477177","0.0-7.0-4.27","60d2d061fd054556769ca306","bdp_wmem","Mon Mar 13 2023 00:12:20 GMT-0400 (Eastern Daylight Time)","728141","Match,No Match","","48738","","","","","","<div class='trialBorder'><div class='targDiv'><div class='tc'><img class='introPic' src='trustrating_stim/white_mw078.bmp'><br><font color='red'><strong>Keep</strong></font></div></div><div class='respDiv'><div class='respDivL'>Match<br>(e)</div><div class='respDivR'>No Match<br>(i)</div></div></div>","i","TARGET","1","trustrating_stim/white_mw078.bmp","0","Match","e","1500","trustrating_stim/white_mw078.bmp","red","Keep","REAL","0"
"html-keyboard-response","174","477680","0.0-7.0-5.27","60d2d061fd054556769ca306","bdp_wmem","Mon Mar 13 2023 00:12:20 GMT-0400 (Eastern Daylight Time)","728141","Match,No Match","","null","","","","","","<div class='trialBorder'><div class='vertical-center'><img src='img/error.jpg'></div><div class='respDiv'><div class='respDivL'>Match<br>(e)</div><div class='respDivR'><font style='color:orange'>No Match<br>(i)</font></div></div></div>","null","FEEDBACK","","","","","","","","","","",""
"html-keyboard-response","175","478182","0.0-7.0-1.28","60d2d061fd054556769ca306","bdp_wmem","Mon Mar 13 2023 00:12:20 GMT-0400 (Eastern Daylight Time)","728141","Match,No Match","","null","","","","","","<div class='trialBorder'><div class='vertical-center'><img src='img/fixation2_sml.jpg'</img></div></div>","null","FIX","","","","","","","","","","",""
"html-keyboard-response","176","479685","0.0-7.0-2.28","60d2d061fd054556769ca306","bdp_wmem","Mon Mar 13 2023 00:12:20 GMT-0400 (Eastern Daylight Time)","728141","Match,No Match","","null","","","","","","<div class='trialBorder'><div class='vertical-center'><img style='vertical-align:center; align:center' src='img/fixation2_sml.jpg'></div><div class='arrayDiv1'><div class='tc'><img class='introPic' src='trustrating_stim/white_mw003.bmp'><br><font color='red'><strong>Keep</strong></font></div></div></div>","null","ARRAY","1","trustrating_stim/white_mw003.bmp","0","noMatchFace","i","1500","","","","",""
"html-keyboard-response","177","483687","0.0-7.0-3.28","60d2d061fd054556769ca306","bdp_wmem","Mon Mar 13 2023 00:12:20 GMT-0400 (Eastern Daylight Time)","728141","Match,No Match","","null","","","","","","<div class='trialBorder'><div class='vertical-center'><img src='img/fixation2_sml.jpg'</img></div></div>","null","DELAY","","","","","","","","","","",""
"html-keyboard-response","178","485161","0.0-7.0-4.28","60d2d061fd054556769ca306","bdp_wmem","Mon Mar 13 2023 00:12:20 GMT-0400 (Eastern Daylight Time)","728141","Match,No Match","","1472","","","","","","<div class='trialBorder'><div class='targDiv'><div class='tc'><img class='introPic' src='trustrating_stim/white_mw042.bmp'><br><font color='red'><strong>Keep</strong></font></div></div><div class='respDiv'><div class='respDivL'>Match<br>(e)</div><div class='respDivR'>No Match<br>(i)</div></div></div>","i","TARGET","1","trustrating_stim/white_mw003.bmp","0","noMatchFace","i","1500","trustrating_stim/white_mw042.bmp","red","Keep","REAL","1"
"html-keyboard-response","179","485663","0.0-7.0-5.28","60d2d061fd054556769ca306","bdp_wmem","Mon Mar 13 2023 00:12:20 GMT-0400 (Eastern Daylight Time)","728141","Match,No Match","","null","","","","","","<div class='trialBorder'><div class='vertical-center'><img src='img/correct.jpg'></div><div class='respDiv'><div class='respDivL'>Match<br>(e)</div><div class='respDivR'><font style='color:orange'>No Match<br>(i)</font></div></div></div>","null","FEEDBACK","","","","","","","","","","",""
"html-keyboard-response","180","486165","0.0-7.0-1.29","60d2d061fd054556769ca306","bdp_wmem","Mon Mar 13 2023 00:12:20 GMT-0400 (Eastern Daylight Time)","728141","Match,No Match","","null","","","","","","<div class='trialBorder'><div class='vertical-center'><img src='img/fixation2_sml.jpg'</img></div></div>","null","FIX","","","","","","","","","","",""
"html-keyboard-response","181","490666","0.0-7.0-2.29","60d2d061fd054556769ca306","bdp_wmem","Mon Mar 13 2023 00:12:20 GMT-0400 (Eastern Daylight Time)","728141","Match,No Match","","null","","","","","","<div class='trialBorder'><div class='vertical-center'><img style='vertical-align:center; align:center' src='img/fixation2_sml.jpg'></div><div class='arrayDiv3'><div class='tl'><img class='introPic' src='trustrating_stim/white_mw085.bmp'><br><font color='green'><strong>Share</strong></font></div><div class='tc'><img class='introPic' src='trustrating_stim/white_mw042.bmp'><br><font color='red'><strong>Keep</strong></font></div><div class='tr'><img class='introPic' src='trustrating_stim/white_mw003.bmp'><br><font color='red'><strong>Keep</strong></font></div></div></div>","null","ARRAY","3","trustrating_stim/white_mw085.bmp,trustrating_stim/white_mw042.bmp,trustrating_stim/white_mw003.bmp","1,0,0","Match","e","4500","","","","",""
"html-keyboard-response","182","494668","0.0-7.0-3.29","60d2d061fd054556769ca306","bdp_wmem","Mon Mar 13 2023 00:12:20 GMT-0400 (Eastern Daylight Time)","728141","Match,No Match","","null","","","","","","<div class='trialBorder'><div class='vertical-center'><img src='img/fixation2_sml.jpg'</img></div></div>","null","DELAY","","","","","","","","","","",""
"html-keyboard-response","183","507903","0.0-7.0-4.29","60d2d061fd054556769ca306","bdp_wmem","Mon Mar 13 2023 00:12:20 GMT-0400 (Eastern Daylight Time)","728141","Match,No Match","","13234","","","","","","<div class='trialBorder'><div class='targDiv'><div class='tc'><img class='introPic' src='trustrating_stim/white_mw042.bmp'><br><font color='red'><strong>Keep</strong></font></div></div><div class='respDiv'><div class='respDivL'>Match<br>(e)</div><div class='respDivR'>No Match<br>(i)</div></div></div>","e","TARGET","3","trustrating_stim/white_mw085.bmp,trustrating_stim/white_mw042.bmp,trustrating_stim/white_mw003.bmp","1,0,0","Match","e","4500","trustrating_stim/white_mw042.bmp","red","Keep","REAL","1"
"html-keyboard-response","184","508405","0.0-7.0-5.29","60d2d061fd054556769ca306","bdp_wmem","Mon Mar 13 2023 00:12:20 GMT-0400 (Eastern Daylight Time)","728141","Match,No Match","","null","","","","","","<div class='trialBorder'><div class='vertical-center'><img src='img/correct.jpg'></div><div class='respDiv'><div class='respDivL'><font style='color:orange'>Match<br>(e)</font></div><div class='respDivR'>No Match<br>(i)</div></div></div>","null","FEEDBACK","","","","","","","","","","",""
"html-keyboard-response","185","508907","0.0-7.0-1.30","60d2d061fd054556769ca306","bdp_wmem","Mon Mar 13 2023 00:12:20 GMT-0400 (Eastern Daylight Time)","728141","Match,No Match","","null","","","","","","<div class='trialBorder'><div class='vertical-center'><img src='img/fixation2_sml.jpg'</img></div></div>","null","FIX","","","","","","","","","","",""
"html-keyboard-response","186","511910","0.0-7.0-2.30","60d2d061fd054556769ca306","bdp_wmem","Mon Mar 13 2023 00:12:20 GMT-0400 (Eastern Daylight Time)","728141","Match,No Match","","null","","","","","","<div class='trialBorder'><div class='vertical-center'><img style='vertical-align:center; align:center' src='img/fixation2_sml.jpg'></div><div class='arrayDiv2'><div class='tl'><img class='introPic' src='trustrating_stim/white_mw012.bmp'><br><font color='red'><strong>Keep</strong></font></div><div class='tr'><img class='introPic' src='trustrating_stim/white_mw078.bmp'><br><font color='green'><strong>Share</strong></font></div></div></div>","null","ARRAY","2","trustrating_stim/white_mw012.bmp,trustrating_stim/white_mw078.bmp","0,1","noMatchFace","i","3000","","","","",""
"html-keyboard-response","187","515913","0.0-7.0-3.30","60d2d061fd054556769ca306","bdp_wmem","Mon Mar 13 2023 00:12:20 GMT-0400 (Eastern Daylight Time)","728141","Match,No Match","","null","","","","","","<div class='trialBorder'><div class='vertical-center'><img src='img/fixation2_sml.jpg'</img></div></div>","null","DELAY","","","","","","","","","","",""
"html-keyboard-response","188","516079","0.0-7.0-4.30","60d2d061fd054556769ca306","bdp_wmem","Mon Mar 13 2023 00:12:20 GMT-0400 (Eastern Daylight Time)","728141","Match,No Match","","164","","","","","","<div class='trialBorder'><div class='targDiv'><div class='tc'><img class='introPic' src='trustrating_stim/white_mw070.bmp'><br><font color='green'><strong>Share</strong></font></div></div><div class='respDiv'><div class='respDivL'>Match<br>(e)</div><div class='respDivR'>No Match<br>(i)</div></div></div>","i","TARGET","2","trustrating_stim/white_mw012.bmp,trustrating_stim/white_mw078.bmp","0,1","noMatchFace","i","3000","trustrating_stim/white_mw070.bmp","green","Share","REAL","1"
"html-keyboard-response","189","516581","0.0-7.0-5.30","60d2d061fd054556769ca306","bdp_wmem","Mon Mar 13 2023 00:12:20 GMT-0400 (Eastern Daylight Time)","728141","Match,No Match","","null","","","","","","<div class='trialBorder'><div class='vertical-center'><img src='img/correct.jpg'></div><div class='respDiv'><div class='respDivL'>Match<br>(e)</div><div class='respDivR'><font style='color:orange'>No Match<br>(i)</font></div></div></div>","null","FEEDBACK","","","","","","","","","","",""
