"trial_type","trial_index","time_elapsed","internal_node_id","subject_id","task","startTime","totalTime","labels","view_history","rt","event","trial","time","trialtype","success","stimulus","key_press","stimType","arraySize","arrayFaces","arrayOutcomes","matchType","corrResp","arrayDur","targFace","targCol","targOutcome","trialType","corr"
"pavlovia","0","3","0.0-0.0","63fba157c9ebcb0ba6397872","bdp_wmem","Sun Mar 12 2023 16:40:30 GMT-0500 (Central Daylight Time)","618791","Match,No Match","","","","","","","","","","","","","","","","","","","","",""
"instructions","1","27915","0.0-1.0","63fba157c9ebcb0ba6397872","bdp_wmem","Sun Mar 12 2023 16:40:30 GMT-0500 (Central Daylight Time)","618791","Match,No Match","[{""page_index"":0,""viewing_time"":27912}]","27912","","","","","","","","","","","","","","","","","","",""
"","","","","63fba157c9ebcb0ba6397872","bdp_wmem","Sun Mar 12 2023 16:40:30 GMT-0500 (Central Daylight Time)","618791","Match,No Match","","","fullscreenenter","2","32004","fullscreenenter","","","","","","","","","","","","","","",""
"fullscreen","2","32992","0.0-2.0","63fba157c9ebcb0ba6397872","bdp_wmem","Sun Mar 12 2023 16:40:30 GMT-0500 (Central Daylight Time)","618791","Match,No Match","","","","","","","true","","","","","","","","","","","","","",""
"instructions","3","106598","0.0-4.0","63fba157c9ebcb0ba6397872","bdp_wmem","Sun Mar 12 2023 16:40:30 GMT-0500 (Central Daylight Time)","618791","Match,No Match","[{""page_index"":0,""viewing_time"":14060},{""page_index"":1,""viewing_time"":33700},{""page_index"":2,""viewing_time"":16682},{""page_index"":3,""viewing_time"":1927},{""page_index"":4,""viewing_time"":7235}]","73605","","","","","","","","","","","","","","","","","","",""
"html-keyboard-response","4","107106","0.0-5.0-1.0","63fba157c9ebcb0ba6397872","bdp_wmem","Sun Mar 12 2023 16:40:30 GMT-0500 (Central Daylight Time)","618791","Match,No Match","","null","","","","","","<div class='trialBorder'><div class='vertical-center'><img src='img/fixation2_sml.jpg'</img></div></div>","null","FIX","","","","","","","","","","",""
"html-keyboard-response","5","110117","0.0-5.0-2.0","63fba157c9ebcb0ba6397872","bdp_wmem","Sun Mar 12 2023 16:40:30 GMT-0500 (Central Daylight Time)","618791","Match,No Match","","null","","","","","","<div class='trialBorder'><div class='vertical-center'><img style='vertical-align:center; align:center' src='img/fixation2_sml.jpg'></div><div class='arrayDiv2'><div class='tl'><img class='introPic' src='trustrating_stim/white_mw012.bmp'><br><font color='red'><strong>Keep</strong></font></div><div class='tr'><img class='introPic' src='trustrating_stim/white_mw078.bmp'><br><font color='green'><strong>Share</strong></font></div></div></div>","null","ARRAY","2","trustrating_stim/white_mw012.bmp,trustrating_stim/white_mw078.bmp","0,1","noMatchFace","i","3000","","","","",""
"html-keyboard-response","6","114125","0.0-5.0-3.0","63fba157c9ebcb0ba6397872","bdp_wmem","Sun Mar 12 2023 16:40:30 GMT-0500 (Central Daylight Time)","618791","Match,No Match","","null","","","","","","<div class='trialBorder'><div class='vertical-center'><img src='img/fixation2_sml.jpg'</img></div></div>","null","DELAY","","","","","","","","","","",""
"html-keyboard-response","7","115582","0.0-5.0-4.0","63fba157c9ebcb0ba6397872","bdp_wmem","Sun Mar 12 2023 16:40:30 GMT-0500 (Central Daylight Time)","618791","Match,No Match","","1454","","","","","","<div class='trialBorder'><div class='targDiv'><div class='tc'><img class='introPic' src='trustrating_stim/white_mw091.bmp'><br><font color='red'><strong>Keep</strong></font></div></div><div class='respDiv'><div class='respDivL'>Match<br>(e)</div><div class='respDivR'>No Match<br>(i)</div></div></div>","i","TARGET","2","trustrating_stim/white_mw012.bmp,trustrating_stim/white_mw078.bmp","0,1","noMatchFace","i","3000","trustrating_stim/white_mw091.bmp","red","Keep","PRACTICE","1"
"html-keyboard-response","8","116086","0.0-5.0-5.0","63fba157c9ebcb0ba6397872","bdp_wmem","Sun Mar 12 2023 16:40:30 GMT-0500 (Central Daylight Time)","618791","Match,No Match","","null","","","","","","<div class='trialBorder'><div class='vertical-center'><img src='img/correct.jpg'></div><div class='respDiv'><div class='respDivL'>Match<br>(e)</div><div class='respDivR'><font style='color:orange'>No Match<br>(i)</font></div></div></div>","null","FEEDBACK","","","","","","","","","","",""
"html-keyboard-response","9","116589","0.0-5.0-1.1","63fba157c9ebcb0ba6397872","bdp_wmem","Sun Mar 12 2023 16:40:30 GMT-0500 (Central Daylight Time)","618791","Match,No Match","","null","","","","","","<div class='trialBorder'><div class='vertical-center'><img src='img/fixation2_sml.jpg'</img></div></div>","null","FIX","","","","","","","","","","",""
"html-keyboard-response","10","118092","0.0-5.0-2.1","63fba157c9ebcb0ba6397872","bdp_wmem","Sun Mar 12 2023 16:40:30 GMT-0500 (Central Daylight Time)","618791","Match,No Match","","null","","","","","","<div class='trialBorder'><div class='vertical-center'><img style='vertical-align:center; align:center' src='img/fixation2_sml.jpg'></div><div class='arrayDiv1'><div class='tc'><img class='introPic' src='trustrating_stim/white_mw092.bmp'><br><font color='red'><strong>Keep</strong></font></div></div></div>","null","ARRAY","1","trustrating_stim/white_mw092.bmp","0","noMatchFace","i","1500","","","","",""
"html-keyboard-response","11","122100","0.0-5.0-3.1","63fba157c9ebcb0ba6397872","bdp_wmem","Sun Mar 12 2023 16:40:30 GMT-0500 (Central Daylight Time)","618791","Match,No Match","","null","","","","","","<div class='trialBorder'><div class='vertical-center'><img src='img/fixation2_sml.jpg'</img></div></div>","null","DELAY","","","","","","","","","","",""
"html-keyboard-response","12","123588","0.0-5.0-4.1","63fba157c9ebcb0ba6397872","bdp_wmem","Sun Mar 12 2023 16:40:30 GMT-0500 (Central Daylight Time)","618791","Match,No Match","","1487","","","","","","<div class='trialBorder'><div class='targDiv'><div class='tc'><img class='introPic' src='trustrating_stim/white_mw085.bmp'><br><font color='red'><strong>Keep</strong></font></div></div><div class='respDiv'><div class='respDivL'>Match<br>(e)</div><div class='respDivR'>No Match<br>(i)</div></div></div>","i","TARGET","1","trustrating_stim/white_mw092.bmp","0","noMatchFace","i","1500","trustrating_stim/white_mw085.bmp","red","Keep","PRACTICE","1"
"html-keyboard-response","13","124093","0.0-5.0-5.1","63fba157c9ebcb0ba6397872","bdp_wmem","Sun Mar 12 2023 16:40:30 GMT-0500 (Central Daylight Time)","618791","Match,No Match","","null","","","","","","<div class='trialBorder'><div class='vertical-center'><img src='img/correct.jpg'></div><div class='respDiv'><div class='respDivL'>Match<br>(e)</div><div class='respDivR'><font style='color:orange'>No Match<br>(i)</font></div></div></div>","null","FEEDBACK","","","","","","","","","","",""
"html-keyboard-response","14","124610","0.0-5.0-1.2","63fba157c9ebcb0ba6397872","bdp_wmem","Sun Mar 12 2023 16:40:30 GMT-0500 (Central Daylight Time)","618791","Match,No Match","","null","","","","","","<div class='trialBorder'><div class='vertical-center'><img src='img/fixation2_sml.jpg'</img></div></div>","null","FIX","","","","","","","","","","",""
"html-keyboard-response","15","127618","0.0-5.0-2.2","63fba157c9ebcb0ba6397872","bdp_wmem","Sun Mar 12 2023 16:40:30 GMT-0500 (Central Daylight Time)","618791","Match,No Match","","null","","","","","","<div class='trialBorder'><div class='vertical-center'><img style='vertical-align:center; align:center' src='img/fixation2_sml.jpg'></div><div class='arrayDiv2'><div class='tl'><img class='introPic' src='trustrating_stim/white_mw091.bmp'><br><font color='red'><strong>Keep</strong></font></div><div class='tr'><img class='introPic' src='trustrating_stim/white_mw038.bmp'><br><font color='green'><strong>Share</strong></font></div></div></div>","null","ARRAY","2","trustrating_stim/white_mw091.bmp,trustrating_stim/white_mw038.bmp","0,1","Match","e","3000","","","","",""
"html-keyboard-response","16","131623","0.0-5.0-3.2","63fba157c9ebcb0ba6397872","bdp_wmem","Sun Mar 12 2023 16:40:30 GMT-0500 (Central Daylight Time)","618791","Match,No Match","","null","","","","","","<div class='trialBorder'><div class='vertical-center'><img src='img/fixation2_sml.jpg'</img></div></div>","null","DELAY","","","","","","","","","","",""
"html-keyboard-response","17","133132","0.0-5.0-4.2","63fba157c9ebcb0ba6397872","bdp_wmem","Sun Mar 12 2023 16:40:30 GMT-0500 (Central Daylight Time)","618791","Match,No Match","","1506","","","","","","<div class='trialBorder'><div class='targDiv'><div class='tc'><img class='introPic' src='trustrating_stim/white_mw038.bmp'><br><font color='green'><strong>Share</strong></font></div></div><div class='respDiv'><div class='respDivL'>Match<br>(e)</div><div class='respDivR'>No Match<br>(i)</div></div></div>","i","TARGET","2","trustrating_stim/white_mw091.bmp,trustrating_stim/white_mw038.bmp","0,1","Match","e","3000","trustrating_stim/white_mw038.bmp","green","Share","PRACTICE","0"
"html-keyboard-response","18","133639","0.0-5.0-5.2","63fba157c9ebcb0ba6397872","bdp_wmem","Sun Mar 12 2023 16:40:30 GMT-0500 (Central Daylight Time)","618791","Match,No Match","","null","","","","","","<div class='trialBorder'><div class='vertical-center'><img src='img/error.jpg'></div><div class='respDiv'><div class='respDivL'>Match<br>(e)</div><div class='respDivR'><font style='color:orange'>No Match<br>(i)</font></div></div></div>","null","FEEDBACK","","","","","","","","","","",""
"html-keyboard-response","19","134149","0.0-5.0-1.3","63fba157c9ebcb0ba6397872","bdp_wmem","Sun Mar 12 2023 16:40:30 GMT-0500 (Central Daylight Time)","618791","Match,No Match","","null","","","","","","<div class='trialBorder'><div class='vertical-center'><img src='img/fixation2_sml.jpg'</img></div></div>","null","FIX","","","","","","","","","","",""
"html-keyboard-response","20","135653","0.0-5.0-2.3","63fba157c9ebcb0ba6397872","bdp_wmem","Sun Mar 12 2023 16:40:30 GMT-0500 (Central Daylight Time)","618791","Match,No Match","","null","","","","","","<div class='trialBorder'><div class='vertical-center'><img style='vertical-align:center; align:center' src='img/fixation2_sml.jpg'></div><div class='arrayDiv1'><div class='tc'><img class='introPic' src='trustrating_stim/white_mw013.bmp'><br><font color='red'><strong>Keep</strong></font></div></div></div>","null","ARRAY","1","trustrating_stim/white_mw013.bmp","0","Match","e","1500","","","","",""
"html-keyboard-response","21","139668","0.0-5.0-3.3","63fba157c9ebcb0ba6397872","bdp_wmem","Sun Mar 12 2023 16:40:30 GMT-0500 (Central Daylight Time)","618791","Match,No Match","","null","","","","","","<div class='trialBorder'><div class='vertical-center'><img src='img/fixation2_sml.jpg'</img></div></div>","null","DELAY","","","","","","","","","","",""
"html-keyboard-response","22","141032","0.0-5.0-4.3","63fba157c9ebcb0ba6397872","bdp_wmem","Sun Mar 12 2023 16:40:30 GMT-0500 (Central Daylight Time)","618791","Match,No Match","","1363","","","","","","<div class='trialBorder'><div class='targDiv'><div class='tc'><img class='introPic' src='trustrating_stim/white_mw013.bmp'><br><font color='red'><strong>Keep</strong></font></div></div><div class='respDiv'><div class='respDivL'>Match<br>(e)</div><div class='respDivR'>No Match<br>(i)</div></div></div>","e","TARGET","1","trustrating_stim/white_mw013.bmp","0","Match","e","1500","trustrating_stim/white_mw013.bmp","red","Keep","PRACTICE","1"
"html-keyboard-response","23","141537","0.0-5.0-5.3","63fba157c9ebcb0ba6397872","bdp_wmem","Sun Mar 12 2023 16:40:30 GMT-0500 (Central Daylight Time)","618791","Match,No Match","","null","","","","","","<div class='trialBorder'><div class='vertical-center'><img src='img/correct.jpg'></div><div class='respDiv'><div class='respDivL'><font style='color:orange'>Match<br>(e)</font></div><div class='respDivR'>No Match<br>(i)</div></div></div>","null","FEEDBACK","","","","","","","","","","",""
"html-keyboard-response","24","142044","0.0-5.0-1.4","63fba157c9ebcb0ba6397872","bdp_wmem","Sun Mar 12 2023 16:40:30 GMT-0500 (Central Daylight Time)","618791","Match,No Match","","null","","","","","","<div class='trialBorder'><div class='vertical-center'><img src='img/fixation2_sml.jpg'</img></div></div>","null","FIX","","","","","","","","","","",""
"html-keyboard-response","25","146552","0.0-5.0-2.4","63fba157c9ebcb0ba6397872","bdp_wmem","Sun Mar 12 2023 16:40:30 GMT-0500 (Central Daylight Time)","618791","Match,No Match","","null","","","","","","<div class='trialBorder'><div class='vertical-center'><img style='vertical-align:center; align:center' src='img/fixation2_sml.jpg'></div><div class='arrayDiv3'><div class='tl'><img class='introPic' src='trustrating_stim/white_mw012.bmp'><br><font color='green'><strong>Share</strong></font></div><div class='tc'><img class='introPic' src='trustrating_stim/white_mw040.bmp'><br><font color='red'><strong>Keep</strong></font></div><div class='tr'><img class='introPic' src='trustrating_stim/white_mw078.bmp'><br><font color='red'><strong>Keep</strong></font></div></div></div>","null","ARRAY","3","trustrating_stim/white_mw012.bmp,trustrating_stim/white_mw040.bmp,trustrating_stim/white_mw078.bmp","1,0,0","noMatchOutcome","i","4500","","","","",""
"html-keyboard-response","26","150559","0.0-5.0-3.4","63fba157c9ebcb0ba6397872","bdp_wmem","Sun Mar 12 2023 16:40:30 GMT-0500 (Central Daylight Time)","618791","Match,No Match","","null","","","","","","<div class='trialBorder'><div class='vertical-center'><img src='img/fixation2_sml.jpg'</img></div></div>","null","DELAY","","","","","","","","","","",""
"html-keyboard-response","27","153034","0.0-5.0-4.4","63fba157c9ebcb0ba6397872","bdp_wmem","Sun Mar 12 2023 16:40:30 GMT-0500 (Central Daylight Time)","618791","Match,No Match","","2473","","","","","","<div class='trialBorder'><div class='targDiv'><div class='tc'><img class='introPic' src='trustrating_stim/white_mw040.bmp'><br><font color='green'><strong>Share</strong></font></div></div><div class='respDiv'><div class='respDivL'>Match<br>(e)</div><div class='respDivR'>No Match<br>(i)</div></div></div>","e","TARGET","3","trustrating_stim/white_mw012.bmp,trustrating_stim/white_mw040.bmp,trustrating_stim/white_mw078.bmp","1,0,0","noMatchOutcome","i","4500","trustrating_stim/white_mw040.bmp","green","Share","PRACTICE","0"
"html-keyboard-response","28","153535","0.0-5.0-5.4","63fba157c9ebcb0ba6397872","bdp_wmem","Sun Mar 12 2023 16:40:30 GMT-0500 (Central Daylight Time)","618791","Match,No Match","","null","","","","","","<div class='trialBorder'><div class='vertical-center'><img src='img/error.jpg'></div><div class='respDiv'><div class='respDivL'><font style='color:orange'>Match<br>(e)</font></div><div class='respDivR'>No Match<br>(i)</div></div></div>","null","FEEDBACK","","","","","","","","","","",""
"html-keyboard-response","29","154044","0.0-5.0-1.5","63fba157c9ebcb0ba6397872","bdp_wmem","Sun Mar 12 2023 16:40:30 GMT-0500 (Central Daylight Time)","618791","Match,No Match","","null","","","","","","<div class='trialBorder'><div class='vertical-center'><img src='img/fixation2_sml.jpg'</img></div></div>","null","FIX","","","","","","","","","","",""
"html-keyboard-response","30","158550","0.0-5.0-2.5","63fba157c9ebcb0ba6397872","bdp_wmem","Sun Mar 12 2023 16:40:30 GMT-0500 (Central Daylight Time)","618791","Match,No Match","","null","","","","","","<div class='trialBorder'><div class='vertical-center'><img style='vertical-align:center; align:center' src='img/fixation2_sml.jpg'></div><div class='arrayDiv3'><div class='tl'><img class='introPic' src='trustrating_stim/white_mw070.bmp'><br><font color='red'><strong>Keep</strong></font></div><div class='tc'><img class='introPic' src='trustrating_stim/white_mw092.bmp'><br><font color='green'><strong>Share</strong></font></div><div class='tr'><img class='introPic' src='trustrating_stim/white_mw003.bmp'><br><font color='red'><strong>Keep</strong></font></div></div></div>","null","ARRAY","3","trustrating_stim/white_mw070.bmp,trustrating_stim/white_mw092.bmp,trustrating_stim/white_mw003.bmp","0,1,0","Match","e","4500","","","","",""
"html-keyboard-response","31","162553","0.0-5.0-3.5","63fba157c9ebcb0ba6397872","bdp_wmem","Sun Mar 12 2023 16:40:30 GMT-0500 (Central Daylight Time)","618791","Match,No Match","","null","","","","","","<div class='trialBorder'><div class='vertical-center'><img src='img/fixation2_sml.jpg'</img></div></div>","null","DELAY","","","","","","","","","","",""
"html-keyboard-response","32","163979","0.0-5.0-4.5","63fba157c9ebcb0ba6397872","bdp_wmem","Sun Mar 12 2023 16:40:30 GMT-0500 (Central Daylight Time)","618791","Match,No Match","","1424","","","","","","<div class='trialBorder'><div class='targDiv'><div class='tc'><img class='introPic' src='trustrating_stim/white_mw003.bmp'><br><font color='red'><strong>Keep</strong></font></div></div><div class='respDiv'><div class='respDivL'>Match<br>(e)</div><div class='respDivR'>No Match<br>(i)</div></div></div>","e","TARGET","3","trustrating_stim/white_mw070.bmp,trustrating_stim/white_mw092.bmp,trustrating_stim/white_mw003.bmp","0,1,0","Match","e","4500","trustrating_stim/white_mw003.bmp","red","Keep","PRACTICE","1"
"html-keyboard-response","33","164482","0.0-5.0-5.5","63fba157c9ebcb0ba6397872","bdp_wmem","Sun Mar 12 2023 16:40:30 GMT-0500 (Central Daylight Time)","618791","Match,No Match","","null","","","","","","<div class='trialBorder'><div class='vertical-center'><img src='img/correct.jpg'></div><div class='respDiv'><div class='respDivL'><font style='color:orange'>Match<br>(e)</font></div><div class='respDivR'>No Match<br>(i)</div></div></div>","null","FEEDBACK","","","","","","","","","","",""
"instructions","34","168515","0.0-6.0","63fba157c9ebcb0ba6397872","bdp_wmem","Sun Mar 12 2023 16:40:30 GMT-0500 (Central Daylight Time)","618791","Match,No Match","[{""page_index"":0,""viewing_time"":4032}]","4032","","","","","","","","","","","","","","","","","","",""
"html-keyboard-response","35","169018","0.0-7.0-1.0","63fba157c9ebcb0ba6397872","bdp_wmem","Sun Mar 12 2023 16:40:30 GMT-0500 (Central Daylight Time)","618791","Match,No Match","","null","","","","","","<div class='trialBorder'><div class='vertical-center'><img src='img/fixation2_sml.jpg'</img></div></div>","null","FIX","","","","","","","","","","",""
"html-keyboard-response","36","170522","0.0-7.0-2.0","63fba157c9ebcb0ba6397872","bdp_wmem","Sun Mar 12 2023 16:40:30 GMT-0500 (Central Daylight Time)","618791","Match,No Match","","null","","","","","","<div class='trialBorder'><div class='vertical-center'><img style='vertical-align:center; align:center' src='img/fixation2_sml.jpg'></div><div class='arrayDiv1'><div class='tc'><img class='introPic' src='trustrating_stim/white_mw010.bmp'><br><font color='red'><strong>Keep</strong></font></div></div></div>","null","ARRAY","1","trustrating_stim/white_mw010.bmp","0","noMatchFace","i","1500","","","","",""
"html-keyboard-response","37","174538","0.0-7.0-3.0","63fba157c9ebcb0ba6397872","bdp_wmem","Sun Mar 12 2023 16:40:30 GMT-0500 (Central Daylight Time)","618791","Match,No Match","","null","","","","","","<div class='trialBorder'><div class='vertical-center'><img src='img/fixation2_sml.jpg'</img></div></div>","null","DELAY","","","","","","","","","","",""
"html-keyboard-response","38","175545","0.0-7.0-4.0","63fba157c9ebcb0ba6397872","bdp_wmem","Sun Mar 12 2023 16:40:30 GMT-0500 (Central Daylight Time)","618791","Match,No Match","","1005","","","","","","<div class='trialBorder'><div class='targDiv'><div class='tc'><img class='introPic' src='trustrating_stim/white_mw091.bmp'><br><font color='red'><strong>Keep</strong></font></div></div><div class='respDiv'><div class='respDivL'>Match<br>(e)</div><div class='respDivR'>No Match<br>(i)</div></div></div>","i","TARGET","1","trustrating_stim/white_mw010.bmp","0","noMatchFace","i","1500","trustrating_stim/white_mw091.bmp","red","Keep","REAL","1"
"html-keyboard-response","39","176053","0.0-7.0-5.0","63fba157c9ebcb0ba6397872","bdp_wmem","Sun Mar 12 2023 16:40:30 GMT-0500 (Central Daylight Time)","618791","Match,No Match","","null","","","","","","<div class='trialBorder'><div class='vertical-center'><img src='img/correct.jpg'></div><div class='respDiv'><div class='respDivL'>Match<br>(e)</div><div class='respDivR'><font style='color:orange'>No Match<br>(i)</font></div></div></div>","null","FEEDBACK","","","","","","","","","","",""
"html-keyboard-response","40","176557","0.0-7.0-1.1","63fba157c9ebcb0ba6397872","bdp_wmem","Sun Mar 12 2023 16:40:30 GMT-0500 (Central Daylight Time)","618791","Match,No Match","","null","","","","","","<div class='trialBorder'><div class='vertical-center'><img src='img/fixation2_sml.jpg'</img></div></div>","null","FIX","","","","","","","","","","",""
"html-keyboard-response","41","181066","0.0-7.0-2.1","63fba157c9ebcb0ba6397872","bdp_wmem","Sun Mar 12 2023 16:40:30 GMT-0500 (Central Daylight Time)","618791","Match,No Match","","null","","","","","","<div class='trialBorder'><div class='vertical-center'><img style='vertical-align:center; align:center' src='img/fixation2_sml.jpg'></div><div class='arrayDiv3'><div class='tl'><img class='introPic' src='trustrating_stim/white_mw003.bmp'><br><font color='green'><strong>Share</strong></font></div><div class='tc'><img class='introPic' src='trustrating_stim/white_mw092.bmp'><br><font color='red'><strong>Keep</strong></font></div><div class='tr'><img class='introPic' src='trustrating_stim/white_mw040.bmp'><br><font color='red'><strong>Keep</strong></font></div></div></div>","null","ARRAY","3","trustrating_stim/white_mw003.bmp,trustrating_stim/white_mw092.bmp,trustrating_stim/white_mw040.bmp","1,0,0","Match","e","4500","","","","",""
"html-keyboard-response","42","185067","0.0-7.0-3.1","63fba157c9ebcb0ba6397872","bdp_wmem","Sun Mar 12 2023 16:40:30 GMT-0500 (Central Daylight Time)","618791","Match,No Match","","null","","","","","","<div class='trialBorder'><div class='vertical-center'><img src='img/fixation2_sml.jpg'</img></div></div>","null","DELAY","","","","","","","","","","",""
"html-keyboard-response","43","186514","0.0-7.0-4.1","63fba157c9ebcb0ba6397872","bdp_wmem","Sun Mar 12 2023 16:40:30 GMT-0500 (Central Daylight Time)","618791","Match,No Match","","1445","","","","","","<div class='trialBorder'><div class='targDiv'><div class='tc'><img class='introPic' src='trustrating_stim/white_mw092.bmp'><br><font color='red'><strong>Keep</strong></font></div></div><div class='respDiv'><div class='respDivL'>Match<br>(e)</div><div class='respDivR'>No Match<br>(i)</div></div></div>","e","TARGET","3","trustrating_stim/white_mw003.bmp,trustrating_stim/white_mw092.bmp,trustrating_stim/white_mw040.bmp","1,0,0","Match","e","4500","trustrating_stim/white_mw092.bmp","red","Keep","REAL","1"
"html-keyboard-response","44","187021","0.0-7.0-5.1","63fba157c9ebcb0ba6397872","bdp_wmem","Sun Mar 12 2023 16:40:30 GMT-0500 (Central Daylight Time)","618791","Match,No Match","","null","","","","","","<div class='trialBorder'><div class='vertical-center'><img src='img/correct.jpg'></div><div class='respDiv'><div class='respDivL'><font style='color:orange'>Match<br>(e)</font></div><div class='respDivR'>No Match<br>(i)</div></div></div>","null","FEEDBACK","","","","","","","","","","",""
"html-keyboard-response","45","187528","0.0-7.0-1.2","63fba157c9ebcb0ba6397872","bdp_wmem","Sun Mar 12 2023 16:40:30 GMT-0500 (Central Daylight Time)","618791","Match,No Match","","null","","","","","","<div class='trialBorder'><div class='vertical-center'><img src='img/fixation2_sml.jpg'</img></div></div>","null","FIX","","","","","","","","","","",""
"html-keyboard-response","46","190536","0.0-7.0-2.2","63fba157c9ebcb0ba6397872","bdp_wmem","Sun Mar 12 2023 16:40:30 GMT-0500 (Central Daylight Time)","618791","Match,No Match","","null","","","","","","<div class='trialBorder'><div class='vertical-center'><img style='vertical-align:center; align:center' src='img/fixation2_sml.jpg'></div><div class='arrayDiv2'><div class='tl'><img class='introPic' src='trustrating_stim/white_mw003.bmp'><br><font color='red'><strong>Keep</strong></font></div><div class='tr'><img class='introPic' src='trustrating_stim/white_mw013.bmp'><br><font color='green'><strong>Share</strong></font></div></div></div>","null","ARRAY","2","trustrating_stim/white_mw003.bmp,trustrating_stim/white_mw013.bmp","0,1","Match","e","3000","","","","",""
"html-keyboard-response","47","194544","0.0-7.0-3.2","63fba157c9ebcb0ba6397872","bdp_wmem","Sun Mar 12 2023 16:40:30 GMT-0500 (Central Daylight Time)","618791","Match,No Match","","null","","","","","","<div class='trialBorder'><div class='vertical-center'><img src='img/fixation2_sml.jpg'</img></div></div>","null","DELAY","","","","","","","","","","",""
"html-keyboard-response","48","195819","0.0-7.0-4.2","63fba157c9ebcb0ba6397872","bdp_wmem","Sun Mar 12 2023 16:40:30 GMT-0500 (Central Daylight Time)","618791","Match,No Match","","1274","","","","","","<div class='trialBorder'><div class='targDiv'><div class='tc'><img class='introPic' src='trustrating_stim/white_mw003.bmp'><br><font color='red'><strong>Keep</strong></font></div></div><div class='respDiv'><div class='respDivL'>Match<br>(e)</div><div class='respDivR'>No Match<br>(i)</div></div></div>","e","TARGET","2","trustrating_stim/white_mw003.bmp,trustrating_stim/white_mw013.bmp","0,1","Match","e","3000","trustrating_stim/white_mw003.bmp","red","Keep","REAL","1"
"html-keyboard-response","49","196321","0.0-7.0-5.2","63fba157c9ebcb0ba6397872","bdp_wmem","Sun Mar 12 2023 16:40:30 GMT-0500 (Central Daylight Time)","618791","Match,No Match","","null","","","","","","<div class='trialBorder'><div class='vertical-center'><img src='img/correct.jpg'></div><div class='respDiv'><div class='respDivL'><font style='color:orange'>Match<br>(e)</font></div><div class='respDivR'>No Match<br>(i)</div></div></div>","null","FEEDBACK","","","","","","","","","","",""
"html-keyboard-response","50","196825","0.0-7.0-1.3","63fba157c9ebcb0ba6397872","bdp_wmem","Sun Mar 12 2023 16:40:30 GMT-0500 (Central Daylight Time)","618791","Match,No Match","","null","","","","","","<div class='trialBorder'><div class='vertical-center'><img src='img/fixation2_sml.jpg'</img></div></div>","null","FIX","","","","","","","","","","",""
"html-keyboard-response","51","198332","0.0-7.0-2.3","63fba157c9ebcb0ba6397872","bdp_wmem","Sun Mar 12 2023 16:40:30 GMT-0500 (Central Daylight Time)","618791","Match,No Match","","null","","","","","","<div class='trialBorder'><div class='vertical-center'><img style='vertical-align:center; align:center' src='img/fixation2_sml.jpg'></div><div class='arrayDiv1'><div class='tc'><img class='introPic' src='trustrating_stim/white_mw010.bmp'><br><font color='red'><strong>Keep</strong></font></div></div></div>","null","ARRAY","1","trustrating_stim/white_mw010.bmp","0","noMatchOutcome","i","1500","","","","",""
"html-keyboard-response","52","202336","0.0-7.0-3.3","63fba157c9ebcb0ba6397872","bdp_wmem","Sun Mar 12 2023 16:40:30 GMT-0500 (Central Daylight Time)","618791","Match,No Match","","null","","","","","","<div class='trialBorder'><div class='vertical-center'><img src='img/fixation2_sml.jpg'</img></div></div>","null","DELAY","","","","","","","","","","",""
"html-keyboard-response","53","203571","0.0-7.0-4.3","63fba157c9ebcb0ba6397872","bdp_wmem","Sun Mar 12 2023 16:40:30 GMT-0500 (Central Daylight Time)","618791","Match,No Match","","1232","","","","","","<div class='trialBorder'><div class='targDiv'><div class='tc'><img class='introPic' src='trustrating_stim/white_mw010.bmp'><br><font color='green'><strong>Share</strong></font></div></div><div class='respDiv'><div class='respDivL'>Match<br>(e)</div><div class='respDivR'>No Match<br>(i)</div></div></div>","i","TARGET","1","trustrating_stim/white_mw010.bmp","0","noMatchOutcome","i","1500","trustrating_stim/white_mw010.bmp","green","Share","REAL","1"
"html-keyboard-response","54","204079","0.0-7.0-5.3","63fba157c9ebcb0ba6397872","bdp_wmem","Sun Mar 12 2023 16:40:30 GMT-0500 (Central Daylight Time)","618791","Match,No Match","","null","","","","","","<div class='trialBorder'><div class='vertical-center'><img src='img/correct.jpg'></div><div class='respDiv'><div class='respDivL'>Match<br>(e)</div><div class='respDivR'><font style='color:orange'>No Match<br>(i)</font></div></div></div>","null","FEEDBACK","","","","","","","","","","",""
"html-keyboard-response","55","204596","0.0-7.0-1.4","63fba157c9ebcb0ba6397872","bdp_wmem","Sun Mar 12 2023 16:40:30 GMT-0500 (Central Daylight Time)","618791","Match,No Match","","null","","","","","","<div class='trialBorder'><div class='vertical-center'><img src='img/fixation2_sml.jpg'</img></div></div>","null","FIX","","","","","","","","","","",""
"html-keyboard-response","56","209111","0.0-7.0-2.4","63fba157c9ebcb0ba6397872","bdp_wmem","Sun Mar 12 2023 16:40:30 GMT-0500 (Central Daylight Time)","618791","Match,No Match","","null","","","","","","<div class='trialBorder'><div class='vertical-center'><img style='vertical-align:center; align:center' src='img/fixation2_sml.jpg'></div><div class='arrayDiv3'><div class='tl'><img class='introPic' src='trustrating_stim/white_mw012.bmp'><br><font color='green'><strong>Share</strong></font></div><div class='tc'><img class='introPic' src='trustrating_stim/white_mw013.bmp'><br><font color='red'><strong>Keep</strong></font></div><div class='tr'><img class='introPic' src='trustrating_stim/white_mw040.bmp'><br><font color='green'><strong>Share</strong></font></div></div></div>","null","ARRAY","3","trustrating_stim/white_mw012.bmp,trustrating_stim/white_mw013.bmp,trustrating_stim/white_mw040.bmp","1,0,1","noMatchOutcome","i","4500","","","","",""
"html-keyboard-response","57","213119","0.0-7.0-3.4","63fba157c9ebcb0ba6397872","bdp_wmem","Sun Mar 12 2023 16:40:30 GMT-0500 (Central Daylight Time)","618791","Match,No Match","","null","","","","","","<div class='trialBorder'><div class='vertical-center'><img src='img/fixation2_sml.jpg'</img></div></div>","null","DELAY","","","","","","","","","","",""
"html-keyboard-response","58","215092","0.0-7.0-4.4","63fba157c9ebcb0ba6397872","bdp_wmem","Sun Mar 12 2023 16:40:30 GMT-0500 (Central Daylight Time)","618791","Match,No Match","","1971","","","","","","<div class='trialBorder'><div class='targDiv'><div class='tc'><img class='introPic' src='trustrating_stim/white_mw013.bmp'><br><font color='green'><strong>Share</strong></font></div></div><div class='respDiv'><div class='respDivL'>Match<br>(e)</div><div class='respDivR'>No Match<br>(i)</div></div></div>","e","TARGET","3","trustrating_stim/white_mw012.bmp,trustrating_stim/white_mw013.bmp,trustrating_stim/white_mw040.bmp","1,0,1","noMatchOutcome","i","4500","trustrating_stim/white_mw013.bmp","green","Share","REAL","0"
"html-keyboard-response","59","215596","0.0-7.0-5.4","63fba157c9ebcb0ba6397872","bdp_wmem","Sun Mar 12 2023 16:40:30 GMT-0500 (Central Daylight Time)","618791","Match,No Match","","null","","","","","","<div class='trialBorder'><div class='vertical-center'><img src='img/error.jpg'></div><div class='respDiv'><div class='respDivL'><font style='color:orange'>Match<br>(e)</font></div><div class='respDivR'>No Match<br>(i)</div></div></div>","null","FEEDBACK","","","","","","","","","","",""
"html-keyboard-response","60","216103","0.0-7.0-1.5","63fba157c9ebcb0ba6397872","bdp_wmem","Sun Mar 12 2023 16:40:30 GMT-0500 (Central Daylight Time)","618791","Match,No Match","","null","","","","","","<div class='trialBorder'><div class='vertical-center'><img src='img/fixation2_sml.jpg'</img></div></div>","null","FIX","","","","","","","","","","",""
"html-keyboard-response","61","219113","0.0-7.0-2.5","63fba157c9ebcb0ba6397872","bdp_wmem","Sun Mar 12 2023 16:40:30 GMT-0500 (Central Daylight Time)","618791","Match,No Match","","null","","","","","","<div class='trialBorder'><div class='vertical-center'><img style='vertical-align:center; align:center' src='img/fixation2_sml.jpg'></div><div class='arrayDiv2'><div class='tl'><img class='introPic' src='trustrating_stim/white_mw012.bmp'><br><font color='green'><strong>Share</strong></font></div><div class='tr'><img class='introPic' src='trustrating_stim/white_mw038.bmp'><br><font color='red'><strong>Keep</strong></font></div></div></div>","null","ARRAY","2","trustrating_stim/white_mw012.bmp,trustrating_stim/white_mw038.bmp","1,0","noMatchFace","i","3000","","","","",""
"html-keyboard-response","62","223124","0.0-7.0-3.5","63fba157c9ebcb0ba6397872","bdp_wmem","Sun Mar 12 2023 16:40:30 GMT-0500 (Central Daylight Time)","618791","Match,No Match","","null","","","","","","<div class='trialBorder'><div class='vertical-center'><img src='img/fixation2_sml.jpg'</img></div></div>","null","DELAY","","","","","","","","","","",""
"html-keyboard-response","63","225360","0.0-7.0-4.5","63fba157c9ebcb0ba6397872","bdp_wmem","Sun Mar 12 2023 16:40:30 GMT-0500 (Central Daylight Time)","618791","Match,No Match","","2234","","","","","","<div class='trialBorder'><div class='targDiv'><div class='tc'><img class='introPic' src='trustrating_stim/white_mw013.bmp'><br><font color='red'><strong>Keep</strong></font></div></div><div class='respDiv'><div class='respDivL'>Match<br>(e)</div><div class='respDivR'>No Match<br>(i)</div></div></div>","i","TARGET","2","trustrating_stim/white_mw012.bmp,trustrating_stim/white_mw038.bmp","1,0","noMatchFace","i","3000","trustrating_stim/white_mw013.bmp","red","Keep","REAL","1"
"html-keyboard-response","64","225862","0.0-7.0-5.5","63fba157c9ebcb0ba6397872","bdp_wmem","Sun Mar 12 2023 16:40:30 GMT-0500 (Central Daylight Time)","618791","Match,No Match","","null","","","","","","<div class='trialBorder'><div class='vertical-center'><img src='img/correct.jpg'></div><div class='respDiv'><div class='respDivL'>Match<br>(e)</div><div class='respDivR'><font style='color:orange'>No Match<br>(i)</font></div></div></div>","null","FEEDBACK","","","","","","","","","","",""
"html-keyboard-response","65","226367","0.0-7.0-1.6","63fba157c9ebcb0ba6397872","bdp_wmem","Sun Mar 12 2023 16:40:30 GMT-0500 (Central Daylight Time)","618791","Match,No Match","","null","","","","","","<div class='trialBorder'><div class='vertical-center'><img src='img/fixation2_sml.jpg'</img></div></div>","null","FIX","","","","","","","","","","",""
"html-keyboard-response","66","227872","0.0-7.0-2.6","63fba157c9ebcb0ba6397872","bdp_wmem","Sun Mar 12 2023 16:40:30 GMT-0500 (Central Daylight Time)","618791","Match,No Match","","null","","","","","","<div class='trialBorder'><div class='vertical-center'><img style='vertical-align:center; align:center' src='img/fixation2_sml.jpg'></div><div class='arrayDiv1'><div class='tc'><img class='introPic' src='trustrating_stim/white_mw038.bmp'><br><font color='red'><strong>Keep</strong></font></div></div></div>","null","ARRAY","1","trustrating_stim/white_mw038.bmp","0","Match","e","1500","","","","",""
"html-keyboard-response","67","231879","0.0-7.0-3.6","63fba157c9ebcb0ba6397872","bdp_wmem","Sun Mar 12 2023 16:40:30 GMT-0500 (Central Daylight Time)","618791","Match,No Match","","null","","","","","","<div class='trialBorder'><div class='vertical-center'><img src='img/fixation2_sml.jpg'</img></div></div>","null","DELAY","","","","","","","","","","",""
"html-keyboard-response","68","233111","0.0-7.0-4.6","63fba157c9ebcb0ba6397872","bdp_wmem","Sun Mar 12 2023 16:40:30 GMT-0500 (Central Daylight Time)","618791","Match,No Match","","1231","","","","","","<div class='trialBorder'><div class='targDiv'><div class='tc'><img class='introPic' src='trustrating_stim/white_mw038.bmp'><br><font color='red'><strong>Keep</strong></font></div></div><div class='respDiv'><div class='respDivL'>Match<br>(e)</div><div class='respDivR'>No Match<br>(i)</div></div></div>","e","TARGET","1","trustrating_stim/white_mw038.bmp","0","Match","e","1500","trustrating_stim/white_mw038.bmp","red","Keep","REAL","1"
"html-keyboard-response","69","233613","0.0-7.0-5.6","63fba157c9ebcb0ba6397872","bdp_wmem","Sun Mar 12 2023 16:40:30 GMT-0500 (Central Daylight Time)","618791","Match,No Match","","null","","","","","","<div class='trialBorder'><div class='vertical-center'><img src='img/correct.jpg'></div><div class='respDiv'><div class='respDivL'><font style='color:orange'>Match<br>(e)</font></div><div class='respDivR'>No Match<br>(i)</div></div></div>","null","FEEDBACK","","","","","","","","","","",""
"html-keyboard-response","70","234121","0.0-7.0-1.7","63fba157c9ebcb0ba6397872","bdp_wmem","Sun Mar 12 2023 16:40:30 GMT-0500 (Central Daylight Time)","618791","Match,No Match","","null","","","","","","<div class='trialBorder'><div class='vertical-center'><img src='img/fixation2_sml.jpg'</img></div></div>","null","FIX","","","","","","","","","","",""
"html-keyboard-response","71","235625","0.0-7.0-2.7","63fba157c9ebcb0ba6397872","bdp_wmem","Sun Mar 12 2023 16:40:30 GMT-0500 (Central Daylight Time)","618791","Match,No Match","","null","","","","","","<div class='trialBorder'><div class='vertical-center'><img style='vertical-align:center; align:center' src='img/fixation2_sml.jpg'></div><div class='arrayDiv1'><div class='tc'><img class='introPic' src='trustrating_stim/white_mw078.bmp'><br><font color='red'><strong>Keep</strong></font></div></div></div>","null","ARRAY","1","trustrating_stim/white_mw078.bmp","0","Match","e","1500","","","","",""
"html-keyboard-response","72","239631","0.0-7.0-3.7","63fba157c9ebcb0ba6397872","bdp_wmem","Sun Mar 12 2023 16:40:30 GMT-0500 (Central Daylight Time)","618791","Match,No Match","","null","","","","","","<div class='trialBorder'><div class='vertical-center'><img src='img/fixation2_sml.jpg'</img></div></div>","null","DELAY","","","","","","","","","","",""
"html-keyboard-response","73","240450","0.0-7.0-4.7","63fba157c9ebcb0ba6397872","bdp_wmem","Sun Mar 12 2023 16:40:30 GMT-0500 (Central Daylight Time)","618791","Match,No Match","","817","","","","","","<div class='trialBorder'><div class='targDiv'><div class='tc'><img class='introPic' src='trustrating_stim/white_mw078.bmp'><br><font color='red'><strong>Keep</strong></font></div></div><div class='respDiv'><div class='respDivL'>Match<br>(e)</div><div class='respDivR'>No Match<br>(i)</div></div></div>","e","TARGET","1","trustrating_stim/white_mw078.bmp","0","Match","e","1500","trustrating_stim/white_mw078.bmp","red","Keep","REAL","1"
"html-keyboard-response","74","240956","0.0-7.0-5.7","63fba157c9ebcb0ba6397872","bdp_wmem","Sun Mar 12 2023 16:40:30 GMT-0500 (Central Daylight Time)","618791","Match,No Match","","null","","","","","","<div class='trialBorder'><div class='vertical-center'><img src='img/correct.jpg'></div><div class='respDiv'><div class='respDivL'><font style='color:orange'>Match<br>(e)</font></div><div class='respDivR'>No Match<br>(i)</div></div></div>","null","FEEDBACK","","","","","","","","","","",""
"html-keyboard-response","75","241465","0.0-7.0-1.8","63fba157c9ebcb0ba6397872","bdp_wmem","Sun Mar 12 2023 16:40:30 GMT-0500 (Central Daylight Time)","618791","Match,No Match","","null","","","","","","<div class='trialBorder'><div class='vertical-center'><img src='img/fixation2_sml.jpg'</img></div></div>","null","FIX","","","","","","","","","","",""
"html-keyboard-response","76","245978","0.0-7.0-2.8","63fba157c9ebcb0ba6397872","bdp_wmem","Sun Mar 12 2023 16:40:30 GMT-0500 (Central Daylight Time)","618791","Match,No Match","","null","","","","","","<div class='trialBorder'><div class='vertical-center'><img style='vertical-align:center; align:center' src='img/fixation2_sml.jpg'></div><div class='arrayDiv3'><div class='tl'><img class='introPic' src='trustrating_stim/white_mw040.bmp'><br><font color='green'><strong>Share</strong></font></div><div class='tc'><img class='introPic' src='trustrating_stim/white_mw078.bmp'><br><font color='green'><strong>Share</strong></font></div><div class='tr'><img class='introPic' src='trustrating_stim/white_mw091.bmp'><br><font color='red'><strong>Keep</strong></font></div></div></div>","null","ARRAY","3","trustrating_stim/white_mw040.bmp,trustrating_stim/white_mw078.bmp,trustrating_stim/white_mw091.bmp","1,1,0","Match","e","4500","","","","",""
"html-keyboard-response","77","249985","0.0-7.0-3.8","63fba157c9ebcb0ba6397872","bdp_wmem","Sun Mar 12 2023 16:40:30 GMT-0500 (Central Daylight Time)","618791","Match,No Match","","null","","","","","","<div class='trialBorder'><div class='vertical-center'><img src='img/fixation2_sml.jpg'</img></div></div>","null","DELAY","","","","","","","","","","",""
"html-keyboard-response","78","250964","0.0-7.0-4.8","63fba157c9ebcb0ba6397872","bdp_wmem","Sun Mar 12 2023 16:40:30 GMT-0500 (Central Daylight Time)","618791","Match,No Match","","977","","","","","","<div class='trialBorder'><div class='targDiv'><div class='tc'><img class='introPic' src='trustrating_stim/white_mw078.bmp'><br><font color='green'><strong>Share</strong></font></div></div><div class='respDiv'><div class='respDivL'>Match<br>(e)</div><div class='respDivR'>No Match<br>(i)</div></div></div>","e","TARGET","3","trustrating_stim/white_mw040.bmp,trustrating_stim/white_mw078.bmp,trustrating_stim/white_mw091.bmp","1,1,0","Match","e","4500","trustrating_stim/white_mw078.bmp","green","Share","REAL","1"
"html-keyboard-response","79","251469","0.0-7.0-5.8","63fba157c9ebcb0ba6397872","bdp_wmem","Sun Mar 12 2023 16:40:30 GMT-0500 (Central Daylight Time)","618791","Match,No Match","","null","","","","","","<div class='trialBorder'><div class='vertical-center'><img src='img/correct.jpg'></div><div class='respDiv'><div class='respDivL'><font style='color:orange'>Match<br>(e)</font></div><div class='respDivR'>No Match<br>(i)</div></div></div>","null","FEEDBACK","","","","","","","","","","",""
"html-keyboard-response","80","251983","0.0-7.0-1.9","63fba157c9ebcb0ba6397872","bdp_wmem","Sun Mar 12 2023 16:40:30 GMT-0500 (Central Daylight Time)","618791","Match,No Match","","null","","","","","","<div class='trialBorder'><div class='vertical-center'><img src='img/fixation2_sml.jpg'</img></div></div>","null","FIX","","","","","","","","","","",""
"html-keyboard-response","81","256493","0.0-7.0-2.9","63fba157c9ebcb0ba6397872","bdp_wmem","Sun Mar 12 2023 16:40:30 GMT-0500 (Central Daylight Time)","618791","Match,No Match","","null","","","","","","<div class='trialBorder'><div class='vertical-center'><img style='vertical-align:center; align:center' src='img/fixation2_sml.jpg'></div><div class='arrayDiv3'><div class='tl'><img class='introPic' src='trustrating_stim/white_mw003.bmp'><br><font color='green'><strong>Share</strong></font></div><div class='tc'><img class='introPic' src='trustrating_stim/white_mw040.bmp'><br><font color='red'><strong>Keep</strong></font></div><div class='tr'><img class='introPic' src='trustrating_stim/white_mw085.bmp'><br><font color='green'><strong>Share</strong></font></div></div></div>","null","ARRAY","3","trustrating_stim/white_mw003.bmp,trustrating_stim/white_mw040.bmp,trustrating_stim/white_mw085.bmp","1,0,1","noMatchOutcome","i","4500","","","","",""
"html-keyboard-response","82","260498","0.0-7.0-3.9","63fba157c9ebcb0ba6397872","bdp_wmem","Sun Mar 12 2023 16:40:30 GMT-0500 (Central Daylight Time)","618791","Match,No Match","","null","","","","","","<div class='trialBorder'><div class='vertical-center'><img src='img/fixation2_sml.jpg'</img></div></div>","null","DELAY","","","","","","","","","","",""
"html-keyboard-response","83","261571","0.0-7.0-4.9","63fba157c9ebcb0ba6397872","bdp_wmem","Sun Mar 12 2023 16:40:30 GMT-0500 (Central Daylight Time)","618791","Match,No Match","","1071","","","","","","<div class='trialBorder'><div class='targDiv'><div class='tc'><img class='introPic' src='trustrating_stim/white_mw040.bmp'><br><font color='green'><strong>Share</strong></font></div></div><div class='respDiv'><div class='respDivL'>Match<br>(e)</div><div class='respDivR'>No Match<br>(i)</div></div></div>","e","TARGET","3","trustrating_stim/white_mw003.bmp,trustrating_stim/white_mw040.bmp,trustrating_stim/white_mw085.bmp","1,0,1","noMatchOutcome","i","4500","trustrating_stim/white_mw040.bmp","green","Share","REAL","0"
"html-keyboard-response","84","262077","0.0-7.0-5.9","63fba157c9ebcb0ba6397872","bdp_wmem","Sun Mar 12 2023 16:40:30 GMT-0500 (Central Daylight Time)","618791","Match,No Match","","null","","","","","","<div class='trialBorder'><div class='vertical-center'><img src='img/error.jpg'></div><div class='respDiv'><div class='respDivL'><font style='color:orange'>Match<br>(e)</font></div><div class='respDivR'>No Match<br>(i)</div></div></div>","null","FEEDBACK","","","","","","","","","","",""
"html-keyboard-response","85","262582","0.0-7.0-1.10","63fba157c9ebcb0ba6397872","bdp_wmem","Sun Mar 12 2023 16:40:30 GMT-0500 (Central Daylight Time)","618791","Match,No Match","","null","","","","","","<div class='trialBorder'><div class='vertical-center'><img src='img/fixation2_sml.jpg'</img></div></div>","null","FIX","","","","","","","","","","",""
"html-keyboard-response","86","267084","0.0-7.0-2.10","63fba157c9ebcb0ba6397872","bdp_wmem","Sun Mar 12 2023 16:40:30 GMT-0500 (Central Daylight Time)","618791","Match,No Match","","null","","","","","","<div class='trialBorder'><div class='vertical-center'><img style='vertical-align:center; align:center' src='img/fixation2_sml.jpg'></div><div class='arrayDiv3'><div class='tl'><img class='introPic' src='trustrating_stim/white_mw040.bmp'><br><font color='red'><strong>Keep</strong></font></div><div class='tc'><img class='introPic' src='trustrating_stim/white_mw013.bmp'><br><font color='green'><strong>Share</strong></font></div><div class='tr'><img class='introPic' src='trustrating_stim/white_mw042.bmp'><br><font color='green'><strong>Share</strong></font></div></div></div>","null","ARRAY","3","trustrating_stim/white_mw040.bmp,trustrating_stim/white_mw013.bmp,trustrating_stim/white_mw042.bmp","0,1,1","Match","e","4500","","","","",""
"html-keyboard-response","87","271091","0.0-7.0-3.10","63fba157c9ebcb0ba6397872","bdp_wmem","Sun Mar 12 2023 16:40:30 GMT-0500 (Central Daylight Time)","618791","Match,No Match","","null","","","","","","<div class='trialBorder'><div class='vertical-center'><img src='img/fixation2_sml.jpg'</img></div></div>","null","DELAY","","","","","","","","","","",""
"html-keyboard-response","88","272052","0.0-7.0-4.10","63fba157c9ebcb0ba6397872","bdp_wmem","Sun Mar 12 2023 16:40:30 GMT-0500 (Central Daylight Time)","618791","Match,No Match","","960","","","","","","<div class='trialBorder'><div class='targDiv'><div class='tc'><img class='introPic' src='trustrating_stim/white_mw042.bmp'><br><font color='green'><strong>Share</strong></font></div></div><div class='respDiv'><div class='respDivL'>Match<br>(e)</div><div class='respDivR'>No Match<br>(i)</div></div></div>","e","TARGET","3","trustrating_stim/white_mw040.bmp,trustrating_stim/white_mw013.bmp,trustrating_stim/white_mw042.bmp","0,1,1","Match","e","4500","trustrating_stim/white_mw042.bmp","green","Share","REAL","1"
"html-keyboard-response","89","272557","0.0-7.0-5.10","63fba157c9ebcb0ba6397872","bdp_wmem","Sun Mar 12 2023 16:40:30 GMT-0500 (Central Daylight Time)","618791","Match,No Match","","null","","","","","","<div class='trialBorder'><div class='vertical-center'><img src='img/correct.jpg'></div><div class='respDiv'><div class='respDivL'><font style='color:orange'>Match<br>(e)</font></div><div class='respDivR'>No Match<br>(i)</div></div></div>","null","FEEDBACK","","","","","","","","","","",""
"html-keyboard-response","90","273065","0.0-7.0-1.11","63fba157c9ebcb0ba6397872","bdp_wmem","Sun Mar 12 2023 16:40:30 GMT-0500 (Central Daylight Time)","618791","Match,No Match","","null","","","","","","<div class='trialBorder'><div class='vertical-center'><img src='img/fixation2_sml.jpg'</img></div></div>","null","FIX","","","","","","","","","","",""
"html-keyboard-response","91","276072","0.0-7.0-2.11","63fba157c9ebcb0ba6397872","bdp_wmem","Sun Mar 12 2023 16:40:30 GMT-0500 (Central Daylight Time)","618791","Match,No Match","","null","","","","","","<div class='trialBorder'><div class='vertical-center'><img style='vertical-align:center; align:center' src='img/fixation2_sml.jpg'></div><div class='arrayDiv2'><div class='tl'><img class='introPic' src='trustrating_stim/white_mw003.bmp'><br><font color='green'><strong>Share</strong></font></div><div class='tr'><img class='introPic' src='trustrating_stim/white_mw078.bmp'><br><font color='red'><strong>Keep</strong></font></div></div></div>","null","ARRAY","2","trustrating_stim/white_mw003.bmp,trustrating_stim/white_mw078.bmp","1,0","noMatchFace","i","3000","","","","",""
"html-keyboard-response","92","280077","0.0-7.0-3.11","63fba157c9ebcb0ba6397872","bdp_wmem","Sun Mar 12 2023 16:40:30 GMT-0500 (Central Daylight Time)","618791","Match,No Match","","null","","","","","","<div class='trialBorder'><div class='vertical-center'><img src='img/fixation2_sml.jpg'</img></div></div>","null","DELAY","","","","","","","","","","",""
"html-keyboard-response","93","281878","0.0-7.0-4.11","63fba157c9ebcb0ba6397872","bdp_wmem","Sun Mar 12 2023 16:40:30 GMT-0500 (Central Daylight Time)","618791","Match,No Match","","1798","","","","","","<div class='trialBorder'><div class='targDiv'><div class='tc'><img class='introPic' src='trustrating_stim/white_mw040.bmp'><br><font color='red'><strong>Keep</strong></font></div></div><div class='respDiv'><div class='respDivL'>Match<br>(e)</div><div class='respDivR'>No Match<br>(i)</div></div></div>","e","TARGET","2","trustrating_stim/white_mw003.bmp,trustrating_stim/white_mw078.bmp","1,0","noMatchFace","i","3000","trustrating_stim/white_mw040.bmp","red","Keep","REAL","0"
"html-keyboard-response","94","282379","0.0-7.0-5.11","63fba157c9ebcb0ba6397872","bdp_wmem","Sun Mar 12 2023 16:40:30 GMT-0500 (Central Daylight Time)","618791","Match,No Match","","null","","","","","","<div class='trialBorder'><div class='vertical-center'><img src='img/error.jpg'></div><div class='respDiv'><div class='respDivL'><font style='color:orange'>Match<br>(e)</font></div><div class='respDivR'>No Match<br>(i)</div></div></div>","null","FEEDBACK","","","","","","","","","","",""
"html-keyboard-response","95","282882","0.0-7.0-1.12","63fba157c9ebcb0ba6397872","bdp_wmem","Sun Mar 12 2023 16:40:30 GMT-0500 (Central Daylight Time)","618791","Match,No Match","","null","","","","","","<div class='trialBorder'><div class='vertical-center'><img src='img/fixation2_sml.jpg'</img></div></div>","null","FIX","","","","","","","","","","",""
"html-keyboard-response","96","284392","0.0-7.0-2.12","63fba157c9ebcb0ba6397872","bdp_wmem","Sun Mar 12 2023 16:40:30 GMT-0500 (Central Daylight Time)","618791","Match,No Match","","null","","","","","","<div class='trialBorder'><div class='vertical-center'><img style='vertical-align:center; align:center' src='img/fixation2_sml.jpg'></div><div class='arrayDiv1'><div class='tc'><img class='introPic' src='trustrating_stim/white_mw091.bmp'><br><font color='red'><strong>Keep</strong></font></div></div></div>","null","ARRAY","1","trustrating_stim/white_mw091.bmp","0","noMatchFace","i","1500","","","","",""
"html-keyboard-response","97","288396","0.0-7.0-3.12","63fba157c9ebcb0ba6397872","bdp_wmem","Sun Mar 12 2023 16:40:30 GMT-0500 (Central Daylight Time)","618791","Match,No Match","","null","","","","","","<div class='trialBorder'><div class='vertical-center'><img src='img/fixation2_sml.jpg'</img></div></div>","null","DELAY","","","","","","","","","","",""
"html-keyboard-response","98","289751","0.0-7.0-4.12","63fba157c9ebcb0ba6397872","bdp_wmem","Sun Mar 12 2023 16:40:30 GMT-0500 (Central Daylight Time)","618791","Match,No Match","","1353","","","","","","<div class='trialBorder'><div class='targDiv'><div class='tc'><img class='introPic' src='trustrating_stim/white_mw042.bmp'><br><font color='red'><strong>Keep</strong></font></div></div><div class='respDiv'><div class='respDivL'>Match<br>(e)</div><div class='respDivR'>No Match<br>(i)</div></div></div>","i","TARGET","1","trustrating_stim/white_mw091.bmp","0","noMatchFace","i","1500","trustrating_stim/white_mw042.bmp","red","Keep","REAL","1"
"html-keyboard-response","99","290259","0.0-7.0-5.12","63fba157c9ebcb0ba6397872","bdp_wmem","Sun Mar 12 2023 16:40:30 GMT-0500 (Central Daylight Time)","618791","Match,No Match","","null","","","","","","<div class='trialBorder'><div class='vertical-center'><img src='img/correct.jpg'></div><div class='respDiv'><div class='respDivL'>Match<br>(e)</div><div class='respDivR'><font style='color:orange'>No Match<br>(i)</font></div></div></div>","null","FEEDBACK","","","","","","","","","","",""
"html-keyboard-response","100","290765","0.0-7.0-1.13","63fba157c9ebcb0ba6397872","bdp_wmem","Sun Mar 12 2023 16:40:30 GMT-0500 (Central Daylight Time)","618791","Match,No Match","","null","","","","","","<div class='trialBorder'><div class='vertical-center'><img src='img/fixation2_sml.jpg'</img></div></div>","null","FIX","","","","","","","","","","",""
"html-keyboard-response","101","293773","0.0-7.0-2.13","63fba157c9ebcb0ba6397872","bdp_wmem","Sun Mar 12 2023 16:40:30 GMT-0500 (Central Daylight Time)","618791","Match,No Match","","null","","","","","","<div class='trialBorder'><div class='vertical-center'><img style='vertical-align:center; align:center' src='img/fixation2_sml.jpg'></div><div class='arrayDiv2'><div class='tl'><img class='introPic' src='trustrating_stim/white_mw040.bmp'><br><font color='green'><strong>Share</strong></font></div><div class='tr'><img class='introPic' src='trustrating_stim/white_mw003.bmp'><br><font color='red'><strong>Keep</strong></font></div></div></div>","null","ARRAY","2","trustrating_stim/white_mw040.bmp,trustrating_stim/white_mw003.bmp","1,0","Match","e","3000","","","","",""
"html-keyboard-response","102","297776","0.0-7.0-3.13","63fba157c9ebcb0ba6397872","bdp_wmem","Sun Mar 12 2023 16:40:30 GMT-0500 (Central Daylight Time)","618791","Match,No Match","","null","","","","","","<div class='trialBorder'><div class='vertical-center'><img src='img/fixation2_sml.jpg'</img></div></div>","null","DELAY","","","","","","","","","","",""
"html-keyboard-response","103","298720","0.0-7.0-4.13","63fba157c9ebcb0ba6397872","bdp_wmem","Sun Mar 12 2023 16:40:30 GMT-0500 (Central Daylight Time)","618791","Match,No Match","","942","","","","","","<div class='trialBorder'><div class='targDiv'><div class='tc'><img class='introPic' src='trustrating_stim/white_mw040.bmp'><br><font color='green'><strong>Share</strong></font></div></div><div class='respDiv'><div class='respDivL'>Match<br>(e)</div><div class='respDivR'>No Match<br>(i)</div></div></div>","e","TARGET","2","trustrating_stim/white_mw040.bmp,trustrating_stim/white_mw003.bmp","1,0","Match","e","3000","trustrating_stim/white_mw040.bmp","green","Share","REAL","1"
"html-keyboard-response","104","299228","0.0-7.0-5.13","63fba157c9ebcb0ba6397872","bdp_wmem","Sun Mar 12 2023 16:40:30 GMT-0500 (Central Daylight Time)","618791","Match,No Match","","null","","","","","","<div class='trialBorder'><div class='vertical-center'><img src='img/correct.jpg'></div><div class='respDiv'><div class='respDivL'><font style='color:orange'>Match<br>(e)</font></div><div class='respDivR'>No Match<br>(i)</div></div></div>","null","FEEDBACK","","","","","","","","","","",""
"html-keyboard-response","105","299737","0.0-7.0-1.14","63fba157c9ebcb0ba6397872","bdp_wmem","Sun Mar 12 2023 16:40:30 GMT-0500 (Central Daylight Time)","618791","Match,No Match","","null","","","","","","<div class='trialBorder'><div class='vertical-center'><img src='img/fixation2_sml.jpg'</img></div></div>","null","FIX","","","","","","","","","","",""
"html-keyboard-response","106","301244","0.0-7.0-2.14","63fba157c9ebcb0ba6397872","bdp_wmem","Sun Mar 12 2023 16:40:30 GMT-0500 (Central Daylight Time)","618791","Match,No Match","","null","","","","","","<div class='trialBorder'><div class='vertical-center'><img style='vertical-align:center; align:center' src='img/fixation2_sml.jpg'></div><div class='arrayDiv1'><div class='tc'><img class='introPic' src='trustrating_stim/white_mw038.bmp'><br><font color='red'><strong>Keep</strong></font></div></div></div>","null","ARRAY","1","trustrating_stim/white_mw038.bmp","0","noMatchOutcome","i","1500","","","","",""
"html-keyboard-response","107","305253","0.0-7.0-3.14","63fba157c9ebcb0ba6397872","bdp_wmem","Sun Mar 12 2023 16:40:30 GMT-0500 (Central Daylight Time)","618791","Match,No Match","","null","","","","","","<div class='trialBorder'><div class='vertical-center'><img src='img/fixation2_sml.jpg'</img></div></div>","null","DELAY","","","","","","","","","","",""
"html-keyboard-response","108","307539","0.0-7.0-4.14","63fba157c9ebcb0ba6397872","bdp_wmem","Sun Mar 12 2023 16:40:30 GMT-0500 (Central Daylight Time)","618791","Match,No Match","","2283","","","","","","<div class='trialBorder'><div class='targDiv'><div class='tc'><img class='introPic' src='trustrating_stim/white_mw038.bmp'><br><font color='green'><strong>Share</strong></font></div></div><div class='respDiv'><div class='respDivL'>Match<br>(e)</div><div class='respDivR'>No Match<br>(i)</div></div></div>","e","TARGET","1","trustrating_stim/white_mw038.bmp","0","noMatchOutcome","i","1500","trustrating_stim/white_mw038.bmp","green","Share","REAL","0"
"html-keyboard-response","109","308043","0.0-7.0-5.14","63fba157c9ebcb0ba6397872","bdp_wmem","Sun Mar 12 2023 16:40:30 GMT-0500 (Central Daylight Time)","618791","Match,No Match","","null","","","","","","<div class='trialBorder'><div class='vertical-center'><img src='img/error.jpg'></div><div class='respDiv'><div class='respDivL'><font style='color:orange'>Match<br>(e)</font></div><div class='respDivR'>No Match<br>(i)</div></div></div>","null","FEEDBACK","","","","","","","","","","",""
"html-keyboard-response","110","308545","0.0-7.0-1.15","63fba157c9ebcb0ba6397872","bdp_wmem","Sun Mar 12 2023 16:40:30 GMT-0500 (Central Daylight Time)","618791","Match,No Match","","null","","","","","","<div class='trialBorder'><div class='vertical-center'><img src='img/fixation2_sml.jpg'</img></div></div>","null","FIX","","","","","","","","","","",""
"html-keyboard-response","111","311555","0.0-7.0-2.15","63fba157c9ebcb0ba6397872","bdp_wmem","Sun Mar 12 2023 16:40:30 GMT-0500 (Central Daylight Time)","618791","Match,No Match","","null","","","","","","<div class='trialBorder'><div class='vertical-center'><img style='vertical-align:center; align:center' src='img/fixation2_sml.jpg'></div><div class='arrayDiv2'><div class='tl'><img class='introPic' src='trustrating_stim/white_mw085.bmp'><br><font color='green'><strong>Share</strong></font></div><div class='tr'><img class='introPic' src='trustrating_stim/white_mw078.bmp'><br><font color='red'><strong>Keep</strong></font></div></div></div>","null","ARRAY","2","trustrating_stim/white_mw085.bmp,trustrating_stim/white_mw078.bmp","1,0","Match","e","3000","","","","",""
"html-keyboard-response","112","315562","0.0-7.0-3.15","63fba157c9ebcb0ba6397872","bdp_wmem","Sun Mar 12 2023 16:40:30 GMT-0500 (Central Daylight Time)","618791","Match,No Match","","null","","","","","","<div class='trialBorder'><div class='vertical-center'><img src='img/fixation2_sml.jpg'</img></div></div>","null","DELAY","","","","","","","","","","",""
"html-keyboard-response","113","316157","0.0-7.0-4.15","63fba157c9ebcb0ba6397872","bdp_wmem","Sun Mar 12 2023 16:40:30 GMT-0500 (Central Daylight Time)","618791","Match,No Match","","594","","","","","","<div class='trialBorder'><div class='targDiv'><div class='tc'><img class='introPic' src='trustrating_stim/white_mw085.bmp'><br><font color='green'><strong>Share</strong></font></div></div><div class='respDiv'><div class='respDivL'>Match<br>(e)</div><div class='respDivR'>No Match<br>(i)</div></div></div>","e","TARGET","2","trustrating_stim/white_mw085.bmp,trustrating_stim/white_mw078.bmp","1,0","Match","e","3000","trustrating_stim/white_mw085.bmp","green","Share","REAL","1"
"html-keyboard-response","114","316663","0.0-7.0-5.15","63fba157c9ebcb0ba6397872","bdp_wmem","Sun Mar 12 2023 16:40:30 GMT-0500 (Central Daylight Time)","618791","Match,No Match","","null","","","","","","<div class='trialBorder'><div class='vertical-center'><img src='img/correct.jpg'></div><div class='respDiv'><div class='respDivL'><font style='color:orange'>Match<br>(e)</font></div><div class='respDivR'>No Match<br>(i)</div></div></div>","null","FEEDBACK","","","","","","","","","","",""
"html-keyboard-response","115","317172","0.0-7.0-1.16","63fba157c9ebcb0ba6397872","bdp_wmem","Sun Mar 12 2023 16:40:30 GMT-0500 (Central Daylight Time)","618791","Match,No Match","","null","","","","","","<div class='trialBorder'><div class='vertical-center'><img src='img/fixation2_sml.jpg'</img></div></div>","null","FIX","","","","","","","","","","",""
"html-keyboard-response","116","321679","0.0-7.0-2.16","63fba157c9ebcb0ba6397872","bdp_wmem","Sun Mar 12 2023 16:40:30 GMT-0500 (Central Daylight Time)","618791","Match,No Match","","null","","","","","","<div class='trialBorder'><div class='vertical-center'><img style='vertical-align:center; align:center' src='img/fixation2_sml.jpg'></div><div class='arrayDiv3'><div class='tl'><img class='introPic' src='trustrating_stim/white_mw040.bmp'><br><font color='green'><strong>Share</strong></font></div><div class='tc'><img class='introPic' src='trustrating_stim/white_mw092.bmp'><br><font color='green'><strong>Share</strong></font></div><div class='tr'><img class='introPic' src='trustrating_stim/white_mw091.bmp'><br><font color='red'><strong>Keep</strong></font></div></div></div>","null","ARRAY","3","trustrating_stim/white_mw040.bmp,trustrating_stim/white_mw092.bmp,trustrating_stim/white_mw091.bmp","1,1,0","Match","e","4500","","","","",""
"html-keyboard-response","117","325686","0.0-7.0-3.16","63fba157c9ebcb0ba6397872","bdp_wmem","Sun Mar 12 2023 16:40:30 GMT-0500 (Central Daylight Time)","618791","Match,No Match","","null","","","","","","<div class='trialBorder'><div class='vertical-center'><img src='img/fixation2_sml.jpg'</img></div></div>","null","DELAY","","","","","","","","","","",""
"html-keyboard-response","118","326559","0.0-7.0-4.16","63fba157c9ebcb0ba6397872","bdp_wmem","Sun Mar 12 2023 16:40:30 GMT-0500 (Central Daylight Time)","618791","Match,No Match","","871","","","","","","<div class='trialBorder'><div class='targDiv'><div class='tc'><img class='introPic' src='trustrating_stim/white_mw092.bmp'><br><font color='green'><strong>Share</strong></font></div></div><div class='respDiv'><div class='respDivL'>Match<br>(e)</div><div class='respDivR'>No Match<br>(i)</div></div></div>","e","TARGET","3","trustrating_stim/white_mw040.bmp,trustrating_stim/white_mw092.bmp,trustrating_stim/white_mw091.bmp","1,1,0","Match","e","4500","trustrating_stim/white_mw092.bmp","green","Share","REAL","1"
"html-keyboard-response","119","327064","0.0-7.0-5.16","63fba157c9ebcb0ba6397872","bdp_wmem","Sun Mar 12 2023 16:40:30 GMT-0500 (Central Daylight Time)","618791","Match,No Match","","null","","","","","","<div class='trialBorder'><div class='vertical-center'><img src='img/correct.jpg'></div><div class='respDiv'><div class='respDivL'><font style='color:orange'>Match<br>(e)</font></div><div class='respDivR'>No Match<br>(i)</div></div></div>","null","FEEDBACK","","","","","","","","","","",""
"html-keyboard-response","120","327566","0.0-7.0-1.17","63fba157c9ebcb0ba6397872","bdp_wmem","Sun Mar 12 2023 16:40:30 GMT-0500 (Central Daylight Time)","618791","Match,No Match","","null","","","","","","<div class='trialBorder'><div class='vertical-center'><img src='img/fixation2_sml.jpg'</img></div></div>","null","FIX","","","","","","","","","","",""
"html-keyboard-response","121","332070","0.0-7.0-2.17","63fba157c9ebcb0ba6397872","bdp_wmem","Sun Mar 12 2023 16:40:30 GMT-0500 (Central Daylight Time)","618791","Match,No Match","","null","","","","","","<div class='trialBorder'><div class='vertical-center'><img style='vertical-align:center; align:center' src='img/fixation2_sml.jpg'></div><div class='arrayDiv3'><div class='tl'><img class='introPic' src='trustrating_stim/white_mw070.bmp'><br><font color='green'><strong>Share</strong></font></div><div class='tc'><img class='introPic' src='trustrating_stim/white_mw040.bmp'><br><font color='green'><strong>Share</strong></font></div><div class='tr'><img class='introPic' src='trustrating_stim/white_mw085.bmp'><br><font color='red'><strong>Keep</strong></font></div></div></div>","null","ARRAY","3","trustrating_stim/white_mw070.bmp,trustrating_stim/white_mw040.bmp,trustrating_stim/white_mw085.bmp","1,1,0","Match","e","4500","","","","",""
"html-keyboard-response","122","336076","0.0-7.0-3.17","63fba157c9ebcb0ba6397872","bdp_wmem","Sun Mar 12 2023 16:40:30 GMT-0500 (Central Daylight Time)","618791","Match,No Match","","null","","","","","","<div class='trialBorder'><div class='vertical-center'><img src='img/fixation2_sml.jpg'</img></div></div>","null","DELAY","","","","","","","","","","",""
"html-keyboard-response","123","336895","0.0-7.0-4.17","63fba157c9ebcb0ba6397872","bdp_wmem","Sun Mar 12 2023 16:40:30 GMT-0500 (Central Daylight Time)","618791","Match,No Match","","817","","","","","","<div class='trialBorder'><div class='targDiv'><div class='tc'><img class='introPic' src='trustrating_stim/white_mw070.bmp'><br><font color='green'><strong>Share</strong></font></div></div><div class='respDiv'><div class='respDivL'>Match<br>(e)</div><div class='respDivR'>No Match<br>(i)</div></div></div>","e","TARGET","3","trustrating_stim/white_mw070.bmp,trustrating_stim/white_mw040.bmp,trustrating_stim/white_mw085.bmp","1,1,0","Match","e","4500","trustrating_stim/white_mw070.bmp","green","Share","REAL","1"
"html-keyboard-response","124","337405","0.0-7.0-5.17","63fba157c9ebcb0ba6397872","bdp_wmem","Sun Mar 12 2023 16:40:30 GMT-0500 (Central Daylight Time)","618791","Match,No Match","","null","","","","","","<div class='trialBorder'><div class='vertical-center'><img src='img/correct.jpg'></div><div class='respDiv'><div class='respDivL'><font style='color:orange'>Match<br>(e)</font></div><div class='respDivR'>No Match<br>(i)</div></div></div>","null","FEEDBACK","","","","","","","","","","",""
"html-keyboard-response","125","337908","0.0-7.0-1.18","63fba157c9ebcb0ba6397872","bdp_wmem","Sun Mar 12 2023 16:40:30 GMT-0500 (Central Daylight Time)","618791","Match,No Match","","null","","","","","","<div class='trialBorder'><div class='vertical-center'><img src='img/fixation2_sml.jpg'</img></div></div>","null","FIX","","","","","","","","","","",""
"html-keyboard-response","126","342415","0.0-7.0-2.18","63fba157c9ebcb0ba6397872","bdp_wmem","Sun Mar 12 2023 16:40:30 GMT-0500 (Central Daylight Time)","618791","Match,No Match","","null","","","","","","<div class='trialBorder'><div class='vertical-center'><img style='vertical-align:center; align:center' src='img/fixation2_sml.jpg'></div><div class='arrayDiv3'><div class='tl'><img class='introPic' src='trustrating_stim/white_mw003.bmp'><br><font color='green'><strong>Share</strong></font></div><div class='tc'><img class='introPic' src='trustrating_stim/white_mw038.bmp'><br><font color='red'><strong>Keep</strong></font></div><div class='tr'><img class='introPic' src='trustrating_stim/white_mw013.bmp'><br><font color='red'><strong>Keep</strong></font></div></div></div>","null","ARRAY","3","trustrating_stim/white_mw003.bmp,trustrating_stim/white_mw038.bmp,trustrating_stim/white_mw013.bmp","1,0,0","noMatchFace","i","4500","","","","",""
"html-keyboard-response","127","346419","0.0-7.0-3.18","63fba157c9ebcb0ba6397872","bdp_wmem","Sun Mar 12 2023 16:40:30 GMT-0500 (Central Daylight Time)","618791","Match,No Match","","null","","","","","","<div class='trialBorder'><div class='vertical-center'><img src='img/fixation2_sml.jpg'</img></div></div>","null","DELAY","","","","","","","","","","",""
"html-keyboard-response","128","348009","0.0-7.0-4.18","63fba157c9ebcb0ba6397872","bdp_wmem","Sun Mar 12 2023 16:40:30 GMT-0500 (Central Daylight Time)","618791","Match,No Match","","1588","","","","","","<div class='trialBorder'><div class='targDiv'><div class='tc'><img class='introPic' src='trustrating_stim/white_mw085.bmp'><br><font color='red'><strong>Keep</strong></font></div></div><div class='respDiv'><div class='respDivL'>Match<br>(e)</div><div class='respDivR'>No Match<br>(i)</div></div></div>","i","TARGET","3","trustrating_stim/white_mw003.bmp,trustrating_stim/white_mw038.bmp,trustrating_stim/white_mw013.bmp","1,0,0","noMatchFace","i","4500","trustrating_stim/white_mw085.bmp","red","Keep","REAL","1"
"html-keyboard-response","129","348518","0.0-7.0-5.18","63fba157c9ebcb0ba6397872","bdp_wmem","Sun Mar 12 2023 16:40:30 GMT-0500 (Central Daylight Time)","618791","Match,No Match","","null","","","","","","<div class='trialBorder'><div class='vertical-center'><img src='img/correct.jpg'></div><div class='respDiv'><div class='respDivL'>Match<br>(e)</div><div class='respDivR'><font style='color:orange'>No Match<br>(i)</font></div></div></div>","null","FEEDBACK","","","","","","","","","","",""
"html-keyboard-response","130","349023","0.0-7.0-1.19","63fba157c9ebcb0ba6397872","bdp_wmem","Sun Mar 12 2023 16:40:30 GMT-0500 (Central Daylight Time)","618791","Match,No Match","","null","","","","","","<div class='trialBorder'><div class='vertical-center'><img src='img/fixation2_sml.jpg'</img></div></div>","null","FIX","","","","","","","","","","",""
"html-keyboard-response","131","352031","0.0-7.0-2.19","63fba157c9ebcb0ba6397872","bdp_wmem","Sun Mar 12 2023 16:40:30 GMT-0500 (Central Daylight Time)","618791","Match,No Match","","null","","","","","","<div class='trialBorder'><div class='vertical-center'><img style='vertical-align:center; align:center' src='img/fixation2_sml.jpg'></div><div class='arrayDiv2'><div class='tl'><img class='introPic' src='trustrating_stim/white_mw038.bmp'><br><font color='green'><strong>Share</strong></font></div><div class='tr'><img class='introPic' src='trustrating_stim/white_mw042.bmp'><br><font color='red'><strong>Keep</strong></font></div></div></div>","null","ARRAY","2","trustrating_stim/white_mw038.bmp,trustrating_stim/white_mw042.bmp","1,0","noMatchOutcome","i","3000","","","","",""
"html-keyboard-response","132","356035","0.0-7.0-3.19","63fba157c9ebcb0ba6397872","bdp_wmem","Sun Mar 12 2023 16:40:30 GMT-0500 (Central Daylight Time)","618791","Match,No Match","","null","","","","","","<div class='trialBorder'><div class='vertical-center'><img src='img/fixation2_sml.jpg'</img></div></div>","null","DELAY","","","","","","","","","","",""
"html-keyboard-response","133","357370","0.0-7.0-4.19","63fba157c9ebcb0ba6397872","bdp_wmem","Sun Mar 12 2023 16:40:30 GMT-0500 (Central Daylight Time)","618791","Match,No Match","","1333","","","","","","<div class='trialBorder'><div class='targDiv'><div class='tc'><img class='introPic' src='trustrating_stim/white_mw038.bmp'><br><font color='red'><strong>Keep</strong></font></div></div><div class='respDiv'><div class='respDivL'>Match<br>(e)</div><div class='respDivR'>No Match<br>(i)</div></div></div>","i","TARGET","2","trustrating_stim/white_mw038.bmp,trustrating_stim/white_mw042.bmp","1,0","noMatchOutcome","i","3000","trustrating_stim/white_mw038.bmp","red","Keep","REAL","1"
"html-keyboard-response","134","357874","0.0-7.0-5.19","63fba157c9ebcb0ba6397872","bdp_wmem","Sun Mar 12 2023 16:40:30 GMT-0500 (Central Daylight Time)","618791","Match,No Match","","null","","","","","","<div class='trialBorder'><div class='vertical-center'><img src='img/correct.jpg'></div><div class='respDiv'><div class='respDivL'>Match<br>(e)</div><div class='respDivR'><font style='color:orange'>No Match<br>(i)</font></div></div></div>","null","FEEDBACK","","","","","","","","","","",""
"html-keyboard-response","135","358382","0.0-7.0-1.20","63fba157c9ebcb0ba6397872","bdp_wmem","Sun Mar 12 2023 16:40:30 GMT-0500 (Central Daylight Time)","618791","Match,No Match","","null","","","","","","<div class='trialBorder'><div class='vertical-center'><img src='img/fixation2_sml.jpg'</img></div></div>","null","FIX","","","","","","","","","","",""
"html-keyboard-response","136","361385","0.0-7.0-2.20","63fba157c9ebcb0ba6397872","bdp_wmem","Sun Mar 12 2023 16:40:30 GMT-0500 (Central Daylight Time)","618791","Match,No Match","","null","","","","","","<div class='trialBorder'><div class='vertical-center'><img style='vertical-align:center; align:center' src='img/fixation2_sml.jpg'></div><div class='arrayDiv2'><div class='tl'><img class='introPic' src='trustrating_stim/white_mw003.bmp'><br><font color='red'><strong>Keep</strong></font></div><div class='tr'><img class='introPic' src='trustrating_stim/white_mw040.bmp'><br><font color='green'><strong>Share</strong></font></div></div></div>","null","ARRAY","2","trustrating_stim/white_mw003.bmp,trustrating_stim/white_mw040.bmp","0,1","Match","e","3000","","","","",""
"html-keyboard-response","137","365394","0.0-7.0-3.20","63fba157c9ebcb0ba6397872","bdp_wmem","Sun Mar 12 2023 16:40:30 GMT-0500 (Central Daylight Time)","618791","Match,No Match","","null","","","","","","<div class='trialBorder'><div class='vertical-center'><img src='img/fixation2_sml.jpg'</img></div></div>","null","DELAY","","","","","","","","","","",""
"html-keyboard-response","138","366634","0.0-7.0-4.20","63fba157c9ebcb0ba6397872","bdp_wmem","Sun Mar 12 2023 16:40:30 GMT-0500 (Central Daylight Time)","618791","Match,No Match","","1237","","","","","","<div class='trialBorder'><div class='targDiv'><div class='tc'><img class='introPic' src='trustrating_stim/white_mw040.bmp'><br><font color='green'><strong>Share</strong></font></div></div><div class='respDiv'><div class='respDivL'>Match<br>(e)</div><div class='respDivR'>No Match<br>(i)</div></div></div>","e","TARGET","2","trustrating_stim/white_mw003.bmp,trustrating_stim/white_mw040.bmp","0,1","Match","e","3000","trustrating_stim/white_mw040.bmp","green","Share","REAL","1"
"html-keyboard-response","139","367138","0.0-7.0-5.20","63fba157c9ebcb0ba6397872","bdp_wmem","Sun Mar 12 2023 16:40:30 GMT-0500 (Central Daylight Time)","618791","Match,No Match","","null","","","","","","<div class='trialBorder'><div class='vertical-center'><img src='img/correct.jpg'></div><div class='respDiv'><div class='respDivL'><font style='color:orange'>Match<br>(e)</font></div><div class='respDivR'>No Match<br>(i)</div></div></div>","null","FEEDBACK","","","","","","","","","","",""
"html-keyboard-response","140","367648","0.0-7.0-1.21","63fba157c9ebcb0ba6397872","bdp_wmem","Sun Mar 12 2023 16:40:30 GMT-0500 (Central Daylight Time)","618791","Match,No Match","","null","","","","","","<div class='trialBorder'><div class='vertical-center'><img src='img/fixation2_sml.jpg'</img></div></div>","null","FIX","","","","","","","","","","",""
"html-keyboard-response","141","372150","0.0-7.0-2.21","63fba157c9ebcb0ba6397872","bdp_wmem","Sun Mar 12 2023 16:40:30 GMT-0500 (Central Daylight Time)","618791","Match,No Match","","null","","","","","","<div class='trialBorder'><div class='vertical-center'><img style='vertical-align:center; align:center' src='img/fixation2_sml.jpg'></div><div class='arrayDiv3'><div class='tl'><img class='introPic' src='trustrating_stim/white_mw070.bmp'><br><font color='red'><strong>Keep</strong></font></div><div class='tc'><img class='introPic' src='trustrating_stim/white_mw085.bmp'><br><font color='red'><strong>Keep</strong></font></div><div class='tr'><img class='introPic' src='trustrating_stim/white_mw042.bmp'><br><font color='green'><strong>Share</strong></font></div></div></div>","null","ARRAY","3","trustrating_stim/white_mw070.bmp,trustrating_stim/white_mw085.bmp,trustrating_stim/white_mw042.bmp","0,0,1","noMatchFace","i","4500","","","","",""
"html-keyboard-response","142","376159","0.0-7.0-3.21","63fba157c9ebcb0ba6397872","bdp_wmem","Sun Mar 12 2023 16:40:30 GMT-0500 (Central Daylight Time)","618791","Match,No Match","","null","","","","","","<div class='trialBorder'><div class='vertical-center'><img src='img/fixation2_sml.jpg'</img></div></div>","null","DELAY","","","","","","","","","","",""
"html-keyboard-response","143","377344","0.0-7.0-4.21","63fba157c9ebcb0ba6397872","bdp_wmem","Sun Mar 12 2023 16:40:30 GMT-0500 (Central Daylight Time)","618791","Match,No Match","","1182","","","","","","<div class='trialBorder'><div class='targDiv'><div class='tc'><img class='introPic' src='trustrating_stim/white_mw010.bmp'><br><font color='red'><strong>Keep</strong></font></div></div><div class='respDiv'><div class='respDivL'>Match<br>(e)</div><div class='respDivR'>No Match<br>(i)</div></div></div>","i","TARGET","3","trustrating_stim/white_mw070.bmp,trustrating_stim/white_mw085.bmp,trustrating_stim/white_mw042.bmp","0,0,1","noMatchFace","i","4500","trustrating_stim/white_mw010.bmp","red","Keep","REAL","1"
"html-keyboard-response","144","377853","0.0-7.0-5.21","63fba157c9ebcb0ba6397872","bdp_wmem","Sun Mar 12 2023 16:40:30 GMT-0500 (Central Daylight Time)","618791","Match,No Match","","null","","","","","","<div class='trialBorder'><div class='vertical-center'><img src='img/correct.jpg'></div><div class='respDiv'><div class='respDivL'>Match<br>(e)</div><div class='respDivR'><font style='color:orange'>No Match<br>(i)</font></div></div></div>","null","FEEDBACK","","","","","","","","","","",""
"html-keyboard-response","145","378355","0.0-7.0-1.22","63fba157c9ebcb0ba6397872","bdp_wmem","Sun Mar 12 2023 16:40:30 GMT-0500 (Central Daylight Time)","618791","Match,No Match","","null","","","","","","<div class='trialBorder'><div class='vertical-center'><img src='img/fixation2_sml.jpg'</img></div></div>","null","FIX","","","","","","","","","","",""
"html-keyboard-response","146","381363","0.0-7.0-2.22","63fba157c9ebcb0ba6397872","bdp_wmem","Sun Mar 12 2023 16:40:30 GMT-0500 (Central Daylight Time)","618791","Match,No Match","","null","","","","","","<div class='trialBorder'><div class='vertical-center'><img style='vertical-align:center; align:center' src='img/fixation2_sml.jpg'></div><div class='arrayDiv2'><div class='tl'><img class='introPic' src='trustrating_stim/white_mw040.bmp'><br><font color='green'><strong>Share</strong></font></div><div class='tr'><img class='introPic' src='trustrating_stim/white_mw010.bmp'><br><font color='red'><strong>Keep</strong></font></div></div></div>","null","ARRAY","2","trustrating_stim/white_mw040.bmp,trustrating_stim/white_mw010.bmp","1,0","noMatchOutcome","i","3000","","","","",""
"html-keyboard-response","147","385371","0.0-7.0-3.22","63fba157c9ebcb0ba6397872","bdp_wmem","Sun Mar 12 2023 16:40:30 GMT-0500 (Central Daylight Time)","618791","Match,No Match","","null","","","","","","<div class='trialBorder'><div class='vertical-center'><img src='img/fixation2_sml.jpg'</img></div></div>","null","DELAY","","","","","","","","","","",""
"html-keyboard-response","148","386705","0.0-7.0-4.22","63fba157c9ebcb0ba6397872","bdp_wmem","Sun Mar 12 2023 16:40:30 GMT-0500 (Central Daylight Time)","618791","Match,No Match","","1332","","","","","","<div class='trialBorder'><div class='targDiv'><div class='tc'><img class='introPic' src='trustrating_stim/white_mw010.bmp'><br><font color='green'><strong>Share</strong></font></div></div><div class='respDiv'><div class='respDivL'>Match<br>(e)</div><div class='respDivR'>No Match<br>(i)</div></div></div>","i","TARGET","2","trustrating_stim/white_mw040.bmp,trustrating_stim/white_mw010.bmp","1,0","noMatchOutcome","i","3000","trustrating_stim/white_mw010.bmp","green","Share","REAL","1"
"html-keyboard-response","149","387208","0.0-7.0-5.22","63fba157c9ebcb0ba6397872","bdp_wmem","Sun Mar 12 2023 16:40:30 GMT-0500 (Central Daylight Time)","618791","Match,No Match","","null","","","","","","<div class='trialBorder'><div class='vertical-center'><img src='img/correct.jpg'></div><div class='respDiv'><div class='respDivL'>Match<br>(e)</div><div class='respDivR'><font style='color:orange'>No Match<br>(i)</font></div></div></div>","null","FEEDBACK","","","","","","","","","","",""
"html-keyboard-response","150","387720","0.0-7.0-1.23","63fba157c9ebcb0ba6397872","bdp_wmem","Sun Mar 12 2023 16:40:30 GMT-0500 (Central Daylight Time)","618791","Match,No Match","","null","","","","","","<div class='trialBorder'><div class='vertical-center'><img src='img/fixation2_sml.jpg'</img></div></div>","null","FIX","","","","","","","","","","",""
"html-keyboard-response","151","390723","0.0-7.0-2.23","63fba157c9ebcb0ba6397872","bdp_wmem","Sun Mar 12 2023 16:40:30 GMT-0500 (Central Daylight Time)","618791","Match,No Match","","null","","","","","","<div class='trialBorder'><div class='vertical-center'><img style='vertical-align:center; align:center' src='img/fixation2_sml.jpg'></div><div class='arrayDiv2'><div class='tl'><img class='introPic' src='trustrating_stim/white_mw091.bmp'><br><font color='green'><strong>Share</strong></font></div><div class='tr'><img class='introPic' src='trustrating_stim/white_mw085.bmp'><br><font color='red'><strong>Keep</strong></font></div></div></div>","null","ARRAY","2","trustrating_stim/white_mw091.bmp,trustrating_stim/white_mw085.bmp","1,0","Match","e","3000","","","","",""
"html-keyboard-response","152","394729","0.0-7.0-3.23","63fba157c9ebcb0ba6397872","bdp_wmem","Sun Mar 12 2023 16:40:30 GMT-0500 (Central Daylight Time)","618791","Match,No Match","","null","","","","","","<div class='trialBorder'><div class='vertical-center'><img src='img/fixation2_sml.jpg'</img></div></div>","null","DELAY","","","","","","","","","","",""
"html-keyboard-response","153","395459","0.0-7.0-4.23","63fba157c9ebcb0ba6397872","bdp_wmem","Sun Mar 12 2023 16:40:30 GMT-0500 (Central Daylight Time)","618791","Match,No Match","","727","","","","","","<div class='trialBorder'><div class='targDiv'><div class='tc'><img class='introPic' src='trustrating_stim/white_mw091.bmp'><br><font color='green'><strong>Share</strong></font></div></div><div class='respDiv'><div class='respDivL'>Match<br>(e)</div><div class='respDivR'>No Match<br>(i)</div></div></div>","e","TARGET","2","trustrating_stim/white_mw091.bmp,trustrating_stim/white_mw085.bmp","1,0","Match","e","3000","trustrating_stim/white_mw091.bmp","green","Share","REAL","1"
"html-keyboard-response","154","395964","0.0-7.0-5.23","63fba157c9ebcb0ba6397872","bdp_wmem","Sun Mar 12 2023 16:40:30 GMT-0500 (Central Daylight Time)","618791","Match,No Match","","null","","","","","","<div class='trialBorder'><div class='vertical-center'><img src='img/correct.jpg'></div><div class='respDiv'><div class='respDivL'><font style='color:orange'>Match<br>(e)</font></div><div class='respDivR'>No Match<br>(i)</div></div></div>","null","FEEDBACK","","","","","","","","","","",""
"html-keyboard-response","155","396473","0.0-7.0-1.24","63fba157c9ebcb0ba6397872","bdp_wmem","Sun Mar 12 2023 16:40:30 GMT-0500 (Central Daylight Time)","618791","Match,No Match","","null","","","","","","<div class='trialBorder'><div class='vertical-center'><img src='img/fixation2_sml.jpg'</img></div></div>","null","FIX","","","","","","","","","","",""
"html-keyboard-response","156","397980","0.0-7.0-2.24","63fba157c9ebcb0ba6397872","bdp_wmem","Sun Mar 12 2023 16:40:30 GMT-0500 (Central Daylight Time)","618791","Match,No Match","","null","","","","","","<div class='trialBorder'><div class='vertical-center'><img style='vertical-align:center; align:center' src='img/fixation2_sml.jpg'></div><div class='arrayDiv1'><div class='tc'><img class='introPic' src='trustrating_stim/white_mw040.bmp'><br><font color='green'><strong>Share</strong></font></div></div></div>","null","ARRAY","1","trustrating_stim/white_mw040.bmp","1","noMatchFace","i","1500","","","","",""
"html-keyboard-response","157","401984","0.0-7.0-3.24","63fba157c9ebcb0ba6397872","bdp_wmem","Sun Mar 12 2023 16:40:30 GMT-0500 (Central Daylight Time)","618791","Match,No Match","","null","","","","","","<div class='trialBorder'><div class='vertical-center'><img src='img/fixation2_sml.jpg'</img></div></div>","null","DELAY","","","","","","","","","","",""
"html-keyboard-response","158","403026","0.0-7.0-4.24","63fba157c9ebcb0ba6397872","bdp_wmem","Sun Mar 12 2023 16:40:30 GMT-0500 (Central Daylight Time)","618791","Match,No Match","","1041","","","","","","<div class='trialBorder'><div class='targDiv'><div class='tc'><img class='introPic' src='trustrating_stim/white_mw038.bmp'><br><font color='green'><strong>Share</strong></font></div></div><div class='respDiv'><div class='respDivL'>Match<br>(e)</div><div class='respDivR'>No Match<br>(i)</div></div></div>","i","TARGET","1","trustrating_stim/white_mw040.bmp","1","noMatchFace","i","1500","trustrating_stim/white_mw038.bmp","green","Share","REAL","1"
"html-keyboard-response","159","403544","0.0-7.0-5.24","63fba157c9ebcb0ba6397872","bdp_wmem","Sun Mar 12 2023 16:40:30 GMT-0500 (Central Daylight Time)","618791","Match,No Match","","null","","","","","","<div class='trialBorder'><div class='vertical-center'><img src='img/correct.jpg'></div><div class='respDiv'><div class='respDivL'>Match<br>(e)</div><div class='respDivR'><font style='color:orange'>No Match<br>(i)</font></div></div></div>","null","FEEDBACK","","","","","","","","","","",""
"html-keyboard-response","160","404053","0.0-7.0-1.25","63fba157c9ebcb0ba6397872","bdp_wmem","Sun Mar 12 2023 16:40:30 GMT-0500 (Central Daylight Time)","618791","Match,No Match","","null","","","","","","<div class='trialBorder'><div class='vertical-center'><img src='img/fixation2_sml.jpg'</img></div></div>","null","FIX","","","","","","","","","","",""
"html-keyboard-response","161","408557","0.0-7.0-2.25","63fba157c9ebcb0ba6397872","bdp_wmem","Sun Mar 12 2023 16:40:30 GMT-0500 (Central Daylight Time)","618791","Match,No Match","","null","","","","","","<div class='trialBorder'><div class='vertical-center'><img style='vertical-align:center; align:center' src='img/fixation2_sml.jpg'></div><div class='arrayDiv3'><div class='tl'><img class='introPic' src='trustrating_stim/white_mw078.bmp'><br><font color='green'><strong>Share</strong></font></div><div class='tc'><img class='introPic' src='trustrating_stim/white_mw042.bmp'><br><font color='red'><strong>Keep</strong></font></div><div class='tr'><img class='introPic' src='trustrating_stim/white_mw040.bmp'><br><font color='green'><strong>Share</strong></font></div></div></div>","null","ARRAY","3","trustrating_stim/white_mw078.bmp,trustrating_stim/white_mw042.bmp,trustrating_stim/white_mw040.bmp","1,0,1","noMatchOutcome","i","4500","","","","",""
"html-keyboard-response","162","412560","0.0-7.0-3.25","63fba157c9ebcb0ba6397872","bdp_wmem","Sun Mar 12 2023 16:40:30 GMT-0500 (Central Daylight Time)","618791","Match,No Match","","null","","","","","","<div class='trialBorder'><div class='vertical-center'><img src='img/fixation2_sml.jpg'</img></div></div>","null","DELAY","","","","","","","","","","",""
"html-keyboard-response","163","413531","0.0-7.0-4.25","63fba157c9ebcb0ba6397872","bdp_wmem","Sun Mar 12 2023 16:40:30 GMT-0500 (Central Daylight Time)","618791","Match,No Match","","969","","","","","","<div class='trialBorder'><div class='targDiv'><div class='tc'><img class='introPic' src='trustrating_stim/white_mw078.bmp'><br><font color='red'><strong>Keep</strong></font></div></div><div class='respDiv'><div class='respDivL'>Match<br>(e)</div><div class='respDivR'>No Match<br>(i)</div></div></div>","i","TARGET","3","trustrating_stim/white_mw078.bmp,trustrating_stim/white_mw042.bmp,trustrating_stim/white_mw040.bmp","1,0,1","noMatchOutcome","i","4500","trustrating_stim/white_mw078.bmp","red","Keep","REAL","1"
"html-keyboard-response","164","414040","0.0-7.0-5.25","63fba157c9ebcb0ba6397872","bdp_wmem","Sun Mar 12 2023 16:40:30 GMT-0500 (Central Daylight Time)","618791","Match,No Match","","null","","","","","","<div class='trialBorder'><div class='vertical-center'><img src='img/correct.jpg'></div><div class='respDiv'><div class='respDivL'>Match<br>(e)</div><div class='respDivR'><font style='color:orange'>No Match<br>(i)</font></div></div></div>","null","FEEDBACK","","","","","","","","","","",""
"html-keyboard-response","165","414546","0.0-7.0-1.26","63fba157c9ebcb0ba6397872","bdp_wmem","Sun Mar 12 2023 16:40:30 GMT-0500 (Central Daylight Time)","618791","Match,No Match","","null","","","","","","<div class='trialBorder'><div class='vertical-center'><img src='img/fixation2_sml.jpg'</img></div></div>","null","FIX","","","","","","","","","","",""
"html-keyboard-response","166","416053","0.0-7.0-2.26","63fba157c9ebcb0ba6397872","bdp_wmem","Sun Mar 12 2023 16:40:30 GMT-0500 (Central Daylight Time)","618791","Match,No Match","","null","","","","","","<div class='trialBorder'><div class='vertical-center'><img style='vertical-align:center; align:center' src='img/fixation2_sml.jpg'></div><div class='arrayDiv1'><div class='tc'><img class='introPic' src='trustrating_stim/white_mw010.bmp'><br><font color='red'><strong>Keep</strong></font></div></div></div>","null","ARRAY","1","trustrating_stim/white_mw010.bmp","0","Match","e","1500","","","","",""
"html-keyboard-response","167","420061","0.0-7.0-3.26","63fba157c9ebcb0ba6397872","bdp_wmem","Sun Mar 12 2023 16:40:30 GMT-0500 (Central Daylight Time)","618791","Match,No Match","","null","","","","","","<div class='trialBorder'><div class='vertical-center'><img src='img/fixation2_sml.jpg'</img></div></div>","null","DELAY","","","","","","","","","","",""
"html-keyboard-response","168","420961","0.0-7.0-4.26","63fba157c9ebcb0ba6397872","bdp_wmem","Sun Mar 12 2023 16:40:30 GMT-0500 (Central Daylight Time)","618791","Match,No Match","","899","","","","","","<div class='trialBorder'><div class='targDiv'><div class='tc'><img class='introPic' src='trustrating_stim/white_mw010.bmp'><br><font color='red'><strong>Keep</strong></font></div></div><div class='respDiv'><div class='respDivL'>Match<br>(e)</div><div class='respDivR'>No Match<br>(i)</div></div></div>","e","TARGET","1","trustrating_stim/white_mw010.bmp","0","Match","e","1500","trustrating_stim/white_mw010.bmp","red","Keep","REAL","1"
"html-keyboard-response","169","421469","0.0-7.0-5.26","63fba157c9ebcb0ba6397872","bdp_wmem","Sun Mar 12 2023 16:40:30 GMT-0500 (Central Daylight Time)","618791","Match,No Match","","null","","","","","","<div class='trialBorder'><div class='vertical-center'><img src='img/correct.jpg'></div><div class='respDiv'><div class='respDivL'><font style='color:orange'>Match<br>(e)</font></div><div class='respDivR'>No Match<br>(i)</div></div></div>","null","FEEDBACK","","","","","","","","","","",""
"html-keyboard-response","170","421976","0.0-7.0-1.27","63fba157c9ebcb0ba6397872","bdp_wmem","Sun Mar 12 2023 16:40:30 GMT-0500 (Central Daylight Time)","618791","Match,No Match","","null","","","","","","<div class='trialBorder'><div class='vertical-center'><img src='img/fixation2_sml.jpg'</img></div></div>","null","FIX","","","","","","","","","","",""
"html-keyboard-response","171","424981","0.0-7.0-2.27","63fba157c9ebcb0ba6397872","bdp_wmem","Sun Mar 12 2023 16:40:30 GMT-0500 (Central Daylight Time)","618791","Match,No Match","","null","","","","","","<div class='trialBorder'><div class='vertical-center'><img style='vertical-align:center; align:center' src='img/fixation2_sml.jpg'></div><div class='arrayDiv2'><div class='tl'><img class='introPic' src='trustrating_stim/white_mw038.bmp'><br><font color='red'><strong>Keep</strong></font></div><div class='tr'><img class='introPic' src='trustrating_stim/white_mw040.bmp'><br><font color='green'><strong>Share</strong></font></div></div></div>","null","ARRAY","2","trustrating_stim/white_mw038.bmp,trustrating_stim/white_mw040.bmp","0,1","noMatchOutcome","i","3000","","","","",""
"html-keyboard-response","172","428990","0.0-7.0-3.27","63fba157c9ebcb0ba6397872","bdp_wmem","Sun Mar 12 2023 16:40:30 GMT-0500 (Central Daylight Time)","618791","Match,No Match","","null","","","","","","<div class='trialBorder'><div class='vertical-center'><img src='img/fixation2_sml.jpg'</img></div></div>","null","DELAY","","","","","","","","","","",""
"html-keyboard-response","173","429947","0.0-7.0-4.27","63fba157c9ebcb0ba6397872","bdp_wmem","Sun Mar 12 2023 16:40:30 GMT-0500 (Central Daylight Time)","618791","Match,No Match","","954","","","","","","<div class='trialBorder'><div class='targDiv'><div class='tc'><img class='introPic' src='trustrating_stim/white_mw038.bmp'><br><font color='green'><strong>Share</strong></font></div></div><div class='respDiv'><div class='respDivL'>Match<br>(e)</div><div class='respDivR'>No Match<br>(i)</div></div></div>","i","TARGET","2","trustrating_stim/white_mw038.bmp,trustrating_stim/white_mw040.bmp","0,1","noMatchOutcome","i","3000","trustrating_stim/white_mw038.bmp","green","Share","REAL","1"
"html-keyboard-response","174","430456","0.0-7.0-5.27","63fba157c9ebcb0ba6397872","bdp_wmem","Sun Mar 12 2023 16:40:30 GMT-0500 (Central Daylight Time)","618791","Match,No Match","","null","","","","","","<div class='trialBorder'><div class='vertical-center'><img src='img/correct.jpg'></div><div class='respDiv'><div class='respDivL'>Match<br>(e)</div><div class='respDivR'><font style='color:orange'>No Match<br>(i)</font></div></div></div>","null","FEEDBACK","","","","","","","","","","",""
"html-keyboard-response","175","430962","0.0-7.0-1.28","63fba157c9ebcb0ba6397872","bdp_wmem","Sun Mar 12 2023 16:40:30 GMT-0500 (Central Daylight Time)","618791","Match,No Match","","null","","","","","","<div class='trialBorder'><div class='vertical-center'><img src='img/fixation2_sml.jpg'</img></div></div>","null","FIX","","","","","","","","","","",""
"html-keyboard-response","176","435466","0.0-7.0-2.28","63fba157c9ebcb0ba6397872","bdp_wmem","Sun Mar 12 2023 16:40:30 GMT-0500 (Central Daylight Time)","618791","Match,No Match","","null","","","","","","<div class='trialBorder'><div class='vertical-center'><img style='vertical-align:center; align:center' src='img/fixation2_sml.jpg'></div><div class='arrayDiv3'><div class='tl'><img class='introPic' src='trustrating_stim/white_mw092.bmp'><br><font color='red'><strong>Keep</strong></font></div><div class='tc'><img class='introPic' src='trustrating_stim/white_mw042.bmp'><br><font color='red'><strong>Keep</strong></font></div><div class='tr'><img class='introPic' src='trustrating_stim/white_mw003.bmp'><br><font color='green'><strong>Share</strong></font></div></div></div>","null","ARRAY","3","trustrating_stim/white_mw092.bmp,trustrating_stim/white_mw042.bmp,trustrating_stim/white_mw003.bmp","0,0,1","noMatchOutcome","i","4500","","","","",""
"html-keyboard-response","177","439473","0.0-7.0-3.28","63fba157c9ebcb0ba6397872","bdp_wmem","Sun Mar 12 2023 16:40:30 GMT-0500 (Central Daylight Time)","618791","Match,No Match","","null","","","","","","<div class='trialBorder'><div class='vertical-center'><img src='img/fixation2_sml.jpg'</img></div></div>","null","DELAY","","","","","","","","","","",""
"html-keyboard-response","178","442366","0.0-7.0-4.28","63fba157c9ebcb0ba6397872","bdp_wmem","Sun Mar 12 2023 16:40:30 GMT-0500 (Central Daylight Time)","618791","Match,No Match","","2892","","","","","","<div class='trialBorder'><div class='targDiv'><div class='tc'><img class='introPic' src='trustrating_stim/white_mw003.bmp'><br><font color='red'><strong>Keep</strong></font></div></div><div class='respDiv'><div class='respDivL'>Match<br>(e)</div><div class='respDivR'>No Match<br>(i)</div></div></div>","i","TARGET","3","trustrating_stim/white_mw092.bmp,trustrating_stim/white_mw042.bmp,trustrating_stim/white_mw003.bmp","0,0,1","noMatchOutcome","i","4500","trustrating_stim/white_mw003.bmp","red","Keep","REAL","1"
"html-keyboard-response","179","442875","0.0-7.0-5.28","63fba157c9ebcb0ba6397872","bdp_wmem","Sun Mar 12 2023 16:40:30 GMT-0500 (Central Daylight Time)","618791","Match,No Match","","null","","","","","","<div class='trialBorder'><div class='vertical-center'><img src='img/correct.jpg'></div><div class='respDiv'><div class='respDivL'>Match<br>(e)</div><div class='respDivR'><font style='color:orange'>No Match<br>(i)</font></div></div></div>","null","FEEDBACK","","","","","","","","","","",""
"html-keyboard-response","180","443379","0.0-7.0-1.29","63fba157c9ebcb0ba6397872","bdp_wmem","Sun Mar 12 2023 16:40:30 GMT-0500 (Central Daylight Time)","618791","Match,No Match","","null","","","","","","<div class='trialBorder'><div class='vertical-center'><img src='img/fixation2_sml.jpg'</img></div></div>","null","FIX","","","","","","","","","","",""
"html-keyboard-response","181","447891","0.0-7.0-2.29","63fba157c9ebcb0ba6397872","bdp_wmem","Sun Mar 12 2023 16:40:30 GMT-0500 (Central Daylight Time)","618791","Match,No Match","","null","","","","","","<div class='trialBorder'><div class='vertical-center'><img style='vertical-align:center; align:center' src='img/fixation2_sml.jpg'></div><div class='arrayDiv3'><div class='tl'><img class='introPic' src='trustrating_stim/white_mw038.bmp'><br><font color='green'><strong>Share</strong></font></div><div class='tc'><img class='introPic' src='trustrating_stim/white_mw012.bmp'><br><font color='red'><strong>Keep</strong></font></div><div class='tr'><img class='introPic' src='trustrating_stim/white_mw085.bmp'><br><font color='red'><strong>Keep</strong></font></div></div></div>","null","ARRAY","3","trustrating_stim/white_mw038.bmp,trustrating_stim/white_mw012.bmp,trustrating_stim/white_mw085.bmp","1,0,0","noMatchFace","i","4500","","","","",""
"html-keyboard-response","182","451897","0.0-7.0-3.29","63fba157c9ebcb0ba6397872","bdp_wmem","Sun Mar 12 2023 16:40:30 GMT-0500 (Central Daylight Time)","618791","Match,No Match","","null","","","","","","<div class='trialBorder'><div class='vertical-center'><img src='img/fixation2_sml.jpg'</img></div></div>","null","DELAY","","","","","","","","","","",""
"html-keyboard-response","183","454234","0.0-7.0-4.29","63fba157c9ebcb0ba6397872","bdp_wmem","Sun Mar 12 2023 16:40:30 GMT-0500 (Central Daylight Time)","618791","Match,No Match","","2335","","","","","","<div class='trialBorder'><div class='targDiv'><div class='tc'><img class='introPic' src='trustrating_stim/white_mw003.bmp'><br><font color='green'><strong>Share</strong></font></div></div><div class='respDiv'><div class='respDivL'>Match<br>(e)</div><div class='respDivR'>No Match<br>(i)</div></div></div>","i","TARGET","3","trustrating_stim/white_mw038.bmp,trustrating_stim/white_mw012.bmp,trustrating_stim/white_mw085.bmp","1,0,0","noMatchFace","i","4500","trustrating_stim/white_mw003.bmp","green","Share","REAL","1"
"html-keyboard-response","184","454743","0.0-7.0-5.29","63fba157c9ebcb0ba6397872","bdp_wmem","Sun Mar 12 2023 16:40:30 GMT-0500 (Central Daylight Time)","618791","Match,No Match","","null","","","","","","<div class='trialBorder'><div class='vertical-center'><img src='img/correct.jpg'></div><div class='respDiv'><div class='respDivL'>Match<br>(e)</div><div class='respDivR'><font style='color:orange'>No Match<br>(i)</font></div></div></div>","null","FEEDBACK","","","","","","","","","","",""
"html-keyboard-response","185","455249","0.0-7.0-1.30","63fba157c9ebcb0ba6397872","bdp_wmem","Sun Mar 12 2023 16:40:30 GMT-0500 (Central Daylight Time)","618791","Match,No Match","","null","","","","","","<div class='trialBorder'><div class='vertical-center'><img src='img/fixation2_sml.jpg'</img></div></div>","null","FIX","","","","","","","","","","",""
