"trial_type","trial_index","time_elapsed","internal_node_id","subject_id","task","startTime","totalTime","labels","view_history","rt","event","trial","time","trialtype","success","stimulus","key_press","stimType","arraySize","arrayFaces","arrayOutcomes","matchType","corrResp","arrayDur","targFace","targCol","targOutcome","trialType","corr"
"pavlovia","0","2","0.0-0.0","63d7ddc0c07dd5787084df8e","bdp_wmem","Sun Mar 12 2023 21:53:12 GMT-0700 (Pacific Daylight Time)","593343","Match,No Match","","","","","","","","","","","","","","","","","","","","",""
"instructions","1","1568","0.0-1.0","63d7ddc0c07dd5787084df8e","bdp_wmem","Sun Mar 12 2023 21:53:12 GMT-0700 (Pacific Daylight Time)","593343","Match,No Match","[{""page_index"":0,""viewing_time"":1565}]","1565","","","","","","","","","","","","","","","","","","",""
"","","","","63d7ddc0c07dd5787084df8e","bdp_wmem","Sun Mar 12 2023 21:53:12 GMT-0700 (Pacific Daylight Time)","593343","Match,No Match","","","fullscreenenter","2","3380","fullscreenenter","","","","","","","","","","","","","","",""
"fullscreen","2","4376","0.0-2.0","63d7ddc0c07dd5787084df8e","bdp_wmem","Sun Mar 12 2023 21:53:12 GMT-0700 (Pacific Daylight Time)","593343","Match,No Match","","","","","","","true","","","","","","","","","","","","","",""
"instructions","3","79130","0.0-4.0","63d7ddc0c07dd5787084df8e","bdp_wmem","Sun Mar 12 2023 21:53:12 GMT-0700 (Pacific Daylight Time)","593343","Match,No Match","[{""page_index"":0,""viewing_time"":17889},{""page_index"":1,""viewing_time"":30456},{""page_index"":2,""viewing_time"":8633},{""page_index"":3,""viewing_time"":7139},{""page_index"":4,""viewing_time"":10634}]","74751","","","","","","","","","","","","","","","","","","",""
"html-keyboard-response","4","79637","0.0-5.0-1.0","63d7ddc0c07dd5787084df8e","bdp_wmem","Sun Mar 12 2023 21:53:12 GMT-0700 (Pacific Daylight Time)","593343","Match,No Match","","null","","","","","","<div class='trialBorder'><div class='vertical-center'><img src='img/fixation2_sml.jpg'</img></div></div>","null","FIX","","","","","","","","","","",""
"html-keyboard-response","5","82649","0.0-5.0-2.0","63d7ddc0c07dd5787084df8e","bdp_wmem","Sun Mar 12 2023 21:53:12 GMT-0700 (Pacific Daylight Time)","593343","Match,No Match","","null","","","","","","<div class='trialBorder'><div class='vertical-center'><img style='vertical-align:center; align:center' src='img/fixation2_sml.jpg'></div><div class='arrayDiv2'><div class='tl'><img class='introPic' src='trustrating_stim/white_mw038.bmp'><br><font color='red'><strong>Keep</strong></font></div><div class='tr'><img class='introPic' src='trustrating_stim/white_mw012.bmp'><br><font color='green'><strong>Share</strong></font></div></div></div>","null","ARRAY","2","trustrating_stim/white_mw038.bmp,trustrating_stim/white_mw012.bmp","0,1","noMatchFace","i","3000","","","","",""
"html-keyboard-response","6","86654","0.0-5.0-3.0","63d7ddc0c07dd5787084df8e","bdp_wmem","Sun Mar 12 2023 21:53:12 GMT-0700 (Pacific Daylight Time)","593343","Match,No Match","","null","","","","","","<div class='trialBorder'><div class='vertical-center'><img src='img/fixation2_sml.jpg'</img></div></div>","null","DELAY","","","","","","","","","","",""
"html-keyboard-response","7","91958","0.0-5.0-4.0","63d7ddc0c07dd5787084df8e","bdp_wmem","Sun Mar 12 2023 21:53:12 GMT-0700 (Pacific Daylight Time)","593343","Match,No Match","","5300","","","","","","<div class='trialBorder'><div class='targDiv'><div class='tc'><img class='introPic' src='trustrating_stim/white_mw013.bmp'><br><font color='red'><strong>Keep</strong></font></div></div><div class='respDiv'><div class='respDivL'>Match<br>(e)</div><div class='respDivR'>No Match<br>(i)</div></div></div>","i","TARGET","2","trustrating_stim/white_mw038.bmp,trustrating_stim/white_mw012.bmp","0,1","noMatchFace","i","3000","trustrating_stim/white_mw013.bmp","red","Keep","PRACTICE","1"
"html-keyboard-response","8","92465","0.0-5.0-5.0","63d7ddc0c07dd5787084df8e","bdp_wmem","Sun Mar 12 2023 21:53:12 GMT-0700 (Pacific Daylight Time)","593343","Match,No Match","","null","","","","","","<div class='trialBorder'><div class='vertical-center'><img src='img/correct.jpg'></div><div class='respDiv'><div class='respDivL'>Match<br>(e)</div><div class='respDivR'><font style='color:orange'>No Match<br>(i)</font></div></div></div>","null","FEEDBACK","","","","","","","","","","",""
"html-keyboard-response","9","92973","0.0-5.0-1.1","63d7ddc0c07dd5787084df8e","bdp_wmem","Sun Mar 12 2023 21:53:12 GMT-0700 (Pacific Daylight Time)","593343","Match,No Match","","null","","","","","","<div class='trialBorder'><div class='vertical-center'><img src='img/fixation2_sml.jpg'</img></div></div>","null","FIX","","","","","","","","","","",""
"html-keyboard-response","10","94485","0.0-5.0-2.1","63d7ddc0c07dd5787084df8e","bdp_wmem","Sun Mar 12 2023 21:53:12 GMT-0700 (Pacific Daylight Time)","593343","Match,No Match","","null","","","","","","<div class='trialBorder'><div class='vertical-center'><img style='vertical-align:center; align:center' src='img/fixation2_sml.jpg'></div><div class='arrayDiv1'><div class='tc'><img class='introPic' src='trustrating_stim/white_mw010.bmp'><br><font color='red'><strong>Keep</strong></font></div></div></div>","null","ARRAY","1","trustrating_stim/white_mw010.bmp","0","noMatchFace","i","1500","","","","",""
"html-keyboard-response","11","98496","0.0-5.0-3.1","63d7ddc0c07dd5787084df8e","bdp_wmem","Sun Mar 12 2023 21:53:12 GMT-0700 (Pacific Daylight Time)","593343","Match,No Match","","null","","","","","","<div class='trialBorder'><div class='vertical-center'><img src='img/fixation2_sml.jpg'</img></div></div>","null","DELAY","","","","","","","","","","",""
"html-keyboard-response","12","100322","0.0-5.0-4.1","63d7ddc0c07dd5787084df8e","bdp_wmem","Sun Mar 12 2023 21:53:12 GMT-0700 (Pacific Daylight Time)","593343","Match,No Match","","1823","","","","","","<div class='trialBorder'><div class='targDiv'><div class='tc'><img class='introPic' src='trustrating_stim/white_mw078.bmp'><br><font color='red'><strong>Keep</strong></font></div></div><div class='respDiv'><div class='respDivL'>Match<br>(e)</div><div class='respDivR'>No Match<br>(i)</div></div></div>","i","TARGET","1","trustrating_stim/white_mw010.bmp","0","noMatchFace","i","1500","trustrating_stim/white_mw078.bmp","red","Keep","PRACTICE","1"
"html-keyboard-response","13","100828","0.0-5.0-5.1","63d7ddc0c07dd5787084df8e","bdp_wmem","Sun Mar 12 2023 21:53:12 GMT-0700 (Pacific Daylight Time)","593343","Match,No Match","","null","","","","","","<div class='trialBorder'><div class='vertical-center'><img src='img/correct.jpg'></div><div class='respDiv'><div class='respDivL'>Match<br>(e)</div><div class='respDivR'><font style='color:orange'>No Match<br>(i)</font></div></div></div>","null","FEEDBACK","","","","","","","","","","",""
"html-keyboard-response","14","101335","0.0-5.0-1.2","63d7ddc0c07dd5787084df8e","bdp_wmem","Sun Mar 12 2023 21:53:12 GMT-0700 (Pacific Daylight Time)","593343","Match,No Match","","null","","","","","","<div class='trialBorder'><div class='vertical-center'><img src='img/fixation2_sml.jpg'</img></div></div>","null","FIX","","","","","","","","","","",""
"html-keyboard-response","15","104342","0.0-5.0-2.2","63d7ddc0c07dd5787084df8e","bdp_wmem","Sun Mar 12 2023 21:53:12 GMT-0700 (Pacific Daylight Time)","593343","Match,No Match","","null","","","","","","<div class='trialBorder'><div class='vertical-center'><img style='vertical-align:center; align:center' src='img/fixation2_sml.jpg'></div><div class='arrayDiv2'><div class='tl'><img class='introPic' src='trustrating_stim/white_mw085.bmp'><br><font color='red'><strong>Keep</strong></font></div><div class='tr'><img class='introPic' src='trustrating_stim/white_mw070.bmp'><br><font color='green'><strong>Share</strong></font></div></div></div>","null","ARRAY","2","trustrating_stim/white_mw085.bmp,trustrating_stim/white_mw070.bmp","0,1","Match","e","3000","","","","",""
"html-keyboard-response","16","108348","0.0-5.0-3.2","63d7ddc0c07dd5787084df8e","bdp_wmem","Sun Mar 12 2023 21:53:12 GMT-0700 (Pacific Daylight Time)","593343","Match,No Match","","null","","","","","","<div class='trialBorder'><div class='vertical-center'><img src='img/fixation2_sml.jpg'</img></div></div>","null","DELAY","","","","","","","","","","",""
"html-keyboard-response","17","110136","0.0-5.0-4.2","63d7ddc0c07dd5787084df8e","bdp_wmem","Sun Mar 12 2023 21:53:12 GMT-0700 (Pacific Daylight Time)","593343","Match,No Match","","1785","","","","","","<div class='trialBorder'><div class='targDiv'><div class='tc'><img class='introPic' src='trustrating_stim/white_mw070.bmp'><br><font color='green'><strong>Share</strong></font></div></div><div class='respDiv'><div class='respDivL'>Match<br>(e)</div><div class='respDivR'>No Match<br>(i)</div></div></div>","i","TARGET","2","trustrating_stim/white_mw085.bmp,trustrating_stim/white_mw070.bmp","0,1","Match","e","3000","trustrating_stim/white_mw070.bmp","green","Share","PRACTICE","0"
"html-keyboard-response","18","110646","0.0-5.0-5.2","63d7ddc0c07dd5787084df8e","bdp_wmem","Sun Mar 12 2023 21:53:12 GMT-0700 (Pacific Daylight Time)","593343","Match,No Match","","null","","","","","","<div class='trialBorder'><div class='vertical-center'><img src='img/error.jpg'></div><div class='respDiv'><div class='respDivL'>Match<br>(e)</div><div class='respDivR'><font style='color:orange'>No Match<br>(i)</font></div></div></div>","null","FEEDBACK","","","","","","","","","","",""
"html-keyboard-response","19","111157","0.0-5.0-1.3","63d7ddc0c07dd5787084df8e","bdp_wmem","Sun Mar 12 2023 21:53:12 GMT-0700 (Pacific Daylight Time)","593343","Match,No Match","","null","","","","","","<div class='trialBorder'><div class='vertical-center'><img src='img/fixation2_sml.jpg'</img></div></div>","null","FIX","","","","","","","","","","",""
"html-keyboard-response","20","115667","0.0-5.0-2.3","63d7ddc0c07dd5787084df8e","bdp_wmem","Sun Mar 12 2023 21:53:12 GMT-0700 (Pacific Daylight Time)","593343","Match,No Match","","null","","","","","","<div class='trialBorder'><div class='vertical-center'><img style='vertical-align:center; align:center' src='img/fixation2_sml.jpg'></div><div class='arrayDiv3'><div class='tl'><img class='introPic' src='trustrating_stim/white_mw013.bmp'><br><font color='red'><strong>Keep</strong></font></div><div class='tc'><img class='introPic' src='trustrating_stim/white_mw070.bmp'><br><font color='green'><strong>Share</strong></font></div><div class='tr'><img class='introPic' src='trustrating_stim/white_mw085.bmp'><br><font color='red'><strong>Keep</strong></font></div></div></div>","null","ARRAY","3","trustrating_stim/white_mw013.bmp,trustrating_stim/white_mw070.bmp,trustrating_stim/white_mw085.bmp","0,1,0","noMatchOutcome","i","4500","","","","",""
"html-keyboard-response","21","119678","0.0-5.0-3.3","63d7ddc0c07dd5787084df8e","bdp_wmem","Sun Mar 12 2023 21:53:12 GMT-0700 (Pacific Daylight Time)","593343","Match,No Match","","null","","","","","","<div class='trialBorder'><div class='vertical-center'><img src='img/fixation2_sml.jpg'</img></div></div>","null","DELAY","","","","","","","","","","",""
"html-keyboard-response","22","121591","0.0-5.0-4.3","63d7ddc0c07dd5787084df8e","bdp_wmem","Sun Mar 12 2023 21:53:12 GMT-0700 (Pacific Daylight Time)","593343","Match,No Match","","1909","","","","","","<div class='trialBorder'><div class='targDiv'><div class='tc'><img class='introPic' src='trustrating_stim/white_mw013.bmp'><br><font color='green'><strong>Share</strong></font></div></div><div class='respDiv'><div class='respDivL'>Match<br>(e)</div><div class='respDivR'>No Match<br>(i)</div></div></div>","i","TARGET","3","trustrating_stim/white_mw013.bmp,trustrating_stim/white_mw070.bmp,trustrating_stim/white_mw085.bmp","0,1,0","noMatchOutcome","i","4500","trustrating_stim/white_mw013.bmp","green","Share","PRACTICE","1"
"html-keyboard-response","23","122093","0.0-5.0-5.3","63d7ddc0c07dd5787084df8e","bdp_wmem","Sun Mar 12 2023 21:53:12 GMT-0700 (Pacific Daylight Time)","593343","Match,No Match","","null","","","","","","<div class='trialBorder'><div class='vertical-center'><img src='img/correct.jpg'></div><div class='respDiv'><div class='respDivL'>Match<br>(e)</div><div class='respDivR'><font style='color:orange'>No Match<br>(i)</font></div></div></div>","null","FEEDBACK","","","","","","","","","","",""
"html-keyboard-response","24","122607","0.0-5.0-1.4","63d7ddc0c07dd5787084df8e","bdp_wmem","Sun Mar 12 2023 21:53:12 GMT-0700 (Pacific Daylight Time)","593343","Match,No Match","","null","","","","","","<div class='trialBorder'><div class='vertical-center'><img src='img/fixation2_sml.jpg'</img></div></div>","null","FIX","","","","","","","","","","",""
"html-keyboard-response","25","127120","0.0-5.0-2.4","63d7ddc0c07dd5787084df8e","bdp_wmem","Sun Mar 12 2023 21:53:12 GMT-0700 (Pacific Daylight Time)","593343","Match,No Match","","null","","","","","","<div class='trialBorder'><div class='vertical-center'><img style='vertical-align:center; align:center' src='img/fixation2_sml.jpg'></div><div class='arrayDiv3'><div class='tl'><img class='introPic' src='trustrating_stim/white_mw078.bmp'><br><font color='red'><strong>Keep</strong></font></div><div class='tc'><img class='introPic' src='trustrating_stim/white_mw040.bmp'><br><font color='red'><strong>Keep</strong></font></div><div class='tr'><img class='introPic' src='trustrating_stim/white_mw091.bmp'><br><font color='green'><strong>Share</strong></font></div></div></div>","null","ARRAY","3","trustrating_stim/white_mw078.bmp,trustrating_stim/white_mw040.bmp,trustrating_stim/white_mw091.bmp","0,0,1","Match","e","4500","","","","",""
"html-keyboard-response","26","131124","0.0-5.0-3.4","63d7ddc0c07dd5787084df8e","bdp_wmem","Sun Mar 12 2023 21:53:12 GMT-0700 (Pacific Daylight Time)","593343","Match,No Match","","null","","","","","","<div class='trialBorder'><div class='vertical-center'><img src='img/fixation2_sml.jpg'</img></div></div>","null","DELAY","","","","","","","","","","",""
"html-keyboard-response","27","132423","0.0-5.0-4.4","63d7ddc0c07dd5787084df8e","bdp_wmem","Sun Mar 12 2023 21:53:12 GMT-0700 (Pacific Daylight Time)","593343","Match,No Match","","1296","","","","","","<div class='trialBorder'><div class='targDiv'><div class='tc'><img class='introPic' src='trustrating_stim/white_mw091.bmp'><br><font color='green'><strong>Share</strong></font></div></div><div class='respDiv'><div class='respDivL'>Match<br>(e)</div><div class='respDivR'>No Match<br>(i)</div></div></div>","e","TARGET","3","trustrating_stim/white_mw078.bmp,trustrating_stim/white_mw040.bmp,trustrating_stim/white_mw091.bmp","0,0,1","Match","e","4500","trustrating_stim/white_mw091.bmp","green","Share","PRACTICE","1"
"html-keyboard-response","28","132931","0.0-5.0-5.4","63d7ddc0c07dd5787084df8e","bdp_wmem","Sun Mar 12 2023 21:53:12 GMT-0700 (Pacific Daylight Time)","593343","Match,No Match","","null","","","","","","<div class='trialBorder'><div class='vertical-center'><img src='img/correct.jpg'></div><div class='respDiv'><div class='respDivL'><font style='color:orange'>Match<br>(e)</font></div><div class='respDivR'>No Match<br>(i)</div></div></div>","null","FEEDBACK","","","","","","","","","","",""
"html-keyboard-response","29","133436","0.0-5.0-1.5","63d7ddc0c07dd5787084df8e","bdp_wmem","Sun Mar 12 2023 21:53:12 GMT-0700 (Pacific Daylight Time)","593343","Match,No Match","","null","","","","","","<div class='trialBorder'><div class='vertical-center'><img src='img/fixation2_sml.jpg'</img></div></div>","null","FIX","","","","","","","","","","",""
"html-keyboard-response","30","134951","0.0-5.0-2.5","63d7ddc0c07dd5787084df8e","bdp_wmem","Sun Mar 12 2023 21:53:12 GMT-0700 (Pacific Daylight Time)","593343","Match,No Match","","null","","","","","","<div class='trialBorder'><div class='vertical-center'><img style='vertical-align:center; align:center' src='img/fixation2_sml.jpg'></div><div class='arrayDiv1'><div class='tc'><img class='introPic' src='trustrating_stim/white_mw012.bmp'><br><font color='red'><strong>Keep</strong></font></div></div></div>","null","ARRAY","1","trustrating_stim/white_mw012.bmp","0","Match","e","1500","","","","",""
"html-keyboard-response","31","138957","0.0-5.0-3.5","63d7ddc0c07dd5787084df8e","bdp_wmem","Sun Mar 12 2023 21:53:12 GMT-0700 (Pacific Daylight Time)","593343","Match,No Match","","null","","","","","","<div class='trialBorder'><div class='vertical-center'><img src='img/fixation2_sml.jpg'</img></div></div>","null","DELAY","","","","","","","","","","",""
"html-keyboard-response","32","140412","0.0-5.0-4.5","63d7ddc0c07dd5787084df8e","bdp_wmem","Sun Mar 12 2023 21:53:12 GMT-0700 (Pacific Daylight Time)","593343","Match,No Match","","1452","","","","","","<div class='trialBorder'><div class='targDiv'><div class='tc'><img class='introPic' src='trustrating_stim/white_mw012.bmp'><br><font color='red'><strong>Keep</strong></font></div></div><div class='respDiv'><div class='respDivL'>Match<br>(e)</div><div class='respDivR'>No Match<br>(i)</div></div></div>","e","TARGET","1","trustrating_stim/white_mw012.bmp","0","Match","e","1500","trustrating_stim/white_mw012.bmp","red","Keep","PRACTICE","1"
"html-keyboard-response","33","140919","0.0-5.0-5.5","63d7ddc0c07dd5787084df8e","bdp_wmem","Sun Mar 12 2023 21:53:12 GMT-0700 (Pacific Daylight Time)","593343","Match,No Match","","null","","","","","","<div class='trialBorder'><div class='vertical-center'><img src='img/correct.jpg'></div><div class='respDiv'><div class='respDivL'><font style='color:orange'>Match<br>(e)</font></div><div class='respDivR'>No Match<br>(i)</div></div></div>","null","FEEDBACK","","","","","","","","","","",""
"instructions","34","146475","0.0-6.0","63d7ddc0c07dd5787084df8e","bdp_wmem","Sun Mar 12 2023 21:53:12 GMT-0700 (Pacific Daylight Time)","593343","Match,No Match","[{""page_index"":0,""viewing_time"":5555}]","5555","","","","","","","","","","","","","","","","","","",""
"html-keyboard-response","35","146979","0.0-7.0-1.0","63d7ddc0c07dd5787084df8e","bdp_wmem","Sun Mar 12 2023 21:53:12 GMT-0700 (Pacific Daylight Time)","593343","Match,No Match","","null","","","","","","<div class='trialBorder'><div class='vertical-center'><img src='img/fixation2_sml.jpg'</img></div></div>","null","FIX","","","","","","","","","","",""
"html-keyboard-response","36","149992","0.0-7.0-2.0","63d7ddc0c07dd5787084df8e","bdp_wmem","Sun Mar 12 2023 21:53:12 GMT-0700 (Pacific Daylight Time)","593343","Match,No Match","","null","","","","","","<div class='trialBorder'><div class='vertical-center'><img style='vertical-align:center; align:center' src='img/fixation2_sml.jpg'></div><div class='arrayDiv2'><div class='tl'><img class='introPic' src='trustrating_stim/white_mw012.bmp'><br><font color='green'><strong>Share</strong></font></div><div class='tr'><img class='introPic' src='trustrating_stim/white_mw085.bmp'><br><font color='red'><strong>Keep</strong></font></div></div></div>","null","ARRAY","2","trustrating_stim/white_mw012.bmp,trustrating_stim/white_mw085.bmp","1,0","noMatchFace","i","3000","","","","",""
"html-keyboard-response","37","153997","0.0-7.0-3.0","63d7ddc0c07dd5787084df8e","bdp_wmem","Sun Mar 12 2023 21:53:12 GMT-0700 (Pacific Daylight Time)","593343","Match,No Match","","null","","","","","","<div class='trialBorder'><div class='vertical-center'><img src='img/fixation2_sml.jpg'</img></div></div>","null","DELAY","","","","","","","","","","",""
"html-keyboard-response","38","155336","0.0-7.0-4.0","63d7ddc0c07dd5787084df8e","bdp_wmem","Sun Mar 12 2023 21:53:12 GMT-0700 (Pacific Daylight Time)","593343","Match,No Match","","1335","","","","","","<div class='trialBorder'><div class='targDiv'><div class='tc'><img class='introPic' src='trustrating_stim/white_mw013.bmp'><br><font color='red'><strong>Keep</strong></font></div></div><div class='respDiv'><div class='respDivL'>Match<br>(e)</div><div class='respDivR'>No Match<br>(i)</div></div></div>","e","TARGET","2","trustrating_stim/white_mw012.bmp,trustrating_stim/white_mw085.bmp","1,0","noMatchFace","i","3000","trustrating_stim/white_mw013.bmp","red","Keep","REAL","0"
"html-keyboard-response","39","155845","0.0-7.0-5.0","63d7ddc0c07dd5787084df8e","bdp_wmem","Sun Mar 12 2023 21:53:12 GMT-0700 (Pacific Daylight Time)","593343","Match,No Match","","null","","","","","","<div class='trialBorder'><div class='vertical-center'><img src='img/error.jpg'></div><div class='respDiv'><div class='respDivL'><font style='color:orange'>Match<br>(e)</font></div><div class='respDivR'>No Match<br>(i)</div></div></div>","null","FEEDBACK","","","","","","","","","","",""
"html-keyboard-response","40","156355","0.0-7.0-1.1","63d7ddc0c07dd5787084df8e","bdp_wmem","Sun Mar 12 2023 21:53:12 GMT-0700 (Pacific Daylight Time)","593343","Match,No Match","","null","","","","","","<div class='trialBorder'><div class='vertical-center'><img src='img/fixation2_sml.jpg'</img></div></div>","null","FIX","","","","","","","","","","",""
"html-keyboard-response","41","160861","0.0-7.0-2.1","63d7ddc0c07dd5787084df8e","bdp_wmem","Sun Mar 12 2023 21:53:12 GMT-0700 (Pacific Daylight Time)","593343","Match,No Match","","null","","","","","","<div class='trialBorder'><div class='vertical-center'><img style='vertical-align:center; align:center' src='img/fixation2_sml.jpg'></div><div class='arrayDiv3'><div class='tl'><img class='introPic' src='trustrating_stim/white_mw003.bmp'><br><font color='red'><strong>Keep</strong></font></div><div class='tc'><img class='introPic' src='trustrating_stim/white_mw040.bmp'><br><font color='green'><strong>Share</strong></font></div><div class='tr'><img class='introPic' src='trustrating_stim/white_mw010.bmp'><br><font color='red'><strong>Keep</strong></font></div></div></div>","null","ARRAY","3","trustrating_stim/white_mw003.bmp,trustrating_stim/white_mw040.bmp,trustrating_stim/white_mw010.bmp","0,1,0","Match","e","4500","","","","",""
"html-keyboard-response","42","164869","0.0-7.0-3.1","63d7ddc0c07dd5787084df8e","bdp_wmem","Sun Mar 12 2023 21:53:12 GMT-0700 (Pacific Daylight Time)","593343","Match,No Match","","null","","","","","","<div class='trialBorder'><div class='vertical-center'><img src='img/fixation2_sml.jpg'</img></div></div>","null","DELAY","","","","","","","","","","",""
"html-keyboard-response","43","166977","0.0-7.0-4.1","63d7ddc0c07dd5787084df8e","bdp_wmem","Sun Mar 12 2023 21:53:12 GMT-0700 (Pacific Daylight Time)","593343","Match,No Match","","2105","","","","","","<div class='trialBorder'><div class='targDiv'><div class='tc'><img class='introPic' src='trustrating_stim/white_mw040.bmp'><br><font color='green'><strong>Share</strong></font></div></div><div class='respDiv'><div class='respDivL'>Match<br>(e)</div><div class='respDivR'>No Match<br>(i)</div></div></div>","i","TARGET","3","trustrating_stim/white_mw003.bmp,trustrating_stim/white_mw040.bmp,trustrating_stim/white_mw010.bmp","0,1,0","Match","e","4500","trustrating_stim/white_mw040.bmp","green","Share","REAL","0"
"html-keyboard-response","44","167486","0.0-7.0-5.1","63d7ddc0c07dd5787084df8e","bdp_wmem","Sun Mar 12 2023 21:53:12 GMT-0700 (Pacific Daylight Time)","593343","Match,No Match","","null","","","","","","<div class='trialBorder'><div class='vertical-center'><img src='img/error.jpg'></div><div class='respDiv'><div class='respDivL'>Match<br>(e)</div><div class='respDivR'><font style='color:orange'>No Match<br>(i)</font></div></div></div>","null","FEEDBACK","","","","","","","","","","",""
"html-keyboard-response","45","167996","0.0-7.0-1.2","63d7ddc0c07dd5787084df8e","bdp_wmem","Sun Mar 12 2023 21:53:12 GMT-0700 (Pacific Daylight Time)","593343","Match,No Match","","null","","","","","","<div class='trialBorder'><div class='vertical-center'><img src='img/fixation2_sml.jpg'</img></div></div>","null","FIX","","","","","","","","","","",""
"html-keyboard-response","46","172509","0.0-7.0-2.2","63d7ddc0c07dd5787084df8e","bdp_wmem","Sun Mar 12 2023 21:53:12 GMT-0700 (Pacific Daylight Time)","593343","Match,No Match","","null","","","","","","<div class='trialBorder'><div class='vertical-center'><img style='vertical-align:center; align:center' src='img/fixation2_sml.jpg'></div><div class='arrayDiv3'><div class='tl'><img class='introPic' src='trustrating_stim/white_mw013.bmp'><br><font color='green'><strong>Share</strong></font></div><div class='tc'><img class='introPic' src='trustrating_stim/white_mw010.bmp'><br><font color='red'><strong>Keep</strong></font></div><div class='tr'><img class='introPic' src='trustrating_stim/white_mw092.bmp'><br><font color='red'><strong>Keep</strong></font></div></div></div>","null","ARRAY","3","trustrating_stim/white_mw013.bmp,trustrating_stim/white_mw010.bmp,trustrating_stim/white_mw092.bmp","1,0,0","Match","e","4500","","","","",""
"html-keyboard-response","47","176516","0.0-7.0-3.2","63d7ddc0c07dd5787084df8e","bdp_wmem","Sun Mar 12 2023 21:53:12 GMT-0700 (Pacific Daylight Time)","593343","Match,No Match","","null","","","","","","<div class='trialBorder'><div class='vertical-center'><img src='img/fixation2_sml.jpg'</img></div></div>","null","DELAY","","","","","","","","","","",""
"html-keyboard-response","48","177833","0.0-7.0-4.2","63d7ddc0c07dd5787084df8e","bdp_wmem","Sun Mar 12 2023 21:53:12 GMT-0700 (Pacific Daylight Time)","593343","Match,No Match","","1313","","","","","","<div class='trialBorder'><div class='targDiv'><div class='tc'><img class='introPic' src='trustrating_stim/white_mw010.bmp'><br><font color='red'><strong>Keep</strong></font></div></div><div class='respDiv'><div class='respDivL'>Match<br>(e)</div><div class='respDivR'>No Match<br>(i)</div></div></div>","e","TARGET","3","trustrating_stim/white_mw013.bmp,trustrating_stim/white_mw010.bmp,trustrating_stim/white_mw092.bmp","1,0,0","Match","e","4500","trustrating_stim/white_mw010.bmp","red","Keep","REAL","1"
"html-keyboard-response","49","178343","0.0-7.0-5.2","63d7ddc0c07dd5787084df8e","bdp_wmem","Sun Mar 12 2023 21:53:12 GMT-0700 (Pacific Daylight Time)","593343","Match,No Match","","null","","","","","","<div class='trialBorder'><div class='vertical-center'><img src='img/correct.jpg'></div><div class='respDiv'><div class='respDivL'><font style='color:orange'>Match<br>(e)</font></div><div class='respDivR'>No Match<br>(i)</div></div></div>","null","FEEDBACK","","","","","","","","","","",""
"html-keyboard-response","50","178854","0.0-7.0-1.3","63d7ddc0c07dd5787084df8e","bdp_wmem","Sun Mar 12 2023 21:53:12 GMT-0700 (Pacific Daylight Time)","593343","Match,No Match","","null","","","","","","<div class='trialBorder'><div class='vertical-center'><img src='img/fixation2_sml.jpg'</img></div></div>","null","FIX","","","","","","","","","","",""
"html-keyboard-response","51","181861","0.0-7.0-2.3","63d7ddc0c07dd5787084df8e","bdp_wmem","Sun Mar 12 2023 21:53:12 GMT-0700 (Pacific Daylight Time)","593343","Match,No Match","","null","","","","","","<div class='trialBorder'><div class='vertical-center'><img style='vertical-align:center; align:center' src='img/fixation2_sml.jpg'></div><div class='arrayDiv2'><div class='tl'><img class='introPic' src='trustrating_stim/white_mw085.bmp'><br><font color='green'><strong>Share</strong></font></div><div class='tr'><img class='introPic' src='trustrating_stim/white_mw038.bmp'><br><font color='red'><strong>Keep</strong></font></div></div></div>","null","ARRAY","2","trustrating_stim/white_mw085.bmp,trustrating_stim/white_mw038.bmp","1,0","Match","e","3000","","","","",""
"html-keyboard-response","52","185869","0.0-7.0-3.3","63d7ddc0c07dd5787084df8e","bdp_wmem","Sun Mar 12 2023 21:53:12 GMT-0700 (Pacific Daylight Time)","593343","Match,No Match","","null","","","","","","<div class='trialBorder'><div class='vertical-center'><img src='img/fixation2_sml.jpg'</img></div></div>","null","DELAY","","","","","","","","","","",""
"html-keyboard-response","53","187098","0.0-7.0-4.3","63d7ddc0c07dd5787084df8e","bdp_wmem","Sun Mar 12 2023 21:53:12 GMT-0700 (Pacific Daylight Time)","593343","Match,No Match","","1225","","","","","","<div class='trialBorder'><div class='targDiv'><div class='tc'><img class='introPic' src='trustrating_stim/white_mw038.bmp'><br><font color='red'><strong>Keep</strong></font></div></div><div class='respDiv'><div class='respDivL'>Match<br>(e)</div><div class='respDivR'>No Match<br>(i)</div></div></div>","e","TARGET","2","trustrating_stim/white_mw085.bmp,trustrating_stim/white_mw038.bmp","1,0","Match","e","3000","trustrating_stim/white_mw038.bmp","red","Keep","REAL","1"
"html-keyboard-response","54","187606","0.0-7.0-5.3","63d7ddc0c07dd5787084df8e","bdp_wmem","Sun Mar 12 2023 21:53:12 GMT-0700 (Pacific Daylight Time)","593343","Match,No Match","","null","","","","","","<div class='trialBorder'><div class='vertical-center'><img src='img/correct.jpg'></div><div class='respDiv'><div class='respDivL'><font style='color:orange'>Match<br>(e)</font></div><div class='respDivR'>No Match<br>(i)</div></div></div>","null","FEEDBACK","","","","","","","","","","",""
"html-keyboard-response","55","188118","0.0-7.0-1.4","63d7ddc0c07dd5787084df8e","bdp_wmem","Sun Mar 12 2023 21:53:12 GMT-0700 (Pacific Daylight Time)","593343","Match,No Match","","null","","","","","","<div class='trialBorder'><div class='vertical-center'><img src='img/fixation2_sml.jpg'</img></div></div>","null","FIX","","","","","","","","","","",""
"html-keyboard-response","56","192627","0.0-7.0-2.4","63d7ddc0c07dd5787084df8e","bdp_wmem","Sun Mar 12 2023 21:53:12 GMT-0700 (Pacific Daylight Time)","593343","Match,No Match","","null","","","","","","<div class='trialBorder'><div class='vertical-center'><img style='vertical-align:center; align:center' src='img/fixation2_sml.jpg'></div><div class='arrayDiv3'><div class='tl'><img class='introPic' src='trustrating_stim/white_mw091.bmp'><br><font color='green'><strong>Share</strong></font></div><div class='tc'><img class='introPic' src='trustrating_stim/white_mw003.bmp'><br><font color='red'><strong>Keep</strong></font></div><div class='tr'><img class='introPic' src='trustrating_stim/white_mw078.bmp'><br><font color='red'><strong>Keep</strong></font></div></div></div>","null","ARRAY","3","trustrating_stim/white_mw091.bmp,trustrating_stim/white_mw003.bmp,trustrating_stim/white_mw078.bmp","1,0,0","Match","e","4500","","","","",""
"html-keyboard-response","57","196634","0.0-7.0-3.4","63d7ddc0c07dd5787084df8e","bdp_wmem","Sun Mar 12 2023 21:53:12 GMT-0700 (Pacific Daylight Time)","593343","Match,No Match","","null","","","","","","<div class='trialBorder'><div class='vertical-center'><img src='img/fixation2_sml.jpg'</img></div></div>","null","DELAY","","","","","","","","","","",""
"html-keyboard-response","58","197832","0.0-7.0-4.4","63d7ddc0c07dd5787084df8e","bdp_wmem","Sun Mar 12 2023 21:53:12 GMT-0700 (Pacific Daylight Time)","593343","Match,No Match","","1194","","","","","","<div class='trialBorder'><div class='targDiv'><div class='tc'><img class='introPic' src='trustrating_stim/white_mw091.bmp'><br><font color='green'><strong>Share</strong></font></div></div><div class='respDiv'><div class='respDivL'>Match<br>(e)</div><div class='respDivR'>No Match<br>(i)</div></div></div>","e","TARGET","3","trustrating_stim/white_mw091.bmp,trustrating_stim/white_mw003.bmp,trustrating_stim/white_mw078.bmp","1,0,0","Match","e","4500","trustrating_stim/white_mw091.bmp","green","Share","REAL","1"
"html-keyboard-response","59","198341","0.0-7.0-5.4","63d7ddc0c07dd5787084df8e","bdp_wmem","Sun Mar 12 2023 21:53:12 GMT-0700 (Pacific Daylight Time)","593343","Match,No Match","","null","","","","","","<div class='trialBorder'><div class='vertical-center'><img src='img/correct.jpg'></div><div class='respDiv'><div class='respDivL'><font style='color:orange'>Match<br>(e)</font></div><div class='respDivR'>No Match<br>(i)</div></div></div>","null","FEEDBACK","","","","","","","","","","",""
"html-keyboard-response","60","198852","0.0-7.0-1.5","63d7ddc0c07dd5787084df8e","bdp_wmem","Sun Mar 12 2023 21:53:12 GMT-0700 (Pacific Daylight Time)","593343","Match,No Match","","null","","","","","","<div class='trialBorder'><div class='vertical-center'><img src='img/fixation2_sml.jpg'</img></div></div>","null","FIX","","","","","","","","","","",""
"html-keyboard-response","61","203362","0.0-7.0-2.5","63d7ddc0c07dd5787084df8e","bdp_wmem","Sun Mar 12 2023 21:53:12 GMT-0700 (Pacific Daylight Time)","593343","Match,No Match","","null","","","","","","<div class='trialBorder'><div class='vertical-center'><img style='vertical-align:center; align:center' src='img/fixation2_sml.jpg'></div><div class='arrayDiv3'><div class='tl'><img class='introPic' src='trustrating_stim/white_mw012.bmp'><br><font color='red'><strong>Keep</strong></font></div><div class='tc'><img class='introPic' src='trustrating_stim/white_mw003.bmp'><br><font color='green'><strong>Share</strong></font></div><div class='tr'><img class='introPic' src='trustrating_stim/white_mw070.bmp'><br><font color='red'><strong>Keep</strong></font></div></div></div>","null","ARRAY","3","trustrating_stim/white_mw012.bmp,trustrating_stim/white_mw003.bmp,trustrating_stim/white_mw070.bmp","0,1,0","noMatchFace","i","4500","","","","",""
"html-keyboard-response","62","207372","0.0-7.0-3.5","63d7ddc0c07dd5787084df8e","bdp_wmem","Sun Mar 12 2023 21:53:12 GMT-0700 (Pacific Daylight Time)","593343","Match,No Match","","null","","","","","","<div class='trialBorder'><div class='vertical-center'><img src='img/fixation2_sml.jpg'</img></div></div>","null","DELAY","","","","","","","","","","",""
"html-keyboard-response","63","208809","0.0-7.0-4.5","63d7ddc0c07dd5787084df8e","bdp_wmem","Sun Mar 12 2023 21:53:12 GMT-0700 (Pacific Daylight Time)","593343","Match,No Match","","1433","","","","","","<div class='trialBorder'><div class='targDiv'><div class='tc'><img class='introPic' src='trustrating_stim/white_mw078.bmp'><br><font color='green'><strong>Share</strong></font></div></div><div class='respDiv'><div class='respDivL'>Match<br>(e)</div><div class='respDivR'>No Match<br>(i)</div></div></div>","e","TARGET","3","trustrating_stim/white_mw012.bmp,trustrating_stim/white_mw003.bmp,trustrating_stim/white_mw070.bmp","0,1,0","noMatchFace","i","4500","trustrating_stim/white_mw078.bmp","green","Share","REAL","0"
"html-keyboard-response","64","209318","0.0-7.0-5.5","63d7ddc0c07dd5787084df8e","bdp_wmem","Sun Mar 12 2023 21:53:12 GMT-0700 (Pacific Daylight Time)","593343","Match,No Match","","null","","","","","","<div class='trialBorder'><div class='vertical-center'><img src='img/error.jpg'></div><div class='respDiv'><div class='respDivL'><font style='color:orange'>Match<br>(e)</font></div><div class='respDivR'>No Match<br>(i)</div></div></div>","null","FEEDBACK","","","","","","","","","","",""
"html-keyboard-response","65","209823","0.0-7.0-1.6","63d7ddc0c07dd5787084df8e","bdp_wmem","Sun Mar 12 2023 21:53:12 GMT-0700 (Pacific Daylight Time)","593343","Match,No Match","","null","","","","","","<div class='trialBorder'><div class='vertical-center'><img src='img/fixation2_sml.jpg'</img></div></div>","null","FIX","","","","","","","","","","",""
"html-keyboard-response","66","211332","0.0-7.0-2.6","63d7ddc0c07dd5787084df8e","bdp_wmem","Sun Mar 12 2023 21:53:12 GMT-0700 (Pacific Daylight Time)","593343","Match,No Match","","null","","","","","","<div class='trialBorder'><div class='vertical-center'><img style='vertical-align:center; align:center' src='img/fixation2_sml.jpg'></div><div class='arrayDiv1'><div class='tc'><img class='introPic' src='trustrating_stim/white_mw012.bmp'><br><font color='red'><strong>Keep</strong></font></div></div></div>","null","ARRAY","1","trustrating_stim/white_mw012.bmp","0","Match","e","1500","","","","",""
"html-keyboard-response","67","215338","0.0-7.0-3.6","63d7ddc0c07dd5787084df8e","bdp_wmem","Sun Mar 12 2023 21:53:12 GMT-0700 (Pacific Daylight Time)","593343","Match,No Match","","null","","","","","","<div class='trialBorder'><div class='vertical-center'><img src='img/fixation2_sml.jpg'</img></div></div>","null","DELAY","","","","","","","","","","",""
"html-keyboard-response","68","216550","0.0-7.0-4.6","63d7ddc0c07dd5787084df8e","bdp_wmem","Sun Mar 12 2023 21:53:12 GMT-0700 (Pacific Daylight Time)","593343","Match,No Match","","1210","","","","","","<div class='trialBorder'><div class='targDiv'><div class='tc'><img class='introPic' src='trustrating_stim/white_mw012.bmp'><br><font color='red'><strong>Keep</strong></font></div></div><div class='respDiv'><div class='respDivL'>Match<br>(e)</div><div class='respDivR'>No Match<br>(i)</div></div></div>","e","TARGET","1","trustrating_stim/white_mw012.bmp","0","Match","e","1500","trustrating_stim/white_mw012.bmp","red","Keep","REAL","1"
"html-keyboard-response","69","217062","0.0-7.0-5.6","63d7ddc0c07dd5787084df8e","bdp_wmem","Sun Mar 12 2023 21:53:12 GMT-0700 (Pacific Daylight Time)","593343","Match,No Match","","null","","","","","","<div class='trialBorder'><div class='vertical-center'><img src='img/correct.jpg'></div><div class='respDiv'><div class='respDivL'><font style='color:orange'>Match<br>(e)</font></div><div class='respDivR'>No Match<br>(i)</div></div></div>","null","FEEDBACK","","","","","","","","","","",""
"html-keyboard-response","70","217572","0.0-7.0-1.7","63d7ddc0c07dd5787084df8e","bdp_wmem","Sun Mar 12 2023 21:53:12 GMT-0700 (Pacific Daylight Time)","593343","Match,No Match","","null","","","","","","<div class='trialBorder'><div class='vertical-center'><img src='img/fixation2_sml.jpg'</img></div></div>","null","FIX","","","","","","","","","","",""
"html-keyboard-response","71","222085","0.0-7.0-2.7","63d7ddc0c07dd5787084df8e","bdp_wmem","Sun Mar 12 2023 21:53:12 GMT-0700 (Pacific Daylight Time)","593343","Match,No Match","","null","","","","","","<div class='trialBorder'><div class='vertical-center'><img style='vertical-align:center; align:center' src='img/fixation2_sml.jpg'></div><div class='arrayDiv3'><div class='tl'><img class='introPic' src='trustrating_stim/white_mw012.bmp'><br><font color='green'><strong>Share</strong></font></div><div class='tc'><img class='introPic' src='trustrating_stim/white_mw010.bmp'><br><font color='green'><strong>Share</strong></font></div><div class='tr'><img class='introPic' src='trustrating_stim/white_mw040.bmp'><br><font color='red'><strong>Keep</strong></font></div></div></div>","null","ARRAY","3","trustrating_stim/white_mw012.bmp,trustrating_stim/white_mw010.bmp,trustrating_stim/white_mw040.bmp","1,1,0","Match","e","4500","","","","",""
"html-keyboard-response","72","226094","0.0-7.0-3.7","63d7ddc0c07dd5787084df8e","bdp_wmem","Sun Mar 12 2023 21:53:12 GMT-0700 (Pacific Daylight Time)","593343","Match,No Match","","null","","","","","","<div class='trialBorder'><div class='vertical-center'><img src='img/fixation2_sml.jpg'</img></div></div>","null","DELAY","","","","","","","","","","",""
"html-keyboard-response","73","227237","0.0-7.0-4.7","63d7ddc0c07dd5787084df8e","bdp_wmem","Sun Mar 12 2023 21:53:12 GMT-0700 (Pacific Daylight Time)","593343","Match,No Match","","1139","","","","","","<div class='trialBorder'><div class='targDiv'><div class='tc'><img class='introPic' src='trustrating_stim/white_mw040.bmp'><br><font color='red'><strong>Keep</strong></font></div></div><div class='respDiv'><div class='respDivL'>Match<br>(e)</div><div class='respDivR'>No Match<br>(i)</div></div></div>","e","TARGET","3","trustrating_stim/white_mw012.bmp,trustrating_stim/white_mw010.bmp,trustrating_stim/white_mw040.bmp","1,1,0","Match","e","4500","trustrating_stim/white_mw040.bmp","red","Keep","REAL","1"
"html-keyboard-response","74","227747","0.0-7.0-5.7","63d7ddc0c07dd5787084df8e","bdp_wmem","Sun Mar 12 2023 21:53:12 GMT-0700 (Pacific Daylight Time)","593343","Match,No Match","","null","","","","","","<div class='trialBorder'><div class='vertical-center'><img src='img/correct.jpg'></div><div class='respDiv'><div class='respDivL'><font style='color:orange'>Match<br>(e)</font></div><div class='respDivR'>No Match<br>(i)</div></div></div>","null","FEEDBACK","","","","","","","","","","",""
"html-keyboard-response","75","228259","0.0-7.0-1.8","63d7ddc0c07dd5787084df8e","bdp_wmem","Sun Mar 12 2023 21:53:12 GMT-0700 (Pacific Daylight Time)","593343","Match,No Match","","null","","","","","","<div class='trialBorder'><div class='vertical-center'><img src='img/fixation2_sml.jpg'</img></div></div>","null","FIX","","","","","","","","","","",""
"html-keyboard-response","76","232772","0.0-7.0-2.8","63d7ddc0c07dd5787084df8e","bdp_wmem","Sun Mar 12 2023 21:53:12 GMT-0700 (Pacific Daylight Time)","593343","Match,No Match","","null","","","","","","<div class='trialBorder'><div class='vertical-center'><img style='vertical-align:center; align:center' src='img/fixation2_sml.jpg'></div><div class='arrayDiv3'><div class='tl'><img class='introPic' src='trustrating_stim/white_mw042.bmp'><br><font color='red'><strong>Keep</strong></font></div><div class='tc'><img class='introPic' src='trustrating_stim/white_mw092.bmp'><br><font color='red'><strong>Keep</strong></font></div><div class='tr'><img class='introPic' src='trustrating_stim/white_mw085.bmp'><br><font color='green'><strong>Share</strong></font></div></div></div>","null","ARRAY","3","trustrating_stim/white_mw042.bmp,trustrating_stim/white_mw092.bmp,trustrating_stim/white_mw085.bmp","0,0,1","noMatchOutcome","i","4500","","","","",""
"html-keyboard-response","77","236781","0.0-7.0-3.8","63d7ddc0c07dd5787084df8e","bdp_wmem","Sun Mar 12 2023 21:53:12 GMT-0700 (Pacific Daylight Time)","593343","Match,No Match","","null","","","","","","<div class='trialBorder'><div class='vertical-center'><img src='img/fixation2_sml.jpg'</img></div></div>","null","DELAY","","","","","","","","","","",""
"html-keyboard-response","78","238902","0.0-7.0-4.8","63d7ddc0c07dd5787084df8e","bdp_wmem","Sun Mar 12 2023 21:53:12 GMT-0700 (Pacific Daylight Time)","593343","Match,No Match","","2118","","","","","","<div class='trialBorder'><div class='targDiv'><div class='tc'><img class='introPic' src='trustrating_stim/white_mw092.bmp'><br><font color='green'><strong>Share</strong></font></div></div><div class='respDiv'><div class='respDivL'>Match<br>(e)</div><div class='respDivR'>No Match<br>(i)</div></div></div>","i","TARGET","3","trustrating_stim/white_mw042.bmp,trustrating_stim/white_mw092.bmp,trustrating_stim/white_mw085.bmp","0,0,1","noMatchOutcome","i","4500","trustrating_stim/white_mw092.bmp","green","Share","REAL","1"
"html-keyboard-response","79","239410","0.0-7.0-5.8","63d7ddc0c07dd5787084df8e","bdp_wmem","Sun Mar 12 2023 21:53:12 GMT-0700 (Pacific Daylight Time)","593343","Match,No Match","","null","","","","","","<div class='trialBorder'><div class='vertical-center'><img src='img/correct.jpg'></div><div class='respDiv'><div class='respDivL'>Match<br>(e)</div><div class='respDivR'><font style='color:orange'>No Match<br>(i)</font></div></div></div>","null","FEEDBACK","","","","","","","","","","",""
"html-keyboard-response","80","239914","0.0-7.0-1.9","63d7ddc0c07dd5787084df8e","bdp_wmem","Sun Mar 12 2023 21:53:12 GMT-0700 (Pacific Daylight Time)","593343","Match,No Match","","null","","","","","","<div class='trialBorder'><div class='vertical-center'><img src='img/fixation2_sml.jpg'</img></div></div>","null","FIX","","","","","","","","","","",""
"html-keyboard-response","81","241419","0.0-7.0-2.9","63d7ddc0c07dd5787084df8e","bdp_wmem","Sun Mar 12 2023 21:53:12 GMT-0700 (Pacific Daylight Time)","593343","Match,No Match","","null","","","","","","<div class='trialBorder'><div class='vertical-center'><img style='vertical-align:center; align:center' src='img/fixation2_sml.jpg'></div><div class='arrayDiv1'><div class='tc'><img class='introPic' src='trustrating_stim/white_mw003.bmp'><br><font color='red'><strong>Keep</strong></font></div></div></div>","null","ARRAY","1","trustrating_stim/white_mw003.bmp","0","Match","e","1500","","","","",""
"html-keyboard-response","82","245427","0.0-7.0-3.9","63d7ddc0c07dd5787084df8e","bdp_wmem","Sun Mar 12 2023 21:53:12 GMT-0700 (Pacific Daylight Time)","593343","Match,No Match","","null","","","","","","<div class='trialBorder'><div class='vertical-center'><img src='img/fixation2_sml.jpg'</img></div></div>","null","DELAY","","","","","","","","","","",""
"html-keyboard-response","83","246372","0.0-7.0-4.9","63d7ddc0c07dd5787084df8e","bdp_wmem","Sun Mar 12 2023 21:53:12 GMT-0700 (Pacific Daylight Time)","593343","Match,No Match","","942","","","","","","<div class='trialBorder'><div class='targDiv'><div class='tc'><img class='introPic' src='trustrating_stim/white_mw003.bmp'><br><font color='red'><strong>Keep</strong></font></div></div><div class='respDiv'><div class='respDivL'>Match<br>(e)</div><div class='respDivR'>No Match<br>(i)</div></div></div>","e","TARGET","1","trustrating_stim/white_mw003.bmp","0","Match","e","1500","trustrating_stim/white_mw003.bmp","red","Keep","REAL","1"
"html-keyboard-response","84","246876","0.0-7.0-5.9","63d7ddc0c07dd5787084df8e","bdp_wmem","Sun Mar 12 2023 21:53:12 GMT-0700 (Pacific Daylight Time)","593343","Match,No Match","","null","","","","","","<div class='trialBorder'><div class='vertical-center'><img src='img/correct.jpg'></div><div class='respDiv'><div class='respDivL'><font style='color:orange'>Match<br>(e)</font></div><div class='respDivR'>No Match<br>(i)</div></div></div>","null","FEEDBACK","","","","","","","","","","",""
"html-keyboard-response","85","247386","0.0-7.0-1.10","63d7ddc0c07dd5787084df8e","bdp_wmem","Sun Mar 12 2023 21:53:12 GMT-0700 (Pacific Daylight Time)","593343","Match,No Match","","null","","","","","","<div class='trialBorder'><div class='vertical-center'><img src='img/fixation2_sml.jpg'</img></div></div>","null","FIX","","","","","","","","","","",""
"html-keyboard-response","86","250393","0.0-7.0-2.10","63d7ddc0c07dd5787084df8e","bdp_wmem","Sun Mar 12 2023 21:53:12 GMT-0700 (Pacific Daylight Time)","593343","Match,No Match","","null","","","","","","<div class='trialBorder'><div class='vertical-center'><img style='vertical-align:center; align:center' src='img/fixation2_sml.jpg'></div><div class='arrayDiv2'><div class='tl'><img class='introPic' src='trustrating_stim/white_mw038.bmp'><br><font color='green'><strong>Share</strong></font></div><div class='tr'><img class='introPic' src='trustrating_stim/white_mw040.bmp'><br><font color='red'><strong>Keep</strong></font></div></div></div>","null","ARRAY","2","trustrating_stim/white_mw038.bmp,trustrating_stim/white_mw040.bmp","1,0","noMatchOutcome","i","3000","","","","",""
"html-keyboard-response","87","254405","0.0-7.0-3.10","63d7ddc0c07dd5787084df8e","bdp_wmem","Sun Mar 12 2023 21:53:12 GMT-0700 (Pacific Daylight Time)","593343","Match,No Match","","null","","","","","","<div class='trialBorder'><div class='vertical-center'><img src='img/fixation2_sml.jpg'</img></div></div>","null","DELAY","","","","","","","","","","",""
"html-keyboard-response","88","255910","0.0-7.0-4.10","63d7ddc0c07dd5787084df8e","bdp_wmem","Sun Mar 12 2023 21:53:12 GMT-0700 (Pacific Daylight Time)","593343","Match,No Match","","1503","","","","","","<div class='trialBorder'><div class='targDiv'><div class='tc'><img class='introPic' src='trustrating_stim/white_mw040.bmp'><br><font color='green'><strong>Share</strong></font></div></div><div class='respDiv'><div class='respDivL'>Match<br>(e)</div><div class='respDivR'>No Match<br>(i)</div></div></div>","i","TARGET","2","trustrating_stim/white_mw038.bmp,trustrating_stim/white_mw040.bmp","1,0","noMatchOutcome","i","3000","trustrating_stim/white_mw040.bmp","green","Share","REAL","1"
"html-keyboard-response","89","256419","0.0-7.0-5.10","63d7ddc0c07dd5787084df8e","bdp_wmem","Sun Mar 12 2023 21:53:12 GMT-0700 (Pacific Daylight Time)","593343","Match,No Match","","null","","","","","","<div class='trialBorder'><div class='vertical-center'><img src='img/correct.jpg'></div><div class='respDiv'><div class='respDivL'>Match<br>(e)</div><div class='respDivR'><font style='color:orange'>No Match<br>(i)</font></div></div></div>","null","FEEDBACK","","","","","","","","","","",""
"html-keyboard-response","90","256929","0.0-7.0-1.11","63d7ddc0c07dd5787084df8e","bdp_wmem","Sun Mar 12 2023 21:53:12 GMT-0700 (Pacific Daylight Time)","593343","Match,No Match","","null","","","","","","<div class='trialBorder'><div class='vertical-center'><img src='img/fixation2_sml.jpg'</img></div></div>","null","FIX","","","","","","","","","","",""
"html-keyboard-response","91","259938","0.0-7.0-2.11","63d7ddc0c07dd5787084df8e","bdp_wmem","Sun Mar 12 2023 21:53:12 GMT-0700 (Pacific Daylight Time)","593343","Match,No Match","","null","","","","","","<div class='trialBorder'><div class='vertical-center'><img style='vertical-align:center; align:center' src='img/fixation2_sml.jpg'></div><div class='arrayDiv2'><div class='tl'><img class='introPic' src='trustrating_stim/white_mw092.bmp'><br><font color='green'><strong>Share</strong></font></div><div class='tr'><img class='introPic' src='trustrating_stim/white_mw040.bmp'><br><font color='red'><strong>Keep</strong></font></div></div></div>","null","ARRAY","2","trustrating_stim/white_mw092.bmp,trustrating_stim/white_mw040.bmp","1,0","Match","e","3000","","","","",""
"html-keyboard-response","92","263948","0.0-7.0-3.11","63d7ddc0c07dd5787084df8e","bdp_wmem","Sun Mar 12 2023 21:53:12 GMT-0700 (Pacific Daylight Time)","593343","Match,No Match","","null","","","","","","<div class='trialBorder'><div class='vertical-center'><img src='img/fixation2_sml.jpg'</img></div></div>","null","DELAY","","","","","","","","","","",""
"html-keyboard-response","93","265621","0.0-7.0-4.11","63d7ddc0c07dd5787084df8e","bdp_wmem","Sun Mar 12 2023 21:53:12 GMT-0700 (Pacific Daylight Time)","593343","Match,No Match","","1667","","","","","","<div class='trialBorder'><div class='targDiv'><div class='tc'><img class='introPic' src='trustrating_stim/white_mw040.bmp'><br><font color='red'><strong>Keep</strong></font></div></div><div class='respDiv'><div class='respDivL'>Match<br>(e)</div><div class='respDivR'>No Match<br>(i)</div></div></div>","e","TARGET","2","trustrating_stim/white_mw092.bmp,trustrating_stim/white_mw040.bmp","1,0","Match","e","3000","trustrating_stim/white_mw040.bmp","red","Keep","REAL","1"
"html-keyboard-response","94","266123","0.0-7.0-5.11","63d7ddc0c07dd5787084df8e","bdp_wmem","Sun Mar 12 2023 21:53:12 GMT-0700 (Pacific Daylight Time)","593343","Match,No Match","","null","","","","","","<div class='trialBorder'><div class='vertical-center'><img src='img/correct.jpg'></div><div class='respDiv'><div class='respDivL'><font style='color:orange'>Match<br>(e)</font></div><div class='respDivR'>No Match<br>(i)</div></div></div>","null","FEEDBACK","","","","","","","","","","",""
"html-keyboard-response","95","266635","0.0-7.0-1.12","63d7ddc0c07dd5787084df8e","bdp_wmem","Sun Mar 12 2023 21:53:12 GMT-0700 (Pacific Daylight Time)","593343","Match,No Match","","null","","","","","","<div class='trialBorder'><div class='vertical-center'><img src='img/fixation2_sml.jpg'</img></div></div>","null","FIX","","","","","","","","","","",""
"html-keyboard-response","96","271146","0.0-7.0-2.12","63d7ddc0c07dd5787084df8e","bdp_wmem","Sun Mar 12 2023 21:53:12 GMT-0700 (Pacific Daylight Time)","593343","Match,No Match","","null","","","","","","<div class='trialBorder'><div class='vertical-center'><img style='vertical-align:center; align:center' src='img/fixation2_sml.jpg'></div><div class='arrayDiv3'><div class='tl'><img class='introPic' src='trustrating_stim/white_mw070.bmp'><br><font color='green'><strong>Share</strong></font></div><div class='tc'><img class='introPic' src='trustrating_stim/white_mw003.bmp'><br><font color='red'><strong>Keep</strong></font></div><div class='tr'><img class='introPic' src='trustrating_stim/white_mw078.bmp'><br><font color='red'><strong>Keep</strong></font></div></div></div>","null","ARRAY","3","trustrating_stim/white_mw070.bmp,trustrating_stim/white_mw003.bmp,trustrating_stim/white_mw078.bmp","1,0,0","noMatchFace","i","4500","","","","",""
"html-keyboard-response","97","275157","0.0-7.0-3.12","63d7ddc0c07dd5787084df8e","bdp_wmem","Sun Mar 12 2023 21:53:12 GMT-0700 (Pacific Daylight Time)","593343","Match,No Match","","null","","","","","","<div class='trialBorder'><div class='vertical-center'><img src='img/fixation2_sml.jpg'</img></div></div>","null","DELAY","","","","","","","","","","",""
"html-keyboard-response","98","276585","0.0-7.0-4.12","63d7ddc0c07dd5787084df8e","bdp_wmem","Sun Mar 12 2023 21:53:12 GMT-0700 (Pacific Daylight Time)","593343","Match,No Match","","1424","","","","","","<div class='trialBorder'><div class='targDiv'><div class='tc'><img class='introPic' src='trustrating_stim/white_mw038.bmp'><br><font color='red'><strong>Keep</strong></font></div></div><div class='respDiv'><div class='respDivL'>Match<br>(e)</div><div class='respDivR'>No Match<br>(i)</div></div></div>","i","TARGET","3","trustrating_stim/white_mw070.bmp,trustrating_stim/white_mw003.bmp,trustrating_stim/white_mw078.bmp","1,0,0","noMatchFace","i","4500","trustrating_stim/white_mw038.bmp","red","Keep","REAL","1"
"html-keyboard-response","99","277090","0.0-7.0-5.12","63d7ddc0c07dd5787084df8e","bdp_wmem","Sun Mar 12 2023 21:53:12 GMT-0700 (Pacific Daylight Time)","593343","Match,No Match","","null","","","","","","<div class='trialBorder'><div class='vertical-center'><img src='img/correct.jpg'></div><div class='respDiv'><div class='respDivL'>Match<br>(e)</div><div class='respDivR'><font style='color:orange'>No Match<br>(i)</font></div></div></div>","null","FEEDBACK","","","","","","","","","","",""
"html-keyboard-response","100","277595","0.0-7.0-1.13","63d7ddc0c07dd5787084df8e","bdp_wmem","Sun Mar 12 2023 21:53:12 GMT-0700 (Pacific Daylight Time)","593343","Match,No Match","","null","","","","","","<div class='trialBorder'><div class='vertical-center'><img src='img/fixation2_sml.jpg'</img></div></div>","null","FIX","","","","","","","","","","",""
"html-keyboard-response","101","279110","0.0-7.0-2.13","63d7ddc0c07dd5787084df8e","bdp_wmem","Sun Mar 12 2023 21:53:12 GMT-0700 (Pacific Daylight Time)","593343","Match,No Match","","null","","","","","","<div class='trialBorder'><div class='vertical-center'><img style='vertical-align:center; align:center' src='img/fixation2_sml.jpg'></div><div class='arrayDiv1'><div class='tc'><img class='introPic' src='trustrating_stim/white_mw078.bmp'><br><font color='red'><strong>Keep</strong></font></div></div></div>","null","ARRAY","1","trustrating_stim/white_mw078.bmp","0","noMatchFace","i","1500","","","","",""
"html-keyboard-response","102","283115","0.0-7.0-3.13","63d7ddc0c07dd5787084df8e","bdp_wmem","Sun Mar 12 2023 21:53:12 GMT-0700 (Pacific Daylight Time)","593343","Match,No Match","","null","","","","","","<div class='trialBorder'><div class='vertical-center'><img src='img/fixation2_sml.jpg'</img></div></div>","null","DELAY","","","","","","","","","","",""
"html-keyboard-response","103","284036","0.0-7.0-4.13","63d7ddc0c07dd5787084df8e","bdp_wmem","Sun Mar 12 2023 21:53:12 GMT-0700 (Pacific Daylight Time)","593343","Match,No Match","","918","","","","","","<div class='trialBorder'><div class='targDiv'><div class='tc'><img class='introPic' src='trustrating_stim/white_mw040.bmp'><br><font color='red'><strong>Keep</strong></font></div></div><div class='respDiv'><div class='respDivL'>Match<br>(e)</div><div class='respDivR'>No Match<br>(i)</div></div></div>","i","TARGET","1","trustrating_stim/white_mw078.bmp","0","noMatchFace","i","1500","trustrating_stim/white_mw040.bmp","red","Keep","REAL","1"
"html-keyboard-response","104","284538","0.0-7.0-5.13","63d7ddc0c07dd5787084df8e","bdp_wmem","Sun Mar 12 2023 21:53:12 GMT-0700 (Pacific Daylight Time)","593343","Match,No Match","","null","","","","","","<div class='trialBorder'><div class='vertical-center'><img src='img/correct.jpg'></div><div class='respDiv'><div class='respDivL'>Match<br>(e)</div><div class='respDivR'><font style='color:orange'>No Match<br>(i)</font></div></div></div>","null","FEEDBACK","","","","","","","","","","",""
"html-keyboard-response","105","285043","0.0-7.0-1.14","63d7ddc0c07dd5787084df8e","bdp_wmem","Sun Mar 12 2023 21:53:12 GMT-0700 (Pacific Daylight Time)","593343","Match,No Match","","null","","","","","","<div class='trialBorder'><div class='vertical-center'><img src='img/fixation2_sml.jpg'</img></div></div>","null","FIX","","","","","","","","","","",""
"html-keyboard-response","106","286558","0.0-7.0-2.14","63d7ddc0c07dd5787084df8e","bdp_wmem","Sun Mar 12 2023 21:53:12 GMT-0700 (Pacific Daylight Time)","593343","Match,No Match","","null","","","","","","<div class='trialBorder'><div class='vertical-center'><img style='vertical-align:center; align:center' src='img/fixation2_sml.jpg'></div><div class='arrayDiv1'><div class='tc'><img class='introPic' src='trustrating_stim/white_mw003.bmp'><br><font color='green'><strong>Share</strong></font></div></div></div>","null","ARRAY","1","trustrating_stim/white_mw003.bmp","1","Match","e","1500","","","","",""
"html-keyboard-response","107","290563","0.0-7.0-3.14","63d7ddc0c07dd5787084df8e","bdp_wmem","Sun Mar 12 2023 21:53:12 GMT-0700 (Pacific Daylight Time)","593343","Match,No Match","","null","","","","","","<div class='trialBorder'><div class='vertical-center'><img src='img/fixation2_sml.jpg'</img></div></div>","null","DELAY","","","","","","","","","","",""
"html-keyboard-response","108","291501","0.0-7.0-4.14","63d7ddc0c07dd5787084df8e","bdp_wmem","Sun Mar 12 2023 21:53:12 GMT-0700 (Pacific Daylight Time)","593343","Match,No Match","","935","","","","","","<div class='trialBorder'><div class='targDiv'><div class='tc'><img class='introPic' src='trustrating_stim/white_mw003.bmp'><br><font color='green'><strong>Share</strong></font></div></div><div class='respDiv'><div class='respDivL'>Match<br>(e)</div><div class='respDivR'>No Match<br>(i)</div></div></div>","e","TARGET","1","trustrating_stim/white_mw003.bmp","1","Match","e","1500","trustrating_stim/white_mw003.bmp","green","Share","REAL","1"
"html-keyboard-response","109","292009","0.0-7.0-5.14","63d7ddc0c07dd5787084df8e","bdp_wmem","Sun Mar 12 2023 21:53:12 GMT-0700 (Pacific Daylight Time)","593343","Match,No Match","","null","","","","","","<div class='trialBorder'><div class='vertical-center'><img src='img/correct.jpg'></div><div class='respDiv'><div class='respDivL'><font style='color:orange'>Match<br>(e)</font></div><div class='respDivR'>No Match<br>(i)</div></div></div>","null","FEEDBACK","","","","","","","","","","",""
"html-keyboard-response","110","292514","0.0-7.0-1.15","63d7ddc0c07dd5787084df8e","bdp_wmem","Sun Mar 12 2023 21:53:12 GMT-0700 (Pacific Daylight Time)","593343","Match,No Match","","null","","","","","","<div class='trialBorder'><div class='vertical-center'><img src='img/fixation2_sml.jpg'</img></div></div>","null","FIX","","","","","","","","","","",""
"html-keyboard-response","111","295521","0.0-7.0-2.15","63d7ddc0c07dd5787084df8e","bdp_wmem","Sun Mar 12 2023 21:53:12 GMT-0700 (Pacific Daylight Time)","593343","Match,No Match","","null","","","","","","<div class='trialBorder'><div class='vertical-center'><img style='vertical-align:center; align:center' src='img/fixation2_sml.jpg'></div><div class='arrayDiv2'><div class='tl'><img class='introPic' src='trustrating_stim/white_mw091.bmp'><br><font color='green'><strong>Share</strong></font></div><div class='tr'><img class='introPic' src='trustrating_stim/white_mw070.bmp'><br><font color='red'><strong>Keep</strong></font></div></div></div>","null","ARRAY","2","trustrating_stim/white_mw091.bmp,trustrating_stim/white_mw070.bmp","1,0","noMatchFace","i","3000","","","","",""
"html-keyboard-response","112","299532","0.0-7.0-3.15","63d7ddc0c07dd5787084df8e","bdp_wmem","Sun Mar 12 2023 21:53:12 GMT-0700 (Pacific Daylight Time)","593343","Match,No Match","","null","","","","","","<div class='trialBorder'><div class='vertical-center'><img src='img/fixation2_sml.jpg'</img></div></div>","null","DELAY","","","","","","","","","","",""
"html-keyboard-response","113","300633","0.0-7.0-4.15","63d7ddc0c07dd5787084df8e","bdp_wmem","Sun Mar 12 2023 21:53:12 GMT-0700 (Pacific Daylight Time)","593343","Match,No Match","","1099","","","","","","<div class='trialBorder'><div class='targDiv'><div class='tc'><img class='introPic' src='trustrating_stim/white_mw042.bmp'><br><font color='green'><strong>Share</strong></font></div></div><div class='respDiv'><div class='respDivL'>Match<br>(e)</div><div class='respDivR'>No Match<br>(i)</div></div></div>","i","TARGET","2","trustrating_stim/white_mw091.bmp,trustrating_stim/white_mw070.bmp","1,0","noMatchFace","i","3000","trustrating_stim/white_mw042.bmp","green","Share","REAL","1"
"html-keyboard-response","114","301140","0.0-7.0-5.15","63d7ddc0c07dd5787084df8e","bdp_wmem","Sun Mar 12 2023 21:53:12 GMT-0700 (Pacific Daylight Time)","593343","Match,No Match","","null","","","","","","<div class='trialBorder'><div class='vertical-center'><img src='img/correct.jpg'></div><div class='respDiv'><div class='respDivL'>Match<br>(e)</div><div class='respDivR'><font style='color:orange'>No Match<br>(i)</font></div></div></div>","null","FEEDBACK","","","","","","","","","","",""
"html-keyboard-response","115","301651","0.0-7.0-1.16","63d7ddc0c07dd5787084df8e","bdp_wmem","Sun Mar 12 2023 21:53:12 GMT-0700 (Pacific Daylight Time)","593343","Match,No Match","","null","","","","","","<div class='trialBorder'><div class='vertical-center'><img src='img/fixation2_sml.jpg'</img></div></div>","null","FIX","","","","","","","","","","",""
"html-keyboard-response","116","303163","0.0-7.0-2.16","63d7ddc0c07dd5787084df8e","bdp_wmem","Sun Mar 12 2023 21:53:12 GMT-0700 (Pacific Daylight Time)","593343","Match,No Match","","null","","","","","","<div class='trialBorder'><div class='vertical-center'><img style='vertical-align:center; align:center' src='img/fixation2_sml.jpg'></div><div class='arrayDiv1'><div class='tc'><img class='introPic' src='trustrating_stim/white_mw013.bmp'><br><font color='red'><strong>Keep</strong></font></div></div></div>","null","ARRAY","1","trustrating_stim/white_mw013.bmp","0","Match","e","1500","","","","",""
"html-keyboard-response","117","307171","0.0-7.0-3.16","63d7ddc0c07dd5787084df8e","bdp_wmem","Sun Mar 12 2023 21:53:12 GMT-0700 (Pacific Daylight Time)","593343","Match,No Match","","null","","","","","","<div class='trialBorder'><div class='vertical-center'><img src='img/fixation2_sml.jpg'</img></div></div>","null","DELAY","","","","","","","","","","",""
"html-keyboard-response","118","308059","0.0-7.0-4.16","63d7ddc0c07dd5787084df8e","bdp_wmem","Sun Mar 12 2023 21:53:12 GMT-0700 (Pacific Daylight Time)","593343","Match,No Match","","884","","","","","","<div class='trialBorder'><div class='targDiv'><div class='tc'><img class='introPic' src='trustrating_stim/white_mw013.bmp'><br><font color='red'><strong>Keep</strong></font></div></div><div class='respDiv'><div class='respDivL'>Match<br>(e)</div><div class='respDivR'>No Match<br>(i)</div></div></div>","e","TARGET","1","trustrating_stim/white_mw013.bmp","0","Match","e","1500","trustrating_stim/white_mw013.bmp","red","Keep","REAL","1"
"html-keyboard-response","119","308564","0.0-7.0-5.16","63d7ddc0c07dd5787084df8e","bdp_wmem","Sun Mar 12 2023 21:53:12 GMT-0700 (Pacific Daylight Time)","593343","Match,No Match","","null","","","","","","<div class='trialBorder'><div class='vertical-center'><img src='img/correct.jpg'></div><div class='respDiv'><div class='respDivL'><font style='color:orange'>Match<br>(e)</font></div><div class='respDivR'>No Match<br>(i)</div></div></div>","null","FEEDBACK","","","","","","","","","","",""
"html-keyboard-response","120","309075","0.0-7.0-1.17","63d7ddc0c07dd5787084df8e","bdp_wmem","Sun Mar 12 2023 21:53:12 GMT-0700 (Pacific Daylight Time)","593343","Match,No Match","","null","","","","","","<div class='trialBorder'><div class='vertical-center'><img src='img/fixation2_sml.jpg'</img></div></div>","null","FIX","","","","","","","","","","",""
"html-keyboard-response","121","313586","0.0-7.0-2.17","63d7ddc0c07dd5787084df8e","bdp_wmem","Sun Mar 12 2023 21:53:12 GMT-0700 (Pacific Daylight Time)","593343","Match,No Match","","null","","","","","","<div class='trialBorder'><div class='vertical-center'><img style='vertical-align:center; align:center' src='img/fixation2_sml.jpg'></div><div class='arrayDiv3'><div class='tl'><img class='introPic' src='trustrating_stim/white_mw010.bmp'><br><font color='red'><strong>Keep</strong></font></div><div class='tc'><img class='introPic' src='trustrating_stim/white_mw013.bmp'><br><font color='green'><strong>Share</strong></font></div><div class='tr'><img class='introPic' src='trustrating_stim/white_mw070.bmp'><br><font color='green'><strong>Share</strong></font></div></div></div>","null","ARRAY","3","trustrating_stim/white_mw010.bmp,trustrating_stim/white_mw013.bmp,trustrating_stim/white_mw070.bmp","0,1,1","Match","e","4500","","","","",""
"html-keyboard-response","122","317597","0.0-7.0-3.17","63d7ddc0c07dd5787084df8e","bdp_wmem","Sun Mar 12 2023 21:53:12 GMT-0700 (Pacific Daylight Time)","593343","Match,No Match","","null","","","","","","<div class='trialBorder'><div class='vertical-center'><img src='img/fixation2_sml.jpg'</img></div></div>","null","DELAY","","","","","","","","","","",""
"html-keyboard-response","123","319897","0.0-7.0-4.17","63d7ddc0c07dd5787084df8e","bdp_wmem","Sun Mar 12 2023 21:53:12 GMT-0700 (Pacific Daylight Time)","593343","Match,No Match","","2297","","","","","","<div class='trialBorder'><div class='targDiv'><div class='tc'><img class='introPic' src='trustrating_stim/white_mw013.bmp'><br><font color='green'><strong>Share</strong></font></div></div><div class='respDiv'><div class='respDivL'>Match<br>(e)</div><div class='respDivR'>No Match<br>(i)</div></div></div>","i","TARGET","3","trustrating_stim/white_mw010.bmp,trustrating_stim/white_mw013.bmp,trustrating_stim/white_mw070.bmp","0,1,1","Match","e","4500","trustrating_stim/white_mw013.bmp","green","Share","REAL","0"
"html-keyboard-response","124","320404","0.0-7.0-5.17","63d7ddc0c07dd5787084df8e","bdp_wmem","Sun Mar 12 2023 21:53:12 GMT-0700 (Pacific Daylight Time)","593343","Match,No Match","","null","","","","","","<div class='trialBorder'><div class='vertical-center'><img src='img/error.jpg'></div><div class='respDiv'><div class='respDivL'>Match<br>(e)</div><div class='respDivR'><font style='color:orange'>No Match<br>(i)</font></div></div></div>","null","FEEDBACK","","","","","","","","","","",""
"html-keyboard-response","125","320914","0.0-7.0-1.18","63d7ddc0c07dd5787084df8e","bdp_wmem","Sun Mar 12 2023 21:53:12 GMT-0700 (Pacific Daylight Time)","593343","Match,No Match","","null","","","","","","<div class='trialBorder'><div class='vertical-center'><img src='img/fixation2_sml.jpg'</img></div></div>","null","FIX","","","","","","","","","","",""
"html-keyboard-response","126","323922","0.0-7.0-2.18","63d7ddc0c07dd5787084df8e","bdp_wmem","Sun Mar 12 2023 21:53:12 GMT-0700 (Pacific Daylight Time)","593343","Match,No Match","","null","","","","","","<div class='trialBorder'><div class='vertical-center'><img style='vertical-align:center; align:center' src='img/fixation2_sml.jpg'></div><div class='arrayDiv2'><div class='tl'><img class='introPic' src='trustrating_stim/white_mw070.bmp'><br><font color='green'><strong>Share</strong></font></div><div class='tr'><img class='introPic' src='trustrating_stim/white_mw013.bmp'><br><font color='red'><strong>Keep</strong></font></div></div></div>","null","ARRAY","2","trustrating_stim/white_mw070.bmp,trustrating_stim/white_mw013.bmp","1,0","noMatchFace","i","3000","","","","",""
"html-keyboard-response","127","327930","0.0-7.0-3.18","63d7ddc0c07dd5787084df8e","bdp_wmem","Sun Mar 12 2023 21:53:12 GMT-0700 (Pacific Daylight Time)","593343","Match,No Match","","null","","","","","","<div class='trialBorder'><div class='vertical-center'><img src='img/fixation2_sml.jpg'</img></div></div>","null","DELAY","","","","","","","","","","",""
"html-keyboard-response","128","329150","0.0-7.0-4.18","63d7ddc0c07dd5787084df8e","bdp_wmem","Sun Mar 12 2023 21:53:12 GMT-0700 (Pacific Daylight Time)","593343","Match,No Match","","1217","","","","","","<div class='trialBorder'><div class='targDiv'><div class='tc'><img class='introPic' src='trustrating_stim/white_mw078.bmp'><br><font color='green'><strong>Share</strong></font></div></div><div class='respDiv'><div class='respDivL'>Match<br>(e)</div><div class='respDivR'>No Match<br>(i)</div></div></div>","i","TARGET","2","trustrating_stim/white_mw070.bmp,trustrating_stim/white_mw013.bmp","1,0","noMatchFace","i","3000","trustrating_stim/white_mw078.bmp","green","Share","REAL","1"
"html-keyboard-response","129","329660","0.0-7.0-5.18","63d7ddc0c07dd5787084df8e","bdp_wmem","Sun Mar 12 2023 21:53:12 GMT-0700 (Pacific Daylight Time)","593343","Match,No Match","","null","","","","","","<div class='trialBorder'><div class='vertical-center'><img src='img/correct.jpg'></div><div class='respDiv'><div class='respDivL'>Match<br>(e)</div><div class='respDivR'><font style='color:orange'>No Match<br>(i)</font></div></div></div>","null","FEEDBACK","","","","","","","","","","",""
"html-keyboard-response","130","330170","0.0-7.0-1.19","63d7ddc0c07dd5787084df8e","bdp_wmem","Sun Mar 12 2023 21:53:12 GMT-0700 (Pacific Daylight Time)","593343","Match,No Match","","null","","","","","","<div class='trialBorder'><div class='vertical-center'><img src='img/fixation2_sml.jpg'</img></div></div>","null","FIX","","","","","","","","","","",""
"html-keyboard-response","131","334681","0.0-7.0-2.19","63d7ddc0c07dd5787084df8e","bdp_wmem","Sun Mar 12 2023 21:53:12 GMT-0700 (Pacific Daylight Time)","593343","Match,No Match","","null","","","","","","<div class='trialBorder'><div class='vertical-center'><img style='vertical-align:center; align:center' src='img/fixation2_sml.jpg'></div><div class='arrayDiv3'><div class='tl'><img class='introPic' src='trustrating_stim/white_mw013.bmp'><br><font color='red'><strong>Keep</strong></font></div><div class='tc'><img class='introPic' src='trustrating_stim/white_mw070.bmp'><br><font color='green'><strong>Share</strong></font></div><div class='tr'><img class='introPic' src='trustrating_stim/white_mw092.bmp'><br><font color='green'><strong>Share</strong></font></div></div></div>","null","ARRAY","3","trustrating_stim/white_mw013.bmp,trustrating_stim/white_mw070.bmp,trustrating_stim/white_mw092.bmp","0,1,1","Match","e","4500","","","","",""
"html-keyboard-response","132","338692","0.0-7.0-3.19","63d7ddc0c07dd5787084df8e","bdp_wmem","Sun Mar 12 2023 21:53:12 GMT-0700 (Pacific Daylight Time)","593343","Match,No Match","","null","","","","","","<div class='trialBorder'><div class='vertical-center'><img src='img/fixation2_sml.jpg'</img></div></div>","null","DELAY","","","","","","","","","","",""
"html-keyboard-response","133","339691","0.0-7.0-4.19","63d7ddc0c07dd5787084df8e","bdp_wmem","Sun Mar 12 2023 21:53:12 GMT-0700 (Pacific Daylight Time)","593343","Match,No Match","","995","","","","","","<div class='trialBorder'><div class='targDiv'><div class='tc'><img class='introPic' src='trustrating_stim/white_mw092.bmp'><br><font color='green'><strong>Share</strong></font></div></div><div class='respDiv'><div class='respDivL'>Match<br>(e)</div><div class='respDivR'>No Match<br>(i)</div></div></div>","e","TARGET","3","trustrating_stim/white_mw013.bmp,trustrating_stim/white_mw070.bmp,trustrating_stim/white_mw092.bmp","0,1,1","Match","e","4500","trustrating_stim/white_mw092.bmp","green","Share","REAL","1"
"html-keyboard-response","134","340195","0.0-7.0-5.19","63d7ddc0c07dd5787084df8e","bdp_wmem","Sun Mar 12 2023 21:53:12 GMT-0700 (Pacific Daylight Time)","593343","Match,No Match","","null","","","","","","<div class='trialBorder'><div class='vertical-center'><img src='img/correct.jpg'></div><div class='respDiv'><div class='respDivL'><font style='color:orange'>Match<br>(e)</font></div><div class='respDivR'>No Match<br>(i)</div></div></div>","null","FEEDBACK","","","","","","","","","","",""
"html-keyboard-response","135","340705","0.0-7.0-1.20","63d7ddc0c07dd5787084df8e","bdp_wmem","Sun Mar 12 2023 21:53:12 GMT-0700 (Pacific Daylight Time)","593343","Match,No Match","","null","","","","","","<div class='trialBorder'><div class='vertical-center'><img src='img/fixation2_sml.jpg'</img></div></div>","null","FIX","","","","","","","","","","",""
"html-keyboard-response","136","343713","0.0-7.0-2.20","63d7ddc0c07dd5787084df8e","bdp_wmem","Sun Mar 12 2023 21:53:12 GMT-0700 (Pacific Daylight Time)","593343","Match,No Match","","null","","","","","","<div class='trialBorder'><div class='vertical-center'><img style='vertical-align:center; align:center' src='img/fixation2_sml.jpg'></div><div class='arrayDiv2'><div class='tl'><img class='introPic' src='trustrating_stim/white_mw038.bmp'><br><font color='green'><strong>Share</strong></font></div><div class='tr'><img class='introPic' src='trustrating_stim/white_mw078.bmp'><br><font color='red'><strong>Keep</strong></font></div></div></div>","null","ARRAY","2","trustrating_stim/white_mw038.bmp,trustrating_stim/white_mw078.bmp","1,0","Match","e","3000","","","","",""
"html-keyboard-response","137","347721","0.0-7.0-3.20","63d7ddc0c07dd5787084df8e","bdp_wmem","Sun Mar 12 2023 21:53:12 GMT-0700 (Pacific Daylight Time)","593343","Match,No Match","","null","","","","","","<div class='trialBorder'><div class='vertical-center'><img src='img/fixation2_sml.jpg'</img></div></div>","null","DELAY","","","","","","","","","","",""
"html-keyboard-response","138","348929","0.0-7.0-4.20","63d7ddc0c07dd5787084df8e","bdp_wmem","Sun Mar 12 2023 21:53:12 GMT-0700 (Pacific Daylight Time)","593343","Match,No Match","","1204","","","","","","<div class='trialBorder'><div class='targDiv'><div class='tc'><img class='introPic' src='trustrating_stim/white_mw078.bmp'><br><font color='red'><strong>Keep</strong></font></div></div><div class='respDiv'><div class='respDivL'>Match<br>(e)</div><div class='respDivR'>No Match<br>(i)</div></div></div>","i","TARGET","2","trustrating_stim/white_mw038.bmp,trustrating_stim/white_mw078.bmp","1,0","Match","e","3000","trustrating_stim/white_mw078.bmp","red","Keep","REAL","0"
"html-keyboard-response","139","349434","0.0-7.0-5.20","63d7ddc0c07dd5787084df8e","bdp_wmem","Sun Mar 12 2023 21:53:12 GMT-0700 (Pacific Daylight Time)","593343","Match,No Match","","null","","","","","","<div class='trialBorder'><div class='vertical-center'><img src='img/error.jpg'></div><div class='respDiv'><div class='respDivL'>Match<br>(e)</div><div class='respDivR'><font style='color:orange'>No Match<br>(i)</font></div></div></div>","null","FEEDBACK","","","","","","","","","","",""
"html-keyboard-response","140","349947","0.0-7.0-1.21","63d7ddc0c07dd5787084df8e","bdp_wmem","Sun Mar 12 2023 21:53:12 GMT-0700 (Pacific Daylight Time)","593343","Match,No Match","","null","","","","","","<div class='trialBorder'><div class='vertical-center'><img src='img/fixation2_sml.jpg'</img></div></div>","null","FIX","","","","","","","","","","",""
"html-keyboard-response","141","352955","0.0-7.0-2.21","63d7ddc0c07dd5787084df8e","bdp_wmem","Sun Mar 12 2023 21:53:12 GMT-0700 (Pacific Daylight Time)","593343","Match,No Match","","null","","","","","","<div class='trialBorder'><div class='vertical-center'><img style='vertical-align:center; align:center' src='img/fixation2_sml.jpg'></div><div class='arrayDiv2'><div class='tl'><img class='introPic' src='trustrating_stim/white_mw003.bmp'><br><font color='red'><strong>Keep</strong></font></div><div class='tr'><img class='introPic' src='trustrating_stim/white_mw092.bmp'><br><font color='green'><strong>Share</strong></font></div></div></div>","null","ARRAY","2","trustrating_stim/white_mw003.bmp,trustrating_stim/white_mw092.bmp","0,1","Match","e","3000","","","","",""
"html-keyboard-response","142","356960","0.0-7.0-3.21","63d7ddc0c07dd5787084df8e","bdp_wmem","Sun Mar 12 2023 21:53:12 GMT-0700 (Pacific Daylight Time)","593343","Match,No Match","","null","","","","","","<div class='trialBorder'><div class='vertical-center'><img src='img/fixation2_sml.jpg'</img></div></div>","null","DELAY","","","","","","","","","","",""
"html-keyboard-response","143","358261","0.0-7.0-4.21","63d7ddc0c07dd5787084df8e","bdp_wmem","Sun Mar 12 2023 21:53:12 GMT-0700 (Pacific Daylight Time)","593343","Match,No Match","","1298","","","","","","<div class='trialBorder'><div class='targDiv'><div class='tc'><img class='introPic' src='trustrating_stim/white_mw092.bmp'><br><font color='green'><strong>Share</strong></font></div></div><div class='respDiv'><div class='respDivL'>Match<br>(e)</div><div class='respDivR'>No Match<br>(i)</div></div></div>","i","TARGET","2","trustrating_stim/white_mw003.bmp,trustrating_stim/white_mw092.bmp","0,1","Match","e","3000","trustrating_stim/white_mw092.bmp","green","Share","REAL","0"
"html-keyboard-response","144","358770","0.0-7.0-5.21","63d7ddc0c07dd5787084df8e","bdp_wmem","Sun Mar 12 2023 21:53:12 GMT-0700 (Pacific Daylight Time)","593343","Match,No Match","","null","","","","","","<div class='trialBorder'><div class='vertical-center'><img src='img/error.jpg'></div><div class='respDiv'><div class='respDivL'>Match<br>(e)</div><div class='respDivR'><font style='color:orange'>No Match<br>(i)</font></div></div></div>","null","FEEDBACK","","","","","","","","","","",""
"html-keyboard-response","145","359282","0.0-7.0-1.22","63d7ddc0c07dd5787084df8e","bdp_wmem","Sun Mar 12 2023 21:53:12 GMT-0700 (Pacific Daylight Time)","593343","Match,No Match","","null","","","","","","<div class='trialBorder'><div class='vertical-center'><img src='img/fixation2_sml.jpg'</img></div></div>","null","FIX","","","","","","","","","","",""
"html-keyboard-response","146","362289","0.0-7.0-2.22","63d7ddc0c07dd5787084df8e","bdp_wmem","Sun Mar 12 2023 21:53:12 GMT-0700 (Pacific Daylight Time)","593343","Match,No Match","","null","","","","","","<div class='trialBorder'><div class='vertical-center'><img style='vertical-align:center; align:center' src='img/fixation2_sml.jpg'></div><div class='arrayDiv2'><div class='tl'><img class='introPic' src='trustrating_stim/white_mw085.bmp'><br><font color='green'><strong>Share</strong></font></div><div class='tr'><img class='introPic' src='trustrating_stim/white_mw003.bmp'><br><font color='red'><strong>Keep</strong></font></div></div></div>","null","ARRAY","2","trustrating_stim/white_mw085.bmp,trustrating_stim/white_mw003.bmp","1,0","noMatchOutcome","i","3000","","","","",""
"html-keyboard-response","147","366300","0.0-7.0-3.22","63d7ddc0c07dd5787084df8e","bdp_wmem","Sun Mar 12 2023 21:53:12 GMT-0700 (Pacific Daylight Time)","593343","Match,No Match","","null","","","","","","<div class='trialBorder'><div class='vertical-center'><img src='img/fixation2_sml.jpg'</img></div></div>","null","DELAY","","","","","","","","","","",""
"html-keyboard-response","148","367410","0.0-7.0-4.22","63d7ddc0c07dd5787084df8e","bdp_wmem","Sun Mar 12 2023 21:53:12 GMT-0700 (Pacific Daylight Time)","593343","Match,No Match","","1106","","","","","","<div class='trialBorder'><div class='targDiv'><div class='tc'><img class='introPic' src='trustrating_stim/white_mw085.bmp'><br><font color='red'><strong>Keep</strong></font></div></div><div class='respDiv'><div class='respDivL'>Match<br>(e)</div><div class='respDivR'>No Match<br>(i)</div></div></div>","e","TARGET","2","trustrating_stim/white_mw085.bmp,trustrating_stim/white_mw003.bmp","1,0","noMatchOutcome","i","3000","trustrating_stim/white_mw085.bmp","red","Keep","REAL","0"
"html-keyboard-response","149","367914","0.0-7.0-5.22","63d7ddc0c07dd5787084df8e","bdp_wmem","Sun Mar 12 2023 21:53:12 GMT-0700 (Pacific Daylight Time)","593343","Match,No Match","","null","","","","","","<div class='trialBorder'><div class='vertical-center'><img src='img/error.jpg'></div><div class='respDiv'><div class='respDivL'><font style='color:orange'>Match<br>(e)</font></div><div class='respDivR'>No Match<br>(i)</div></div></div>","null","FEEDBACK","","","","","","","","","","",""
"html-keyboard-response","150","368419","0.0-7.0-1.23","63d7ddc0c07dd5787084df8e","bdp_wmem","Sun Mar 12 2023 21:53:12 GMT-0700 (Pacific Daylight Time)","593343","Match,No Match","","null","","","","","","<div class='trialBorder'><div class='vertical-center'><img src='img/fixation2_sml.jpg'</img></div></div>","null","FIX","","","","","","","","","","",""
"html-keyboard-response","151","372929","0.0-7.0-2.23","63d7ddc0c07dd5787084df8e","bdp_wmem","Sun Mar 12 2023 21:53:12 GMT-0700 (Pacific Daylight Time)","593343","Match,No Match","","null","","","","","","<div class='trialBorder'><div class='vertical-center'><img style='vertical-align:center; align:center' src='img/fixation2_sml.jpg'></div><div class='arrayDiv3'><div class='tl'><img class='introPic' src='trustrating_stim/white_mw012.bmp'><br><font color='red'><strong>Keep</strong></font></div><div class='tc'><img class='introPic' src='trustrating_stim/white_mw092.bmp'><br><font color='green'><strong>Share</strong></font></div><div class='tr'><img class='introPic' src='trustrating_stim/white_mw091.bmp'><br><font color='green'><strong>Share</strong></font></div></div></div>","null","ARRAY","3","trustrating_stim/white_mw012.bmp,trustrating_stim/white_mw092.bmp,trustrating_stim/white_mw091.bmp","0,1,1","noMatchFace","i","4500","","","","",""
"html-keyboard-response","152","376936","0.0-7.0-3.23","63d7ddc0c07dd5787084df8e","bdp_wmem","Sun Mar 12 2023 21:53:12 GMT-0700 (Pacific Daylight Time)","593343","Match,No Match","","null","","","","","","<div class='trialBorder'><div class='vertical-center'><img src='img/fixation2_sml.jpg'</img></div></div>","null","DELAY","","","","","","","","","","",""
"html-keyboard-response","153","378440","0.0-7.0-4.23","63d7ddc0c07dd5787084df8e","bdp_wmem","Sun Mar 12 2023 21:53:12 GMT-0700 (Pacific Daylight Time)","593343","Match,No Match","","1500","","","","","","<div class='trialBorder'><div class='targDiv'><div class='tc'><img class='introPic' src='trustrating_stim/white_mw078.bmp'><br><font color='green'><strong>Share</strong></font></div></div><div class='respDiv'><div class='respDivL'>Match<br>(e)</div><div class='respDivR'>No Match<br>(i)</div></div></div>","i","TARGET","3","trustrating_stim/white_mw012.bmp,trustrating_stim/white_mw092.bmp,trustrating_stim/white_mw091.bmp","0,1,1","noMatchFace","i","4500","trustrating_stim/white_mw078.bmp","green","Share","REAL","1"
"html-keyboard-response","154","378948","0.0-7.0-5.23","63d7ddc0c07dd5787084df8e","bdp_wmem","Sun Mar 12 2023 21:53:12 GMT-0700 (Pacific Daylight Time)","593343","Match,No Match","","null","","","","","","<div class='trialBorder'><div class='vertical-center'><img src='img/correct.jpg'></div><div class='respDiv'><div class='respDivL'>Match<br>(e)</div><div class='respDivR'><font style='color:orange'>No Match<br>(i)</font></div></div></div>","null","FEEDBACK","","","","","","","","","","",""
"html-keyboard-response","155","379460","0.0-7.0-1.24","63d7ddc0c07dd5787084df8e","bdp_wmem","Sun Mar 12 2023 21:53:12 GMT-0700 (Pacific Daylight Time)","593343","Match,No Match","","null","","","","","","<div class='trialBorder'><div class='vertical-center'><img src='img/fixation2_sml.jpg'</img></div></div>","null","FIX","","","","","","","","","","",""
"html-keyboard-response","156","380969","0.0-7.0-2.24","63d7ddc0c07dd5787084df8e","bdp_wmem","Sun Mar 12 2023 21:53:12 GMT-0700 (Pacific Daylight Time)","593343","Match,No Match","","null","","","","","","<div class='trialBorder'><div class='vertical-center'><img style='vertical-align:center; align:center' src='img/fixation2_sml.jpg'></div><div class='arrayDiv1'><div class='tc'><img class='introPic' src='trustrating_stim/white_mw092.bmp'><br><font color='green'><strong>Share</strong></font></div></div></div>","null","ARRAY","1","trustrating_stim/white_mw092.bmp","1","noMatchFace","i","1500","","","","",""
"html-keyboard-response","157","384980","0.0-7.0-3.24","63d7ddc0c07dd5787084df8e","bdp_wmem","Sun Mar 12 2023 21:53:12 GMT-0700 (Pacific Daylight Time)","593343","Match,No Match","","null","","","","","","<div class='trialBorder'><div class='vertical-center'><img src='img/fixation2_sml.jpg'</img></div></div>","null","DELAY","","","","","","","","","","",""
"html-keyboard-response","158","386049","0.0-7.0-4.24","63d7ddc0c07dd5787084df8e","bdp_wmem","Sun Mar 12 2023 21:53:12 GMT-0700 (Pacific Daylight Time)","593343","Match,No Match","","1066","","","","","","<div class='trialBorder'><div class='targDiv'><div class='tc'><img class='introPic' src='trustrating_stim/white_mw042.bmp'><br><font color='green'><strong>Share</strong></font></div></div><div class='respDiv'><div class='respDivL'>Match<br>(e)</div><div class='respDivR'>No Match<br>(i)</div></div></div>","i","TARGET","1","trustrating_stim/white_mw092.bmp","1","noMatchFace","i","1500","trustrating_stim/white_mw042.bmp","green","Share","REAL","1"
"html-keyboard-response","159","386553","0.0-7.0-5.24","63d7ddc0c07dd5787084df8e","bdp_wmem","Sun Mar 12 2023 21:53:12 GMT-0700 (Pacific Daylight Time)","593343","Match,No Match","","null","","","","","","<div class='trialBorder'><div class='vertical-center'><img src='img/correct.jpg'></div><div class='respDiv'><div class='respDivL'>Match<br>(e)</div><div class='respDivR'><font style='color:orange'>No Match<br>(i)</font></div></div></div>","null","FEEDBACK","","","","","","","","","","",""
"html-keyboard-response","160","387064","0.0-7.0-1.25","63d7ddc0c07dd5787084df8e","bdp_wmem","Sun Mar 12 2023 21:53:12 GMT-0700 (Pacific Daylight Time)","593343","Match,No Match","","null","","","","","","<div class='trialBorder'><div class='vertical-center'><img src='img/fixation2_sml.jpg'</img></div></div>","null","FIX","","","","","","","","","","",""
"html-keyboard-response","161","388570","0.0-7.0-2.25","63d7ddc0c07dd5787084df8e","bdp_wmem","Sun Mar 12 2023 21:53:12 GMT-0700 (Pacific Daylight Time)","593343","Match,No Match","","null","","","","","","<div class='trialBorder'><div class='vertical-center'><img style='vertical-align:center; align:center' src='img/fixation2_sml.jpg'></div><div class='arrayDiv1'><div class='tc'><img class='introPic' src='trustrating_stim/white_mw042.bmp'><br><font color='red'><strong>Keep</strong></font></div></div></div>","null","ARRAY","1","trustrating_stim/white_mw042.bmp","0","noMatchFace","i","1500","","","","",""
"html-keyboard-response","162","392579","0.0-7.0-3.25","63d7ddc0c07dd5787084df8e","bdp_wmem","Sun Mar 12 2023 21:53:12 GMT-0700 (Pacific Daylight Time)","593343","Match,No Match","","null","","","","","","<div class='trialBorder'><div class='vertical-center'><img src='img/fixation2_sml.jpg'</img></div></div>","null","DELAY","","","","","","","","","","",""
"html-keyboard-response","163","393575","0.0-7.0-4.25","63d7ddc0c07dd5787084df8e","bdp_wmem","Sun Mar 12 2023 21:53:12 GMT-0700 (Pacific Daylight Time)","593343","Match,No Match","","992","","","","","","<div class='trialBorder'><div class='targDiv'><div class='tc'><img class='introPic' src='trustrating_stim/white_mw013.bmp'><br><font color='red'><strong>Keep</strong></font></div></div><div class='respDiv'><div class='respDivL'>Match<br>(e)</div><div class='respDivR'>No Match<br>(i)</div></div></div>","i","TARGET","1","trustrating_stim/white_mw042.bmp","0","noMatchFace","i","1500","trustrating_stim/white_mw013.bmp","red","Keep","REAL","1"
"html-keyboard-response","164","394082","0.0-7.0-5.25","63d7ddc0c07dd5787084df8e","bdp_wmem","Sun Mar 12 2023 21:53:12 GMT-0700 (Pacific Daylight Time)","593343","Match,No Match","","null","","","","","","<div class='trialBorder'><div class='vertical-center'><img src='img/correct.jpg'></div><div class='respDiv'><div class='respDivL'>Match<br>(e)</div><div class='respDivR'><font style='color:orange'>No Match<br>(i)</font></div></div></div>","null","FEEDBACK","","","","","","","","","","",""
"html-keyboard-response","165","394593","0.0-7.0-1.26","63d7ddc0c07dd5787084df8e","bdp_wmem","Sun Mar 12 2023 21:53:12 GMT-0700 (Pacific Daylight Time)","593343","Match,No Match","","null","","","","","","<div class='trialBorder'><div class='vertical-center'><img src='img/fixation2_sml.jpg'</img></div></div>","null","FIX","","","","","","","","","","",""
"html-keyboard-response","166","399104","0.0-7.0-2.26","63d7ddc0c07dd5787084df8e","bdp_wmem","Sun Mar 12 2023 21:53:12 GMT-0700 (Pacific Daylight Time)","593343","Match,No Match","","null","","","","","","<div class='trialBorder'><div class='vertical-center'><img style='vertical-align:center; align:center' src='img/fixation2_sml.jpg'></div><div class='arrayDiv3'><div class='tl'><img class='introPic' src='trustrating_stim/white_mw042.bmp'><br><font color='green'><strong>Share</strong></font></div><div class='tc'><img class='introPic' src='trustrating_stim/white_mw078.bmp'><br><font color='red'><strong>Keep</strong></font></div><div class='tr'><img class='introPic' src='trustrating_stim/white_mw085.bmp'><br><font color='red'><strong>Keep</strong></font></div></div></div>","null","ARRAY","3","trustrating_stim/white_mw042.bmp,trustrating_stim/white_mw078.bmp,trustrating_stim/white_mw085.bmp","1,0,0","noMatchFace","i","4500","","","","",""
"html-keyboard-response","167","403115","0.0-7.0-3.26","63d7ddc0c07dd5787084df8e","bdp_wmem","Sun Mar 12 2023 21:53:12 GMT-0700 (Pacific Daylight Time)","593343","Match,No Match","","null","","","","","","<div class='trialBorder'><div class='vertical-center'><img src='img/fixation2_sml.jpg'</img></div></div>","null","DELAY","","","","","","","","","","",""
"html-keyboard-response","168","404910","0.0-7.0-4.26","63d7ddc0c07dd5787084df8e","bdp_wmem","Sun Mar 12 2023 21:53:12 GMT-0700 (Pacific Daylight Time)","593343","Match,No Match","","1791","","","","","","<div class='trialBorder'><div class='targDiv'><div class='tc'><img class='introPic' src='trustrating_stim/white_mw092.bmp'><br><font color='red'><strong>Keep</strong></font></div></div><div class='respDiv'><div class='respDivL'>Match<br>(e)</div><div class='respDivR'>No Match<br>(i)</div></div></div>","i","TARGET","3","trustrating_stim/white_mw042.bmp,trustrating_stim/white_mw078.bmp,trustrating_stim/white_mw085.bmp","1,0,0","noMatchFace","i","4500","trustrating_stim/white_mw092.bmp","red","Keep","REAL","1"
"html-keyboard-response","169","405419","0.0-7.0-5.26","63d7ddc0c07dd5787084df8e","bdp_wmem","Sun Mar 12 2023 21:53:12 GMT-0700 (Pacific Daylight Time)","593343","Match,No Match","","null","","","","","","<div class='trialBorder'><div class='vertical-center'><img src='img/correct.jpg'></div><div class='respDiv'><div class='respDivL'>Match<br>(e)</div><div class='respDivR'><font style='color:orange'>No Match<br>(i)</font></div></div></div>","null","FEEDBACK","","","","","","","","","","",""
"html-keyboard-response","170","405929","0.0-7.0-1.27","63d7ddc0c07dd5787084df8e","bdp_wmem","Sun Mar 12 2023 21:53:12 GMT-0700 (Pacific Daylight Time)","593343","Match,No Match","","null","","","","","","<div class='trialBorder'><div class='vertical-center'><img src='img/fixation2_sml.jpg'</img></div></div>","null","FIX","","","","","","","","","","",""
"html-keyboard-response","171","407440","0.0-7.0-2.27","63d7ddc0c07dd5787084df8e","bdp_wmem","Sun Mar 12 2023 21:53:12 GMT-0700 (Pacific Daylight Time)","593343","Match,No Match","","null","","","","","","<div class='trialBorder'><div class='vertical-center'><img style='vertical-align:center; align:center' src='img/fixation2_sml.jpg'></div><div class='arrayDiv1'><div class='tc'><img class='introPic' src='trustrating_stim/white_mw070.bmp'><br><font color='green'><strong>Share</strong></font></div></div></div>","null","ARRAY","1","trustrating_stim/white_mw070.bmp","1","noMatchOutcome","i","1500","","","","",""
"html-keyboard-response","172","411451","0.0-7.0-3.27","63d7ddc0c07dd5787084df8e","bdp_wmem","Sun Mar 12 2023 21:53:12 GMT-0700 (Pacific Daylight Time)","593343","Match,No Match","","null","","","","","","<div class='trialBorder'><div class='vertical-center'><img src='img/fixation2_sml.jpg'</img></div></div>","null","DELAY","","","","","","","","","","",""
"html-keyboard-response","173","412871","0.0-7.0-4.27","63d7ddc0c07dd5787084df8e","bdp_wmem","Sun Mar 12 2023 21:53:12 GMT-0700 (Pacific Daylight Time)","593343","Match,No Match","","1418","","","","","","<div class='trialBorder'><div class='targDiv'><div class='tc'><img class='introPic' src='trustrating_stim/white_mw070.bmp'><br><font color='red'><strong>Keep</strong></font></div></div><div class='respDiv'><div class='respDivL'>Match<br>(e)</div><div class='respDivR'>No Match<br>(i)</div></div></div>","i","TARGET","1","trustrating_stim/white_mw070.bmp","1","noMatchOutcome","i","1500","trustrating_stim/white_mw070.bmp","red","Keep","REAL","1"
"html-keyboard-response","174","413378","0.0-7.0-5.27","63d7ddc0c07dd5787084df8e","bdp_wmem","Sun Mar 12 2023 21:53:12 GMT-0700 (Pacific Daylight Time)","593343","Match,No Match","","null","","","","","","<div class='trialBorder'><div class='vertical-center'><img src='img/correct.jpg'></div><div class='respDiv'><div class='respDivL'>Match<br>(e)</div><div class='respDivR'><font style='color:orange'>No Match<br>(i)</font></div></div></div>","null","FEEDBACK","","","","","","","","","","",""
"html-keyboard-response","175","413892","0.0-7.0-1.28","63d7ddc0c07dd5787084df8e","bdp_wmem","Sun Mar 12 2023 21:53:12 GMT-0700 (Pacific Daylight Time)","593343","Match,No Match","","null","","","","","","<div class='trialBorder'><div class='vertical-center'><img src='img/fixation2_sml.jpg'</img></div></div>","null","FIX","","","","","","","","","","",""
"html-keyboard-response","176","416896","0.0-7.0-2.28","63d7ddc0c07dd5787084df8e","bdp_wmem","Sun Mar 12 2023 21:53:12 GMT-0700 (Pacific Daylight Time)","593343","Match,No Match","","null","","","","","","<div class='trialBorder'><div class='vertical-center'><img style='vertical-align:center; align:center' src='img/fixation2_sml.jpg'></div><div class='arrayDiv2'><div class='tl'><img class='introPic' src='trustrating_stim/white_mw042.bmp'><br><font color='green'><strong>Share</strong></font></div><div class='tr'><img class='introPic' src='trustrating_stim/white_mw010.bmp'><br><font color='red'><strong>Keep</strong></font></div></div></div>","null","ARRAY","2","trustrating_stim/white_mw042.bmp,trustrating_stim/white_mw010.bmp","1,0","noMatchOutcome","i","3000","","","","",""
"html-keyboard-response","177","420906","0.0-7.0-3.28","63d7ddc0c07dd5787084df8e","bdp_wmem","Sun Mar 12 2023 21:53:12 GMT-0700 (Pacific Daylight Time)","593343","Match,No Match","","null","","","","","","<div class='trialBorder'><div class='vertical-center'><img src='img/fixation2_sml.jpg'</img></div></div>","null","DELAY","","","","","","","","","","",""
"html-keyboard-response","178","422601","0.0-7.0-4.28","63d7ddc0c07dd5787084df8e","bdp_wmem","Sun Mar 12 2023 21:53:12 GMT-0700 (Pacific Daylight Time)","593343","Match,No Match","","1692","","","","","","<div class='trialBorder'><div class='targDiv'><div class='tc'><img class='introPic' src='trustrating_stim/white_mw042.bmp'><br><font color='red'><strong>Keep</strong></font></div></div><div class='respDiv'><div class='respDivL'>Match<br>(e)</div><div class='respDivR'>No Match<br>(i)</div></div></div>","i","TARGET","2","trustrating_stim/white_mw042.bmp,trustrating_stim/white_mw010.bmp","1,0","noMatchOutcome","i","3000","trustrating_stim/white_mw042.bmp","red","Keep","REAL","1"
"html-keyboard-response","179","423107","0.0-7.0-5.28","63d7ddc0c07dd5787084df8e","bdp_wmem","Sun Mar 12 2023 21:53:12 GMT-0700 (Pacific Daylight Time)","593343","Match,No Match","","null","","","","","","<div class='trialBorder'><div class='vertical-center'><img src='img/correct.jpg'></div><div class='respDiv'><div class='respDivL'>Match<br>(e)</div><div class='respDivR'><font style='color:orange'>No Match<br>(i)</font></div></div></div>","null","FEEDBACK","","","","","","","","","","",""
"html-keyboard-response","180","423618","0.0-7.0-1.29","63d7ddc0c07dd5787084df8e","bdp_wmem","Sun Mar 12 2023 21:53:12 GMT-0700 (Pacific Daylight Time)","593343","Match,No Match","","null","","","","","","<div class='trialBorder'><div class='vertical-center'><img src='img/fixation2_sml.jpg'</img></div></div>","null","FIX","","","","","","","","","","",""
"html-keyboard-response","181","428128","0.0-7.0-2.29","63d7ddc0c07dd5787084df8e","bdp_wmem","Sun Mar 12 2023 21:53:12 GMT-0700 (Pacific Daylight Time)","593343","Match,No Match","","null","","","","","","<div class='trialBorder'><div class='vertical-center'><img style='vertical-align:center; align:center' src='img/fixation2_sml.jpg'></div><div class='arrayDiv3'><div class='tl'><img class='introPic' src='trustrating_stim/white_mw085.bmp'><br><font color='green'><strong>Share</strong></font></div><div class='tc'><img class='introPic' src='trustrating_stim/white_mw038.bmp'><br><font color='red'><strong>Keep</strong></font></div><div class='tr'><img class='introPic' src='trustrating_stim/white_mw003.bmp'><br><font color='green'><strong>Share</strong></font></div></div></div>","null","ARRAY","3","trustrating_stim/white_mw085.bmp,trustrating_stim/white_mw038.bmp,trustrating_stim/white_mw003.bmp","1,0,1","noMatchOutcome","i","4500","","","","",""
"html-keyboard-response","182","432140","0.0-7.0-3.29","63d7ddc0c07dd5787084df8e","bdp_wmem","Sun Mar 12 2023 21:53:12 GMT-0700 (Pacific Daylight Time)","593343","Match,No Match","","null","","","","","","<div class='trialBorder'><div class='vertical-center'><img src='img/fixation2_sml.jpg'</img></div></div>","null","DELAY","","","","","","","","","","",""
"html-keyboard-response","183","433747","0.0-7.0-4.29","63d7ddc0c07dd5787084df8e","bdp_wmem","Sun Mar 12 2023 21:53:12 GMT-0700 (Pacific Daylight Time)","593343","Match,No Match","","1605","","","","","","<div class='trialBorder'><div class='targDiv'><div class='tc'><img class='introPic' src='trustrating_stim/white_mw085.bmp'><br><font color='red'><strong>Keep</strong></font></div></div><div class='respDiv'><div class='respDivL'>Match<br>(e)</div><div class='respDivR'>No Match<br>(i)</div></div></div>","i","TARGET","3","trustrating_stim/white_mw085.bmp,trustrating_stim/white_mw038.bmp,trustrating_stim/white_mw003.bmp","1,0,1","noMatchOutcome","i","4500","trustrating_stim/white_mw085.bmp","red","Keep","REAL","1"
"html-keyboard-response","184","434258","0.0-7.0-5.29","63d7ddc0c07dd5787084df8e","bdp_wmem","Sun Mar 12 2023 21:53:12 GMT-0700 (Pacific Daylight Time)","593343","Match,No Match","","null","","","","","","<div class='trialBorder'><div class='vertical-center'><img src='img/correct.jpg'></div><div class='respDiv'><div class='respDivL'>Match<br>(e)</div><div class='respDivR'><font style='color:orange'>No Match<br>(i)</font></div></div></div>","null","FEEDBACK","","","","","","","","","","",""
"html-keyboard-response","185","434769","0.0-7.0-1.30","63d7ddc0c07dd5787084df8e","bdp_wmem","Sun Mar 12 2023 21:53:12 GMT-0700 (Pacific Daylight Time)","593343","Match,No Match","","null","","","","","","<div class='trialBorder'><div class='vertical-center'><img src='img/fixation2_sml.jpg'</img></div></div>","null","FIX","","","","","","","","","","",""
"html-keyboard-response","186","436282","0.0-7.0-2.30","63d7ddc0c07dd5787084df8e","bdp_wmem","Sun Mar 12 2023 21:53:12 GMT-0700 (Pacific Daylight Time)","593343","Match,No Match","","null","","","","","","<div class='trialBorder'><div class='vertical-center'><img style='vertical-align:center; align:center' src='img/fixation2_sml.jpg'></div><div class='arrayDiv1'><div class='tc'><img class='introPic' src='trustrating_stim/white_mw078.bmp'><br><font color='green'><strong>Share</strong></font></div></div></div>","null","ARRAY","1","trustrating_stim/white_mw078.bmp","1","Match","e","1500","","","","",""
