"trial_type","trial_index","time_elapsed","internal_node_id","subject_id","task","startTime","totalTime","labels","view_history","rt","event","trial","time","trialtype","success","stimulus","key_press","stimType","arraySize","arrayFaces","arrayOutcomes","matchType","corrResp","arrayDur","targFace","targCol","targOutcome","trialType","corr"
"pavlovia","0","1","0.0-0.0","55e7221441988f000b75cc7a","bdp_wmem","Wed Mar 15 2023 15:33:35 GMT-0400 (Eastern Daylight Time)","598475","Match,No Match","","","","","","","","","","","","","","","","","","","","",""
"instructions","1","5111","0.0-1.0","55e7221441988f000b75cc7a","bdp_wmem","Wed Mar 15 2023 15:33:35 GMT-0400 (Eastern Daylight Time)","598475","Match,No Match","[{""page_index"":0,""viewing_time"":5110}]","5110","","","","","","","","","","","","","","","","","","",""
"","","","","55e7221441988f000b75cc7a","bdp_wmem","Wed Mar 15 2023 15:33:35 GMT-0400 (Eastern Daylight Time)","598475","Match,No Match","","","fullscreenenter","2","13069","fullscreenenter","","","","","","","","","","","","","","",""
"fullscreen","2","14066","0.0-2.0","55e7221441988f000b75cc7a","bdp_wmem","Wed Mar 15 2023 15:33:35 GMT-0400 (Eastern Daylight Time)","598475","Match,No Match","","","","","","","true","","","","","","","","","","","","","",""
"instructions","3","88279","0.0-4.0","55e7221441988f000b75cc7a","bdp_wmem","Wed Mar 15 2023 15:33:35 GMT-0400 (Eastern Daylight Time)","598475","Match,No Match","[{""page_index"":0,""viewing_time"":20473},{""page_index"":1,""viewing_time"":29929},{""page_index"":2,""viewing_time"":11789},{""page_index"":3,""viewing_time"":3398},{""page_index"":4,""viewing_time"":8624}]","74213","","","","","","","","","","","","","","","","","","",""
"html-keyboard-response","4","88781","0.0-5.0-1.0","55e7221441988f000b75cc7a","bdp_wmem","Wed Mar 15 2023 15:33:35 GMT-0400 (Eastern Daylight Time)","598475","Match,No Match","","null","","","","","","<div class='trialBorder'><div class='vertical-center'><img src='img/fixation2_sml.jpg'</img></div></div>","null","FIX","","","","","","","","","","",""
"html-keyboard-response","5","91782","0.0-5.0-2.0","55e7221441988f000b75cc7a","bdp_wmem","Wed Mar 15 2023 15:33:35 GMT-0400 (Eastern Daylight Time)","598475","Match,No Match","","null","","","","","","<div class='trialBorder'><div class='vertical-center'><img style='vertical-align:center; align:center' src='img/fixation2_sml.jpg'></div><div class='arrayDiv2'><div class='tl'><img class='introPic' src='trustrating_stim/white_mw092.bmp'><br><font color='red'><strong>Keep</strong></font></div><div class='tr'><img class='introPic' src='trustrating_stim/white_mw038.bmp'><br><font color='green'><strong>Share</strong></font></div></div></div>","null","ARRAY","2","trustrating_stim/white_mw092.bmp,trustrating_stim/white_mw038.bmp","0,1","noMatchOutcome","i","3000","","","","",""
"html-keyboard-response","6","95785","0.0-5.0-3.0","55e7221441988f000b75cc7a","bdp_wmem","Wed Mar 15 2023 15:33:35 GMT-0400 (Eastern Daylight Time)","598475","Match,No Match","","null","","","","","","<div class='trialBorder'><div class='vertical-center'><img src='img/fixation2_sml.jpg'</img></div></div>","null","DELAY","","","","","","","","","","",""
"html-keyboard-response","7","98437","0.0-5.0-4.0","55e7221441988f000b75cc7a","bdp_wmem","Wed Mar 15 2023 15:33:35 GMT-0400 (Eastern Daylight Time)","598475","Match,No Match","","2651","","","","","","<div class='trialBorder'><div class='targDiv'><div class='tc'><img class='introPic' src='trustrating_stim/white_mw038.bmp'><br><font color='red'><strong>Keep</strong></font></div></div><div class='respDiv'><div class='respDivL'>Match<br>(e)</div><div class='respDivR'>No Match<br>(i)</div></div></div>","i","TARGET","2","trustrating_stim/white_mw092.bmp,trustrating_stim/white_mw038.bmp","0,1","noMatchOutcome","i","3000","trustrating_stim/white_mw038.bmp","red","Keep","PRACTICE","1"
"html-keyboard-response","8","98937","0.0-5.0-5.0","55e7221441988f000b75cc7a","bdp_wmem","Wed Mar 15 2023 15:33:35 GMT-0400 (Eastern Daylight Time)","598475","Match,No Match","","null","","","","","","<div class='trialBorder'><div class='vertical-center'><img src='img/correct.jpg'></div><div class='respDiv'><div class='respDivL'>Match<br>(e)</div><div class='respDivR'><font style='color:orange'>No Match<br>(i)</font></div></div></div>","null","FEEDBACK","","","","","","","","","","",""
"html-keyboard-response","9","99438","0.0-5.0-1.1","55e7221441988f000b75cc7a","bdp_wmem","Wed Mar 15 2023 15:33:35 GMT-0400 (Eastern Daylight Time)","598475","Match,No Match","","null","","","","","","<div class='trialBorder'><div class='vertical-center'><img src='img/fixation2_sml.jpg'</img></div></div>","null","FIX","","","","","","","","","","",""
"html-keyboard-response","10","100939","0.0-5.0-2.1","55e7221441988f000b75cc7a","bdp_wmem","Wed Mar 15 2023 15:33:35 GMT-0400 (Eastern Daylight Time)","598475","Match,No Match","","null","","","","","","<div class='trialBorder'><div class='vertical-center'><img style='vertical-align:center; align:center' src='img/fixation2_sml.jpg'></div><div class='arrayDiv1'><div class='tc'><img class='introPic' src='trustrating_stim/white_mw070.bmp'><br><font color='green'><strong>Share</strong></font></div></div></div>","null","ARRAY","1","trustrating_stim/white_mw070.bmp","1","noMatchFace","i","1500","","","","",""
"html-keyboard-response","11","104940","0.0-5.0-3.1","55e7221441988f000b75cc7a","bdp_wmem","Wed Mar 15 2023 15:33:35 GMT-0400 (Eastern Daylight Time)","598475","Match,No Match","","null","","","","","","<div class='trialBorder'><div class='vertical-center'><img src='img/fixation2_sml.jpg'</img></div></div>","null","DELAY","","","","","","","","","","",""
"html-keyboard-response","12","106155","0.0-5.0-4.1","55e7221441988f000b75cc7a","bdp_wmem","Wed Mar 15 2023 15:33:35 GMT-0400 (Eastern Daylight Time)","598475","Match,No Match","","1214","","","","","","<div class='trialBorder'><div class='targDiv'><div class='tc'><img class='introPic' src='trustrating_stim/white_mw010.bmp'><br><font color='green'><strong>Share</strong></font></div></div><div class='respDiv'><div class='respDivL'>Match<br>(e)</div><div class='respDivR'>No Match<br>(i)</div></div></div>","i","TARGET","1","trustrating_stim/white_mw070.bmp","1","noMatchFace","i","1500","trustrating_stim/white_mw010.bmp","green","Share","PRACTICE","1"
"html-keyboard-response","13","106656","0.0-5.0-5.1","55e7221441988f000b75cc7a","bdp_wmem","Wed Mar 15 2023 15:33:35 GMT-0400 (Eastern Daylight Time)","598475","Match,No Match","","null","","","","","","<div class='trialBorder'><div class='vertical-center'><img src='img/correct.jpg'></div><div class='respDiv'><div class='respDivL'>Match<br>(e)</div><div class='respDivR'><font style='color:orange'>No Match<br>(i)</font></div></div></div>","null","FEEDBACK","","","","","","","","","","",""
"html-keyboard-response","14","107157","0.0-5.0-1.2","55e7221441988f000b75cc7a","bdp_wmem","Wed Mar 15 2023 15:33:35 GMT-0400 (Eastern Daylight Time)","598475","Match,No Match","","null","","","","","","<div class='trialBorder'><div class='vertical-center'><img src='img/fixation2_sml.jpg'</img></div></div>","null","FIX","","","","","","","","","","",""
"html-keyboard-response","15","111659","0.0-5.0-2.2","55e7221441988f000b75cc7a","bdp_wmem","Wed Mar 15 2023 15:33:35 GMT-0400 (Eastern Daylight Time)","598475","Match,No Match","","null","","","","","","<div class='trialBorder'><div class='vertical-center'><img style='vertical-align:center; align:center' src='img/fixation2_sml.jpg'></div><div class='arrayDiv3'><div class='tl'><img class='introPic' src='trustrating_stim/white_mw070.bmp'><br><font color='red'><strong>Keep</strong></font></div><div class='tc'><img class='introPic' src='trustrating_stim/white_mw013.bmp'><br><font color='green'><strong>Share</strong></font></div><div class='tr'><img class='introPic' src='trustrating_stim/white_mw010.bmp'><br><font color='green'><strong>Share</strong></font></div></div></div>","null","ARRAY","3","trustrating_stim/white_mw070.bmp,trustrating_stim/white_mw013.bmp,trustrating_stim/white_mw010.bmp","0,1,1","noMatchOutcome","i","4500","","","","",""
"html-keyboard-response","16","115661","0.0-5.0-3.2","55e7221441988f000b75cc7a","bdp_wmem","Wed Mar 15 2023 15:33:35 GMT-0400 (Eastern Daylight Time)","598475","Match,No Match","","null","","","","","","<div class='trialBorder'><div class='vertical-center'><img src='img/fixation2_sml.jpg'</img></div></div>","null","DELAY","","","","","","","","","","",""
"html-keyboard-response","17","117124","0.0-5.0-4.2","55e7221441988f000b75cc7a","bdp_wmem","Wed Mar 15 2023 15:33:35 GMT-0400 (Eastern Daylight Time)","598475","Match,No Match","","1463","","","","","","<div class='trialBorder'><div class='targDiv'><div class='tc'><img class='introPic' src='trustrating_stim/white_mw010.bmp'><br><font color='red'><strong>Keep</strong></font></div></div><div class='respDiv'><div class='respDivL'>Match<br>(e)</div><div class='respDivR'>No Match<br>(i)</div></div></div>","i","TARGET","3","trustrating_stim/white_mw070.bmp,trustrating_stim/white_mw013.bmp,trustrating_stim/white_mw010.bmp","0,1,1","noMatchOutcome","i","4500","trustrating_stim/white_mw010.bmp","red","Keep","PRACTICE","1"
"html-keyboard-response","18","117626","0.0-5.0-5.2","55e7221441988f000b75cc7a","bdp_wmem","Wed Mar 15 2023 15:33:35 GMT-0400 (Eastern Daylight Time)","598475","Match,No Match","","null","","","","","","<div class='trialBorder'><div class='vertical-center'><img src='img/correct.jpg'></div><div class='respDiv'><div class='respDivL'>Match<br>(e)</div><div class='respDivR'><font style='color:orange'>No Match<br>(i)</font></div></div></div>","null","FEEDBACK","","","","","","","","","","",""
"html-keyboard-response","19","118127","0.0-5.0-1.3","55e7221441988f000b75cc7a","bdp_wmem","Wed Mar 15 2023 15:33:35 GMT-0400 (Eastern Daylight Time)","598475","Match,No Match","","null","","","","","","<div class='trialBorder'><div class='vertical-center'><img src='img/fixation2_sml.jpg'</img></div></div>","null","FIX","","","","","","","","","","",""
"html-keyboard-response","20","122628","0.0-5.0-2.3","55e7221441988f000b75cc7a","bdp_wmem","Wed Mar 15 2023 15:33:35 GMT-0400 (Eastern Daylight Time)","598475","Match,No Match","","null","","","","","","<div class='trialBorder'><div class='vertical-center'><img style='vertical-align:center; align:center' src='img/fixation2_sml.jpg'></div><div class='arrayDiv3'><div class='tl'><img class='introPic' src='trustrating_stim/white_mw003.bmp'><br><font color='red'><strong>Keep</strong></font></div><div class='tc'><img class='introPic' src='trustrating_stim/white_mw012.bmp'><br><font color='red'><strong>Keep</strong></font></div><div class='tr'><img class='introPic' src='trustrating_stim/white_mw042.bmp'><br><font color='green'><strong>Share</strong></font></div></div></div>","null","ARRAY","3","trustrating_stim/white_mw003.bmp,trustrating_stim/white_mw012.bmp,trustrating_stim/white_mw042.bmp","0,0,1","Match","e","4500","","","","",""
"html-keyboard-response","21","126630","0.0-5.0-3.3","55e7221441988f000b75cc7a","bdp_wmem","Wed Mar 15 2023 15:33:35 GMT-0400 (Eastern Daylight Time)","598475","Match,No Match","","null","","","","","","<div class='trialBorder'><div class='vertical-center'><img src='img/fixation2_sml.jpg'</img></div></div>","null","DELAY","","","","","","","","","","",""
"html-keyboard-response","22","128083","0.0-5.0-4.3","55e7221441988f000b75cc7a","bdp_wmem","Wed Mar 15 2023 15:33:35 GMT-0400 (Eastern Daylight Time)","598475","Match,No Match","","1452","","","","","","<div class='trialBorder'><div class='targDiv'><div class='tc'><img class='introPic' src='trustrating_stim/white_mw003.bmp'><br><font color='red'><strong>Keep</strong></font></div></div><div class='respDiv'><div class='respDivL'>Match<br>(e)</div><div class='respDivR'>No Match<br>(i)</div></div></div>","e","TARGET","3","trustrating_stim/white_mw003.bmp,trustrating_stim/white_mw012.bmp,trustrating_stim/white_mw042.bmp","0,0,1","Match","e","4500","trustrating_stim/white_mw003.bmp","red","Keep","PRACTICE","1"
"html-keyboard-response","23","128584","0.0-5.0-5.3","55e7221441988f000b75cc7a","bdp_wmem","Wed Mar 15 2023 15:33:35 GMT-0400 (Eastern Daylight Time)","598475","Match,No Match","","null","","","","","","<div class='trialBorder'><div class='vertical-center'><img src='img/correct.jpg'></div><div class='respDiv'><div class='respDivL'><font style='color:orange'>Match<br>(e)</font></div><div class='respDivR'>No Match<br>(i)</div></div></div>","null","FEEDBACK","","","","","","","","","","",""
"html-keyboard-response","24","129085","0.0-5.0-1.4","55e7221441988f000b75cc7a","bdp_wmem","Wed Mar 15 2023 15:33:35 GMT-0400 (Eastern Daylight Time)","598475","Match,No Match","","null","","","","","","<div class='trialBorder'><div class='vertical-center'><img src='img/fixation2_sml.jpg'</img></div></div>","null","FIX","","","","","","","","","","",""
"html-keyboard-response","25","132087","0.0-5.0-2.4","55e7221441988f000b75cc7a","bdp_wmem","Wed Mar 15 2023 15:33:35 GMT-0400 (Eastern Daylight Time)","598475","Match,No Match","","null","","","","","","<div class='trialBorder'><div class='vertical-center'><img style='vertical-align:center; align:center' src='img/fixation2_sml.jpg'></div><div class='arrayDiv2'><div class='tl'><img class='introPic' src='trustrating_stim/white_mw038.bmp'><br><font color='green'><strong>Share</strong></font></div><div class='tr'><img class='introPic' src='trustrating_stim/white_mw010.bmp'><br><font color='red'><strong>Keep</strong></font></div></div></div>","null","ARRAY","2","trustrating_stim/white_mw038.bmp,trustrating_stim/white_mw010.bmp","1,0","Match","e","3000","","","","",""
"html-keyboard-response","26","136088","0.0-5.0-3.4","55e7221441988f000b75cc7a","bdp_wmem","Wed Mar 15 2023 15:33:35 GMT-0400 (Eastern Daylight Time)","598475","Match,No Match","","null","","","","","","<div class='trialBorder'><div class='vertical-center'><img src='img/fixation2_sml.jpg'</img></div></div>","null","DELAY","","","","","","","","","","",""
"html-keyboard-response","27","137018","0.0-5.0-4.4","55e7221441988f000b75cc7a","bdp_wmem","Wed Mar 15 2023 15:33:35 GMT-0400 (Eastern Daylight Time)","598475","Match,No Match","","929","","","","","","<div class='trialBorder'><div class='targDiv'><div class='tc'><img class='introPic' src='trustrating_stim/white_mw038.bmp'><br><font color='green'><strong>Share</strong></font></div></div><div class='respDiv'><div class='respDivL'>Match<br>(e)</div><div class='respDivR'>No Match<br>(i)</div></div></div>","e","TARGET","2","trustrating_stim/white_mw038.bmp,trustrating_stim/white_mw010.bmp","1,0","Match","e","3000","trustrating_stim/white_mw038.bmp","green","Share","PRACTICE","1"
"html-keyboard-response","28","137518","0.0-5.0-5.4","55e7221441988f000b75cc7a","bdp_wmem","Wed Mar 15 2023 15:33:35 GMT-0400 (Eastern Daylight Time)","598475","Match,No Match","","null","","","","","","<div class='trialBorder'><div class='vertical-center'><img src='img/correct.jpg'></div><div class='respDiv'><div class='respDivL'><font style='color:orange'>Match<br>(e)</font></div><div class='respDivR'>No Match<br>(i)</div></div></div>","null","FEEDBACK","","","","","","","","","","",""
"html-keyboard-response","29","138019","0.0-5.0-1.5","55e7221441988f000b75cc7a","bdp_wmem","Wed Mar 15 2023 15:33:35 GMT-0400 (Eastern Daylight Time)","598475","Match,No Match","","null","","","","","","<div class='trialBorder'><div class='vertical-center'><img src='img/fixation2_sml.jpg'</img></div></div>","null","FIX","","","","","","","","","","",""
"html-keyboard-response","30","139520","0.0-5.0-2.5","55e7221441988f000b75cc7a","bdp_wmem","Wed Mar 15 2023 15:33:35 GMT-0400 (Eastern Daylight Time)","598475","Match,No Match","","null","","","","","","<div class='trialBorder'><div class='vertical-center'><img style='vertical-align:center; align:center' src='img/fixation2_sml.jpg'></div><div class='arrayDiv1'><div class='tc'><img class='introPic' src='trustrating_stim/white_mw078.bmp'><br><font color='red'><strong>Keep</strong></font></div></div></div>","null","ARRAY","1","trustrating_stim/white_mw078.bmp","0","Match","e","1500","","","","",""
"html-keyboard-response","31","143521","0.0-5.0-3.5","55e7221441988f000b75cc7a","bdp_wmem","Wed Mar 15 2023 15:33:35 GMT-0400 (Eastern Daylight Time)","598475","Match,No Match","","null","","","","","","<div class='trialBorder'><div class='vertical-center'><img src='img/fixation2_sml.jpg'</img></div></div>","null","DELAY","","","","","","","","","","",""
"html-keyboard-response","32","144958","0.0-5.0-4.5","55e7221441988f000b75cc7a","bdp_wmem","Wed Mar 15 2023 15:33:35 GMT-0400 (Eastern Daylight Time)","598475","Match,No Match","","1436","","","","","","<div class='trialBorder'><div class='targDiv'><div class='tc'><img class='introPic' src='trustrating_stim/white_mw078.bmp'><br><font color='red'><strong>Keep</strong></font></div></div><div class='respDiv'><div class='respDivL'>Match<br>(e)</div><div class='respDivR'>No Match<br>(i)</div></div></div>","e","TARGET","1","trustrating_stim/white_mw078.bmp","0","Match","e","1500","trustrating_stim/white_mw078.bmp","red","Keep","PRACTICE","1"
"html-keyboard-response","33","145458","0.0-5.0-5.5","55e7221441988f000b75cc7a","bdp_wmem","Wed Mar 15 2023 15:33:35 GMT-0400 (Eastern Daylight Time)","598475","Match,No Match","","null","","","","","","<div class='trialBorder'><div class='vertical-center'><img src='img/correct.jpg'></div><div class='respDiv'><div class='respDivL'><font style='color:orange'>Match<br>(e)</font></div><div class='respDivR'>No Match<br>(i)</div></div></div>","null","FEEDBACK","","","","","","","","","","",""
"instructions","34","149566","0.0-6.0","55e7221441988f000b75cc7a","bdp_wmem","Wed Mar 15 2023 15:33:35 GMT-0400 (Eastern Daylight Time)","598475","Match,No Match","[{""page_index"":0,""viewing_time"":4107}]","4107","","","","","","","","","","","","","","","","","","",""
"html-keyboard-response","35","150067","0.0-7.0-1.0","55e7221441988f000b75cc7a","bdp_wmem","Wed Mar 15 2023 15:33:35 GMT-0400 (Eastern Daylight Time)","598475","Match,No Match","","null","","","","","","<div class='trialBorder'><div class='vertical-center'><img src='img/fixation2_sml.jpg'</img></div></div>","null","FIX","","","","","","","","","","",""
"html-keyboard-response","36","153068","0.0-7.0-2.0","55e7221441988f000b75cc7a","bdp_wmem","Wed Mar 15 2023 15:33:35 GMT-0400 (Eastern Daylight Time)","598475","Match,No Match","","null","","","","","","<div class='trialBorder'><div class='vertical-center'><img style='vertical-align:center; align:center' src='img/fixation2_sml.jpg'></div><div class='arrayDiv2'><div class='tl'><img class='introPic' src='trustrating_stim/white_mw042.bmp'><br><font color='green'><strong>Share</strong></font></div><div class='tr'><img class='introPic' src='trustrating_stim/white_mw038.bmp'><br><font color='red'><strong>Keep</strong></font></div></div></div>","null","ARRAY","2","trustrating_stim/white_mw042.bmp,trustrating_stim/white_mw038.bmp","1,0","Match","e","3000","","","","",""
"html-keyboard-response","37","157069","0.0-7.0-3.0","55e7221441988f000b75cc7a","bdp_wmem","Wed Mar 15 2023 15:33:35 GMT-0400 (Eastern Daylight Time)","598475","Match,No Match","","null","","","","","","<div class='trialBorder'><div class='vertical-center'><img src='img/fixation2_sml.jpg'</img></div></div>","null","DELAY","","","","","","","","","","",""
"html-keyboard-response","38","158141","0.0-7.0-4.0","55e7221441988f000b75cc7a","bdp_wmem","Wed Mar 15 2023 15:33:35 GMT-0400 (Eastern Daylight Time)","598475","Match,No Match","","1072","","","","","","<div class='trialBorder'><div class='targDiv'><div class='tc'><img class='introPic' src='trustrating_stim/white_mw042.bmp'><br><font color='green'><strong>Share</strong></font></div></div><div class='respDiv'><div class='respDivL'>Match<br>(e)</div><div class='respDivR'>No Match<br>(i)</div></div></div>","e","TARGET","2","trustrating_stim/white_mw042.bmp,trustrating_stim/white_mw038.bmp","1,0","Match","e","3000","trustrating_stim/white_mw042.bmp","green","Share","REAL","1"
"html-keyboard-response","39","158642","0.0-7.0-5.0","55e7221441988f000b75cc7a","bdp_wmem","Wed Mar 15 2023 15:33:35 GMT-0400 (Eastern Daylight Time)","598475","Match,No Match","","null","","","","","","<div class='trialBorder'><div class='vertical-center'><img src='img/correct.jpg'></div><div class='respDiv'><div class='respDivL'><font style='color:orange'>Match<br>(e)</font></div><div class='respDivR'>No Match<br>(i)</div></div></div>","null","FEEDBACK","","","","","","","","","","",""
"html-keyboard-response","40","159143","0.0-7.0-1.1","55e7221441988f000b75cc7a","bdp_wmem","Wed Mar 15 2023 15:33:35 GMT-0400 (Eastern Daylight Time)","598475","Match,No Match","","null","","","","","","<div class='trialBorder'><div class='vertical-center'><img src='img/fixation2_sml.jpg'</img></div></div>","null","FIX","","","","","","","","","","",""
"html-keyboard-response","41","162144","0.0-7.0-2.1","55e7221441988f000b75cc7a","bdp_wmem","Wed Mar 15 2023 15:33:35 GMT-0400 (Eastern Daylight Time)","598475","Match,No Match","","null","","","","","","<div class='trialBorder'><div class='vertical-center'><img style='vertical-align:center; align:center' src='img/fixation2_sml.jpg'></div><div class='arrayDiv2'><div class='tl'><img class='introPic' src='trustrating_stim/white_mw085.bmp'><br><font color='green'><strong>Share</strong></font></div><div class='tr'><img class='introPic' src='trustrating_stim/white_mw092.bmp'><br><font color='red'><strong>Keep</strong></font></div></div></div>","null","ARRAY","2","trustrating_stim/white_mw085.bmp,trustrating_stim/white_mw092.bmp","1,0","noMatchFace","i","3000","","","","",""
"html-keyboard-response","42","166146","0.0-7.0-3.1","55e7221441988f000b75cc7a","bdp_wmem","Wed Mar 15 2023 15:33:35 GMT-0400 (Eastern Daylight Time)","598475","Match,No Match","","null","","","","","","<div class='trialBorder'><div class='vertical-center'><img src='img/fixation2_sml.jpg'</img></div></div>","null","DELAY","","","","","","","","","","",""
"html-keyboard-response","43","167474","0.0-7.0-4.1","55e7221441988f000b75cc7a","bdp_wmem","Wed Mar 15 2023 15:33:35 GMT-0400 (Eastern Daylight Time)","598475","Match,No Match","","1327","","","","","","<div class='trialBorder'><div class='targDiv'><div class='tc'><img class='introPic' src='trustrating_stim/white_mw012.bmp'><br><font color='green'><strong>Share</strong></font></div></div><div class='respDiv'><div class='respDivL'>Match<br>(e)</div><div class='respDivR'>No Match<br>(i)</div></div></div>","i","TARGET","2","trustrating_stim/white_mw085.bmp,trustrating_stim/white_mw092.bmp","1,0","noMatchFace","i","3000","trustrating_stim/white_mw012.bmp","green","Share","REAL","1"
"html-keyboard-response","44","167974","0.0-7.0-5.1","55e7221441988f000b75cc7a","bdp_wmem","Wed Mar 15 2023 15:33:35 GMT-0400 (Eastern Daylight Time)","598475","Match,No Match","","null","","","","","","<div class='trialBorder'><div class='vertical-center'><img src='img/correct.jpg'></div><div class='respDiv'><div class='respDivL'>Match<br>(e)</div><div class='respDivR'><font style='color:orange'>No Match<br>(i)</font></div></div></div>","null","FEEDBACK","","","","","","","","","","",""
"html-keyboard-response","45","168475","0.0-7.0-1.2","55e7221441988f000b75cc7a","bdp_wmem","Wed Mar 15 2023 15:33:35 GMT-0400 (Eastern Daylight Time)","598475","Match,No Match","","null","","","","","","<div class='trialBorder'><div class='vertical-center'><img src='img/fixation2_sml.jpg'</img></div></div>","null","FIX","","","","","","","","","","",""
"html-keyboard-response","46","172976","0.0-7.0-2.2","55e7221441988f000b75cc7a","bdp_wmem","Wed Mar 15 2023 15:33:35 GMT-0400 (Eastern Daylight Time)","598475","Match,No Match","","null","","","","","","<div class='trialBorder'><div class='vertical-center'><img style='vertical-align:center; align:center' src='img/fixation2_sml.jpg'></div><div class='arrayDiv3'><div class='tl'><img class='introPic' src='trustrating_stim/white_mw010.bmp'><br><font color='red'><strong>Keep</strong></font></div><div class='tc'><img class='introPic' src='trustrating_stim/white_mw040.bmp'><br><font color='green'><strong>Share</strong></font></div><div class='tr'><img class='introPic' src='trustrating_stim/white_mw012.bmp'><br><font color='red'><strong>Keep</strong></font></div></div></div>","null","ARRAY","3","trustrating_stim/white_mw010.bmp,trustrating_stim/white_mw040.bmp,trustrating_stim/white_mw012.bmp","0,1,0","Match","e","4500","","","","",""
"html-keyboard-response","47","176977","0.0-7.0-3.2","55e7221441988f000b75cc7a","bdp_wmem","Wed Mar 15 2023 15:33:35 GMT-0400 (Eastern Daylight Time)","598475","Match,No Match","","null","","","","","","<div class='trialBorder'><div class='vertical-center'><img src='img/fixation2_sml.jpg'</img></div></div>","null","DELAY","","","","","","","","","","",""
"html-keyboard-response","48","181000","0.0-7.0-4.2","55e7221441988f000b75cc7a","bdp_wmem","Wed Mar 15 2023 15:33:35 GMT-0400 (Eastern Daylight Time)","598475","Match,No Match","","4023","","","","","","<div class='trialBorder'><div class='targDiv'><div class='tc'><img class='introPic' src='trustrating_stim/white_mw012.bmp'><br><font color='red'><strong>Keep</strong></font></div></div><div class='respDiv'><div class='respDivL'>Match<br>(e)</div><div class='respDivR'>No Match<br>(i)</div></div></div>","e","TARGET","3","trustrating_stim/white_mw010.bmp,trustrating_stim/white_mw040.bmp,trustrating_stim/white_mw012.bmp","0,1,0","Match","e","4500","trustrating_stim/white_mw012.bmp","red","Keep","REAL","1"
"html-keyboard-response","49","181501","0.0-7.0-5.2","55e7221441988f000b75cc7a","bdp_wmem","Wed Mar 15 2023 15:33:35 GMT-0400 (Eastern Daylight Time)","598475","Match,No Match","","null","","","","","","<div class='trialBorder'><div class='vertical-center'><img src='img/correct.jpg'></div><div class='respDiv'><div class='respDivL'><font style='color:orange'>Match<br>(e)</font></div><div class='respDivR'>No Match<br>(i)</div></div></div>","null","FEEDBACK","","","","","","","","","","",""
"html-keyboard-response","50","182002","0.0-7.0-1.3","55e7221441988f000b75cc7a","bdp_wmem","Wed Mar 15 2023 15:33:35 GMT-0400 (Eastern Daylight Time)","598475","Match,No Match","","null","","","","","","<div class='trialBorder'><div class='vertical-center'><img src='img/fixation2_sml.jpg'</img></div></div>","null","FIX","","","","","","","","","","",""
"html-keyboard-response","51","186504","0.0-7.0-2.3","55e7221441988f000b75cc7a","bdp_wmem","Wed Mar 15 2023 15:33:35 GMT-0400 (Eastern Daylight Time)","598475","Match,No Match","","null","","","","","","<div class='trialBorder'><div class='vertical-center'><img style='vertical-align:center; align:center' src='img/fixation2_sml.jpg'></div><div class='arrayDiv3'><div class='tl'><img class='introPic' src='trustrating_stim/white_mw013.bmp'><br><font color='red'><strong>Keep</strong></font></div><div class='tc'><img class='introPic' src='trustrating_stim/white_mw038.bmp'><br><font color='green'><strong>Share</strong></font></div><div class='tr'><img class='introPic' src='trustrating_stim/white_mw091.bmp'><br><font color='red'><strong>Keep</strong></font></div></div></div>","null","ARRAY","3","trustrating_stim/white_mw013.bmp,trustrating_stim/white_mw038.bmp,trustrating_stim/white_mw091.bmp","0,1,0","noMatchOutcome","i","4500","","","","",""
"html-keyboard-response","52","190506","0.0-7.0-3.3","55e7221441988f000b75cc7a","bdp_wmem","Wed Mar 15 2023 15:33:35 GMT-0400 (Eastern Daylight Time)","598475","Match,No Match","","null","","","","","","<div class='trialBorder'><div class='vertical-center'><img src='img/fixation2_sml.jpg'</img></div></div>","null","DELAY","","","","","","","","","","",""
"html-keyboard-response","53","191562","0.0-7.0-4.3","55e7221441988f000b75cc7a","bdp_wmem","Wed Mar 15 2023 15:33:35 GMT-0400 (Eastern Daylight Time)","598475","Match,No Match","","1056","","","","","","<div class='trialBorder'><div class='targDiv'><div class='tc'><img class='introPic' src='trustrating_stim/white_mw038.bmp'><br><font color='red'><strong>Keep</strong></font></div></div><div class='respDiv'><div class='respDivL'>Match<br>(e)</div><div class='respDivR'>No Match<br>(i)</div></div></div>","i","TARGET","3","trustrating_stim/white_mw013.bmp,trustrating_stim/white_mw038.bmp,trustrating_stim/white_mw091.bmp","0,1,0","noMatchOutcome","i","4500","trustrating_stim/white_mw038.bmp","red","Keep","REAL","1"
"html-keyboard-response","54","192062","0.0-7.0-5.3","55e7221441988f000b75cc7a","bdp_wmem","Wed Mar 15 2023 15:33:35 GMT-0400 (Eastern Daylight Time)","598475","Match,No Match","","null","","","","","","<div class='trialBorder'><div class='vertical-center'><img src='img/correct.jpg'></div><div class='respDiv'><div class='respDivL'>Match<br>(e)</div><div class='respDivR'><font style='color:orange'>No Match<br>(i)</font></div></div></div>","null","FEEDBACK","","","","","","","","","","",""
"html-keyboard-response","55","192563","0.0-7.0-1.4","55e7221441988f000b75cc7a","bdp_wmem","Wed Mar 15 2023 15:33:35 GMT-0400 (Eastern Daylight Time)","598475","Match,No Match","","null","","","","","","<div class='trialBorder'><div class='vertical-center'><img src='img/fixation2_sml.jpg'</img></div></div>","null","FIX","","","","","","","","","","",""
"html-keyboard-response","56","195564","0.0-7.0-2.4","55e7221441988f000b75cc7a","bdp_wmem","Wed Mar 15 2023 15:33:35 GMT-0400 (Eastern Daylight Time)","598475","Match,No Match","","null","","","","","","<div class='trialBorder'><div class='vertical-center'><img style='vertical-align:center; align:center' src='img/fixation2_sml.jpg'></div><div class='arrayDiv2'><div class='tl'><img class='introPic' src='trustrating_stim/white_mw092.bmp'><br><font color='red'><strong>Keep</strong></font></div><div class='tr'><img class='introPic' src='trustrating_stim/white_mw040.bmp'><br><font color='green'><strong>Share</strong></font></div></div></div>","null","ARRAY","2","trustrating_stim/white_mw092.bmp,trustrating_stim/white_mw040.bmp","0,1","noMatchOutcome","i","3000","","","","",""
"html-keyboard-response","57","199566","0.0-7.0-3.4","55e7221441988f000b75cc7a","bdp_wmem","Wed Mar 15 2023 15:33:35 GMT-0400 (Eastern Daylight Time)","598475","Match,No Match","","null","","","","","","<div class='trialBorder'><div class='vertical-center'><img src='img/fixation2_sml.jpg'</img></div></div>","null","DELAY","","","","","","","","","","",""
"html-keyboard-response","58","200712","0.0-7.0-4.4","55e7221441988f000b75cc7a","bdp_wmem","Wed Mar 15 2023 15:33:35 GMT-0400 (Eastern Daylight Time)","598475","Match,No Match","","1144","","","","","","<div class='trialBorder'><div class='targDiv'><div class='tc'><img class='introPic' src='trustrating_stim/white_mw092.bmp'><br><font color='green'><strong>Share</strong></font></div></div><div class='respDiv'><div class='respDivL'>Match<br>(e)</div><div class='respDivR'>No Match<br>(i)</div></div></div>","i","TARGET","2","trustrating_stim/white_mw092.bmp,trustrating_stim/white_mw040.bmp","0,1","noMatchOutcome","i","3000","trustrating_stim/white_mw092.bmp","green","Share","REAL","1"
"html-keyboard-response","59","201213","0.0-7.0-5.4","55e7221441988f000b75cc7a","bdp_wmem","Wed Mar 15 2023 15:33:35 GMT-0400 (Eastern Daylight Time)","598475","Match,No Match","","null","","","","","","<div class='trialBorder'><div class='vertical-center'><img src='img/correct.jpg'></div><div class='respDiv'><div class='respDivL'>Match<br>(e)</div><div class='respDivR'><font style='color:orange'>No Match<br>(i)</font></div></div></div>","null","FEEDBACK","","","","","","","","","","",""
"html-keyboard-response","60","201714","0.0-7.0-1.5","55e7221441988f000b75cc7a","bdp_wmem","Wed Mar 15 2023 15:33:35 GMT-0400 (Eastern Daylight Time)","598475","Match,No Match","","null","","","","","","<div class='trialBorder'><div class='vertical-center'><img src='img/fixation2_sml.jpg'</img></div></div>","null","FIX","","","","","","","","","","",""
"html-keyboard-response","61","204715","0.0-7.0-2.5","55e7221441988f000b75cc7a","bdp_wmem","Wed Mar 15 2023 15:33:35 GMT-0400 (Eastern Daylight Time)","598475","Match,No Match","","null","","","","","","<div class='trialBorder'><div class='vertical-center'><img style='vertical-align:center; align:center' src='img/fixation2_sml.jpg'></div><div class='arrayDiv2'><div class='tl'><img class='introPic' src='trustrating_stim/white_mw038.bmp'><br><font color='red'><strong>Keep</strong></font></div><div class='tr'><img class='introPic' src='trustrating_stim/white_mw091.bmp'><br><font color='green'><strong>Share</strong></font></div></div></div>","null","ARRAY","2","trustrating_stim/white_mw038.bmp,trustrating_stim/white_mw091.bmp","0,1","Match","e","3000","","","","",""
"html-keyboard-response","62","208716","0.0-7.0-3.5","55e7221441988f000b75cc7a","bdp_wmem","Wed Mar 15 2023 15:33:35 GMT-0400 (Eastern Daylight Time)","598475","Match,No Match","","null","","","","","","<div class='trialBorder'><div class='vertical-center'><img src='img/fixation2_sml.jpg'</img></div></div>","null","DELAY","","","","","","","","","","",""
"html-keyboard-response","63","211383","0.0-7.0-4.5","55e7221441988f000b75cc7a","bdp_wmem","Wed Mar 15 2023 15:33:35 GMT-0400 (Eastern Daylight Time)","598475","Match,No Match","","2666","","","","","","<div class='trialBorder'><div class='targDiv'><div class='tc'><img class='introPic' src='trustrating_stim/white_mw091.bmp'><br><font color='green'><strong>Share</strong></font></div></div><div class='respDiv'><div class='respDivL'>Match<br>(e)</div><div class='respDivR'>No Match<br>(i)</div></div></div>","e","TARGET","2","trustrating_stim/white_mw038.bmp,trustrating_stim/white_mw091.bmp","0,1","Match","e","3000","trustrating_stim/white_mw091.bmp","green","Share","REAL","1"
"html-keyboard-response","64","211884","0.0-7.0-5.5","55e7221441988f000b75cc7a","bdp_wmem","Wed Mar 15 2023 15:33:35 GMT-0400 (Eastern Daylight Time)","598475","Match,No Match","","null","","","","","","<div class='trialBorder'><div class='vertical-center'><img src='img/correct.jpg'></div><div class='respDiv'><div class='respDivL'><font style='color:orange'>Match<br>(e)</font></div><div class='respDivR'>No Match<br>(i)</div></div></div>","null","FEEDBACK","","","","","","","","","","",""
"html-keyboard-response","65","212385","0.0-7.0-1.6","55e7221441988f000b75cc7a","bdp_wmem","Wed Mar 15 2023 15:33:35 GMT-0400 (Eastern Daylight Time)","598475","Match,No Match","","null","","","","","","<div class='trialBorder'><div class='vertical-center'><img src='img/fixation2_sml.jpg'</img></div></div>","null","FIX","","","","","","","","","","",""
"html-keyboard-response","66","216886","0.0-7.0-2.6","55e7221441988f000b75cc7a","bdp_wmem","Wed Mar 15 2023 15:33:35 GMT-0400 (Eastern Daylight Time)","598475","Match,No Match","","null","","","","","","<div class='trialBorder'><div class='vertical-center'><img style='vertical-align:center; align:center' src='img/fixation2_sml.jpg'></div><div class='arrayDiv3'><div class='tl'><img class='introPic' src='trustrating_stim/white_mw092.bmp'><br><font color='green'><strong>Share</strong></font></div><div class='tc'><img class='introPic' src='trustrating_stim/white_mw085.bmp'><br><font color='green'><strong>Share</strong></font></div><div class='tr'><img class='introPic' src='trustrating_stim/white_mw078.bmp'><br><font color='red'><strong>Keep</strong></font></div></div></div>","null","ARRAY","3","trustrating_stim/white_mw092.bmp,trustrating_stim/white_mw085.bmp,trustrating_stim/white_mw078.bmp","1,1,0","noMatchOutcome","i","4500","","","","",""
"html-keyboard-response","67","220888","0.0-7.0-3.6","55e7221441988f000b75cc7a","bdp_wmem","Wed Mar 15 2023 15:33:35 GMT-0400 (Eastern Daylight Time)","598475","Match,No Match","","null","","","","","","<div class='trialBorder'><div class='vertical-center'><img src='img/fixation2_sml.jpg'</img></div></div>","null","DELAY","","","","","","","","","","",""
"html-keyboard-response","68","222251","0.0-7.0-4.6","55e7221441988f000b75cc7a","bdp_wmem","Wed Mar 15 2023 15:33:35 GMT-0400 (Eastern Daylight Time)","598475","Match,No Match","","1363","","","","","","<div class='trialBorder'><div class='targDiv'><div class='tc'><img class='introPic' src='trustrating_stim/white_mw092.bmp'><br><font color='red'><strong>Keep</strong></font></div></div><div class='respDiv'><div class='respDivL'>Match<br>(e)</div><div class='respDivR'>No Match<br>(i)</div></div></div>","i","TARGET","3","trustrating_stim/white_mw092.bmp,trustrating_stim/white_mw085.bmp,trustrating_stim/white_mw078.bmp","1,1,0","noMatchOutcome","i","4500","trustrating_stim/white_mw092.bmp","red","Keep","REAL","1"
"html-keyboard-response","69","222752","0.0-7.0-5.6","55e7221441988f000b75cc7a","bdp_wmem","Wed Mar 15 2023 15:33:35 GMT-0400 (Eastern Daylight Time)","598475","Match,No Match","","null","","","","","","<div class='trialBorder'><div class='vertical-center'><img src='img/correct.jpg'></div><div class='respDiv'><div class='respDivL'>Match<br>(e)</div><div class='respDivR'><font style='color:orange'>No Match<br>(i)</font></div></div></div>","null","FEEDBACK","","","","","","","","","","",""
"html-keyboard-response","70","223253","0.0-7.0-1.7","55e7221441988f000b75cc7a","bdp_wmem","Wed Mar 15 2023 15:33:35 GMT-0400 (Eastern Daylight Time)","598475","Match,No Match","","null","","","","","","<div class='trialBorder'><div class='vertical-center'><img src='img/fixation2_sml.jpg'</img></div></div>","null","FIX","","","","","","","","","","",""
"html-keyboard-response","71","224755","0.0-7.0-2.7","55e7221441988f000b75cc7a","bdp_wmem","Wed Mar 15 2023 15:33:35 GMT-0400 (Eastern Daylight Time)","598475","Match,No Match","","null","","","","","","<div class='trialBorder'><div class='vertical-center'><img style='vertical-align:center; align:center' src='img/fixation2_sml.jpg'></div><div class='arrayDiv1'><div class='tc'><img class='introPic' src='trustrating_stim/white_mw092.bmp'><br><font color='green'><strong>Share</strong></font></div></div></div>","null","ARRAY","1","trustrating_stim/white_mw092.bmp","1","Match","e","1500","","","","",""
"html-keyboard-response","72","228756","0.0-7.0-3.7","55e7221441988f000b75cc7a","bdp_wmem","Wed Mar 15 2023 15:33:35 GMT-0400 (Eastern Daylight Time)","598475","Match,No Match","","null","","","","","","<div class='trialBorder'><div class='vertical-center'><img src='img/fixation2_sml.jpg'</img></div></div>","null","DELAY","","","","","","","","","","",""
"html-keyboard-response","73","229562","0.0-7.0-4.7","55e7221441988f000b75cc7a","bdp_wmem","Wed Mar 15 2023 15:33:35 GMT-0400 (Eastern Daylight Time)","598475","Match,No Match","","805","","","","","","<div class='trialBorder'><div class='targDiv'><div class='tc'><img class='introPic' src='trustrating_stim/white_mw092.bmp'><br><font color='green'><strong>Share</strong></font></div></div><div class='respDiv'><div class='respDivL'>Match<br>(e)</div><div class='respDivR'>No Match<br>(i)</div></div></div>","e","TARGET","1","trustrating_stim/white_mw092.bmp","1","Match","e","1500","trustrating_stim/white_mw092.bmp","green","Share","REAL","1"
"html-keyboard-response","74","230063","0.0-7.0-5.7","55e7221441988f000b75cc7a","bdp_wmem","Wed Mar 15 2023 15:33:35 GMT-0400 (Eastern Daylight Time)","598475","Match,No Match","","null","","","","","","<div class='trialBorder'><div class='vertical-center'><img src='img/correct.jpg'></div><div class='respDiv'><div class='respDivL'><font style='color:orange'>Match<br>(e)</font></div><div class='respDivR'>No Match<br>(i)</div></div></div>","null","FEEDBACK","","","","","","","","","","",""
"html-keyboard-response","75","230564","0.0-7.0-1.8","55e7221441988f000b75cc7a","bdp_wmem","Wed Mar 15 2023 15:33:35 GMT-0400 (Eastern Daylight Time)","598475","Match,No Match","","null","","","","","","<div class='trialBorder'><div class='vertical-center'><img src='img/fixation2_sml.jpg'</img></div></div>","null","FIX","","","","","","","","","","",""
"html-keyboard-response","76","235066","0.0-7.0-2.8","55e7221441988f000b75cc7a","bdp_wmem","Wed Mar 15 2023 15:33:35 GMT-0400 (Eastern Daylight Time)","598475","Match,No Match","","null","","","","","","<div class='trialBorder'><div class='vertical-center'><img style='vertical-align:center; align:center' src='img/fixation2_sml.jpg'></div><div class='arrayDiv3'><div class='tl'><img class='introPic' src='trustrating_stim/white_mw013.bmp'><br><font color='green'><strong>Share</strong></font></div><div class='tc'><img class='introPic' src='trustrating_stim/white_mw012.bmp'><br><font color='red'><strong>Keep</strong></font></div><div class='tr'><img class='introPic' src='trustrating_stim/white_mw078.bmp'><br><font color='red'><strong>Keep</strong></font></div></div></div>","null","ARRAY","3","trustrating_stim/white_mw013.bmp,trustrating_stim/white_mw012.bmp,trustrating_stim/white_mw078.bmp","1,0,0","noMatchFace","i","4500","","","","",""
"html-keyboard-response","77","239067","0.0-7.0-3.8","55e7221441988f000b75cc7a","bdp_wmem","Wed Mar 15 2023 15:33:35 GMT-0400 (Eastern Daylight Time)","598475","Match,No Match","","null","","","","","","<div class='trialBorder'><div class='vertical-center'><img src='img/fixation2_sml.jpg'</img></div></div>","null","DELAY","","","","","","","","","","",""
"html-keyboard-response","78","240398","0.0-7.0-4.8","55e7221441988f000b75cc7a","bdp_wmem","Wed Mar 15 2023 15:33:35 GMT-0400 (Eastern Daylight Time)","598475","Match,No Match","","1331","","","","","","<div class='trialBorder'><div class='targDiv'><div class='tc'><img class='introPic' src='trustrating_stim/white_mw010.bmp'><br><font color='green'><strong>Share</strong></font></div></div><div class='respDiv'><div class='respDivL'>Match<br>(e)</div><div class='respDivR'>No Match<br>(i)</div></div></div>","e","TARGET","3","trustrating_stim/white_mw013.bmp,trustrating_stim/white_mw012.bmp,trustrating_stim/white_mw078.bmp","1,0,0","noMatchFace","i","4500","trustrating_stim/white_mw010.bmp","green","Share","REAL","0"
"html-keyboard-response","79","240899","0.0-7.0-5.8","55e7221441988f000b75cc7a","bdp_wmem","Wed Mar 15 2023 15:33:35 GMT-0400 (Eastern Daylight Time)","598475","Match,No Match","","null","","","","","","<div class='trialBorder'><div class='vertical-center'><img src='img/error.jpg'></div><div class='respDiv'><div class='respDivL'><font style='color:orange'>Match<br>(e)</font></div><div class='respDivR'>No Match<br>(i)</div></div></div>","null","FEEDBACK","","","","","","","","","","",""
"html-keyboard-response","80","241401","0.0-7.0-1.9","55e7221441988f000b75cc7a","bdp_wmem","Wed Mar 15 2023 15:33:35 GMT-0400 (Eastern Daylight Time)","598475","Match,No Match","","null","","","","","","<div class='trialBorder'><div class='vertical-center'><img src='img/fixation2_sml.jpg'</img></div></div>","null","FIX","","","","","","","","","","",""
"html-keyboard-response","81","244402","0.0-7.0-2.9","55e7221441988f000b75cc7a","bdp_wmem","Wed Mar 15 2023 15:33:35 GMT-0400 (Eastern Daylight Time)","598475","Match,No Match","","null","","","","","","<div class='trialBorder'><div class='vertical-center'><img style='vertical-align:center; align:center' src='img/fixation2_sml.jpg'></div><div class='arrayDiv2'><div class='tl'><img class='introPic' src='trustrating_stim/white_mw091.bmp'><br><font color='red'><strong>Keep</strong></font></div><div class='tr'><img class='introPic' src='trustrating_stim/white_mw010.bmp'><br><font color='green'><strong>Share</strong></font></div></div></div>","null","ARRAY","2","trustrating_stim/white_mw091.bmp,trustrating_stim/white_mw010.bmp","0,1","noMatchFace","i","3000","","","","",""
"html-keyboard-response","82","248404","0.0-7.0-3.9","55e7221441988f000b75cc7a","bdp_wmem","Wed Mar 15 2023 15:33:35 GMT-0400 (Eastern Daylight Time)","598475","Match,No Match","","null","","","","","","<div class='trialBorder'><div class='vertical-center'><img src='img/fixation2_sml.jpg'</img></div></div>","null","DELAY","","","","","","","","","","",""
"html-keyboard-response","83","249579","0.0-7.0-4.9","55e7221441988f000b75cc7a","bdp_wmem","Wed Mar 15 2023 15:33:35 GMT-0400 (Eastern Daylight Time)","598475","Match,No Match","","1174","","","","","","<div class='trialBorder'><div class='targDiv'><div class='tc'><img class='introPic' src='trustrating_stim/white_mw003.bmp'><br><font color='red'><strong>Keep</strong></font></div></div><div class='respDiv'><div class='respDivL'>Match<br>(e)</div><div class='respDivR'>No Match<br>(i)</div></div></div>","i","TARGET","2","trustrating_stim/white_mw091.bmp,trustrating_stim/white_mw010.bmp","0,1","noMatchFace","i","3000","trustrating_stim/white_mw003.bmp","red","Keep","REAL","1"
"html-keyboard-response","84","250080","0.0-7.0-5.9","55e7221441988f000b75cc7a","bdp_wmem","Wed Mar 15 2023 15:33:35 GMT-0400 (Eastern Daylight Time)","598475","Match,No Match","","null","","","","","","<div class='trialBorder'><div class='vertical-center'><img src='img/correct.jpg'></div><div class='respDiv'><div class='respDivL'>Match<br>(e)</div><div class='respDivR'><font style='color:orange'>No Match<br>(i)</font></div></div></div>","null","FEEDBACK","","","","","","","","","","",""
"html-keyboard-response","85","250581","0.0-7.0-1.10","55e7221441988f000b75cc7a","bdp_wmem","Wed Mar 15 2023 15:33:35 GMT-0400 (Eastern Daylight Time)","598475","Match,No Match","","null","","","","","","<div class='trialBorder'><div class='vertical-center'><img src='img/fixation2_sml.jpg'</img></div></div>","null","FIX","","","","","","","","","","",""
"html-keyboard-response","86","255083","0.0-7.0-2.10","55e7221441988f000b75cc7a","bdp_wmem","Wed Mar 15 2023 15:33:35 GMT-0400 (Eastern Daylight Time)","598475","Match,No Match","","null","","","","","","<div class='trialBorder'><div class='vertical-center'><img style='vertical-align:center; align:center' src='img/fixation2_sml.jpg'></div><div class='arrayDiv3'><div class='tl'><img class='introPic' src='trustrating_stim/white_mw040.bmp'><br><font color='green'><strong>Share</strong></font></div><div class='tc'><img class='introPic' src='trustrating_stim/white_mw085.bmp'><br><font color='green'><strong>Share</strong></font></div><div class='tr'><img class='introPic' src='trustrating_stim/white_mw003.bmp'><br><font color='red'><strong>Keep</strong></font></div></div></div>","null","ARRAY","3","trustrating_stim/white_mw040.bmp,trustrating_stim/white_mw085.bmp,trustrating_stim/white_mw003.bmp","1,1,0","Match","e","4500","","","","",""
"html-keyboard-response","87","259084","0.0-7.0-3.10","55e7221441988f000b75cc7a","bdp_wmem","Wed Mar 15 2023 15:33:35 GMT-0400 (Eastern Daylight Time)","598475","Match,No Match","","null","","","","","","<div class='trialBorder'><div class='vertical-center'><img src='img/fixation2_sml.jpg'</img></div></div>","null","DELAY","","","","","","","","","","",""
"html-keyboard-response","88","260366","0.0-7.0-4.10","55e7221441988f000b75cc7a","bdp_wmem","Wed Mar 15 2023 15:33:35 GMT-0400 (Eastern Daylight Time)","598475","Match,No Match","","1282","","","","","","<div class='trialBorder'><div class='targDiv'><div class='tc'><img class='introPic' src='trustrating_stim/white_mw040.bmp'><br><font color='green'><strong>Share</strong></font></div></div><div class='respDiv'><div class='respDivL'>Match<br>(e)</div><div class='respDivR'>No Match<br>(i)</div></div></div>","e","TARGET","3","trustrating_stim/white_mw040.bmp,trustrating_stim/white_mw085.bmp,trustrating_stim/white_mw003.bmp","1,1,0","Match","e","4500","trustrating_stim/white_mw040.bmp","green","Share","REAL","1"
"html-keyboard-response","89","260867","0.0-7.0-5.10","55e7221441988f000b75cc7a","bdp_wmem","Wed Mar 15 2023 15:33:35 GMT-0400 (Eastern Daylight Time)","598475","Match,No Match","","null","","","","","","<div class='trialBorder'><div class='vertical-center'><img src='img/correct.jpg'></div><div class='respDiv'><div class='respDivL'><font style='color:orange'>Match<br>(e)</font></div><div class='respDivR'>No Match<br>(i)</div></div></div>","null","FEEDBACK","","","","","","","","","","",""
"html-keyboard-response","90","261369","0.0-7.0-1.11","55e7221441988f000b75cc7a","bdp_wmem","Wed Mar 15 2023 15:33:35 GMT-0400 (Eastern Daylight Time)","598475","Match,No Match","","null","","","","","","<div class='trialBorder'><div class='vertical-center'><img src='img/fixation2_sml.jpg'</img></div></div>","null","FIX","","","","","","","","","","",""
"html-keyboard-response","91","262870","0.0-7.0-2.11","55e7221441988f000b75cc7a","bdp_wmem","Wed Mar 15 2023 15:33:35 GMT-0400 (Eastern Daylight Time)","598475","Match,No Match","","null","","","","","","<div class='trialBorder'><div class='vertical-center'><img style='vertical-align:center; align:center' src='img/fixation2_sml.jpg'></div><div class='arrayDiv1'><div class='tc'><img class='introPic' src='trustrating_stim/white_mw038.bmp'><br><font color='red'><strong>Keep</strong></font></div></div></div>","null","ARRAY","1","trustrating_stim/white_mw038.bmp","0","noMatchFace","i","1500","","","","",""
"html-keyboard-response","92","266872","0.0-7.0-3.11","55e7221441988f000b75cc7a","bdp_wmem","Wed Mar 15 2023 15:33:35 GMT-0400 (Eastern Daylight Time)","598475","Match,No Match","","null","","","","","","<div class='trialBorder'><div class='vertical-center'><img src='img/fixation2_sml.jpg'</img></div></div>","null","DELAY","","","","","","","","","","",""
"html-keyboard-response","93","267786","0.0-7.0-4.11","55e7221441988f000b75cc7a","bdp_wmem","Wed Mar 15 2023 15:33:35 GMT-0400 (Eastern Daylight Time)","598475","Match,No Match","","913","","","","","","<div class='trialBorder'><div class='targDiv'><div class='tc'><img class='introPic' src='trustrating_stim/white_mw078.bmp'><br><font color='red'><strong>Keep</strong></font></div></div><div class='respDiv'><div class='respDivL'>Match<br>(e)</div><div class='respDivR'>No Match<br>(i)</div></div></div>","i","TARGET","1","trustrating_stim/white_mw038.bmp","0","noMatchFace","i","1500","trustrating_stim/white_mw078.bmp","red","Keep","REAL","1"
"html-keyboard-response","94","268288","0.0-7.0-5.11","55e7221441988f000b75cc7a","bdp_wmem","Wed Mar 15 2023 15:33:35 GMT-0400 (Eastern Daylight Time)","598475","Match,No Match","","null","","","","","","<div class='trialBorder'><div class='vertical-center'><img src='img/correct.jpg'></div><div class='respDiv'><div class='respDivL'>Match<br>(e)</div><div class='respDivR'><font style='color:orange'>No Match<br>(i)</font></div></div></div>","null","FEEDBACK","","","","","","","","","","",""
"html-keyboard-response","95","268790","0.0-7.0-1.12","55e7221441988f000b75cc7a","bdp_wmem","Wed Mar 15 2023 15:33:35 GMT-0400 (Eastern Daylight Time)","598475","Match,No Match","","null","","","","","","<div class='trialBorder'><div class='vertical-center'><img src='img/fixation2_sml.jpg'</img></div></div>","null","FIX","","","","","","","","","","",""
"html-keyboard-response","96","270291","0.0-7.0-2.12","55e7221441988f000b75cc7a","bdp_wmem","Wed Mar 15 2023 15:33:35 GMT-0400 (Eastern Daylight Time)","598475","Match,No Match","","null","","","","","","<div class='trialBorder'><div class='vertical-center'><img style='vertical-align:center; align:center' src='img/fixation2_sml.jpg'></div><div class='arrayDiv1'><div class='tc'><img class='introPic' src='trustrating_stim/white_mw013.bmp'><br><font color='green'><strong>Share</strong></font></div></div></div>","null","ARRAY","1","trustrating_stim/white_mw013.bmp","1","Match","e","1500","","","","",""
"html-keyboard-response","97","274292","0.0-7.0-3.12","55e7221441988f000b75cc7a","bdp_wmem","Wed Mar 15 2023 15:33:35 GMT-0400 (Eastern Daylight Time)","598475","Match,No Match","","null","","","","","","<div class='trialBorder'><div class='vertical-center'><img src='img/fixation2_sml.jpg'</img></div></div>","null","DELAY","","","","","","","","","","",""
"html-keyboard-response","98","274956","0.0-7.0-4.12","55e7221441988f000b75cc7a","bdp_wmem","Wed Mar 15 2023 15:33:35 GMT-0400 (Eastern Daylight Time)","598475","Match,No Match","","664","","","","","","<div class='trialBorder'><div class='targDiv'><div class='tc'><img class='introPic' src='trustrating_stim/white_mw013.bmp'><br><font color='green'><strong>Share</strong></font></div></div><div class='respDiv'><div class='respDivL'>Match<br>(e)</div><div class='respDivR'>No Match<br>(i)</div></div></div>","e","TARGET","1","trustrating_stim/white_mw013.bmp","1","Match","e","1500","trustrating_stim/white_mw013.bmp","green","Share","REAL","1"
"html-keyboard-response","99","275458","0.0-7.0-5.12","55e7221441988f000b75cc7a","bdp_wmem","Wed Mar 15 2023 15:33:35 GMT-0400 (Eastern Daylight Time)","598475","Match,No Match","","null","","","","","","<div class='trialBorder'><div class='vertical-center'><img src='img/correct.jpg'></div><div class='respDiv'><div class='respDivL'><font style='color:orange'>Match<br>(e)</font></div><div class='respDivR'>No Match<br>(i)</div></div></div>","null","FEEDBACK","","","","","","","","","","",""
"html-keyboard-response","100","275959","0.0-7.0-1.13","55e7221441988f000b75cc7a","bdp_wmem","Wed Mar 15 2023 15:33:35 GMT-0400 (Eastern Daylight Time)","598475","Match,No Match","","null","","","","","","<div class='trialBorder'><div class='vertical-center'><img src='img/fixation2_sml.jpg'</img></div></div>","null","FIX","","","","","","","","","","",""
"html-keyboard-response","101","277460","0.0-7.0-2.13","55e7221441988f000b75cc7a","bdp_wmem","Wed Mar 15 2023 15:33:35 GMT-0400 (Eastern Daylight Time)","598475","Match,No Match","","null","","","","","","<div class='trialBorder'><div class='vertical-center'><img style='vertical-align:center; align:center' src='img/fixation2_sml.jpg'></div><div class='arrayDiv1'><div class='tc'><img class='introPic' src='trustrating_stim/white_mw078.bmp'><br><font color='green'><strong>Share</strong></font></div></div></div>","null","ARRAY","1","trustrating_stim/white_mw078.bmp","1","noMatchOutcome","i","1500","","","","",""
"html-keyboard-response","102","281461","0.0-7.0-3.13","55e7221441988f000b75cc7a","bdp_wmem","Wed Mar 15 2023 15:33:35 GMT-0400 (Eastern Daylight Time)","598475","Match,No Match","","null","","","","","","<div class='trialBorder'><div class='vertical-center'><img src='img/fixation2_sml.jpg'</img></div></div>","null","DELAY","","","","","","","","","","",""
"html-keyboard-response","103","282583","0.0-7.0-4.13","55e7221441988f000b75cc7a","bdp_wmem","Wed Mar 15 2023 15:33:35 GMT-0400 (Eastern Daylight Time)","598475","Match,No Match","","1121","","","","","","<div class='trialBorder'><div class='targDiv'><div class='tc'><img class='introPic' src='trustrating_stim/white_mw078.bmp'><br><font color='red'><strong>Keep</strong></font></div></div><div class='respDiv'><div class='respDivL'>Match<br>(e)</div><div class='respDivR'>No Match<br>(i)</div></div></div>","i","TARGET","1","trustrating_stim/white_mw078.bmp","1","noMatchOutcome","i","1500","trustrating_stim/white_mw078.bmp","red","Keep","REAL","1"
"html-keyboard-response","104","283084","0.0-7.0-5.13","55e7221441988f000b75cc7a","bdp_wmem","Wed Mar 15 2023 15:33:35 GMT-0400 (Eastern Daylight Time)","598475","Match,No Match","","null","","","","","","<div class='trialBorder'><div class='vertical-center'><img src='img/correct.jpg'></div><div class='respDiv'><div class='respDivL'>Match<br>(e)</div><div class='respDivR'><font style='color:orange'>No Match<br>(i)</font></div></div></div>","null","FEEDBACK","","","","","","","","","","",""
"html-keyboard-response","105","283585","0.0-7.0-1.14","55e7221441988f000b75cc7a","bdp_wmem","Wed Mar 15 2023 15:33:35 GMT-0400 (Eastern Daylight Time)","598475","Match,No Match","","null","","","","","","<div class='trialBorder'><div class='vertical-center'><img src='img/fixation2_sml.jpg'</img></div></div>","null","FIX","","","","","","","","","","",""
"html-keyboard-response","106","286586","0.0-7.0-2.14","55e7221441988f000b75cc7a","bdp_wmem","Wed Mar 15 2023 15:33:35 GMT-0400 (Eastern Daylight Time)","598475","Match,No Match","","null","","","","","","<div class='trialBorder'><div class='vertical-center'><img style='vertical-align:center; align:center' src='img/fixation2_sml.jpg'></div><div class='arrayDiv2'><div class='tl'><img class='introPic' src='trustrating_stim/white_mw092.bmp'><br><font color='red'><strong>Keep</strong></font></div><div class='tr'><img class='introPic' src='trustrating_stim/white_mw078.bmp'><br><font color='green'><strong>Share</strong></font></div></div></div>","null","ARRAY","2","trustrating_stim/white_mw092.bmp,trustrating_stim/white_mw078.bmp","0,1","noMatchOutcome","i","3000","","","","",""
"html-keyboard-response","107","290587","0.0-7.0-3.14","55e7221441988f000b75cc7a","bdp_wmem","Wed Mar 15 2023 15:33:35 GMT-0400 (Eastern Daylight Time)","598475","Match,No Match","","null","","","","","","<div class='trialBorder'><div class='vertical-center'><img src='img/fixation2_sml.jpg'</img></div></div>","null","DELAY","","","","","","","","","","",""
"html-keyboard-response","108","292619","0.0-7.0-4.14","55e7221441988f000b75cc7a","bdp_wmem","Wed Mar 15 2023 15:33:35 GMT-0400 (Eastern Daylight Time)","598475","Match,No Match","","2031","","","","","","<div class='trialBorder'><div class='targDiv'><div class='tc'><img class='introPic' src='trustrating_stim/white_mw092.bmp'><br><font color='green'><strong>Share</strong></font></div></div><div class='respDiv'><div class='respDivL'>Match<br>(e)</div><div class='respDivR'>No Match<br>(i)</div></div></div>","e","TARGET","2","trustrating_stim/white_mw092.bmp,trustrating_stim/white_mw078.bmp","0,1","noMatchOutcome","i","3000","trustrating_stim/white_mw092.bmp","green","Share","REAL","0"
"html-keyboard-response","109","293120","0.0-7.0-5.14","55e7221441988f000b75cc7a","bdp_wmem","Wed Mar 15 2023 15:33:35 GMT-0400 (Eastern Daylight Time)","598475","Match,No Match","","null","","","","","","<div class='trialBorder'><div class='vertical-center'><img src='img/error.jpg'></div><div class='respDiv'><div class='respDivL'><font style='color:orange'>Match<br>(e)</font></div><div class='respDivR'>No Match<br>(i)</div></div></div>","null","FEEDBACK","","","","","","","","","","",""
"html-keyboard-response","110","293621","0.0-7.0-1.15","55e7221441988f000b75cc7a","bdp_wmem","Wed Mar 15 2023 15:33:35 GMT-0400 (Eastern Daylight Time)","598475","Match,No Match","","null","","","","","","<div class='trialBorder'><div class='vertical-center'><img src='img/fixation2_sml.jpg'</img></div></div>","null","FIX","","","","","","","","","","",""
"html-keyboard-response","111","295123","0.0-7.0-2.15","55e7221441988f000b75cc7a","bdp_wmem","Wed Mar 15 2023 15:33:35 GMT-0400 (Eastern Daylight Time)","598475","Match,No Match","","null","","","","","","<div class='trialBorder'><div class='vertical-center'><img style='vertical-align:center; align:center' src='img/fixation2_sml.jpg'></div><div class='arrayDiv1'><div class='tc'><img class='introPic' src='trustrating_stim/white_mw085.bmp'><br><font color='green'><strong>Share</strong></font></div></div></div>","null","ARRAY","1","trustrating_stim/white_mw085.bmp","1","Match","e","1500","","","","",""
"html-keyboard-response","112","299124","0.0-7.0-3.15","55e7221441988f000b75cc7a","bdp_wmem","Wed Mar 15 2023 15:33:35 GMT-0400 (Eastern Daylight Time)","598475","Match,No Match","","null","","","","","","<div class='trialBorder'><div class='vertical-center'><img src='img/fixation2_sml.jpg'</img></div></div>","null","DELAY","","","","","","","","","","",""
"html-keyboard-response","113","299611","0.0-7.0-4.15","55e7221441988f000b75cc7a","bdp_wmem","Wed Mar 15 2023 15:33:35 GMT-0400 (Eastern Daylight Time)","598475","Match,No Match","","486","","","","","","<div class='trialBorder'><div class='targDiv'><div class='tc'><img class='introPic' src='trustrating_stim/white_mw085.bmp'><br><font color='green'><strong>Share</strong></font></div></div><div class='respDiv'><div class='respDivL'>Match<br>(e)</div><div class='respDivR'>No Match<br>(i)</div></div></div>","e","TARGET","1","trustrating_stim/white_mw085.bmp","1","Match","e","1500","trustrating_stim/white_mw085.bmp","green","Share","REAL","1"
"html-keyboard-response","114","300112","0.0-7.0-5.15","55e7221441988f000b75cc7a","bdp_wmem","Wed Mar 15 2023 15:33:35 GMT-0400 (Eastern Daylight Time)","598475","Match,No Match","","null","","","","","","<div class='trialBorder'><div class='vertical-center'><img src='img/correct.jpg'></div><div class='respDiv'><div class='respDivL'><font style='color:orange'>Match<br>(e)</font></div><div class='respDivR'>No Match<br>(i)</div></div></div>","null","FEEDBACK","","","","","","","","","","",""
"html-keyboard-response","115","300613","0.0-7.0-1.16","55e7221441988f000b75cc7a","bdp_wmem","Wed Mar 15 2023 15:33:35 GMT-0400 (Eastern Daylight Time)","598475","Match,No Match","","null","","","","","","<div class='trialBorder'><div class='vertical-center'><img src='img/fixation2_sml.jpg'</img></div></div>","null","FIX","","","","","","","","","","",""
"html-keyboard-response","116","303615","0.0-7.0-2.16","55e7221441988f000b75cc7a","bdp_wmem","Wed Mar 15 2023 15:33:35 GMT-0400 (Eastern Daylight Time)","598475","Match,No Match","","null","","","","","","<div class='trialBorder'><div class='vertical-center'><img style='vertical-align:center; align:center' src='img/fixation2_sml.jpg'></div><div class='arrayDiv2'><div class='tl'><img class='introPic' src='trustrating_stim/white_mw085.bmp'><br><font color='red'><strong>Keep</strong></font></div><div class='tr'><img class='introPic' src='trustrating_stim/white_mw078.bmp'><br><font color='green'><strong>Share</strong></font></div></div></div>","null","ARRAY","2","trustrating_stim/white_mw085.bmp,trustrating_stim/white_mw078.bmp","0,1","Match","e","3000","","","","",""
"html-keyboard-response","117","307616","0.0-7.0-3.16","55e7221441988f000b75cc7a","bdp_wmem","Wed Mar 15 2023 15:33:35 GMT-0400 (Eastern Daylight Time)","598475","Match,No Match","","null","","","","","","<div class='trialBorder'><div class='vertical-center'><img src='img/fixation2_sml.jpg'</img></div></div>","null","DELAY","","","","","","","","","","",""
"html-keyboard-response","118","309329","0.0-7.0-4.16","55e7221441988f000b75cc7a","bdp_wmem","Wed Mar 15 2023 15:33:35 GMT-0400 (Eastern Daylight Time)","598475","Match,No Match","","1712","","","","","","<div class='trialBorder'><div class='targDiv'><div class='tc'><img class='introPic' src='trustrating_stim/white_mw085.bmp'><br><font color='red'><strong>Keep</strong></font></div></div><div class='respDiv'><div class='respDivL'>Match<br>(e)</div><div class='respDivR'>No Match<br>(i)</div></div></div>","e","TARGET","2","trustrating_stim/white_mw085.bmp,trustrating_stim/white_mw078.bmp","0,1","Match","e","3000","trustrating_stim/white_mw085.bmp","red","Keep","REAL","1"
"html-keyboard-response","119","309830","0.0-7.0-5.16","55e7221441988f000b75cc7a","bdp_wmem","Wed Mar 15 2023 15:33:35 GMT-0400 (Eastern Daylight Time)","598475","Match,No Match","","null","","","","","","<div class='trialBorder'><div class='vertical-center'><img src='img/correct.jpg'></div><div class='respDiv'><div class='respDivL'><font style='color:orange'>Match<br>(e)</font></div><div class='respDivR'>No Match<br>(i)</div></div></div>","null","FEEDBACK","","","","","","","","","","",""
"html-keyboard-response","120","310331","0.0-7.0-1.17","55e7221441988f000b75cc7a","bdp_wmem","Wed Mar 15 2023 15:33:35 GMT-0400 (Eastern Daylight Time)","598475","Match,No Match","","null","","","","","","<div class='trialBorder'><div class='vertical-center'><img src='img/fixation2_sml.jpg'</img></div></div>","null","FIX","","","","","","","","","","",""
"html-keyboard-response","121","311832","0.0-7.0-2.17","55e7221441988f000b75cc7a","bdp_wmem","Wed Mar 15 2023 15:33:35 GMT-0400 (Eastern Daylight Time)","598475","Match,No Match","","null","","","","","","<div class='trialBorder'><div class='vertical-center'><img style='vertical-align:center; align:center' src='img/fixation2_sml.jpg'></div><div class='arrayDiv1'><div class='tc'><img class='introPic' src='trustrating_stim/white_mw013.bmp'><br><font color='red'><strong>Keep</strong></font></div></div></div>","null","ARRAY","1","trustrating_stim/white_mw013.bmp","0","Match","e","1500","","","","",""
"html-keyboard-response","122","315834","0.0-7.0-3.17","55e7221441988f000b75cc7a","bdp_wmem","Wed Mar 15 2023 15:33:35 GMT-0400 (Eastern Daylight Time)","598475","Match,No Match","","null","","","","","","<div class='trialBorder'><div class='vertical-center'><img src='img/fixation2_sml.jpg'</img></div></div>","null","DELAY","","","","","","","","","","",""
"html-keyboard-response","123","318037","0.0-7.0-4.17","55e7221441988f000b75cc7a","bdp_wmem","Wed Mar 15 2023 15:33:35 GMT-0400 (Eastern Daylight Time)","598475","Match,No Match","","2203","","","","","","<div class='trialBorder'><div class='targDiv'><div class='tc'><img class='introPic' src='trustrating_stim/white_mw013.bmp'><br><font color='red'><strong>Keep</strong></font></div></div><div class='respDiv'><div class='respDivL'>Match<br>(e)</div><div class='respDivR'>No Match<br>(i)</div></div></div>","i","TARGET","1","trustrating_stim/white_mw013.bmp","0","Match","e","1500","trustrating_stim/white_mw013.bmp","red","Keep","REAL","0"
"html-keyboard-response","124","318538","0.0-7.0-5.17","55e7221441988f000b75cc7a","bdp_wmem","Wed Mar 15 2023 15:33:35 GMT-0400 (Eastern Daylight Time)","598475","Match,No Match","","null","","","","","","<div class='trialBorder'><div class='vertical-center'><img src='img/error.jpg'></div><div class='respDiv'><div class='respDivL'>Match<br>(e)</div><div class='respDivR'><font style='color:orange'>No Match<br>(i)</font></div></div></div>","null","FEEDBACK","","","","","","","","","","",""
"html-keyboard-response","125","319039","0.0-7.0-1.18","55e7221441988f000b75cc7a","bdp_wmem","Wed Mar 15 2023 15:33:35 GMT-0400 (Eastern Daylight Time)","598475","Match,No Match","","null","","","","","","<div class='trialBorder'><div class='vertical-center'><img src='img/fixation2_sml.jpg'</img></div></div>","null","FIX","","","","","","","","","","",""
"html-keyboard-response","126","320540","0.0-7.0-2.18","55e7221441988f000b75cc7a","bdp_wmem","Wed Mar 15 2023 15:33:35 GMT-0400 (Eastern Daylight Time)","598475","Match,No Match","","null","","","","","","<div class='trialBorder'><div class='vertical-center'><img style='vertical-align:center; align:center' src='img/fixation2_sml.jpg'></div><div class='arrayDiv1'><div class='tc'><img class='introPic' src='trustrating_stim/white_mw013.bmp'><br><font color='green'><strong>Share</strong></font></div></div></div>","null","ARRAY","1","trustrating_stim/white_mw013.bmp","1","Match","e","1500","","","","",""
"html-keyboard-response","127","324542","0.0-7.0-3.18","55e7221441988f000b75cc7a","bdp_wmem","Wed Mar 15 2023 15:33:35 GMT-0400 (Eastern Daylight Time)","598475","Match,No Match","","null","","","","","","<div class='trialBorder'><div class='vertical-center'><img src='img/fixation2_sml.jpg'</img></div></div>","null","DELAY","","","","","","","","","","",""
"html-keyboard-response","128","325434","0.0-7.0-4.18","55e7221441988f000b75cc7a","bdp_wmem","Wed Mar 15 2023 15:33:35 GMT-0400 (Eastern Daylight Time)","598475","Match,No Match","","892","","","","","","<div class='trialBorder'><div class='targDiv'><div class='tc'><img class='introPic' src='trustrating_stim/white_mw013.bmp'><br><font color='green'><strong>Share</strong></font></div></div><div class='respDiv'><div class='respDivL'>Match<br>(e)</div><div class='respDivR'>No Match<br>(i)</div></div></div>","e","TARGET","1","trustrating_stim/white_mw013.bmp","1","Match","e","1500","trustrating_stim/white_mw013.bmp","green","Share","REAL","1"
"html-keyboard-response","129","325935","0.0-7.0-5.18","55e7221441988f000b75cc7a","bdp_wmem","Wed Mar 15 2023 15:33:35 GMT-0400 (Eastern Daylight Time)","598475","Match,No Match","","null","","","","","","<div class='trialBorder'><div class='vertical-center'><img src='img/correct.jpg'></div><div class='respDiv'><div class='respDivL'><font style='color:orange'>Match<br>(e)</font></div><div class='respDivR'>No Match<br>(i)</div></div></div>","null","FEEDBACK","","","","","","","","","","",""
"html-keyboard-response","130","326437","0.0-7.0-1.19","55e7221441988f000b75cc7a","bdp_wmem","Wed Mar 15 2023 15:33:35 GMT-0400 (Eastern Daylight Time)","598475","Match,No Match","","null","","","","","","<div class='trialBorder'><div class='vertical-center'><img src='img/fixation2_sml.jpg'</img></div></div>","null","FIX","","","","","","","","","","",""
"html-keyboard-response","131","327938","0.0-7.0-2.19","55e7221441988f000b75cc7a","bdp_wmem","Wed Mar 15 2023 15:33:35 GMT-0400 (Eastern Daylight Time)","598475","Match,No Match","","null","","","","","","<div class='trialBorder'><div class='vertical-center'><img style='vertical-align:center; align:center' src='img/fixation2_sml.jpg'></div><div class='arrayDiv1'><div class='tc'><img class='introPic' src='trustrating_stim/white_mw040.bmp'><br><font color='red'><strong>Keep</strong></font></div></div></div>","null","ARRAY","1","trustrating_stim/white_mw040.bmp","0","noMatchOutcome","i","1500","","","","",""
"html-keyboard-response","132","331939","0.0-7.0-3.19","55e7221441988f000b75cc7a","bdp_wmem","Wed Mar 15 2023 15:33:35 GMT-0400 (Eastern Daylight Time)","598475","Match,No Match","","null","","","","","","<div class='trialBorder'><div class='vertical-center'><img src='img/fixation2_sml.jpg'</img></div></div>","null","DELAY","","","","","","","","","","",""
"html-keyboard-response","133","332859","0.0-7.0-4.19","55e7221441988f000b75cc7a","bdp_wmem","Wed Mar 15 2023 15:33:35 GMT-0400 (Eastern Daylight Time)","598475","Match,No Match","","919","","","","","","<div class='trialBorder'><div class='targDiv'><div class='tc'><img class='introPic' src='trustrating_stim/white_mw040.bmp'><br><font color='green'><strong>Share</strong></font></div></div><div class='respDiv'><div class='respDivL'>Match<br>(e)</div><div class='respDivR'>No Match<br>(i)</div></div></div>","i","TARGET","1","trustrating_stim/white_mw040.bmp","0","noMatchOutcome","i","1500","trustrating_stim/white_mw040.bmp","green","Share","REAL","1"
"html-keyboard-response","134","333360","0.0-7.0-5.19","55e7221441988f000b75cc7a","bdp_wmem","Wed Mar 15 2023 15:33:35 GMT-0400 (Eastern Daylight Time)","598475","Match,No Match","","null","","","","","","<div class='trialBorder'><div class='vertical-center'><img src='img/correct.jpg'></div><div class='respDiv'><div class='respDivL'>Match<br>(e)</div><div class='respDivR'><font style='color:orange'>No Match<br>(i)</font></div></div></div>","null","FEEDBACK","","","","","","","","","","",""
"html-keyboard-response","135","333861","0.0-7.0-1.20","55e7221441988f000b75cc7a","bdp_wmem","Wed Mar 15 2023 15:33:35 GMT-0400 (Eastern Daylight Time)","598475","Match,No Match","","null","","","","","","<div class='trialBorder'><div class='vertical-center'><img src='img/fixation2_sml.jpg'</img></div></div>","null","FIX","","","","","","","","","","",""
"html-keyboard-response","136","338362","0.0-7.0-2.20","55e7221441988f000b75cc7a","bdp_wmem","Wed Mar 15 2023 15:33:35 GMT-0400 (Eastern Daylight Time)","598475","Match,No Match","","null","","","","","","<div class='trialBorder'><div class='vertical-center'><img style='vertical-align:center; align:center' src='img/fixation2_sml.jpg'></div><div class='arrayDiv3'><div class='tl'><img class='introPic' src='trustrating_stim/white_mw038.bmp'><br><font color='red'><strong>Keep</strong></font></div><div class='tc'><img class='introPic' src='trustrating_stim/white_mw012.bmp'><br><font color='green'><strong>Share</strong></font></div><div class='tr'><img class='introPic' src='trustrating_stim/white_mw013.bmp'><br><font color='red'><strong>Keep</strong></font></div></div></div>","null","ARRAY","3","trustrating_stim/white_mw038.bmp,trustrating_stim/white_mw012.bmp,trustrating_stim/white_mw013.bmp","0,1,0","Match","e","4500","","","","",""
"html-keyboard-response","137","342363","0.0-7.0-3.20","55e7221441988f000b75cc7a","bdp_wmem","Wed Mar 15 2023 15:33:35 GMT-0400 (Eastern Daylight Time)","598475","Match,No Match","","null","","","","","","<div class='trialBorder'><div class='vertical-center'><img src='img/fixation2_sml.jpg'</img></div></div>","null","DELAY","","","","","","","","","","",""
"html-keyboard-response","138","343256","0.0-7.0-4.20","55e7221441988f000b75cc7a","bdp_wmem","Wed Mar 15 2023 15:33:35 GMT-0400 (Eastern Daylight Time)","598475","Match,No Match","","893","","","","","","<div class='trialBorder'><div class='targDiv'><div class='tc'><img class='introPic' src='trustrating_stim/white_mw038.bmp'><br><font color='red'><strong>Keep</strong></font></div></div><div class='respDiv'><div class='respDivL'>Match<br>(e)</div><div class='respDivR'>No Match<br>(i)</div></div></div>","e","TARGET","3","trustrating_stim/white_mw038.bmp,trustrating_stim/white_mw012.bmp,trustrating_stim/white_mw013.bmp","0,1,0","Match","e","4500","trustrating_stim/white_mw038.bmp","red","Keep","REAL","1"
"html-keyboard-response","139","343757","0.0-7.0-5.20","55e7221441988f000b75cc7a","bdp_wmem","Wed Mar 15 2023 15:33:35 GMT-0400 (Eastern Daylight Time)","598475","Match,No Match","","null","","","","","","<div class='trialBorder'><div class='vertical-center'><img src='img/correct.jpg'></div><div class='respDiv'><div class='respDivL'><font style='color:orange'>Match<br>(e)</font></div><div class='respDivR'>No Match<br>(i)</div></div></div>","null","FEEDBACK","","","","","","","","","","",""
"html-keyboard-response","140","344258","0.0-7.0-1.21","55e7221441988f000b75cc7a","bdp_wmem","Wed Mar 15 2023 15:33:35 GMT-0400 (Eastern Daylight Time)","598475","Match,No Match","","null","","","","","","<div class='trialBorder'><div class='vertical-center'><img src='img/fixation2_sml.jpg'</img></div></div>","null","FIX","","","","","","","","","","",""
"html-keyboard-response","141","345759","0.0-7.0-2.21","55e7221441988f000b75cc7a","bdp_wmem","Wed Mar 15 2023 15:33:35 GMT-0400 (Eastern Daylight Time)","598475","Match,No Match","","null","","","","","","<div class='trialBorder'><div class='vertical-center'><img style='vertical-align:center; align:center' src='img/fixation2_sml.jpg'></div><div class='arrayDiv1'><div class='tc'><img class='introPic' src='trustrating_stim/white_mw010.bmp'><br><font color='red'><strong>Keep</strong></font></div></div></div>","null","ARRAY","1","trustrating_stim/white_mw010.bmp","0","noMatchOutcome","i","1500","","","","",""
"html-keyboard-response","142","349760","0.0-7.0-3.21","55e7221441988f000b75cc7a","bdp_wmem","Wed Mar 15 2023 15:33:35 GMT-0400 (Eastern Daylight Time)","598475","Match,No Match","","null","","","","","","<div class='trialBorder'><div class='vertical-center'><img src='img/fixation2_sml.jpg'</img></div></div>","null","DELAY","","","","","","","","","","",""
"html-keyboard-response","143","351079","0.0-7.0-4.21","55e7221441988f000b75cc7a","bdp_wmem","Wed Mar 15 2023 15:33:35 GMT-0400 (Eastern Daylight Time)","598475","Match,No Match","","1318","","","","","","<div class='trialBorder'><div class='targDiv'><div class='tc'><img class='introPic' src='trustrating_stim/white_mw010.bmp'><br><font color='green'><strong>Share</strong></font></div></div><div class='respDiv'><div class='respDivL'>Match<br>(e)</div><div class='respDivR'>No Match<br>(i)</div></div></div>","i","TARGET","1","trustrating_stim/white_mw010.bmp","0","noMatchOutcome","i","1500","trustrating_stim/white_mw010.bmp","green","Share","REAL","1"
"html-keyboard-response","144","351580","0.0-7.0-5.21","55e7221441988f000b75cc7a","bdp_wmem","Wed Mar 15 2023 15:33:35 GMT-0400 (Eastern Daylight Time)","598475","Match,No Match","","null","","","","","","<div class='trialBorder'><div class='vertical-center'><img src='img/correct.jpg'></div><div class='respDiv'><div class='respDivL'>Match<br>(e)</div><div class='respDivR'><font style='color:orange'>No Match<br>(i)</font></div></div></div>","null","FEEDBACK","","","","","","","","","","",""
"html-keyboard-response","145","352082","0.0-7.0-1.22","55e7221441988f000b75cc7a","bdp_wmem","Wed Mar 15 2023 15:33:35 GMT-0400 (Eastern Daylight Time)","598475","Match,No Match","","null","","","","","","<div class='trialBorder'><div class='vertical-center'><img src='img/fixation2_sml.jpg'</img></div></div>","null","FIX","","","","","","","","","","",""
"html-keyboard-response","146","356583","0.0-7.0-2.22","55e7221441988f000b75cc7a","bdp_wmem","Wed Mar 15 2023 15:33:35 GMT-0400 (Eastern Daylight Time)","598475","Match,No Match","","null","","","","","","<div class='trialBorder'><div class='vertical-center'><img style='vertical-align:center; align:center' src='img/fixation2_sml.jpg'></div><div class='arrayDiv3'><div class='tl'><img class='introPic' src='trustrating_stim/white_mw092.bmp'><br><font color='green'><strong>Share</strong></font></div><div class='tc'><img class='introPic' src='trustrating_stim/white_mw091.bmp'><br><font color='red'><strong>Keep</strong></font></div><div class='tr'><img class='introPic' src='trustrating_stim/white_mw012.bmp'><br><font color='red'><strong>Keep</strong></font></div></div></div>","null","ARRAY","3","trustrating_stim/white_mw092.bmp,trustrating_stim/white_mw091.bmp,trustrating_stim/white_mw012.bmp","1,0,0","noMatchFace","i","4500","","","","",""
"html-keyboard-response","147","360585","0.0-7.0-3.22","55e7221441988f000b75cc7a","bdp_wmem","Wed Mar 15 2023 15:33:35 GMT-0400 (Eastern Daylight Time)","598475","Match,No Match","","null","","","","","","<div class='trialBorder'><div class='vertical-center'><img src='img/fixation2_sml.jpg'</img></div></div>","null","DELAY","","","","","","","","","","",""
"html-keyboard-response","148","362540","0.0-7.0-4.22","55e7221441988f000b75cc7a","bdp_wmem","Wed Mar 15 2023 15:33:35 GMT-0400 (Eastern Daylight Time)","598475","Match,No Match","","1955","","","","","","<div class='trialBorder'><div class='targDiv'><div class='tc'><img class='introPic' src='trustrating_stim/white_mw042.bmp'><br><font color='red'><strong>Keep</strong></font></div></div><div class='respDiv'><div class='respDivL'>Match<br>(e)</div><div class='respDivR'>No Match<br>(i)</div></div></div>","e","TARGET","3","trustrating_stim/white_mw092.bmp,trustrating_stim/white_mw091.bmp,trustrating_stim/white_mw012.bmp","1,0,0","noMatchFace","i","4500","trustrating_stim/white_mw042.bmp","red","Keep","REAL","0"
"html-keyboard-response","149","363041","0.0-7.0-5.22","55e7221441988f000b75cc7a","bdp_wmem","Wed Mar 15 2023 15:33:35 GMT-0400 (Eastern Daylight Time)","598475","Match,No Match","","null","","","","","","<div class='trialBorder'><div class='vertical-center'><img src='img/error.jpg'></div><div class='respDiv'><div class='respDivL'><font style='color:orange'>Match<br>(e)</font></div><div class='respDivR'>No Match<br>(i)</div></div></div>","null","FEEDBACK","","","","","","","","","","",""
"html-keyboard-response","150","363543","0.0-7.0-1.23","55e7221441988f000b75cc7a","bdp_wmem","Wed Mar 15 2023 15:33:35 GMT-0400 (Eastern Daylight Time)","598475","Match,No Match","","null","","","","","","<div class='trialBorder'><div class='vertical-center'><img src='img/fixation2_sml.jpg'</img></div></div>","null","FIX","","","","","","","","","","",""
"html-keyboard-response","151","366544","0.0-7.0-2.23","55e7221441988f000b75cc7a","bdp_wmem","Wed Mar 15 2023 15:33:35 GMT-0400 (Eastern Daylight Time)","598475","Match,No Match","","null","","","","","","<div class='trialBorder'><div class='vertical-center'><img style='vertical-align:center; align:center' src='img/fixation2_sml.jpg'></div><div class='arrayDiv2'><div class='tl'><img class='introPic' src='trustrating_stim/white_mw013.bmp'><br><font color='red'><strong>Keep</strong></font></div><div class='tr'><img class='introPic' src='trustrating_stim/white_mw092.bmp'><br><font color='green'><strong>Share</strong></font></div></div></div>","null","ARRAY","2","trustrating_stim/white_mw013.bmp,trustrating_stim/white_mw092.bmp","0,1","Match","e","3000","","","","",""
"html-keyboard-response","152","370545","0.0-7.0-3.23","55e7221441988f000b75cc7a","bdp_wmem","Wed Mar 15 2023 15:33:35 GMT-0400 (Eastern Daylight Time)","598475","Match,No Match","","null","","","","","","<div class='trialBorder'><div class='vertical-center'><img src='img/fixation2_sml.jpg'</img></div></div>","null","DELAY","","","","","","","","","","",""
"html-keyboard-response","153","371310","0.0-7.0-4.23","55e7221441988f000b75cc7a","bdp_wmem","Wed Mar 15 2023 15:33:35 GMT-0400 (Eastern Daylight Time)","598475","Match,No Match","","765","","","","","","<div class='trialBorder'><div class='targDiv'><div class='tc'><img class='introPic' src='trustrating_stim/white_mw013.bmp'><br><font color='red'><strong>Keep</strong></font></div></div><div class='respDiv'><div class='respDivL'>Match<br>(e)</div><div class='respDivR'>No Match<br>(i)</div></div></div>","e","TARGET","2","trustrating_stim/white_mw013.bmp,trustrating_stim/white_mw092.bmp","0,1","Match","e","3000","trustrating_stim/white_mw013.bmp","red","Keep","REAL","1"
"html-keyboard-response","154","371812","0.0-7.0-5.23","55e7221441988f000b75cc7a","bdp_wmem","Wed Mar 15 2023 15:33:35 GMT-0400 (Eastern Daylight Time)","598475","Match,No Match","","null","","","","","","<div class='trialBorder'><div class='vertical-center'><img src='img/correct.jpg'></div><div class='respDiv'><div class='respDivL'><font style='color:orange'>Match<br>(e)</font></div><div class='respDivR'>No Match<br>(i)</div></div></div>","null","FEEDBACK","","","","","","","","","","",""
"html-keyboard-response","155","372313","0.0-7.0-1.24","55e7221441988f000b75cc7a","bdp_wmem","Wed Mar 15 2023 15:33:35 GMT-0400 (Eastern Daylight Time)","598475","Match,No Match","","null","","","","","","<div class='trialBorder'><div class='vertical-center'><img src='img/fixation2_sml.jpg'</img></div></div>","null","FIX","","","","","","","","","","",""
"html-keyboard-response","156","375315","0.0-7.0-2.24","55e7221441988f000b75cc7a","bdp_wmem","Wed Mar 15 2023 15:33:35 GMT-0400 (Eastern Daylight Time)","598475","Match,No Match","","null","","","","","","<div class='trialBorder'><div class='vertical-center'><img style='vertical-align:center; align:center' src='img/fixation2_sml.jpg'></div><div class='arrayDiv2'><div class='tl'><img class='introPic' src='trustrating_stim/white_mw003.bmp'><br><font color='red'><strong>Keep</strong></font></div><div class='tr'><img class='introPic' src='trustrating_stim/white_mw040.bmp'><br><font color='green'><strong>Share</strong></font></div></div></div>","null","ARRAY","2","trustrating_stim/white_mw003.bmp,trustrating_stim/white_mw040.bmp","0,1","noMatchOutcome","i","3000","","","","",""
"html-keyboard-response","157","379316","0.0-7.0-3.24","55e7221441988f000b75cc7a","bdp_wmem","Wed Mar 15 2023 15:33:35 GMT-0400 (Eastern Daylight Time)","598475","Match,No Match","","null","","","","","","<div class='trialBorder'><div class='vertical-center'><img src='img/fixation2_sml.jpg'</img></div></div>","null","DELAY","","","","","","","","","","",""
"html-keyboard-response","158","380259","0.0-7.0-4.24","55e7221441988f000b75cc7a","bdp_wmem","Wed Mar 15 2023 15:33:35 GMT-0400 (Eastern Daylight Time)","598475","Match,No Match","","942","","","","","","<div class='trialBorder'><div class='targDiv'><div class='tc'><img class='introPic' src='trustrating_stim/white_mw003.bmp'><br><font color='green'><strong>Share</strong></font></div></div><div class='respDiv'><div class='respDivL'>Match<br>(e)</div><div class='respDivR'>No Match<br>(i)</div></div></div>","e","TARGET","2","trustrating_stim/white_mw003.bmp,trustrating_stim/white_mw040.bmp","0,1","noMatchOutcome","i","3000","trustrating_stim/white_mw003.bmp","green","Share","REAL","0"
"html-keyboard-response","159","380761","0.0-7.0-5.24","55e7221441988f000b75cc7a","bdp_wmem","Wed Mar 15 2023 15:33:35 GMT-0400 (Eastern Daylight Time)","598475","Match,No Match","","null","","","","","","<div class='trialBorder'><div class='vertical-center'><img src='img/error.jpg'></div><div class='respDiv'><div class='respDivL'><font style='color:orange'>Match<br>(e)</font></div><div class='respDivR'>No Match<br>(i)</div></div></div>","null","FEEDBACK","","","","","","","","","","",""
"html-keyboard-response","160","381262","0.0-7.0-1.25","55e7221441988f000b75cc7a","bdp_wmem","Wed Mar 15 2023 15:33:35 GMT-0400 (Eastern Daylight Time)","598475","Match,No Match","","null","","","","","","<div class='trialBorder'><div class='vertical-center'><img src='img/fixation2_sml.jpg'</img></div></div>","null","FIX","","","","","","","","","","",""
"html-keyboard-response","161","385764","0.0-7.0-2.25","55e7221441988f000b75cc7a","bdp_wmem","Wed Mar 15 2023 15:33:35 GMT-0400 (Eastern Daylight Time)","598475","Match,No Match","","null","","","","","","<div class='trialBorder'><div class='vertical-center'><img style='vertical-align:center; align:center' src='img/fixation2_sml.jpg'></div><div class='arrayDiv3'><div class='tl'><img class='introPic' src='trustrating_stim/white_mw091.bmp'><br><font color='red'><strong>Keep</strong></font></div><div class='tc'><img class='introPic' src='trustrating_stim/white_mw013.bmp'><br><font color='green'><strong>Share</strong></font></div><div class='tr'><img class='introPic' src='trustrating_stim/white_mw092.bmp'><br><font color='green'><strong>Share</strong></font></div></div></div>","null","ARRAY","3","trustrating_stim/white_mw091.bmp,trustrating_stim/white_mw013.bmp,trustrating_stim/white_mw092.bmp","0,1,1","noMatchFace","i","4500","","","","",""
"html-keyboard-response","162","389766","0.0-7.0-3.25","55e7221441988f000b75cc7a","bdp_wmem","Wed Mar 15 2023 15:33:35 GMT-0400 (Eastern Daylight Time)","598475","Match,No Match","","null","","","","","","<div class='trialBorder'><div class='vertical-center'><img src='img/fixation2_sml.jpg'</img></div></div>","null","DELAY","","","","","","","","","","",""
"html-keyboard-response","163","390619","0.0-7.0-4.25","55e7221441988f000b75cc7a","bdp_wmem","Wed Mar 15 2023 15:33:35 GMT-0400 (Eastern Daylight Time)","598475","Match,No Match","","853","","","","","","<div class='trialBorder'><div class='targDiv'><div class='tc'><img class='introPic' src='trustrating_stim/white_mw040.bmp'><br><font color='red'><strong>Keep</strong></font></div></div><div class='respDiv'><div class='respDivL'>Match<br>(e)</div><div class='respDivR'>No Match<br>(i)</div></div></div>","i","TARGET","3","trustrating_stim/white_mw091.bmp,trustrating_stim/white_mw013.bmp,trustrating_stim/white_mw092.bmp","0,1,1","noMatchFace","i","4500","trustrating_stim/white_mw040.bmp","red","Keep","REAL","1"
"html-keyboard-response","164","391120","0.0-7.0-5.25","55e7221441988f000b75cc7a","bdp_wmem","Wed Mar 15 2023 15:33:35 GMT-0400 (Eastern Daylight Time)","598475","Match,No Match","","null","","","","","","<div class='trialBorder'><div class='vertical-center'><img src='img/correct.jpg'></div><div class='respDiv'><div class='respDivL'>Match<br>(e)</div><div class='respDivR'><font style='color:orange'>No Match<br>(i)</font></div></div></div>","null","FEEDBACK","","","","","","","","","","",""
"html-keyboard-response","165","391621","0.0-7.0-1.26","55e7221441988f000b75cc7a","bdp_wmem","Wed Mar 15 2023 15:33:35 GMT-0400 (Eastern Daylight Time)","598475","Match,No Match","","null","","","","","","<div class='trialBorder'><div class='vertical-center'><img src='img/fixation2_sml.jpg'</img></div></div>","null","FIX","","","","","","","","","","",""
"html-keyboard-response","166","396122","0.0-7.0-2.26","55e7221441988f000b75cc7a","bdp_wmem","Wed Mar 15 2023 15:33:35 GMT-0400 (Eastern Daylight Time)","598475","Match,No Match","","null","","","","","","<div class='trialBorder'><div class='vertical-center'><img style='vertical-align:center; align:center' src='img/fixation2_sml.jpg'></div><div class='arrayDiv3'><div class='tl'><img class='introPic' src='trustrating_stim/white_mw040.bmp'><br><font color='green'><strong>Share</strong></font></div><div class='tc'><img class='introPic' src='trustrating_stim/white_mw013.bmp'><br><font color='red'><strong>Keep</strong></font></div><div class='tr'><img class='introPic' src='trustrating_stim/white_mw012.bmp'><br><font color='green'><strong>Share</strong></font></div></div></div>","null","ARRAY","3","trustrating_stim/white_mw040.bmp,trustrating_stim/white_mw013.bmp,trustrating_stim/white_mw012.bmp","1,0,1","Match","e","4500","","","","",""
"html-keyboard-response","167","400124","0.0-7.0-3.26","55e7221441988f000b75cc7a","bdp_wmem","Wed Mar 15 2023 15:33:35 GMT-0400 (Eastern Daylight Time)","598475","Match,No Match","","null","","","","","","<div class='trialBorder'><div class='vertical-center'><img src='img/fixation2_sml.jpg'</img></div></div>","null","DELAY","","","","","","","","","","",""
"html-keyboard-response","168","402152","0.0-7.0-4.26","55e7221441988f000b75cc7a","bdp_wmem","Wed Mar 15 2023 15:33:35 GMT-0400 (Eastern Daylight Time)","598475","Match,No Match","","2028","","","","","","<div class='trialBorder'><div class='targDiv'><div class='tc'><img class='introPic' src='trustrating_stim/white_mw013.bmp'><br><font color='red'><strong>Keep</strong></font></div></div><div class='respDiv'><div class='respDivL'>Match<br>(e)</div><div class='respDivR'>No Match<br>(i)</div></div></div>","i","TARGET","3","trustrating_stim/white_mw040.bmp,trustrating_stim/white_mw013.bmp,trustrating_stim/white_mw012.bmp","1,0,1","Match","e","4500","trustrating_stim/white_mw013.bmp","red","Keep","REAL","0"
"html-keyboard-response","169","402653","0.0-7.0-5.26","55e7221441988f000b75cc7a","bdp_wmem","Wed Mar 15 2023 15:33:35 GMT-0400 (Eastern Daylight Time)","598475","Match,No Match","","null","","","","","","<div class='trialBorder'><div class='vertical-center'><img src='img/error.jpg'></div><div class='respDiv'><div class='respDivL'>Match<br>(e)</div><div class='respDivR'><font style='color:orange'>No Match<br>(i)</font></div></div></div>","null","FEEDBACK","","","","","","","","","","",""
"html-keyboard-response","170","403155","0.0-7.0-1.27","55e7221441988f000b75cc7a","bdp_wmem","Wed Mar 15 2023 15:33:35 GMT-0400 (Eastern Daylight Time)","598475","Match,No Match","","null","","","","","","<div class='trialBorder'><div class='vertical-center'><img src='img/fixation2_sml.jpg'</img></div></div>","null","FIX","","","","","","","","","","",""
"html-keyboard-response","171","404656","0.0-7.0-2.27","55e7221441988f000b75cc7a","bdp_wmem","Wed Mar 15 2023 15:33:35 GMT-0400 (Eastern Daylight Time)","598475","Match,No Match","","null","","","","","","<div class='trialBorder'><div class='vertical-center'><img style='vertical-align:center; align:center' src='img/fixation2_sml.jpg'></div><div class='arrayDiv1'><div class='tc'><img class='introPic' src='trustrating_stim/white_mw070.bmp'><br><font color='green'><strong>Share</strong></font></div></div></div>","null","ARRAY","1","trustrating_stim/white_mw070.bmp","1","noMatchOutcome","i","1500","","","","",""
"html-keyboard-response","172","408657","0.0-7.0-3.27","55e7221441988f000b75cc7a","bdp_wmem","Wed Mar 15 2023 15:33:35 GMT-0400 (Eastern Daylight Time)","598475","Match,No Match","","null","","","","","","<div class='trialBorder'><div class='vertical-center'><img src='img/fixation2_sml.jpg'</img></div></div>","null","DELAY","","","","","","","","","","",""
"html-keyboard-response","173","409407","0.0-7.0-4.27","55e7221441988f000b75cc7a","bdp_wmem","Wed Mar 15 2023 15:33:35 GMT-0400 (Eastern Daylight Time)","598475","Match,No Match","","750","","","","","","<div class='trialBorder'><div class='targDiv'><div class='tc'><img class='introPic' src='trustrating_stim/white_mw070.bmp'><br><font color='red'><strong>Keep</strong></font></div></div><div class='respDiv'><div class='respDivL'>Match<br>(e)</div><div class='respDivR'>No Match<br>(i)</div></div></div>","i","TARGET","1","trustrating_stim/white_mw070.bmp","1","noMatchOutcome","i","1500","trustrating_stim/white_mw070.bmp","red","Keep","REAL","1"
"html-keyboard-response","174","409909","0.0-7.0-5.27","55e7221441988f000b75cc7a","bdp_wmem","Wed Mar 15 2023 15:33:35 GMT-0400 (Eastern Daylight Time)","598475","Match,No Match","","null","","","","","","<div class='trialBorder'><div class='vertical-center'><img src='img/correct.jpg'></div><div class='respDiv'><div class='respDivL'>Match<br>(e)</div><div class='respDivR'><font style='color:orange'>No Match<br>(i)</font></div></div></div>","null","FEEDBACK","","","","","","","","","","",""
"html-keyboard-response","175","410410","0.0-7.0-1.28","55e7221441988f000b75cc7a","bdp_wmem","Wed Mar 15 2023 15:33:35 GMT-0400 (Eastern Daylight Time)","598475","Match,No Match","","null","","","","","","<div class='trialBorder'><div class='vertical-center'><img src='img/fixation2_sml.jpg'</img></div></div>","null","FIX","","","","","","","","","","",""
"html-keyboard-response","176","413412","0.0-7.0-2.28","55e7221441988f000b75cc7a","bdp_wmem","Wed Mar 15 2023 15:33:35 GMT-0400 (Eastern Daylight Time)","598475","Match,No Match","","null","","","","","","<div class='trialBorder'><div class='vertical-center'><img style='vertical-align:center; align:center' src='img/fixation2_sml.jpg'></div><div class='arrayDiv2'><div class='tl'><img class='introPic' src='trustrating_stim/white_mw013.bmp'><br><font color='red'><strong>Keep</strong></font></div><div class='tr'><img class='introPic' src='trustrating_stim/white_mw012.bmp'><br><font color='green'><strong>Share</strong></font></div></div></div>","null","ARRAY","2","trustrating_stim/white_mw013.bmp,trustrating_stim/white_mw012.bmp","0,1","Match","e","3000","","","","",""
"html-keyboard-response","177","417415","0.0-7.0-3.28","55e7221441988f000b75cc7a","bdp_wmem","Wed Mar 15 2023 15:33:35 GMT-0400 (Eastern Daylight Time)","598475","Match,No Match","","null","","","","","","<div class='trialBorder'><div class='vertical-center'><img src='img/fixation2_sml.jpg'</img></div></div>","null","DELAY","","","","","","","","","","",""
"html-keyboard-response","178","420391","0.0-7.0-4.28","55e7221441988f000b75cc7a","bdp_wmem","Wed Mar 15 2023 15:33:35 GMT-0400 (Eastern Daylight Time)","598475","Match,No Match","","2976","","","","","","<div class='trialBorder'><div class='targDiv'><div class='tc'><img class='introPic' src='trustrating_stim/white_mw013.bmp'><br><font color='red'><strong>Keep</strong></font></div></div><div class='respDiv'><div class='respDivL'>Match<br>(e)</div><div class='respDivR'>No Match<br>(i)</div></div></div>","e","TARGET","2","trustrating_stim/white_mw013.bmp,trustrating_stim/white_mw012.bmp","0,1","Match","e","3000","trustrating_stim/white_mw013.bmp","red","Keep","REAL","1"
"html-keyboard-response","179","420892","0.0-7.0-5.28","55e7221441988f000b75cc7a","bdp_wmem","Wed Mar 15 2023 15:33:35 GMT-0400 (Eastern Daylight Time)","598475","Match,No Match","","null","","","","","","<div class='trialBorder'><div class='vertical-center'><img src='img/correct.jpg'></div><div class='respDiv'><div class='respDivL'><font style='color:orange'>Match<br>(e)</font></div><div class='respDivR'>No Match<br>(i)</div></div></div>","null","FEEDBACK","","","","","","","","","","",""
"html-keyboard-response","180","421393","0.0-7.0-1.29","55e7221441988f000b75cc7a","bdp_wmem","Wed Mar 15 2023 15:33:35 GMT-0400 (Eastern Daylight Time)","598475","Match,No Match","","null","","","","","","<div class='trialBorder'><div class='vertical-center'><img src='img/fixation2_sml.jpg'</img></div></div>","null","FIX","","","","","","","","","","",""
"html-keyboard-response","181","424394","0.0-7.0-2.29","55e7221441988f000b75cc7a","bdp_wmem","Wed Mar 15 2023 15:33:35 GMT-0400 (Eastern Daylight Time)","598475","Match,No Match","","null","","","","","","<div class='trialBorder'><div class='vertical-center'><img style='vertical-align:center; align:center' src='img/fixation2_sml.jpg'></div><div class='arrayDiv2'><div class='tl'><img class='introPic' src='trustrating_stim/white_mw042.bmp'><br><font color='red'><strong>Keep</strong></font></div><div class='tr'><img class='introPic' src='trustrating_stim/white_mw070.bmp'><br><font color='green'><strong>Share</strong></font></div></div></div>","null","ARRAY","2","trustrating_stim/white_mw042.bmp,trustrating_stim/white_mw070.bmp","0,1","noMatchFace","i","3000","","","","",""
"html-keyboard-response","182","428394","0.0-7.0-3.29","55e7221441988f000b75cc7a","bdp_wmem","Wed Mar 15 2023 15:33:35 GMT-0400 (Eastern Daylight Time)","598475","Match,No Match","","null","","","","","","<div class='trialBorder'><div class='vertical-center'><img src='img/fixation2_sml.jpg'</img></div></div>","null","DELAY","","","","","","","","","","",""
"html-keyboard-response","183","429639","0.0-7.0-4.29","55e7221441988f000b75cc7a","bdp_wmem","Wed Mar 15 2023 15:33:35 GMT-0400 (Eastern Daylight Time)","598475","Match,No Match","","1244","","","","","","<div class='trialBorder'><div class='targDiv'><div class='tc'><img class='introPic' src='trustrating_stim/white_mw010.bmp'><br><font color='green'><strong>Share</strong></font></div></div><div class='respDiv'><div class='respDivL'>Match<br>(e)</div><div class='respDivR'>No Match<br>(i)</div></div></div>","i","TARGET","2","trustrating_stim/white_mw042.bmp,trustrating_stim/white_mw070.bmp","0,1","noMatchFace","i","3000","trustrating_stim/white_mw010.bmp","green","Share","REAL","1"
"html-keyboard-response","184","430140","0.0-7.0-5.29","55e7221441988f000b75cc7a","bdp_wmem","Wed Mar 15 2023 15:33:35 GMT-0400 (Eastern Daylight Time)","598475","Match,No Match","","null","","","","","","<div class='trialBorder'><div class='vertical-center'><img src='img/correct.jpg'></div><div class='respDiv'><div class='respDivL'>Match<br>(e)</div><div class='respDivR'><font style='color:orange'>No Match<br>(i)</font></div></div></div>","null","FEEDBACK","","","","","","","","","","",""
"html-keyboard-response","185","430641","0.0-7.0-1.30","55e7221441988f000b75cc7a","bdp_wmem","Wed Mar 15 2023 15:33:35 GMT-0400 (Eastern Daylight Time)","598475","Match,No Match","","null","","","","","","<div class='trialBorder'><div class='vertical-center'><img src='img/fixation2_sml.jpg'</img></div></div>","null","FIX","","","","","","","","","","",""
"html-keyboard-response","186","432142","0.0-7.0-2.30","55e7221441988f000b75cc7a","bdp_wmem","Wed Mar 15 2023 15:33:35 GMT-0400 (Eastern Daylight Time)","598475","Match,No Match","","null","","","","","","<div class='trialBorder'><div class='vertical-center'><img style='vertical-align:center; align:center' src='img/fixation2_sml.jpg'></div><div class='arrayDiv1'><div class='tc'><img class='introPic' src='trustrating_stim/white_mw078.bmp'><br><font color='red'><strong>Keep</strong></font></div></div></div>","null","ARRAY","1","trustrating_stim/white_mw078.bmp","0","noMatchFace","i","1500","","","","",""
"html-keyboard-response","187","436144","0.0-7.0-3.30","55e7221441988f000b75cc7a","bdp_wmem","Wed Mar 15 2023 15:33:35 GMT-0400 (Eastern Daylight Time)","598475","Match,No Match","","null","","","","","","<div class='trialBorder'><div class='vertical-center'><img src='img/fixation2_sml.jpg'</img></div></div>","null","DELAY","","","","","","","","","","",""
"html-keyboard-response","188","437404","0.0-7.0-4.30","55e7221441988f000b75cc7a","bdp_wmem","Wed Mar 15 2023 15:33:35 GMT-0400 (Eastern Daylight Time)","598475","Match,No Match","","1259","","","","","","<div class='trialBorder'><div class='targDiv'><div class='tc'><img class='introPic' src='trustrating_stim/white_mw040.bmp'><br><font color='red'><strong>Keep</strong></font></div></div><div class='respDiv'><div class='respDivL'>Match<br>(e)</div><div class='respDivR'>No Match<br>(i)</div></div></div>","e","TARGET","1","trustrating_stim/white_mw078.bmp","0","noMatchFace","i","1500","trustrating_stim/white_mw040.bmp","red","Keep","REAL","0"
