"event","trial","time","trialtype","subject_id","task","startTime","totalTime","labels","trial_type","trial_index","time_elapsed","internal_node_id","view_history","rt","success","stimulus","key_press","stimType","arraySize","arrayFaces","arrayOutcomes","matchType","corrResp","arrayDur","targFace","targCol","targOutcome","trialType","corr"
"focus","0","0","focusevent","629fa760fe340707d1dfd548","bdp_wmem","Wed Jul 27 2022 12:32:37 GMT-0500 (Central Daylight Time)","622178","Match,No Match","","","","","","","","","","","","","","","","","","","","",""
"","","","","629fa760fe340707d1dfd548","bdp_wmem","Wed Jul 27 2022 12:32:37 GMT-0500 (Central Daylight Time)","622178","Match,No Match","pavlovia","0","12","0.0-0.0","","","","","","","","","","","","","","","","",""
"","","","","629fa760fe340707d1dfd548","bdp_wmem","Wed Jul 27 2022 12:32:37 GMT-0500 (Central Daylight Time)","622178","Match,No Match","instructions","1","5433","0.0-1.0","[{""page_index"":0,""viewing_time"":5419}]","5419","","","","","","","","","","","","","","",""
"fullscreenexit","2","7813","fullscreenexit","629fa760fe340707d1dfd548","bdp_wmem","Wed Jul 27 2022 12:32:37 GMT-0500 (Central Daylight Time)","622178","Match,No Match","","","","","","","","","","","","","","","","","","","","",""
"","","","","629fa760fe340707d1dfd548","bdp_wmem","Wed Jul 27 2022 12:32:37 GMT-0500 (Central Daylight Time)","622178","Match,No Match","fullscreen","2","8580","0.0-2.0","","","true","","","","","","","","","","","","","",""
"","","","fullscreenfail","629fa760fe340707d1dfd548","bdp_wmem","Wed Jul 27 2022 12:32:37 GMT-0500 (Central Daylight Time)","622178","Match,No Match","image-keyboard-response","3","12131","0.0-3.0-0.0","","3544","","","32","","","","","","","","","","","",""
"","","","","629fa760fe340707d1dfd548","bdp_wmem","Wed Jul 27 2022 12:32:37 GMT-0500 (Central Daylight Time)","622178","Match,No Match","instructions","4","105915","0.0-4.0","[{""page_index"":0,""viewing_time"":30597},{""page_index"":1,""viewing_time"":31552},{""page_index"":2,""viewing_time"":14701},{""page_index"":3,""viewing_time"":8383},{""page_index"":4,""viewing_time"":8284}]","93517","","","","","","","","","","","","","","",""
"","","","","629fa760fe340707d1dfd548","bdp_wmem","Wed Jul 27 2022 12:32:37 GMT-0500 (Central Daylight Time)","622178","Match,No Match","html-keyboard-response","5","106426","0.0-5.0-1.0","","null","","<div class='trialBorder'><div class='vertical-center'><img src='img/fixation2_sml.jpg'</img></div></div>","null","FIX","","","","","","","","","","",""
"","","","","629fa760fe340707d1dfd548","bdp_wmem","Wed Jul 27 2022 12:32:37 GMT-0500 (Central Daylight Time)","622178","Match,No Match","html-keyboard-response","6","109442","0.0-5.0-2.0","","null","","<div class='trialBorder'><div class='vertical-center'><img style='vertical-align:center; align:center' src='img/fixation2_sml.jpg'></div><div class='arrayDiv2'><div class='tl'><img class='introPic' src='trustrating_stim/white_mw012.bmp'><br><font color='green'><strong>Share</strong></font></div><div class='tr'><img class='introPic' src='trustrating_stim/white_mw042.bmp'><br><font color='red'><strong>Keep</strong></font></div></div></div>","null","ARRAY","2","trustrating_stim/white_mw012.bmp,trustrating_stim/white_mw042.bmp","1,0","Match","e","3000","","","","",""
"","","","","629fa760fe340707d1dfd548","bdp_wmem","Wed Jul 27 2022 12:32:37 GMT-0500 (Central Daylight Time)","622178","Match,No Match","html-keyboard-response","7","113451","0.0-5.0-3.0","","null","","<div class='trialBorder'><div class='vertical-center'><img src='img/fixation2_sml.jpg'</img></div></div>","null","DELAY","","","","","","","","","","",""
"","","","","629fa760fe340707d1dfd548","bdp_wmem","Wed Jul 27 2022 12:32:37 GMT-0500 (Central Daylight Time)","622178","Match,No Match","html-keyboard-response","8","116636","0.0-5.0-4.0","","3183","","<div class='trialBorder'><div class='targDiv'><div class='tc'><img class='introPic' src='trustrating_stim/white_mw042.bmp'><br><font color='red'><strong>Keep</strong></font></div></div><div class='respDiv'><div class='respDivL'>Match<br>(e)</div><div class='respDivR'>No Match<br>(i)</div></div></div>","e","TARGET","2","trustrating_stim/white_mw012.bmp,trustrating_stim/white_mw042.bmp","1,0","Match","e","3000","trustrating_stim/white_mw042.bmp","red","Keep","PRACTICE","1"
"","","","","629fa760fe340707d1dfd548","bdp_wmem","Wed Jul 27 2022 12:32:37 GMT-0500 (Central Daylight Time)","622178","Match,No Match","html-keyboard-response","9","117138","0.0-5.0-5.0","","null","","<div class='trialBorder'><div class='vertical-center'><img src='img/correct.jpg'></div><div class='respDiv'><div class='respDivL'><font style='color:orange'>Match<br>(e)</font></div><div class='respDivR'>No Match<br>(i)</div></div></div>","null","FEEDBACK","","","","","","","","","","",""
"","","","","629fa760fe340707d1dfd548","bdp_wmem","Wed Jul 27 2022 12:32:37 GMT-0500 (Central Daylight Time)","622178","Match,No Match","html-keyboard-response","10","117654","0.0-5.0-1.1","","null","","<div class='trialBorder'><div class='vertical-center'><img src='img/fixation2_sml.jpg'</img></div></div>","null","FIX","","","","","","","","","","",""
"","","","","629fa760fe340707d1dfd548","bdp_wmem","Wed Jul 27 2022 12:32:37 GMT-0500 (Central Daylight Time)","622178","Match,No Match","html-keyboard-response","11","120669","0.0-5.0-2.1","","null","","<div class='trialBorder'><div class='vertical-center'><img style='vertical-align:center; align:center' src='img/fixation2_sml.jpg'></div><div class='arrayDiv2'><div class='tl'><img class='introPic' src='trustrating_stim/white_mw078.bmp'><br><font color='green'><strong>Share</strong></font></div><div class='tr'><img class='introPic' src='trustrating_stim/white_mw070.bmp'><br><font color='red'><strong>Keep</strong></font></div></div></div>","null","ARRAY","2","trustrating_stim/white_mw078.bmp,trustrating_stim/white_mw070.bmp","1,0","noMatchOutcome","i","3000","","","","",""
"","","","","629fa760fe340707d1dfd548","bdp_wmem","Wed Jul 27 2022 12:32:37 GMT-0500 (Central Daylight Time)","622178","Match,No Match","html-keyboard-response","12","124685","0.0-5.0-3.1","","null","","<div class='trialBorder'><div class='vertical-center'><img src='img/fixation2_sml.jpg'</img></div></div>","null","DELAY","","","","","","","","","","",""
"","","","","629fa760fe340707d1dfd548","bdp_wmem","Wed Jul 27 2022 12:32:37 GMT-0500 (Central Daylight Time)","622178","Match,No Match","html-keyboard-response","13","126058","0.0-5.0-4.1","","1371","","<div class='trialBorder'><div class='targDiv'><div class='tc'><img class='introPic' src='trustrating_stim/white_mw070.bmp'><br><font color='green'><strong>Share</strong></font></div></div><div class='respDiv'><div class='respDivL'>Match<br>(e)</div><div class='respDivR'>No Match<br>(i)</div></div></div>","i","TARGET","2","trustrating_stim/white_mw078.bmp,trustrating_stim/white_mw070.bmp","1,0","noMatchOutcome","i","3000","trustrating_stim/white_mw070.bmp","green","Share","PRACTICE","1"
"","","","","629fa760fe340707d1dfd548","bdp_wmem","Wed Jul 27 2022 12:32:37 GMT-0500 (Central Daylight Time)","622178","Match,No Match","html-keyboard-response","14","126562","0.0-5.0-5.1","","null","","<div class='trialBorder'><div class='vertical-center'><img src='img/correct.jpg'></div><div class='respDiv'><div class='respDivL'>Match<br>(e)</div><div class='respDivR'><font style='color:orange'>No Match<br>(i)</font></div></div></div>","null","FEEDBACK","","","","","","","","","","",""
"","","","","629fa760fe340707d1dfd548","bdp_wmem","Wed Jul 27 2022 12:32:37 GMT-0500 (Central Daylight Time)","622178","Match,No Match","html-keyboard-response","15","127078","0.0-5.0-1.2","","null","","<div class='trialBorder'><div class='vertical-center'><img src='img/fixation2_sml.jpg'</img></div></div>","null","FIX","","","","","","","","","","",""
"","","","","629fa760fe340707d1dfd548","bdp_wmem","Wed Jul 27 2022 12:32:37 GMT-0500 (Central Daylight Time)","622178","Match,No Match","html-keyboard-response","16","131594","0.0-5.0-2.2","","null","","<div class='trialBorder'><div class='vertical-center'><img style='vertical-align:center; align:center' src='img/fixation2_sml.jpg'></div><div class='arrayDiv3'><div class='tl'><img class='introPic' src='trustrating_stim/white_mw038.bmp'><br><font color='green'><strong>Share</strong></font></div><div class='tc'><img class='introPic' src='trustrating_stim/white_mw013.bmp'><br><font color='red'><strong>Keep</strong></font></div><div class='tr'><img class='introPic' src='trustrating_stim/white_mw070.bmp'><br><font color='green'><strong>Share</strong></font></div></div></div>","null","ARRAY","3","trustrating_stim/white_mw038.bmp,trustrating_stim/white_mw013.bmp,trustrating_stim/white_mw070.bmp","1,0,1","Match","e","4500","","","","",""
"","","","","629fa760fe340707d1dfd548","bdp_wmem","Wed Jul 27 2022 12:32:37 GMT-0500 (Central Daylight Time)","622178","Match,No Match","html-keyboard-response","17","135609","0.0-5.0-3.2","","null","","<div class='trialBorder'><div class='vertical-center'><img src='img/fixation2_sml.jpg'</img></div></div>","null","DELAY","","","","","","","","","","",""
"","","","","629fa760fe340707d1dfd548","bdp_wmem","Wed Jul 27 2022 12:32:37 GMT-0500 (Central Daylight Time)","622178","Match,No Match","html-keyboard-response","18","137184","0.0-5.0-4.2","","1572","","<div class='trialBorder'><div class='targDiv'><div class='tc'><img class='introPic' src='trustrating_stim/white_mw038.bmp'><br><font color='green'><strong>Share</strong></font></div></div><div class='respDiv'><div class='respDivL'>Match<br>(e)</div><div class='respDivR'>No Match<br>(i)</div></div></div>","e","TARGET","3","trustrating_stim/white_mw038.bmp,trustrating_stim/white_mw013.bmp,trustrating_stim/white_mw070.bmp","1,0,1","Match","e","4500","trustrating_stim/white_mw038.bmp","green","Share","PRACTICE","1"
"","","","","629fa760fe340707d1dfd548","bdp_wmem","Wed Jul 27 2022 12:32:37 GMT-0500 (Central Daylight Time)","622178","Match,No Match","html-keyboard-response","19","137688","0.0-5.0-5.2","","null","","<div class='trialBorder'><div class='vertical-center'><img src='img/correct.jpg'></div><div class='respDiv'><div class='respDivL'><font style='color:orange'>Match<br>(e)</font></div><div class='respDivR'>No Match<br>(i)</div></div></div>","null","FEEDBACK","","","","","","","","","","",""
"","","","","629fa760fe340707d1dfd548","bdp_wmem","Wed Jul 27 2022 12:32:37 GMT-0500 (Central Daylight Time)","622178","Match,No Match","html-keyboard-response","20","138203","0.0-5.0-1.3","","null","","<div class='trialBorder'><div class='vertical-center'><img src='img/fixation2_sml.jpg'</img></div></div>","null","FIX","","","","","","","","","","",""
"","","","","629fa760fe340707d1dfd548","bdp_wmem","Wed Jul 27 2022 12:32:37 GMT-0500 (Central Daylight Time)","622178","Match,No Match","html-keyboard-response","21","139719","0.0-5.0-2.3","","null","","<div class='trialBorder'><div class='vertical-center'><img style='vertical-align:center; align:center' src='img/fixation2_sml.jpg'></div><div class='arrayDiv1'><div class='tc'><img class='introPic' src='trustrating_stim/white_mw038.bmp'><br><font color='red'><strong>Keep</strong></font></div></div></div>","null","ARRAY","1","trustrating_stim/white_mw038.bmp","0","noMatchFace","i","1500","","","","",""
"","","","","629fa760fe340707d1dfd548","bdp_wmem","Wed Jul 27 2022 12:32:37 GMT-0500 (Central Daylight Time)","622178","Match,No Match","html-keyboard-response","22","143725","0.0-5.0-3.3","","null","","<div class='trialBorder'><div class='vertical-center'><img src='img/fixation2_sml.jpg'</img></div></div>","null","DELAY","","","","","","","","","","",""
"","","","","629fa760fe340707d1dfd548","bdp_wmem","Wed Jul 27 2022 12:32:37 GMT-0500 (Central Daylight Time)","622178","Match,No Match","html-keyboard-response","23","144595","0.0-5.0-4.3","","869","","<div class='trialBorder'><div class='targDiv'><div class='tc'><img class='introPic' src='trustrating_stim/white_mw042.bmp'><br><font color='red'><strong>Keep</strong></font></div></div><div class='respDiv'><div class='respDivL'>Match<br>(e)</div><div class='respDivR'>No Match<br>(i)</div></div></div>","i","TARGET","1","trustrating_stim/white_mw038.bmp","0","noMatchFace","i","1500","trustrating_stim/white_mw042.bmp","red","Keep","PRACTICE","1"
"","","","","629fa760fe340707d1dfd548","bdp_wmem","Wed Jul 27 2022 12:32:37 GMT-0500 (Central Daylight Time)","622178","Match,No Match","html-keyboard-response","24","145100","0.0-5.0-5.3","","null","","<div class='trialBorder'><div class='vertical-center'><img src='img/correct.jpg'></div><div class='respDiv'><div class='respDivL'>Match<br>(e)</div><div class='respDivR'><font style='color:orange'>No Match<br>(i)</font></div></div></div>","null","FEEDBACK","","","","","","","","","","",""
"","","","","629fa760fe340707d1dfd548","bdp_wmem","Wed Jul 27 2022 12:32:37 GMT-0500 (Central Daylight Time)","622178","Match,No Match","html-keyboard-response","25","145616","0.0-5.0-1.4","","null","","<div class='trialBorder'><div class='vertical-center'><img src='img/fixation2_sml.jpg'</img></div></div>","null","FIX","","","","","","","","","","",""
"","","","","629fa760fe340707d1dfd548","bdp_wmem","Wed Jul 27 2022 12:32:37 GMT-0500 (Central Daylight Time)","622178","Match,No Match","html-keyboard-response","26","147131","0.0-5.0-2.4","","null","","<div class='trialBorder'><div class='vertical-center'><img style='vertical-align:center; align:center' src='img/fixation2_sml.jpg'></div><div class='arrayDiv1'><div class='tc'><img class='introPic' src='trustrating_stim/white_mw012.bmp'><br><font color='red'><strong>Keep</strong></font></div></div></div>","null","ARRAY","1","trustrating_stim/white_mw012.bmp","0","Match","e","1500","","","","",""
"","","","","629fa760fe340707d1dfd548","bdp_wmem","Wed Jul 27 2022 12:32:37 GMT-0500 (Central Daylight Time)","622178","Match,No Match","html-keyboard-response","27","151146","0.0-5.0-3.4","","null","","<div class='trialBorder'><div class='vertical-center'><img src='img/fixation2_sml.jpg'</img></div></div>","null","DELAY","","","","","","","","","","",""
"","","","","629fa760fe340707d1dfd548","bdp_wmem","Wed Jul 27 2022 12:32:37 GMT-0500 (Central Daylight Time)","622178","Match,No Match","html-keyboard-response","28","152736","0.0-5.0-4.4","","1590","","<div class='trialBorder'><div class='targDiv'><div class='tc'><img class='introPic' src='trustrating_stim/white_mw012.bmp'><br><font color='red'><strong>Keep</strong></font></div></div><div class='respDiv'><div class='respDivL'>Match<br>(e)</div><div class='respDivR'>No Match<br>(i)</div></div></div>","e","TARGET","1","trustrating_stim/white_mw012.bmp","0","Match","e","1500","trustrating_stim/white_mw012.bmp","red","Keep","PRACTICE","1"
"","","","","629fa760fe340707d1dfd548","bdp_wmem","Wed Jul 27 2022 12:32:37 GMT-0500 (Central Daylight Time)","622178","Match,No Match","html-keyboard-response","29","153247","0.0-5.0-5.4","","null","","<div class='trialBorder'><div class='vertical-center'><img src='img/correct.jpg'></div><div class='respDiv'><div class='respDivL'><font style='color:orange'>Match<br>(e)</font></div><div class='respDivR'>No Match<br>(i)</div></div></div>","null","FEEDBACK","","","","","","","","","","",""
"","","","","629fa760fe340707d1dfd548","bdp_wmem","Wed Jul 27 2022 12:32:37 GMT-0500 (Central Daylight Time)","622178","Match,No Match","html-keyboard-response","30","153762","0.0-5.0-1.5","","null","","<div class='trialBorder'><div class='vertical-center'><img src='img/fixation2_sml.jpg'</img></div></div>","null","FIX","","","","","","","","","","",""
"","","","","629fa760fe340707d1dfd548","bdp_wmem","Wed Jul 27 2022 12:32:37 GMT-0500 (Central Daylight Time)","622178","Match,No Match","html-keyboard-response","31","158278","0.0-5.0-2.5","","null","","<div class='trialBorder'><div class='vertical-center'><img style='vertical-align:center; align:center' src='img/fixation2_sml.jpg'></div><div class='arrayDiv3'><div class='tl'><img class='introPic' src='trustrating_stim/white_mw091.bmp'><br><font color='green'><strong>Share</strong></font></div><div class='tc'><img class='introPic' src='trustrating_stim/white_mw078.bmp'><br><font color='red'><strong>Keep</strong></font></div><div class='tr'><img class='introPic' src='trustrating_stim/white_mw070.bmp'><br><font color='red'><strong>Keep</strong></font></div></div></div>","null","ARRAY","3","trustrating_stim/white_mw091.bmp,trustrating_stim/white_mw078.bmp,trustrating_stim/white_mw070.bmp","1,0,0","noMatchOutcome","i","4500","","","","",""
"","","","","629fa760fe340707d1dfd548","bdp_wmem","Wed Jul 27 2022 12:32:37 GMT-0500 (Central Daylight Time)","622178","Match,No Match","html-keyboard-response","32","162294","0.0-5.0-3.5","","null","","<div class='trialBorder'><div class='vertical-center'><img src='img/fixation2_sml.jpg'</img></div></div>","null","DELAY","","","","","","","","","","",""
"","","","","629fa760fe340707d1dfd548","bdp_wmem","Wed Jul 27 2022 12:32:37 GMT-0500 (Central Daylight Time)","622178","Match,No Match","html-keyboard-response","33","163819","0.0-5.0-4.5","","1523","","<div class='trialBorder'><div class='targDiv'><div class='tc'><img class='introPic' src='trustrating_stim/white_mw070.bmp'><br><font color='green'><strong>Share</strong></font></div></div><div class='respDiv'><div class='respDivL'>Match<br>(e)</div><div class='respDivR'>No Match<br>(i)</div></div></div>","i","TARGET","3","trustrating_stim/white_mw091.bmp,trustrating_stim/white_mw078.bmp,trustrating_stim/white_mw070.bmp","1,0,0","noMatchOutcome","i","4500","trustrating_stim/white_mw070.bmp","green","Share","PRACTICE","1"
"","","","","629fa760fe340707d1dfd548","bdp_wmem","Wed Jul 27 2022 12:32:37 GMT-0500 (Central Daylight Time)","622178","Match,No Match","html-keyboard-response","34","164336","0.0-5.0-5.5","","null","","<div class='trialBorder'><div class='vertical-center'><img src='img/correct.jpg'></div><div class='respDiv'><div class='respDivL'>Match<br>(e)</div><div class='respDivR'><font style='color:orange'>No Match<br>(i)</font></div></div></div>","null","FEEDBACK","","","","","","","","","","",""
"","","","","629fa760fe340707d1dfd548","bdp_wmem","Wed Jul 27 2022 12:32:37 GMT-0500 (Central Daylight Time)","622178","Match,No Match","instructions","35","172385","0.0-6.0","[{""page_index"":0,""viewing_time"":8049}]","8049","","","","","","","","","","","","","","",""
"","","","","629fa760fe340707d1dfd548","bdp_wmem","Wed Jul 27 2022 12:32:37 GMT-0500 (Central Daylight Time)","622178","Match,No Match","html-keyboard-response","36","172893","0.0-7.0-1.0","","null","","<div class='trialBorder'><div class='vertical-center'><img src='img/fixation2_sml.jpg'</img></div></div>","null","FIX","","","","","","","","","","",""
"","","","","629fa760fe340707d1dfd548","bdp_wmem","Wed Jul 27 2022 12:32:37 GMT-0500 (Central Daylight Time)","622178","Match,No Match","html-keyboard-response","37","174409","0.0-7.0-2.0","","null","","<div class='trialBorder'><div class='vertical-center'><img style='vertical-align:center; align:center' src='img/fixation2_sml.jpg'></div><div class='arrayDiv1'><div class='tc'><img class='introPic' src='trustrating_stim/white_mw091.bmp'><br><font color='red'><strong>Keep</strong></font></div></div></div>","null","ARRAY","1","trustrating_stim/white_mw091.bmp","0","noMatchOutcome","i","1500","","","","",""
"","","","","629fa760fe340707d1dfd548","bdp_wmem","Wed Jul 27 2022 12:32:37 GMT-0500 (Central Daylight Time)","622178","Match,No Match","html-keyboard-response","38","178422","0.0-7.0-3.0","","null","","<div class='trialBorder'><div class='vertical-center'><img src='img/fixation2_sml.jpg'</img></div></div>","null","DELAY","","","","","","","","","","",""
"","","","","629fa760fe340707d1dfd548","bdp_wmem","Wed Jul 27 2022 12:32:37 GMT-0500 (Central Daylight Time)","622178","Match,No Match","html-keyboard-response","39","179426","0.0-7.0-4.0","","1002","","<div class='trialBorder'><div class='targDiv'><div class='tc'><img class='introPic' src='trustrating_stim/white_mw091.bmp'><br><font color='green'><strong>Share</strong></font></div></div><div class='respDiv'><div class='respDivL'>Match<br>(e)</div><div class='respDivR'>No Match<br>(i)</div></div></div>","i","TARGET","1","trustrating_stim/white_mw091.bmp","0","noMatchOutcome","i","1500","trustrating_stim/white_mw091.bmp","green","Share","REAL","1"
"","","","","629fa760fe340707d1dfd548","bdp_wmem","Wed Jul 27 2022 12:32:37 GMT-0500 (Central Daylight Time)","622178","Match,No Match","html-keyboard-response","40","179937","0.0-7.0-5.0","","null","","<div class='trialBorder'><div class='vertical-center'><img src='img/correct.jpg'></div><div class='respDiv'><div class='respDivL'>Match<br>(e)</div><div class='respDivR'><font style='color:orange'>No Match<br>(i)</font></div></div></div>","null","FEEDBACK","","","","","","","","","","",""
"","","","","629fa760fe340707d1dfd548","bdp_wmem","Wed Jul 27 2022 12:32:37 GMT-0500 (Central Daylight Time)","622178","Match,No Match","html-keyboard-response","41","180452","0.0-7.0-1.1","","null","","<div class='trialBorder'><div class='vertical-center'><img src='img/fixation2_sml.jpg'</img></div></div>","null","FIX","","","","","","","","","","",""
"","","","","629fa760fe340707d1dfd548","bdp_wmem","Wed Jul 27 2022 12:32:37 GMT-0500 (Central Daylight Time)","622178","Match,No Match","html-keyboard-response","42","181966","0.0-7.0-2.1","","null","","<div class='trialBorder'><div class='vertical-center'><img style='vertical-align:center; align:center' src='img/fixation2_sml.jpg'></div><div class='arrayDiv1'><div class='tc'><img class='introPic' src='trustrating_stim/white_mw042.bmp'><br><font color='green'><strong>Share</strong></font></div></div></div>","null","ARRAY","1","trustrating_stim/white_mw042.bmp","1","noMatchFace","i","1500","","","","",""
"","","","","629fa760fe340707d1dfd548","bdp_wmem","Wed Jul 27 2022 12:32:37 GMT-0500 (Central Daylight Time)","622178","Match,No Match","html-keyboard-response","43","185977","0.0-7.0-3.1","","null","","<div class='trialBorder'><div class='vertical-center'><img src='img/fixation2_sml.jpg'</img></div></div>","null","DELAY","","","","","","","","","","",""
"","","","","629fa760fe340707d1dfd548","bdp_wmem","Wed Jul 27 2022 12:32:37 GMT-0500 (Central Daylight Time)","622178","Match,No Match","html-keyboard-response","44","186896","0.0-7.0-4.1","","918","","<div class='trialBorder'><div class='targDiv'><div class='tc'><img class='introPic' src='trustrating_stim/white_mw003.bmp'><br><font color='green'><strong>Share</strong></font></div></div><div class='respDiv'><div class='respDivL'>Match<br>(e)</div><div class='respDivR'>No Match<br>(i)</div></div></div>","i","TARGET","1","trustrating_stim/white_mw042.bmp","1","noMatchFace","i","1500","trustrating_stim/white_mw003.bmp","green","Share","REAL","1"
"","","","","629fa760fe340707d1dfd548","bdp_wmem","Wed Jul 27 2022 12:32:37 GMT-0500 (Central Daylight Time)","622178","Match,No Match","html-keyboard-response","45","187399","0.0-7.0-5.1","","null","","<div class='trialBorder'><div class='vertical-center'><img src='img/correct.jpg'></div><div class='respDiv'><div class='respDivL'>Match<br>(e)</div><div class='respDivR'><font style='color:orange'>No Match<br>(i)</font></div></div></div>","null","FEEDBACK","","","","","","","","","","",""
"","","","","629fa760fe340707d1dfd548","bdp_wmem","Wed Jul 27 2022 12:32:37 GMT-0500 (Central Daylight Time)","622178","Match,No Match","html-keyboard-response","46","187913","0.0-7.0-1.2","","null","","<div class='trialBorder'><div class='vertical-center'><img src='img/fixation2_sml.jpg'</img></div></div>","null","FIX","","","","","","","","","","",""
"","","","","629fa760fe340707d1dfd548","bdp_wmem","Wed Jul 27 2022 12:32:37 GMT-0500 (Central Daylight Time)","622178","Match,No Match","html-keyboard-response","47","189428","0.0-7.0-2.2","","null","","<div class='trialBorder'><div class='vertical-center'><img style='vertical-align:center; align:center' src='img/fixation2_sml.jpg'></div><div class='arrayDiv1'><div class='tc'><img class='introPic' src='trustrating_stim/white_mw085.bmp'><br><font color='red'><strong>Keep</strong></font></div></div></div>","null","ARRAY","1","trustrating_stim/white_mw085.bmp","0","Match","e","1500","","","","",""
"","","","","629fa760fe340707d1dfd548","bdp_wmem","Wed Jul 27 2022 12:32:37 GMT-0500 (Central Daylight Time)","622178","Match,No Match","html-keyboard-response","48","193445","0.0-7.0-3.2","","null","","<div class='trialBorder'><div class='vertical-center'><img src='img/fixation2_sml.jpg'</img></div></div>","null","DELAY","","","","","","","","","","",""
"","","","","629fa760fe340707d1dfd548","bdp_wmem","Wed Jul 27 2022 12:32:37 GMT-0500 (Central Daylight Time)","622178","Match,No Match","html-keyboard-response","49","194490","0.0-7.0-4.2","","1044","","<div class='trialBorder'><div class='targDiv'><div class='tc'><img class='introPic' src='trustrating_stim/white_mw085.bmp'><br><font color='red'><strong>Keep</strong></font></div></div><div class='respDiv'><div class='respDivL'>Match<br>(e)</div><div class='respDivR'>No Match<br>(i)</div></div></div>","e","TARGET","1","trustrating_stim/white_mw085.bmp","0","Match","e","1500","trustrating_stim/white_mw085.bmp","red","Keep","REAL","1"
"","","","","629fa760fe340707d1dfd548","bdp_wmem","Wed Jul 27 2022 12:32:37 GMT-0500 (Central Daylight Time)","622178","Match,No Match","html-keyboard-response","50","194992","0.0-7.0-5.2","","null","","<div class='trialBorder'><div class='vertical-center'><img src='img/correct.jpg'></div><div class='respDiv'><div class='respDivL'><font style='color:orange'>Match<br>(e)</font></div><div class='respDivR'>No Match<br>(i)</div></div></div>","null","FEEDBACK","","","","","","","","","","",""
"","","","","629fa760fe340707d1dfd548","bdp_wmem","Wed Jul 27 2022 12:32:37 GMT-0500 (Central Daylight Time)","622178","Match,No Match","html-keyboard-response","51","195508","0.0-7.0-1.3","","null","","<div class='trialBorder'><div class='vertical-center'><img src='img/fixation2_sml.jpg'</img></div></div>","null","FIX","","","","","","","","","","",""
"","","","","629fa760fe340707d1dfd548","bdp_wmem","Wed Jul 27 2022 12:32:37 GMT-0500 (Central Daylight Time)","622178","Match,No Match","html-keyboard-response","52","200022","0.0-7.0-2.3","","null","","<div class='trialBorder'><div class='vertical-center'><img style='vertical-align:center; align:center' src='img/fixation2_sml.jpg'></div><div class='arrayDiv3'><div class='tl'><img class='introPic' src='trustrating_stim/white_mw040.bmp'><br><font color='green'><strong>Share</strong></font></div><div class='tc'><img class='introPic' src='trustrating_stim/white_mw070.bmp'><br><font color='green'><strong>Share</strong></font></div><div class='tr'><img class='introPic' src='trustrating_stim/white_mw003.bmp'><br><font color='red'><strong>Keep</strong></font></div></div></div>","null","ARRAY","3","trustrating_stim/white_mw040.bmp,trustrating_stim/white_mw070.bmp,trustrating_stim/white_mw003.bmp","1,1,0","Match","e","4500","","","","",""
"","","","","629fa760fe340707d1dfd548","bdp_wmem","Wed Jul 27 2022 12:32:37 GMT-0500 (Central Daylight Time)","622178","Match,No Match","html-keyboard-response","53","204039","0.0-7.0-3.3","","null","","<div class='trialBorder'><div class='vertical-center'><img src='img/fixation2_sml.jpg'</img></div></div>","null","DELAY","","","","","","","","","","",""
"","","","","629fa760fe340707d1dfd548","bdp_wmem","Wed Jul 27 2022 12:32:37 GMT-0500 (Central Daylight Time)","622178","Match,No Match","html-keyboard-response","54","205289","0.0-7.0-4.3","","1249","","<div class='trialBorder'><div class='targDiv'><div class='tc'><img class='introPic' src='trustrating_stim/white_mw003.bmp'><br><font color='red'><strong>Keep</strong></font></div></div><div class='respDiv'><div class='respDivL'>Match<br>(e)</div><div class='respDivR'>No Match<br>(i)</div></div></div>","e","TARGET","3","trustrating_stim/white_mw040.bmp,trustrating_stim/white_mw070.bmp,trustrating_stim/white_mw003.bmp","1,1,0","Match","e","4500","trustrating_stim/white_mw003.bmp","red","Keep","REAL","1"
"","","","","629fa760fe340707d1dfd548","bdp_wmem","Wed Jul 27 2022 12:32:37 GMT-0500 (Central Daylight Time)","622178","Match,No Match","html-keyboard-response","55","205804","0.0-7.0-5.3","","null","","<div class='trialBorder'><div class='vertical-center'><img src='img/correct.jpg'></div><div class='respDiv'><div class='respDivL'><font style='color:orange'>Match<br>(e)</font></div><div class='respDivR'>No Match<br>(i)</div></div></div>","null","FEEDBACK","","","","","","","","","","",""
"","","","","629fa760fe340707d1dfd548","bdp_wmem","Wed Jul 27 2022 12:32:37 GMT-0500 (Central Daylight Time)","622178","Match,No Match","html-keyboard-response","56","206319","0.0-7.0-1.4","","null","","<div class='trialBorder'><div class='vertical-center'><img src='img/fixation2_sml.jpg'</img></div></div>","null","FIX","","","","","","","","","","",""
"","","","","629fa760fe340707d1dfd548","bdp_wmem","Wed Jul 27 2022 12:32:37 GMT-0500 (Central Daylight Time)","622178","Match,No Match","html-keyboard-response","57","210826","0.0-7.0-2.4","","null","","<div class='trialBorder'><div class='vertical-center'><img style='vertical-align:center; align:center' src='img/fixation2_sml.jpg'></div><div class='arrayDiv3'><div class='tl'><img class='introPic' src='trustrating_stim/white_mw003.bmp'><br><font color='green'><strong>Share</strong></font></div><div class='tc'><img class='introPic' src='trustrating_stim/white_mw038.bmp'><br><font color='red'><strong>Keep</strong></font></div><div class='tr'><img class='introPic' src='trustrating_stim/white_mw010.bmp'><br><font color='red'><strong>Keep</strong></font></div></div></div>","null","ARRAY","3","trustrating_stim/white_mw003.bmp,trustrating_stim/white_mw038.bmp,trustrating_stim/white_mw010.bmp","1,0,0","noMatchFace","i","4500","","","","",""
"","","","","629fa760fe340707d1dfd548","bdp_wmem","Wed Jul 27 2022 12:32:37 GMT-0500 (Central Daylight Time)","622178","Match,No Match","html-keyboard-response","58","214841","0.0-7.0-3.4","","null","","<div class='trialBorder'><div class='vertical-center'><img src='img/fixation2_sml.jpg'</img></div></div>","null","DELAY","","","","","","","","","","",""
"","","","","629fa760fe340707d1dfd548","bdp_wmem","Wed Jul 27 2022 12:32:37 GMT-0500 (Central Daylight Time)","622178","Match,No Match","html-keyboard-response","59","217324","0.0-7.0-4.4","","2480","","<div class='trialBorder'><div class='targDiv'><div class='tc'><img class='introPic' src='trustrating_stim/white_mw078.bmp'><br><font color='red'><strong>Keep</strong></font></div></div><div class='respDiv'><div class='respDivL'>Match<br>(e)</div><div class='respDivR'>No Match<br>(i)</div></div></div>","e","TARGET","3","trustrating_stim/white_mw003.bmp,trustrating_stim/white_mw038.bmp,trustrating_stim/white_mw010.bmp","1,0,0","noMatchFace","i","4500","trustrating_stim/white_mw078.bmp","red","Keep","REAL","0"
"","","","","629fa760fe340707d1dfd548","bdp_wmem","Wed Jul 27 2022 12:32:37 GMT-0500 (Central Daylight Time)","622178","Match,No Match","html-keyboard-response","60","217826","0.0-7.0-5.4","","null","","<div class='trialBorder'><div class='vertical-center'><img src='img/error.jpg'></div><div class='respDiv'><div class='respDivL'><font style='color:orange'>Match<br>(e)</font></div><div class='respDivR'>No Match<br>(i)</div></div></div>","null","FEEDBACK","","","","","","","","","","",""
"","","","","629fa760fe340707d1dfd548","bdp_wmem","Wed Jul 27 2022 12:32:37 GMT-0500 (Central Daylight Time)","622178","Match,No Match","html-keyboard-response","61","218342","0.0-7.0-1.5","","null","","<div class='trialBorder'><div class='vertical-center'><img src='img/fixation2_sml.jpg'</img></div></div>","null","FIX","","","","","","","","","","",""
"","","","","629fa760fe340707d1dfd548","bdp_wmem","Wed Jul 27 2022 12:32:37 GMT-0500 (Central Daylight Time)","622178","Match,No Match","html-keyboard-response","62","219857","0.0-7.0-2.5","","null","","<div class='trialBorder'><div class='vertical-center'><img style='vertical-align:center; align:center' src='img/fixation2_sml.jpg'></div><div class='arrayDiv1'><div class='tc'><img class='introPic' src='trustrating_stim/white_mw003.bmp'><br><font color='green'><strong>Share</strong></font></div></div></div>","null","ARRAY","1","trustrating_stim/white_mw003.bmp","1","Match","e","1500","","","","",""
"","","","","629fa760fe340707d1dfd548","bdp_wmem","Wed Jul 27 2022 12:32:37 GMT-0500 (Central Daylight Time)","622178","Match,No Match","html-keyboard-response","63","223873","0.0-7.0-3.5","","null","","<div class='trialBorder'><div class='vertical-center'><img src='img/fixation2_sml.jpg'</img></div></div>","null","DELAY","","","","","","","","","","",""
"","","","","629fa760fe340707d1dfd548","bdp_wmem","Wed Jul 27 2022 12:32:37 GMT-0500 (Central Daylight Time)","622178","Match,No Match","html-keyboard-response","64","224775","0.0-7.0-4.5","","901","","<div class='trialBorder'><div class='targDiv'><div class='tc'><img class='introPic' src='trustrating_stim/white_mw003.bmp'><br><font color='green'><strong>Share</strong></font></div></div><div class='respDiv'><div class='respDivL'>Match<br>(e)</div><div class='respDivR'>No Match<br>(i)</div></div></div>","e","TARGET","1","trustrating_stim/white_mw003.bmp","1","Match","e","1500","trustrating_stim/white_mw003.bmp","green","Share","REAL","1"
"","","","","629fa760fe340707d1dfd548","bdp_wmem","Wed Jul 27 2022 12:32:37 GMT-0500 (Central Daylight Time)","622178","Match,No Match","html-keyboard-response","65","225279","0.0-7.0-5.5","","null","","<div class='trialBorder'><div class='vertical-center'><img src='img/correct.jpg'></div><div class='respDiv'><div class='respDivL'><font style='color:orange'>Match<br>(e)</font></div><div class='respDivR'>No Match<br>(i)</div></div></div>","null","FEEDBACK","","","","","","","","","","",""
"","","","","629fa760fe340707d1dfd548","bdp_wmem","Wed Jul 27 2022 12:32:37 GMT-0500 (Central Daylight Time)","622178","Match,No Match","html-keyboard-response","66","225795","0.0-7.0-1.6","","null","","<div class='trialBorder'><div class='vertical-center'><img src='img/fixation2_sml.jpg'</img></div></div>","null","FIX","","","","","","","","","","",""
"","","","","629fa760fe340707d1dfd548","bdp_wmem","Wed Jul 27 2022 12:32:37 GMT-0500 (Central Daylight Time)","622178","Match,No Match","html-keyboard-response","67","227311","0.0-7.0-2.6","","null","","<div class='trialBorder'><div class='vertical-center'><img style='vertical-align:center; align:center' src='img/fixation2_sml.jpg'></div><div class='arrayDiv1'><div class='tc'><img class='introPic' src='trustrating_stim/white_mw070.bmp'><br><font color='green'><strong>Share</strong></font></div></div></div>","null","ARRAY","1","trustrating_stim/white_mw070.bmp","1","Match","e","1500","","","","",""
"","","","","629fa760fe340707d1dfd548","bdp_wmem","Wed Jul 27 2022 12:32:37 GMT-0500 (Central Daylight Time)","622178","Match,No Match","html-keyboard-response","68","231326","0.0-7.0-3.6","","null","","<div class='trialBorder'><div class='vertical-center'><img src='img/fixation2_sml.jpg'</img></div></div>","null","DELAY","","","","","","","","","","",""
"","","","","629fa760fe340707d1dfd548","bdp_wmem","Wed Jul 27 2022 12:32:37 GMT-0500 (Central Daylight Time)","622178","Match,No Match","html-keyboard-response","69","232259","0.0-7.0-4.6","","931","","<div class='trialBorder'><div class='targDiv'><div class='tc'><img class='introPic' src='trustrating_stim/white_mw070.bmp'><br><font color='green'><strong>Share</strong></font></div></div><div class='respDiv'><div class='respDivL'>Match<br>(e)</div><div class='respDivR'>No Match<br>(i)</div></div></div>","e","TARGET","1","trustrating_stim/white_mw070.bmp","1","Match","e","1500","trustrating_stim/white_mw070.bmp","green","Share","REAL","1"
"","","","","629fa760fe340707d1dfd548","bdp_wmem","Wed Jul 27 2022 12:32:37 GMT-0500 (Central Daylight Time)","622178","Match,No Match","html-keyboard-response","70","232764","0.0-7.0-5.6","","null","","<div class='trialBorder'><div class='vertical-center'><img src='img/correct.jpg'></div><div class='respDiv'><div class='respDivL'><font style='color:orange'>Match<br>(e)</font></div><div class='respDivR'>No Match<br>(i)</div></div></div>","null","FEEDBACK","","","","","","","","","","",""
"","","","","629fa760fe340707d1dfd548","bdp_wmem","Wed Jul 27 2022 12:32:37 GMT-0500 (Central Daylight Time)","622178","Match,No Match","html-keyboard-response","71","233280","0.0-7.0-1.7","","null","","<div class='trialBorder'><div class='vertical-center'><img src='img/fixation2_sml.jpg'</img></div></div>","null","FIX","","","","","","","","","","",""
"","","","","629fa760fe340707d1dfd548","bdp_wmem","Wed Jul 27 2022 12:32:37 GMT-0500 (Central Daylight Time)","622178","Match,No Match","html-keyboard-response","72","237795","0.0-7.0-2.7","","null","","<div class='trialBorder'><div class='vertical-center'><img style='vertical-align:center; align:center' src='img/fixation2_sml.jpg'></div><div class='arrayDiv3'><div class='tl'><img class='introPic' src='trustrating_stim/white_mw085.bmp'><br><font color='red'><strong>Keep</strong></font></div><div class='tc'><img class='introPic' src='trustrating_stim/white_mw003.bmp'><br><font color='green'><strong>Share</strong></font></div><div class='tr'><img class='introPic' src='trustrating_stim/white_mw092.bmp'><br><font color='red'><strong>Keep</strong></font></div></div></div>","null","ARRAY","3","trustrating_stim/white_mw085.bmp,trustrating_stim/white_mw003.bmp,trustrating_stim/white_mw092.bmp","0,1,0","noMatchFace","i","4500","","","","",""
"","","","","629fa760fe340707d1dfd548","bdp_wmem","Wed Jul 27 2022 12:32:37 GMT-0500 (Central Daylight Time)","622178","Match,No Match","html-keyboard-response","73","241811","0.0-7.0-3.7","","null","","<div class='trialBorder'><div class='vertical-center'><img src='img/fixation2_sml.jpg'</img></div></div>","null","DELAY","","","","","","","","","","",""
"","","","","629fa760fe340707d1dfd548","bdp_wmem","Wed Jul 27 2022 12:32:37 GMT-0500 (Central Daylight Time)","622178","Match,No Match","html-keyboard-response","74","243845","0.0-7.0-4.7","","2033","","<div class='trialBorder'><div class='targDiv'><div class='tc'><img class='introPic' src='trustrating_stim/white_mw078.bmp'><br><font color='red'><strong>Keep</strong></font></div></div><div class='respDiv'><div class='respDivL'>Match<br>(e)</div><div class='respDivR'>No Match<br>(i)</div></div></div>","i","TARGET","3","trustrating_stim/white_mw085.bmp,trustrating_stim/white_mw003.bmp,trustrating_stim/white_mw092.bmp","0,1,0","noMatchFace","i","4500","trustrating_stim/white_mw078.bmp","red","Keep","REAL","1"
"","","","","629fa760fe340707d1dfd548","bdp_wmem","Wed Jul 27 2022 12:32:37 GMT-0500 (Central Daylight Time)","622178","Match,No Match","html-keyboard-response","75","244358","0.0-7.0-5.7","","null","","<div class='trialBorder'><div class='vertical-center'><img src='img/correct.jpg'></div><div class='respDiv'><div class='respDivL'>Match<br>(e)</div><div class='respDivR'><font style='color:orange'>No Match<br>(i)</font></div></div></div>","null","FEEDBACK","","","","","","","","","","",""
"","","","","629fa760fe340707d1dfd548","bdp_wmem","Wed Jul 27 2022 12:32:37 GMT-0500 (Central Daylight Time)","622178","Match,No Match","html-keyboard-response","76","244874","0.0-7.0-1.8","","null","","<div class='trialBorder'><div class='vertical-center'><img src='img/fixation2_sml.jpg'</img></div></div>","null","FIX","","","","","","","","","","",""
"","","","","629fa760fe340707d1dfd548","bdp_wmem","Wed Jul 27 2022 12:32:37 GMT-0500 (Central Daylight Time)","622178","Match,No Match","html-keyboard-response","77","246389","0.0-7.0-2.8","","null","","<div class='trialBorder'><div class='vertical-center'><img style='vertical-align:center; align:center' src='img/fixation2_sml.jpg'></div><div class='arrayDiv1'><div class='tc'><img class='introPic' src='trustrating_stim/white_mw010.bmp'><br><font color='red'><strong>Keep</strong></font></div></div></div>","null","ARRAY","1","trustrating_stim/white_mw010.bmp","0","noMatchOutcome","i","1500","","","","",""
"","","","","629fa760fe340707d1dfd548","bdp_wmem","Wed Jul 27 2022 12:32:37 GMT-0500 (Central Daylight Time)","622178","Match,No Match","html-keyboard-response","78","250405","0.0-7.0-3.8","","null","","<div class='trialBorder'><div class='vertical-center'><img src='img/fixation2_sml.jpg'</img></div></div>","null","DELAY","","","","","","","","","","",""
"","","","","629fa760fe340707d1dfd548","bdp_wmem","Wed Jul 27 2022 12:32:37 GMT-0500 (Central Daylight Time)","622178","Match,No Match","html-keyboard-response","79","251186","0.0-7.0-4.8","","780","","<div class='trialBorder'><div class='targDiv'><div class='tc'><img class='introPic' src='trustrating_stim/white_mw010.bmp'><br><font color='green'><strong>Share</strong></font></div></div><div class='respDiv'><div class='respDivL'>Match<br>(e)</div><div class='respDivR'>No Match<br>(i)</div></div></div>","i","TARGET","1","trustrating_stim/white_mw010.bmp","0","noMatchOutcome","i","1500","trustrating_stim/white_mw010.bmp","green","Share","REAL","1"
"","","","","629fa760fe340707d1dfd548","bdp_wmem","Wed Jul 27 2022 12:32:37 GMT-0500 (Central Daylight Time)","622178","Match,No Match","html-keyboard-response","80","251701","0.0-7.0-5.8","","null","","<div class='trialBorder'><div class='vertical-center'><img src='img/correct.jpg'></div><div class='respDiv'><div class='respDivL'>Match<br>(e)</div><div class='respDivR'><font style='color:orange'>No Match<br>(i)</font></div></div></div>","null","FEEDBACK","","","","","","","","","","",""
"","","","","629fa760fe340707d1dfd548","bdp_wmem","Wed Jul 27 2022 12:32:37 GMT-0500 (Central Daylight Time)","622178","Match,No Match","html-keyboard-response","81","252218","0.0-7.0-1.9","","null","","<div class='trialBorder'><div class='vertical-center'><img src='img/fixation2_sml.jpg'</img></div></div>","null","FIX","","","","","","","","","","",""
"","","","","629fa760fe340707d1dfd548","bdp_wmem","Wed Jul 27 2022 12:32:37 GMT-0500 (Central Daylight Time)","622178","Match,No Match","html-keyboard-response","82","253733","0.0-7.0-2.9","","null","","<div class='trialBorder'><div class='vertical-center'><img style='vertical-align:center; align:center' src='img/fixation2_sml.jpg'></div><div class='arrayDiv1'><div class='tc'><img class='introPic' src='trustrating_stim/white_mw010.bmp'><br><font color='green'><strong>Share</strong></font></div></div></div>","null","ARRAY","1","trustrating_stim/white_mw010.bmp","1","Match","e","1500","","","","",""
"","","","","629fa760fe340707d1dfd548","bdp_wmem","Wed Jul 27 2022 12:32:37 GMT-0500 (Central Daylight Time)","622178","Match,No Match","html-keyboard-response","83","257748","0.0-7.0-3.9","","null","","<div class='trialBorder'><div class='vertical-center'><img src='img/fixation2_sml.jpg'</img></div></div>","null","DELAY","","","","","","","","","","",""
"","","","","629fa760fe340707d1dfd548","bdp_wmem","Wed Jul 27 2022 12:32:37 GMT-0500 (Central Daylight Time)","622178","Match,No Match","html-keyboard-response","84","258689","0.0-7.0-4.9","","939","","<div class='trialBorder'><div class='targDiv'><div class='tc'><img class='introPic' src='trustrating_stim/white_mw010.bmp'><br><font color='green'><strong>Share</strong></font></div></div><div class='respDiv'><div class='respDivL'>Match<br>(e)</div><div class='respDivR'>No Match<br>(i)</div></div></div>","e","TARGET","1","trustrating_stim/white_mw010.bmp","1","Match","e","1500","trustrating_stim/white_mw010.bmp","green","Share","REAL","1"
"","","","","629fa760fe340707d1dfd548","bdp_wmem","Wed Jul 27 2022 12:32:37 GMT-0500 (Central Daylight Time)","622178","Match,No Match","html-keyboard-response","85","259201","0.0-7.0-5.9","","null","","<div class='trialBorder'><div class='vertical-center'><img src='img/correct.jpg'></div><div class='respDiv'><div class='respDivL'><font style='color:orange'>Match<br>(e)</font></div><div class='respDivR'>No Match<br>(i)</div></div></div>","null","FEEDBACK","","","","","","","","","","",""
"","","","","629fa760fe340707d1dfd548","bdp_wmem","Wed Jul 27 2022 12:32:37 GMT-0500 (Central Daylight Time)","622178","Match,No Match","html-keyboard-response","86","259717","0.0-7.0-1.10","","null","","<div class='trialBorder'><div class='vertical-center'><img src='img/fixation2_sml.jpg'</img></div></div>","null","FIX","","","","","","","","","","",""
"","","","","629fa760fe340707d1dfd548","bdp_wmem","Wed Jul 27 2022 12:32:37 GMT-0500 (Central Daylight Time)","622178","Match,No Match","html-keyboard-response","87","261233","0.0-7.0-2.10","","null","","<div class='trialBorder'><div class='vertical-center'><img style='vertical-align:center; align:center' src='img/fixation2_sml.jpg'></div><div class='arrayDiv1'><div class='tc'><img class='introPic' src='trustrating_stim/white_mw091.bmp'><br><font color='red'><strong>Keep</strong></font></div></div></div>","null","ARRAY","1","trustrating_stim/white_mw091.bmp","0","noMatchFace","i","1500","","","","",""
"","","","","629fa760fe340707d1dfd548","bdp_wmem","Wed Jul 27 2022 12:32:37 GMT-0500 (Central Daylight Time)","622178","Match,No Match","html-keyboard-response","88","265248","0.0-7.0-3.10","","null","","<div class='trialBorder'><div class='vertical-center'><img src='img/fixation2_sml.jpg'</img></div></div>","null","DELAY","","","","","","","","","","",""
"","","","","629fa760fe340707d1dfd548","bdp_wmem","Wed Jul 27 2022 12:32:37 GMT-0500 (Central Daylight Time)","622178","Match,No Match","html-keyboard-response","89","266004","0.0-7.0-4.10","","754","","<div class='trialBorder'><div class='targDiv'><div class='tc'><img class='introPic' src='trustrating_stim/white_mw013.bmp'><br><font color='red'><strong>Keep</strong></font></div></div><div class='respDiv'><div class='respDivL'>Match<br>(e)</div><div class='respDivR'>No Match<br>(i)</div></div></div>","i","TARGET","1","trustrating_stim/white_mw091.bmp","0","noMatchFace","i","1500","trustrating_stim/white_mw013.bmp","red","Keep","REAL","1"
"","","","","629fa760fe340707d1dfd548","bdp_wmem","Wed Jul 27 2022 12:32:37 GMT-0500 (Central Daylight Time)","622178","Match,No Match","html-keyboard-response","90","266515","0.0-7.0-5.10","","null","","<div class='trialBorder'><div class='vertical-center'><img src='img/correct.jpg'></div><div class='respDiv'><div class='respDivL'>Match<br>(e)</div><div class='respDivR'><font style='color:orange'>No Match<br>(i)</font></div></div></div>","null","FEEDBACK","","","","","","","","","","",""
"","","","","629fa760fe340707d1dfd548","bdp_wmem","Wed Jul 27 2022 12:32:37 GMT-0500 (Central Daylight Time)","622178","Match,No Match","html-keyboard-response","91","267030","0.0-7.0-1.11","","null","","<div class='trialBorder'><div class='vertical-center'><img src='img/fixation2_sml.jpg'</img></div></div>","null","FIX","","","","","","","","","","",""
"","","","","629fa760fe340707d1dfd548","bdp_wmem","Wed Jul 27 2022 12:32:37 GMT-0500 (Central Daylight Time)","622178","Match,No Match","html-keyboard-response","92","270045","0.0-7.0-2.11","","null","","<div class='trialBorder'><div class='vertical-center'><img style='vertical-align:center; align:center' src='img/fixation2_sml.jpg'></div><div class='arrayDiv2'><div class='tl'><img class='introPic' src='trustrating_stim/white_mw040.bmp'><br><font color='green'><strong>Share</strong></font></div><div class='tr'><img class='introPic' src='trustrating_stim/white_mw010.bmp'><br><font color='red'><strong>Keep</strong></font></div></div></div>","null","ARRAY","2","trustrating_stim/white_mw040.bmp,trustrating_stim/white_mw010.bmp","1,0","noMatchOutcome","i","3000","","","","",""
"","","","","629fa760fe340707d1dfd548","bdp_wmem","Wed Jul 27 2022 12:32:37 GMT-0500 (Central Daylight Time)","622178","Match,No Match","html-keyboard-response","93","274048","0.0-7.0-3.11","","null","","<div class='trialBorder'><div class='vertical-center'><img src='img/fixation2_sml.jpg'</img></div></div>","null","DELAY","","","","","","","","","","",""
"","","","","629fa760fe340707d1dfd548","bdp_wmem","Wed Jul 27 2022 12:32:37 GMT-0500 (Central Daylight Time)","622178","Match,No Match","html-keyboard-response","94","275659","0.0-7.0-4.11","","1610","","<div class='trialBorder'><div class='targDiv'><div class='tc'><img class='introPic' src='trustrating_stim/white_mw010.bmp'><br><font color='green'><strong>Share</strong></font></div></div><div class='respDiv'><div class='respDivL'>Match<br>(e)</div><div class='respDivR'>No Match<br>(i)</div></div></div>","i","TARGET","2","trustrating_stim/white_mw040.bmp,trustrating_stim/white_mw010.bmp","1,0","noMatchOutcome","i","3000","trustrating_stim/white_mw010.bmp","green","Share","REAL","1"
"","","","","629fa760fe340707d1dfd548","bdp_wmem","Wed Jul 27 2022 12:32:37 GMT-0500 (Central Daylight Time)","622178","Match,No Match","html-keyboard-response","95","276172","0.0-7.0-5.11","","null","","<div class='trialBorder'><div class='vertical-center'><img src='img/correct.jpg'></div><div class='respDiv'><div class='respDivL'>Match<br>(e)</div><div class='respDivR'><font style='color:orange'>No Match<br>(i)</font></div></div></div>","null","FEEDBACK","","","","","","","","","","",""
"","","","","629fa760fe340707d1dfd548","bdp_wmem","Wed Jul 27 2022 12:32:37 GMT-0500 (Central Daylight Time)","622178","Match,No Match","html-keyboard-response","96","276688","0.0-7.0-1.12","","null","","<div class='trialBorder'><div class='vertical-center'><img src='img/fixation2_sml.jpg'</img></div></div>","null","FIX","","","","","","","","","","",""
"","","","","629fa760fe340707d1dfd548","bdp_wmem","Wed Jul 27 2022 12:32:37 GMT-0500 (Central Daylight Time)","622178","Match,No Match","html-keyboard-response","97","278196","0.0-7.0-2.12","","null","","<div class='trialBorder'><div class='vertical-center'><img style='vertical-align:center; align:center' src='img/fixation2_sml.jpg'></div><div class='arrayDiv1'><div class='tc'><img class='introPic' src='trustrating_stim/white_mw091.bmp'><br><font color='green'><strong>Share</strong></font></div></div></div>","null","ARRAY","1","trustrating_stim/white_mw091.bmp","1","noMatchFace","i","1500","","","","",""
"","","","","629fa760fe340707d1dfd548","bdp_wmem","Wed Jul 27 2022 12:32:37 GMT-0500 (Central Daylight Time)","622178","Match,No Match","html-keyboard-response","98","282206","0.0-7.0-3.12","","null","","<div class='trialBorder'><div class='vertical-center'><img src='img/fixation2_sml.jpg'</img></div></div>","null","DELAY","","","","","","","","","","",""
"","","","","629fa760fe340707d1dfd548","bdp_wmem","Wed Jul 27 2022 12:32:37 GMT-0500 (Central Daylight Time)","622178","Match,No Match","html-keyboard-response","99","283189","0.0-7.0-4.12","","981","","<div class='trialBorder'><div class='targDiv'><div class='tc'><img class='introPic' src='trustrating_stim/white_mw003.bmp'><br><font color='green'><strong>Share</strong></font></div></div><div class='respDiv'><div class='respDivL'>Match<br>(e)</div><div class='respDivR'>No Match<br>(i)</div></div></div>","i","TARGET","1","trustrating_stim/white_mw091.bmp","1","noMatchFace","i","1500","trustrating_stim/white_mw003.bmp","green","Share","REAL","1"
"","","","","629fa760fe340707d1dfd548","bdp_wmem","Wed Jul 27 2022 12:32:37 GMT-0500 (Central Daylight Time)","622178","Match,No Match","html-keyboard-response","100","283702","0.0-7.0-5.12","","null","","<div class='trialBorder'><div class='vertical-center'><img src='img/correct.jpg'></div><div class='respDiv'><div class='respDivL'>Match<br>(e)</div><div class='respDivR'><font style='color:orange'>No Match<br>(i)</font></div></div></div>","null","FEEDBACK","","","","","","","","","","",""
"","","","","629fa760fe340707d1dfd548","bdp_wmem","Wed Jul 27 2022 12:32:37 GMT-0500 (Central Daylight Time)","622178","Match,No Match","html-keyboard-response","101","284218","0.0-7.0-1.13","","null","","<div class='trialBorder'><div class='vertical-center'><img src='img/fixation2_sml.jpg'</img></div></div>","null","FIX","","","","","","","","","","",""
"","","","","629fa760fe340707d1dfd548","bdp_wmem","Wed Jul 27 2022 12:32:37 GMT-0500 (Central Daylight Time)","622178","Match,No Match","html-keyboard-response","102","287233","0.0-7.0-2.13","","null","","<div class='trialBorder'><div class='vertical-center'><img style='vertical-align:center; align:center' src='img/fixation2_sml.jpg'></div><div class='arrayDiv2'><div class='tl'><img class='introPic' src='trustrating_stim/white_mw003.bmp'><br><font color='green'><strong>Share</strong></font></div><div class='tr'><img class='introPic' src='trustrating_stim/white_mw091.bmp'><br><font color='red'><strong>Keep</strong></font></div></div></div>","null","ARRAY","2","trustrating_stim/white_mw003.bmp,trustrating_stim/white_mw091.bmp","1,0","Match","e","3000","","","","",""
"","","","","629fa760fe340707d1dfd548","bdp_wmem","Wed Jul 27 2022 12:32:37 GMT-0500 (Central Daylight Time)","622178","Match,No Match","html-keyboard-response","103","291241","0.0-7.0-3.13","","null","","<div class='trialBorder'><div class='vertical-center'><img src='img/fixation2_sml.jpg'</img></div></div>","null","DELAY","","","","","","","","","","",""
"","","","","629fa760fe340707d1dfd548","bdp_wmem","Wed Jul 27 2022 12:32:37 GMT-0500 (Central Daylight Time)","622178","Match,No Match","html-keyboard-response","104","292672","0.0-7.0-4.13","","1430","","<div class='trialBorder'><div class='targDiv'><div class='tc'><img class='introPic' src='trustrating_stim/white_mw003.bmp'><br><font color='green'><strong>Share</strong></font></div></div><div class='respDiv'><div class='respDivL'>Match<br>(e)</div><div class='respDivR'>No Match<br>(i)</div></div></div>","e","TARGET","2","trustrating_stim/white_mw003.bmp,trustrating_stim/white_mw091.bmp","1,0","Match","e","3000","trustrating_stim/white_mw003.bmp","green","Share","REAL","1"
"","","","","629fa760fe340707d1dfd548","bdp_wmem","Wed Jul 27 2022 12:32:37 GMT-0500 (Central Daylight Time)","622178","Match,No Match","html-keyboard-response","105","293178","0.0-7.0-5.13","","null","","<div class='trialBorder'><div class='vertical-center'><img src='img/correct.jpg'></div><div class='respDiv'><div class='respDivL'><font style='color:orange'>Match<br>(e)</font></div><div class='respDivR'>No Match<br>(i)</div></div></div>","null","FEEDBACK","","","","","","","","","","",""
"","","","","629fa760fe340707d1dfd548","bdp_wmem","Wed Jul 27 2022 12:32:37 GMT-0500 (Central Daylight Time)","622178","Match,No Match","html-keyboard-response","106","293694","0.0-7.0-1.14","","null","","<div class='trialBorder'><div class='vertical-center'><img src='img/fixation2_sml.jpg'</img></div></div>","null","FIX","","","","","","","","","","",""
"","","","","629fa760fe340707d1dfd548","bdp_wmem","Wed Jul 27 2022 12:32:37 GMT-0500 (Central Daylight Time)","622178","Match,No Match","html-keyboard-response","107","295209","0.0-7.0-2.14","","null","","<div class='trialBorder'><div class='vertical-center'><img style='vertical-align:center; align:center' src='img/fixation2_sml.jpg'></div><div class='arrayDiv1'><div class='tc'><img class='introPic' src='trustrating_stim/white_mw042.bmp'><br><font color='green'><strong>Share</strong></font></div></div></div>","null","ARRAY","1","trustrating_stim/white_mw042.bmp","1","Match","e","1500","","","","",""
"","","","","629fa760fe340707d1dfd548","bdp_wmem","Wed Jul 27 2022 12:32:37 GMT-0500 (Central Daylight Time)","622178","Match,No Match","html-keyboard-response","108","299224","0.0-7.0-3.14","","null","","<div class='trialBorder'><div class='vertical-center'><img src='img/fixation2_sml.jpg'</img></div></div>","null","DELAY","","","","","","","","","","",""
"","","","","629fa760fe340707d1dfd548","bdp_wmem","Wed Jul 27 2022 12:32:37 GMT-0500 (Central Daylight Time)","622178","Match,No Match","html-keyboard-response","109","299945","0.0-7.0-4.14","","718","","<div class='trialBorder'><div class='targDiv'><div class='tc'><img class='introPic' src='trustrating_stim/white_mw042.bmp'><br><font color='green'><strong>Share</strong></font></div></div><div class='respDiv'><div class='respDivL'>Match<br>(e)</div><div class='respDivR'>No Match<br>(i)</div></div></div>","e","TARGET","1","trustrating_stim/white_mw042.bmp","1","Match","e","1500","trustrating_stim/white_mw042.bmp","green","Share","REAL","1"
"","","","","629fa760fe340707d1dfd548","bdp_wmem","Wed Jul 27 2022 12:32:37 GMT-0500 (Central Daylight Time)","622178","Match,No Match","html-keyboard-response","110","300456","0.0-7.0-5.14","","null","","<div class='trialBorder'><div class='vertical-center'><img src='img/correct.jpg'></div><div class='respDiv'><div class='respDivL'><font style='color:orange'>Match<br>(e)</font></div><div class='respDivR'>No Match<br>(i)</div></div></div>","null","FEEDBACK","","","","","","","","","","",""
"","","","","629fa760fe340707d1dfd548","bdp_wmem","Wed Jul 27 2022 12:32:37 GMT-0500 (Central Daylight Time)","622178","Match,No Match","html-keyboard-response","111","300965","0.0-7.0-1.15","","null","","<div class='trialBorder'><div class='vertical-center'><img src='img/fixation2_sml.jpg'</img></div></div>","null","FIX","","","","","","","","","","",""
"","","","","629fa760fe340707d1dfd548","bdp_wmem","Wed Jul 27 2022 12:32:37 GMT-0500 (Central Daylight Time)","622178","Match,No Match","html-keyboard-response","112","302481","0.0-7.0-2.15","","null","","<div class='trialBorder'><div class='vertical-center'><img style='vertical-align:center; align:center' src='img/fixation2_sml.jpg'></div><div class='arrayDiv1'><div class='tc'><img class='introPic' src='trustrating_stim/white_mw012.bmp'><br><font color='red'><strong>Keep</strong></font></div></div></div>","null","ARRAY","1","trustrating_stim/white_mw012.bmp","0","noMatchFace","i","1500","","","","",""
"","","","","629fa760fe340707d1dfd548","bdp_wmem","Wed Jul 27 2022 12:32:37 GMT-0500 (Central Daylight Time)","622178","Match,No Match","html-keyboard-response","113","306488","0.0-7.0-3.15","","null","","<div class='trialBorder'><div class='vertical-center'><img src='img/fixation2_sml.jpg'</img></div></div>","null","DELAY","","","","","","","","","","",""
"","","","","629fa760fe340707d1dfd548","bdp_wmem","Wed Jul 27 2022 12:32:37 GMT-0500 (Central Daylight Time)","622178","Match,No Match","html-keyboard-response","114","309013","0.0-7.0-4.15","","2523","","<div class='trialBorder'><div class='targDiv'><div class='tc'><img class='introPic' src='trustrating_stim/white_mw042.bmp'><br><font color='red'><strong>Keep</strong></font></div></div><div class='respDiv'><div class='respDivL'>Match<br>(e)</div><div class='respDivR'>No Match<br>(i)</div></div></div>","i","TARGET","1","trustrating_stim/white_mw012.bmp","0","noMatchFace","i","1500","trustrating_stim/white_mw042.bmp","red","Keep","REAL","1"
"","","","","629fa760fe340707d1dfd548","bdp_wmem","Wed Jul 27 2022 12:32:37 GMT-0500 (Central Daylight Time)","622178","Match,No Match","html-keyboard-response","115","309515","0.0-7.0-5.15","","null","","<div class='trialBorder'><div class='vertical-center'><img src='img/correct.jpg'></div><div class='respDiv'><div class='respDivL'>Match<br>(e)</div><div class='respDivR'><font style='color:orange'>No Match<br>(i)</font></div></div></div>","null","FEEDBACK","","","","","","","","","","",""
"","","","","629fa760fe340707d1dfd548","bdp_wmem","Wed Jul 27 2022 12:32:37 GMT-0500 (Central Daylight Time)","622178","Match,No Match","html-keyboard-response","116","310030","0.0-7.0-1.16","","null","","<div class='trialBorder'><div class='vertical-center'><img src='img/fixation2_sml.jpg'</img></div></div>","null","FIX","","","","","","","","","","",""
"","","","","629fa760fe340707d1dfd548","bdp_wmem","Wed Jul 27 2022 12:32:37 GMT-0500 (Central Daylight Time)","622178","Match,No Match","html-keyboard-response","117","314543","0.0-7.0-2.16","","null","","<div class='trialBorder'><div class='vertical-center'><img style='vertical-align:center; align:center' src='img/fixation2_sml.jpg'></div><div class='arrayDiv3'><div class='tl'><img class='introPic' src='trustrating_stim/white_mw038.bmp'><br><font color='red'><strong>Keep</strong></font></div><div class='tc'><img class='introPic' src='trustrating_stim/white_mw013.bmp'><br><font color='green'><strong>Share</strong></font></div><div class='tr'><img class='introPic' src='trustrating_stim/white_mw040.bmp'><br><font color='red'><strong>Keep</strong></font></div></div></div>","null","ARRAY","3","trustrating_stim/white_mw038.bmp,trustrating_stim/white_mw013.bmp,trustrating_stim/white_mw040.bmp","0,1,0","noMatchOutcome","i","4500","","","","",""
"","","","","629fa760fe340707d1dfd548","bdp_wmem","Wed Jul 27 2022 12:32:37 GMT-0500 (Central Daylight Time)","622178","Match,No Match","html-keyboard-response","118","318554","0.0-7.0-3.16","","null","","<div class='trialBorder'><div class='vertical-center'><img src='img/fixation2_sml.jpg'</img></div></div>","null","DELAY","","","","","","","","","","",""
"","","","","629fa760fe340707d1dfd548","bdp_wmem","Wed Jul 27 2022 12:32:37 GMT-0500 (Central Daylight Time)","622178","Match,No Match","html-keyboard-response","119","321291","0.0-7.0-4.16","","2735","","<div class='trialBorder'><div class='targDiv'><div class='tc'><img class='introPic' src='trustrating_stim/white_mw013.bmp'><br><font color='red'><strong>Keep</strong></font></div></div><div class='respDiv'><div class='respDivL'>Match<br>(e)</div><div class='respDivR'>No Match<br>(i)</div></div></div>","i","TARGET","3","trustrating_stim/white_mw038.bmp,trustrating_stim/white_mw013.bmp,trustrating_stim/white_mw040.bmp","0,1,0","noMatchOutcome","i","4500","trustrating_stim/white_mw013.bmp","red","Keep","REAL","1"
"","","","","629fa760fe340707d1dfd548","bdp_wmem","Wed Jul 27 2022 12:32:37 GMT-0500 (Central Daylight Time)","622178","Match,No Match","html-keyboard-response","120","321797","0.0-7.0-5.16","","null","","<div class='trialBorder'><div class='vertical-center'><img src='img/correct.jpg'></div><div class='respDiv'><div class='respDivL'>Match<br>(e)</div><div class='respDivR'><font style='color:orange'>No Match<br>(i)</font></div></div></div>","null","FEEDBACK","","","","","","","","","","",""
"","","","","629fa760fe340707d1dfd548","bdp_wmem","Wed Jul 27 2022 12:32:37 GMT-0500 (Central Daylight Time)","622178","Match,No Match","html-keyboard-response","121","322313","0.0-7.0-1.17","","null","","<div class='trialBorder'><div class='vertical-center'><img src='img/fixation2_sml.jpg'</img></div></div>","null","FIX","","","","","","","","","","",""
"","","","","629fa760fe340707d1dfd548","bdp_wmem","Wed Jul 27 2022 12:32:37 GMT-0500 (Central Daylight Time)","622178","Match,No Match","html-keyboard-response","122","323829","0.0-7.0-2.17","","null","","<div class='trialBorder'><div class='vertical-center'><img style='vertical-align:center; align:center' src='img/fixation2_sml.jpg'></div><div class='arrayDiv1'><div class='tc'><img class='introPic' src='trustrating_stim/white_mw010.bmp'><br><font color='red'><strong>Keep</strong></font></div></div></div>","null","ARRAY","1","trustrating_stim/white_mw010.bmp","0","noMatchOutcome","i","1500","","","","",""
"","","","","629fa760fe340707d1dfd548","bdp_wmem","Wed Jul 27 2022 12:32:37 GMT-0500 (Central Daylight Time)","622178","Match,No Match","html-keyboard-response","123","327834","0.0-7.0-3.17","","null","","<div class='trialBorder'><div class='vertical-center'><img src='img/fixation2_sml.jpg'</img></div></div>","null","DELAY","","","","","","","","","","",""
"","","","","629fa760fe340707d1dfd548","bdp_wmem","Wed Jul 27 2022 12:32:37 GMT-0500 (Central Daylight Time)","622178","Match,No Match","html-keyboard-response","124","328555","0.0-7.0-4.17","","719","","<div class='trialBorder'><div class='targDiv'><div class='tc'><img class='introPic' src='trustrating_stim/white_mw010.bmp'><br><font color='green'><strong>Share</strong></font></div></div><div class='respDiv'><div class='respDivL'>Match<br>(e)</div><div class='respDivR'>No Match<br>(i)</div></div></div>","i","TARGET","1","trustrating_stim/white_mw010.bmp","0","noMatchOutcome","i","1500","trustrating_stim/white_mw010.bmp","green","Share","REAL","1"
"","","","","629fa760fe340707d1dfd548","bdp_wmem","Wed Jul 27 2022 12:32:37 GMT-0500 (Central Daylight Time)","622178","Match,No Match","html-keyboard-response","125","329068","0.0-7.0-5.17","","null","","<div class='trialBorder'><div class='vertical-center'><img src='img/correct.jpg'></div><div class='respDiv'><div class='respDivL'>Match<br>(e)</div><div class='respDivR'><font style='color:orange'>No Match<br>(i)</font></div></div></div>","null","FEEDBACK","","","","","","","","","","",""
"","","","","629fa760fe340707d1dfd548","bdp_wmem","Wed Jul 27 2022 12:32:37 GMT-0500 (Central Daylight Time)","622178","Match,No Match","html-keyboard-response","126","329584","0.0-7.0-1.18","","null","","<div class='trialBorder'><div class='vertical-center'><img src='img/fixation2_sml.jpg'</img></div></div>","null","FIX","","","","","","","","","","",""
"","","","","629fa760fe340707d1dfd548","bdp_wmem","Wed Jul 27 2022 12:32:37 GMT-0500 (Central Daylight Time)","622178","Match,No Match","html-keyboard-response","127","334097","0.0-7.0-2.18","","null","","<div class='trialBorder'><div class='vertical-center'><img style='vertical-align:center; align:center' src='img/fixation2_sml.jpg'></div><div class='arrayDiv3'><div class='tl'><img class='introPic' src='trustrating_stim/white_mw078.bmp'><br><font color='red'><strong>Keep</strong></font></div><div class='tc'><img class='introPic' src='trustrating_stim/white_mw013.bmp'><br><font color='red'><strong>Keep</strong></font></div><div class='tr'><img class='introPic' src='trustrating_stim/white_mw042.bmp'><br><font color='green'><strong>Share</strong></font></div></div></div>","null","ARRAY","3","trustrating_stim/white_mw078.bmp,trustrating_stim/white_mw013.bmp,trustrating_stim/white_mw042.bmp","0,0,1","noMatchOutcome","i","4500","","","","",""
"","","","","629fa760fe340707d1dfd548","bdp_wmem","Wed Jul 27 2022 12:32:37 GMT-0500 (Central Daylight Time)","622178","Match,No Match","html-keyboard-response","128","338112","0.0-7.0-3.18","","null","","<div class='trialBorder'><div class='vertical-center'><img src='img/fixation2_sml.jpg'</img></div></div>","null","DELAY","","","","","","","","","","",""
"","","","","629fa760fe340707d1dfd548","bdp_wmem","Wed Jul 27 2022 12:32:37 GMT-0500 (Central Daylight Time)","622178","Match,No Match","html-keyboard-response","129","339820","0.0-7.0-4.18","","1706","","<div class='trialBorder'><div class='targDiv'><div class='tc'><img class='introPic' src='trustrating_stim/white_mw042.bmp'><br><font color='red'><strong>Keep</strong></font></div></div><div class='respDiv'><div class='respDivL'>Match<br>(e)</div><div class='respDivR'>No Match<br>(i)</div></div></div>","i","TARGET","3","trustrating_stim/white_mw078.bmp,trustrating_stim/white_mw013.bmp,trustrating_stim/white_mw042.bmp","0,0,1","noMatchOutcome","i","4500","trustrating_stim/white_mw042.bmp","red","Keep","REAL","1"
"","","","","629fa760fe340707d1dfd548","bdp_wmem","Wed Jul 27 2022 12:32:37 GMT-0500 (Central Daylight Time)","622178","Match,No Match","html-keyboard-response","130","340328","0.0-7.0-5.18","","null","","<div class='trialBorder'><div class='vertical-center'><img src='img/correct.jpg'></div><div class='respDiv'><div class='respDivL'>Match<br>(e)</div><div class='respDivR'><font style='color:orange'>No Match<br>(i)</font></div></div></div>","null","FEEDBACK","","","","","","","","","","",""
"","","","","629fa760fe340707d1dfd548","bdp_wmem","Wed Jul 27 2022 12:32:37 GMT-0500 (Central Daylight Time)","622178","Match,No Match","html-keyboard-response","131","340844","0.0-7.0-1.19","","null","","<div class='trialBorder'><div class='vertical-center'><img src='img/fixation2_sml.jpg'</img></div></div>","null","FIX","","","","","","","","","","",""
"","","","","629fa760fe340707d1dfd548","bdp_wmem","Wed Jul 27 2022 12:32:37 GMT-0500 (Central Daylight Time)","622178","Match,No Match","html-keyboard-response","132","345358","0.0-7.0-2.19","","null","","<div class='trialBorder'><div class='vertical-center'><img style='vertical-align:center; align:center' src='img/fixation2_sml.jpg'></div><div class='arrayDiv3'><div class='tl'><img class='introPic' src='trustrating_stim/white_mw042.bmp'><br><font color='red'><strong>Keep</strong></font></div><div class='tc'><img class='introPic' src='trustrating_stim/white_mw078.bmp'><br><font color='red'><strong>Keep</strong></font></div><div class='tr'><img class='introPic' src='trustrating_stim/white_mw010.bmp'><br><font color='green'><strong>Share</strong></font></div></div></div>","null","ARRAY","3","trustrating_stim/white_mw042.bmp,trustrating_stim/white_mw078.bmp,trustrating_stim/white_mw010.bmp","0,0,1","noMatchFace","i","4500","","","","",""
"","","","","629fa760fe340707d1dfd548","bdp_wmem","Wed Jul 27 2022 12:32:37 GMT-0500 (Central Daylight Time)","622178","Match,No Match","html-keyboard-response","133","349368","0.0-7.0-3.19","","null","","<div class='trialBorder'><div class='vertical-center'><img src='img/fixation2_sml.jpg'</img></div></div>","null","DELAY","","","","","","","","","","",""
"","","","","629fa760fe340707d1dfd548","bdp_wmem","Wed Jul 27 2022 12:32:37 GMT-0500 (Central Daylight Time)","622178","Match,No Match","html-keyboard-response","134","350695","0.0-7.0-4.19","","1325","","<div class='trialBorder'><div class='targDiv'><div class='tc'><img class='introPic' src='trustrating_stim/white_mw013.bmp'><br><font color='red'><strong>Keep</strong></font></div></div><div class='respDiv'><div class='respDivL'>Match<br>(e)</div><div class='respDivR'>No Match<br>(i)</div></div></div>","i","TARGET","3","trustrating_stim/white_mw042.bmp,trustrating_stim/white_mw078.bmp,trustrating_stim/white_mw010.bmp","0,0,1","noMatchFace","i","4500","trustrating_stim/white_mw013.bmp","red","Keep","REAL","1"
"","","","","629fa760fe340707d1dfd548","bdp_wmem","Wed Jul 27 2022 12:32:37 GMT-0500 (Central Daylight Time)","622178","Match,No Match","html-keyboard-response","135","351196","0.0-7.0-5.19","","null","","<div class='trialBorder'><div class='vertical-center'><img src='img/correct.jpg'></div><div class='respDiv'><div class='respDivL'>Match<br>(e)</div><div class='respDivR'><font style='color:orange'>No Match<br>(i)</font></div></div></div>","null","FEEDBACK","","","","","","","","","","",""
"","","","","629fa760fe340707d1dfd548","bdp_wmem","Wed Jul 27 2022 12:32:37 GMT-0500 (Central Daylight Time)","622178","Match,No Match","html-keyboard-response","136","351712","0.0-7.0-1.20","","null","","<div class='trialBorder'><div class='vertical-center'><img src='img/fixation2_sml.jpg'</img></div></div>","null","FIX","","","","","","","","","","",""
"","","","","629fa760fe340707d1dfd548","bdp_wmem","Wed Jul 27 2022 12:32:37 GMT-0500 (Central Daylight Time)","622178","Match,No Match","html-keyboard-response","137","356227","0.0-7.0-2.20","","null","","<div class='trialBorder'><div class='vertical-center'><img style='vertical-align:center; align:center' src='img/fixation2_sml.jpg'></div><div class='arrayDiv3'><div class='tl'><img class='introPic' src='trustrating_stim/white_mw091.bmp'><br><font color='red'><strong>Keep</strong></font></div><div class='tc'><img class='introPic' src='trustrating_stim/white_mw038.bmp'><br><font color='green'><strong>Share</strong></font></div><div class='tr'><img class='introPic' src='trustrating_stim/white_mw013.bmp'><br><font color='green'><strong>Share</strong></font></div></div></div>","null","ARRAY","3","trustrating_stim/white_mw091.bmp,trustrating_stim/white_mw038.bmp,trustrating_stim/white_mw013.bmp","0,1,1","noMatchOutcome","i","4500","","","","",""
"","","","","629fa760fe340707d1dfd548","bdp_wmem","Wed Jul 27 2022 12:32:37 GMT-0500 (Central Daylight Time)","622178","Match,No Match","html-keyboard-response","138","360235","0.0-7.0-3.20","","null","","<div class='trialBorder'><div class='vertical-center'><img src='img/fixation2_sml.jpg'</img></div></div>","null","DELAY","","","","","","","","","","",""
"","","","","629fa760fe340707d1dfd548","bdp_wmem","Wed Jul 27 2022 12:32:37 GMT-0500 (Central Daylight Time)","622178","Match,No Match","html-keyboard-response","139","361510","0.0-7.0-4.20","","1272","","<div class='trialBorder'><div class='targDiv'><div class='tc'><img class='introPic' src='trustrating_stim/white_mw013.bmp'><br><font color='red'><strong>Keep</strong></font></div></div><div class='respDiv'><div class='respDivL'>Match<br>(e)</div><div class='respDivR'>No Match<br>(i)</div></div></div>","i","TARGET","3","trustrating_stim/white_mw091.bmp,trustrating_stim/white_mw038.bmp,trustrating_stim/white_mw013.bmp","0,1,1","noMatchOutcome","i","4500","trustrating_stim/white_mw013.bmp","red","Keep","REAL","1"
"","","","","629fa760fe340707d1dfd548","bdp_wmem","Wed Jul 27 2022 12:32:37 GMT-0500 (Central Daylight Time)","622178","Match,No Match","html-keyboard-response","140","362013","0.0-7.0-5.20","","null","","<div class='trialBorder'><div class='vertical-center'><img src='img/correct.jpg'></div><div class='respDiv'><div class='respDivL'>Match<br>(e)</div><div class='respDivR'><font style='color:orange'>No Match<br>(i)</font></div></div></div>","null","FEEDBACK","","","","","","","","","","",""
"","","","","629fa760fe340707d1dfd548","bdp_wmem","Wed Jul 27 2022 12:32:37 GMT-0500 (Central Daylight Time)","622178","Match,No Match","html-keyboard-response","141","362529","0.0-7.0-1.21","","null","","<div class='trialBorder'><div class='vertical-center'><img src='img/fixation2_sml.jpg'</img></div></div>","null","FIX","","","","","","","","","","",""
"","","","","629fa760fe340707d1dfd548","bdp_wmem","Wed Jul 27 2022 12:32:37 GMT-0500 (Central Daylight Time)","622178","Match,No Match","html-keyboard-response","142","367045","0.0-7.0-2.21","","null","","<div class='trialBorder'><div class='vertical-center'><img style='vertical-align:center; align:center' src='img/fixation2_sml.jpg'></div><div class='arrayDiv3'><div class='tl'><img class='introPic' src='trustrating_stim/white_mw092.bmp'><br><font color='red'><strong>Keep</strong></font></div><div class='tc'><img class='introPic' src='trustrating_stim/white_mw078.bmp'><br><font color='red'><strong>Keep</strong></font></div><div class='tr'><img class='introPic' src='trustrating_stim/white_mw038.bmp'><br><font color='green'><strong>Share</strong></font></div></div></div>","null","ARRAY","3","trustrating_stim/white_mw092.bmp,trustrating_stim/white_mw078.bmp,trustrating_stim/white_mw038.bmp","0,0,1","Match","e","4500","","","","",""
"","","","","629fa760fe340707d1dfd548","bdp_wmem","Wed Jul 27 2022 12:32:37 GMT-0500 (Central Daylight Time)","622178","Match,No Match","html-keyboard-response","143","371061","0.0-7.0-3.21","","null","","<div class='trialBorder'><div class='vertical-center'><img src='img/fixation2_sml.jpg'</img></div></div>","null","DELAY","","","","","","","","","","",""
"","","","","629fa760fe340707d1dfd548","bdp_wmem","Wed Jul 27 2022 12:32:37 GMT-0500 (Central Daylight Time)","622178","Match,No Match","html-keyboard-response","144","372755","0.0-7.0-4.21","","1694","","<div class='trialBorder'><div class='targDiv'><div class='tc'><img class='introPic' src='trustrating_stim/white_mw092.bmp'><br><font color='red'><strong>Keep</strong></font></div></div><div class='respDiv'><div class='respDivL'>Match<br>(e)</div><div class='respDivR'>No Match<br>(i)</div></div></div>","e","TARGET","3","trustrating_stim/white_mw092.bmp,trustrating_stim/white_mw078.bmp,trustrating_stim/white_mw038.bmp","0,0,1","Match","e","4500","trustrating_stim/white_mw092.bmp","red","Keep","REAL","1"
"","","","","629fa760fe340707d1dfd548","bdp_wmem","Wed Jul 27 2022 12:32:37 GMT-0500 (Central Daylight Time)","622178","Match,No Match","html-keyboard-response","145","373270","0.0-7.0-5.21","","null","","<div class='trialBorder'><div class='vertical-center'><img src='img/correct.jpg'></div><div class='respDiv'><div class='respDivL'><font style='color:orange'>Match<br>(e)</font></div><div class='respDivR'>No Match<br>(i)</div></div></div>","null","FEEDBACK","","","","","","","","","","",""
"","","","","629fa760fe340707d1dfd548","bdp_wmem","Wed Jul 27 2022 12:32:37 GMT-0500 (Central Daylight Time)","622178","Match,No Match","html-keyboard-response","146","373785","0.0-7.0-1.22","","null","","<div class='trialBorder'><div class='vertical-center'><img src='img/fixation2_sml.jpg'</img></div></div>","null","FIX","","","","","","","","","","",""
"","","","","629fa760fe340707d1dfd548","bdp_wmem","Wed Jul 27 2022 12:32:37 GMT-0500 (Central Daylight Time)","622178","Match,No Match","html-keyboard-response","147","376794","0.0-7.0-2.22","","null","","<div class='trialBorder'><div class='vertical-center'><img style='vertical-align:center; align:center' src='img/fixation2_sml.jpg'></div><div class='arrayDiv2'><div class='tl'><img class='introPic' src='trustrating_stim/white_mw085.bmp'><br><font color='red'><strong>Keep</strong></font></div><div class='tr'><img class='introPic' src='trustrating_stim/white_mw010.bmp'><br><font color='green'><strong>Share</strong></font></div></div></div>","null","ARRAY","2","trustrating_stim/white_mw085.bmp,trustrating_stim/white_mw010.bmp","0,1","noMatchOutcome","i","3000","","","","",""
"","","","","629fa760fe340707d1dfd548","bdp_wmem","Wed Jul 27 2022 12:32:37 GMT-0500 (Central Daylight Time)","622178","Match,No Match","html-keyboard-response","148","380807","0.0-7.0-3.22","","null","","<div class='trialBorder'><div class='vertical-center'><img src='img/fixation2_sml.jpg'</img></div></div>","null","DELAY","","","","","","","","","","",""
"","","","","629fa760fe340707d1dfd548","bdp_wmem","Wed Jul 27 2022 12:32:37 GMT-0500 (Central Daylight Time)","622178","Match,No Match","html-keyboard-response","149","382055","0.0-7.0-4.22","","1248","","<div class='trialBorder'><div class='targDiv'><div class='tc'><img class='introPic' src='trustrating_stim/white_mw010.bmp'><br><font color='red'><strong>Keep</strong></font></div></div><div class='respDiv'><div class='respDivL'>Match<br>(e)</div><div class='respDivR'>No Match<br>(i)</div></div></div>","i","TARGET","2","trustrating_stim/white_mw085.bmp,trustrating_stim/white_mw010.bmp","0,1","noMatchOutcome","i","3000","trustrating_stim/white_mw010.bmp","red","Keep","REAL","1"
"","","","","629fa760fe340707d1dfd548","bdp_wmem","Wed Jul 27 2022 12:32:37 GMT-0500 (Central Daylight Time)","622178","Match,No Match","html-keyboard-response","150","382573","0.0-7.0-5.22","","null","","<div class='trialBorder'><div class='vertical-center'><img src='img/correct.jpg'></div><div class='respDiv'><div class='respDivL'>Match<br>(e)</div><div class='respDivR'><font style='color:orange'>No Match<br>(i)</font></div></div></div>","null","FEEDBACK","","","","","","","","","","",""
"","","","","629fa760fe340707d1dfd548","bdp_wmem","Wed Jul 27 2022 12:32:37 GMT-0500 (Central Daylight Time)","622178","Match,No Match","html-keyboard-response","151","383087","0.0-7.0-1.23","","null","","<div class='trialBorder'><div class='vertical-center'><img src='img/fixation2_sml.jpg'</img></div></div>","null","FIX","","","","","","","","","","",""
"","","","","629fa760fe340707d1dfd548","bdp_wmem","Wed Jul 27 2022 12:32:37 GMT-0500 (Central Daylight Time)","622178","Match,No Match","html-keyboard-response","152","384589","0.0-7.0-2.23","","null","","<div class='trialBorder'><div class='vertical-center'><img style='vertical-align:center; align:center' src='img/fixation2_sml.jpg'></div><div class='arrayDiv1'><div class='tc'><img class='introPic' src='trustrating_stim/white_mw010.bmp'><br><font color='green'><strong>Share</strong></font></div></div></div>","null","ARRAY","1","trustrating_stim/white_mw010.bmp","1","Match","e","1500","","","","",""
"","","","","629fa760fe340707d1dfd548","bdp_wmem","Wed Jul 27 2022 12:32:37 GMT-0500 (Central Daylight Time)","622178","Match,No Match","html-keyboard-response","153","388594","0.0-7.0-3.23","","null","","<div class='trialBorder'><div class='vertical-center'><img src='img/fixation2_sml.jpg'</img></div></div>","null","DELAY","","","","","","","","","","",""
"","","","","629fa760fe340707d1dfd548","bdp_wmem","Wed Jul 27 2022 12:32:37 GMT-0500 (Central Daylight Time)","622178","Match,No Match","html-keyboard-response","154","389446","0.0-7.0-4.23","","852","","<div class='trialBorder'><div class='targDiv'><div class='tc'><img class='introPic' src='trustrating_stim/white_mw010.bmp'><br><font color='green'><strong>Share</strong></font></div></div><div class='respDiv'><div class='respDivL'>Match<br>(e)</div><div class='respDivR'>No Match<br>(i)</div></div></div>","e","TARGET","1","trustrating_stim/white_mw010.bmp","1","Match","e","1500","trustrating_stim/white_mw010.bmp","green","Share","REAL","1"
"","","","","629fa760fe340707d1dfd548","bdp_wmem","Wed Jul 27 2022 12:32:37 GMT-0500 (Central Daylight Time)","622178","Match,No Match","html-keyboard-response","155","389953","0.0-7.0-5.23","","null","","<div class='trialBorder'><div class='vertical-center'><img src='img/correct.jpg'></div><div class='respDiv'><div class='respDivL'><font style='color:orange'>Match<br>(e)</font></div><div class='respDivR'>No Match<br>(i)</div></div></div>","null","FEEDBACK","","","","","","","","","","",""
"","","","","629fa760fe340707d1dfd548","bdp_wmem","Wed Jul 27 2022 12:32:37 GMT-0500 (Central Daylight Time)","622178","Match,No Match","html-keyboard-response","156","390469","0.0-7.0-1.24","","null","","<div class='trialBorder'><div class='vertical-center'><img src='img/fixation2_sml.jpg'</img></div></div>","null","FIX","","","","","","","","","","",""
"","","","","629fa760fe340707d1dfd548","bdp_wmem","Wed Jul 27 2022 12:32:37 GMT-0500 (Central Daylight Time)","622178","Match,No Match","html-keyboard-response","157","394981","0.0-7.0-2.24","","null","","<div class='trialBorder'><div class='vertical-center'><img style='vertical-align:center; align:center' src='img/fixation2_sml.jpg'></div><div class='arrayDiv3'><div class='tl'><img class='introPic' src='trustrating_stim/white_mw070.bmp'><br><font color='red'><strong>Keep</strong></font></div><div class='tc'><img class='introPic' src='trustrating_stim/white_mw042.bmp'><br><font color='red'><strong>Keep</strong></font></div><div class='tr'><img class='introPic' src='trustrating_stim/white_mw010.bmp'><br><font color='green'><strong>Share</strong></font></div></div></div>","null","ARRAY","3","trustrating_stim/white_mw070.bmp,trustrating_stim/white_mw042.bmp,trustrating_stim/white_mw010.bmp","0,0,1","Match","e","4500","","","","",""
"","","","","629fa760fe340707d1dfd548","bdp_wmem","Wed Jul 27 2022 12:32:37 GMT-0500 (Central Daylight Time)","622178","Match,No Match","html-keyboard-response","158","398995","0.0-7.0-3.24","","null","","<div class='trialBorder'><div class='vertical-center'><img src='img/fixation2_sml.jpg'</img></div></div>","null","DELAY","","","","","","","","","","",""
"","","","","629fa760fe340707d1dfd548","bdp_wmem","Wed Jul 27 2022 12:32:37 GMT-0500 (Central Daylight Time)","622178","Match,No Match","html-keyboard-response","159","400059","0.0-7.0-4.24","","1062","","<div class='trialBorder'><div class='targDiv'><div class='tc'><img class='introPic' src='trustrating_stim/white_mw010.bmp'><br><font color='green'><strong>Share</strong></font></div></div><div class='respDiv'><div class='respDivL'>Match<br>(e)</div><div class='respDivR'>No Match<br>(i)</div></div></div>","e","TARGET","3","trustrating_stim/white_mw070.bmp,trustrating_stim/white_mw042.bmp,trustrating_stim/white_mw010.bmp","0,0,1","Match","e","4500","trustrating_stim/white_mw010.bmp","green","Share","REAL","1"
"","","","","629fa760fe340707d1dfd548","bdp_wmem","Wed Jul 27 2022 12:32:37 GMT-0500 (Central Daylight Time)","622178","Match,No Match","html-keyboard-response","160","400571","0.0-7.0-5.24","","null","","<div class='trialBorder'><div class='vertical-center'><img src='img/correct.jpg'></div><div class='respDiv'><div class='respDivL'><font style='color:orange'>Match<br>(e)</font></div><div class='respDivR'>No Match<br>(i)</div></div></div>","null","FEEDBACK","","","","","","","","","","",""
"","","","","629fa760fe340707d1dfd548","bdp_wmem","Wed Jul 27 2022 12:32:37 GMT-0500 (Central Daylight Time)","622178","Match,No Match","html-keyboard-response","161","401085","0.0-7.0-1.25","","null","","<div class='trialBorder'><div class='vertical-center'><img src='img/fixation2_sml.jpg'</img></div></div>","null","FIX","","","","","","","","","","",""
"","","","","629fa760fe340707d1dfd548","bdp_wmem","Wed Jul 27 2022 12:32:37 GMT-0500 (Central Daylight Time)","622178","Match,No Match","html-keyboard-response","162","404100","0.0-7.0-2.25","","null","","<div class='trialBorder'><div class='vertical-center'><img style='vertical-align:center; align:center' src='img/fixation2_sml.jpg'></div><div class='arrayDiv2'><div class='tl'><img class='introPic' src='trustrating_stim/white_mw078.bmp'><br><font color='green'><strong>Share</strong></font></div><div class='tr'><img class='introPic' src='trustrating_stim/white_mw012.bmp'><br><font color='red'><strong>Keep</strong></font></div></div></div>","null","ARRAY","2","trustrating_stim/white_mw078.bmp,trustrating_stim/white_mw012.bmp","1,0","Match","e","3000","","","","",""
"","","","","629fa760fe340707d1dfd548","bdp_wmem","Wed Jul 27 2022 12:32:37 GMT-0500 (Central Daylight Time)","622178","Match,No Match","html-keyboard-response","163","408113","0.0-7.0-3.25","","null","","<div class='trialBorder'><div class='vertical-center'><img src='img/fixation2_sml.jpg'</img></div></div>","null","DELAY","","","","","","","","","","",""
"","","","","629fa760fe340707d1dfd548","bdp_wmem","Wed Jul 27 2022 12:32:37 GMT-0500 (Central Daylight Time)","622178","Match,No Match","html-keyboard-response","164","409729","0.0-7.0-4.25","","1614","","<div class='trialBorder'><div class='targDiv'><div class='tc'><img class='introPic' src='trustrating_stim/white_mw012.bmp'><br><font color='red'><strong>Keep</strong></font></div></div><div class='respDiv'><div class='respDivL'>Match<br>(e)</div><div class='respDivR'>No Match<br>(i)</div></div></div>","e","TARGET","2","trustrating_stim/white_mw078.bmp,trustrating_stim/white_mw012.bmp","1,0","Match","e","3000","trustrating_stim/white_mw012.bmp","red","Keep","REAL","1"
"","","","","629fa760fe340707d1dfd548","bdp_wmem","Wed Jul 27 2022 12:32:37 GMT-0500 (Central Daylight Time)","622178","Match,No Match","html-keyboard-response","165","410237","0.0-7.0-5.25","","null","","<div class='trialBorder'><div class='vertical-center'><img src='img/correct.jpg'></div><div class='respDiv'><div class='respDivL'><font style='color:orange'>Match<br>(e)</font></div><div class='respDivR'>No Match<br>(i)</div></div></div>","null","FEEDBACK","","","","","","","","","","",""
"","","","","629fa760fe340707d1dfd548","bdp_wmem","Wed Jul 27 2022 12:32:37 GMT-0500 (Central Daylight Time)","622178","Match,No Match","html-keyboard-response","166","410745","0.0-7.0-1.26","","null","","<div class='trialBorder'><div class='vertical-center'><img src='img/fixation2_sml.jpg'</img></div></div>","null","FIX","","","","","","","","","","",""
"","","","","629fa760fe340707d1dfd548","bdp_wmem","Wed Jul 27 2022 12:32:37 GMT-0500 (Central Daylight Time)","622178","Match,No Match","html-keyboard-response","167","415261","0.0-7.0-2.26","","null","","<div class='trialBorder'><div class='vertical-center'><img style='vertical-align:center; align:center' src='img/fixation2_sml.jpg'></div><div class='arrayDiv3'><div class='tl'><img class='introPic' src='trustrating_stim/white_mw091.bmp'><br><font color='red'><strong>Keep</strong></font></div><div class='tc'><img class='introPic' src='trustrating_stim/white_mw078.bmp'><br><font color='green'><strong>Share</strong></font></div><div class='tr'><img class='introPic' src='trustrating_stim/white_mw042.bmp'><br><font color='green'><strong>Share</strong></font></div></div></div>","null","ARRAY","3","trustrating_stim/white_mw091.bmp,trustrating_stim/white_mw078.bmp,trustrating_stim/white_mw042.bmp","0,1,1","noMatchFace","i","4500","","","","",""
"","","","","629fa760fe340707d1dfd548","bdp_wmem","Wed Jul 27 2022 12:32:37 GMT-0500 (Central Daylight Time)","622178","Match,No Match","html-keyboard-response","168","419264","0.0-7.0-3.26","","null","","<div class='trialBorder'><div class='vertical-center'><img src='img/fixation2_sml.jpg'</img></div></div>","null","DELAY","","","","","","","","","","",""
"","","","","629fa760fe340707d1dfd548","bdp_wmem","Wed Jul 27 2022 12:32:37 GMT-0500 (Central Daylight Time)","622178","Match,No Match","html-keyboard-response","169","420055","0.0-7.0-4.26","","789","","<div class='trialBorder'><div class='targDiv'><div class='tc'><img class='introPic' src='trustrating_stim/white_mw010.bmp'><br><font color='green'><strong>Share</strong></font></div></div><div class='respDiv'><div class='respDivL'>Match<br>(e)</div><div class='respDivR'>No Match<br>(i)</div></div></div>","i","TARGET","3","trustrating_stim/white_mw091.bmp,trustrating_stim/white_mw078.bmp,trustrating_stim/white_mw042.bmp","0,1,1","noMatchFace","i","4500","trustrating_stim/white_mw010.bmp","green","Share","REAL","1"
"","","","","629fa760fe340707d1dfd548","bdp_wmem","Wed Jul 27 2022 12:32:37 GMT-0500 (Central Daylight Time)","622178","Match,No Match","html-keyboard-response","170","420560","0.0-7.0-5.26","","null","","<div class='trialBorder'><div class='vertical-center'><img src='img/correct.jpg'></div><div class='respDiv'><div class='respDivL'>Match<br>(e)</div><div class='respDivR'><font style='color:orange'>No Match<br>(i)</font></div></div></div>","null","FEEDBACK","","","","","","","","","","",""
"","","","","629fa760fe340707d1dfd548","bdp_wmem","Wed Jul 27 2022 12:32:37 GMT-0500 (Central Daylight Time)","622178","Match,No Match","html-keyboard-response","171","421076","0.0-7.0-1.27","","null","","<div class='trialBorder'><div class='vertical-center'><img src='img/fixation2_sml.jpg'</img></div></div>","null","FIX","","","","","","","","","","",""
"","","","","629fa760fe340707d1dfd548","bdp_wmem","Wed Jul 27 2022 12:32:37 GMT-0500 (Central Daylight Time)","622178","Match,No Match","html-keyboard-response","172","424090","0.0-7.0-2.27","","null","","<div class='trialBorder'><div class='vertical-center'><img style='vertical-align:center; align:center' src='img/fixation2_sml.jpg'></div><div class='arrayDiv2'><div class='tl'><img class='introPic' src='trustrating_stim/white_mw010.bmp'><br><font color='green'><strong>Share</strong></font></div><div class='tr'><img class='introPic' src='trustrating_stim/white_mw092.bmp'><br><font color='red'><strong>Keep</strong></font></div></div></div>","null","ARRAY","2","trustrating_stim/white_mw010.bmp,trustrating_stim/white_mw092.bmp","1,0","Match","e","3000","","","","",""
"","","","","629fa760fe340707d1dfd548","bdp_wmem","Wed Jul 27 2022 12:32:37 GMT-0500 (Central Daylight Time)","622178","Match,No Match","html-keyboard-response","173","428102","0.0-7.0-3.27","","null","","<div class='trialBorder'><div class='vertical-center'><img src='img/fixation2_sml.jpg'</img></div></div>","null","DELAY","","","","","","","","","","",""
"","","","","629fa760fe340707d1dfd548","bdp_wmem","Wed Jul 27 2022 12:32:37 GMT-0500 (Central Daylight Time)","622178","Match,No Match","html-keyboard-response","174","429083","0.0-7.0-4.27","","979","","<div class='trialBorder'><div class='targDiv'><div class='tc'><img class='introPic' src='trustrating_stim/white_mw010.bmp'><br><font color='green'><strong>Share</strong></font></div></div><div class='respDiv'><div class='respDivL'>Match<br>(e)</div><div class='respDivR'>No Match<br>(i)</div></div></div>","e","TARGET","2","trustrating_stim/white_mw010.bmp,trustrating_stim/white_mw092.bmp","1,0","Match","e","3000","trustrating_stim/white_mw010.bmp","green","Share","REAL","1"
"","","","","629fa760fe340707d1dfd548","bdp_wmem","Wed Jul 27 2022 12:32:37 GMT-0500 (Central Daylight Time)","622178","Match,No Match","html-keyboard-response","175","429596","0.0-7.0-5.27","","null","","<div class='trialBorder'><div class='vertical-center'><img src='img/correct.jpg'></div><div class='respDiv'><div class='respDivL'><font style='color:orange'>Match<br>(e)</font></div><div class='respDivR'>No Match<br>(i)</div></div></div>","null","FEEDBACK","","","","","","","","","","",""
"","","","","629fa760fe340707d1dfd548","bdp_wmem","Wed Jul 27 2022 12:32:37 GMT-0500 (Central Daylight Time)","622178","Match,No Match","html-keyboard-response","176","430111","0.0-7.0-1.28","","null","","<div class='trialBorder'><div class='vertical-center'><img src='img/fixation2_sml.jpg'</img></div></div>","null","FIX","","","","","","","","","","",""
"","","","","629fa760fe340707d1dfd548","bdp_wmem","Wed Jul 27 2022 12:32:37 GMT-0500 (Central Daylight Time)","622178","Match,No Match","html-keyboard-response","177","431626","0.0-7.0-2.28","","null","","<div class='trialBorder'><div class='vertical-center'><img style='vertical-align:center; align:center' src='img/fixation2_sml.jpg'></div><div class='arrayDiv1'><div class='tc'><img class='introPic' src='trustrating_stim/white_mw010.bmp'><br><font color='red'><strong>Keep</strong></font></div></div></div>","null","ARRAY","1","trustrating_stim/white_mw010.bmp","0","Match","e","1500","","","","",""
"","","","","629fa760fe340707d1dfd548","bdp_wmem","Wed Jul 27 2022 12:32:37 GMT-0500 (Central Daylight Time)","622178","Match,No Match","html-keyboard-response","178","435642","0.0-7.0-3.28","","null","","<div class='trialBorder'><div class='vertical-center'><img src='img/fixation2_sml.jpg'</img></div></div>","null","DELAY","","","","","","","","","","",""
"","","","","629fa760fe340707d1dfd548","bdp_wmem","Wed Jul 27 2022 12:32:37 GMT-0500 (Central Daylight Time)","622178","Match,No Match","html-keyboard-response","179","437118","0.0-7.0-4.28","","1475","","<div class='trialBorder'><div class='targDiv'><div class='tc'><img class='introPic' src='trustrating_stim/white_mw010.bmp'><br><font color='red'><strong>Keep</strong></font></div></div><div class='respDiv'><div class='respDivL'>Match<br>(e)</div><div class='respDivR'>No Match<br>(i)</div></div></div>","e","TARGET","1","trustrating_stim/white_mw010.bmp","0","Match","e","1500","trustrating_stim/white_mw010.bmp","red","Keep","REAL","1"
"","","","","629fa760fe340707d1dfd548","bdp_wmem","Wed Jul 27 2022 12:32:37 GMT-0500 (Central Daylight Time)","622178","Match,No Match","html-keyboard-response","180","437631","0.0-7.0-5.28","","null","","<div class='trialBorder'><div class='vertical-center'><img src='img/correct.jpg'></div><div class='respDiv'><div class='respDivL'><font style='color:orange'>Match<br>(e)</font></div><div class='respDivR'>No Match<br>(i)</div></div></div>","null","FEEDBACK","","","","","","","","","","",""
"","","","","629fa760fe340707d1dfd548","bdp_wmem","Wed Jul 27 2022 12:32:37 GMT-0500 (Central Daylight Time)","622178","Match,No Match","html-keyboard-response","181","438147","0.0-7.0-1.29","","null","","<div class='trialBorder'><div class='vertical-center'><img src='img/fixation2_sml.jpg'</img></div></div>","null","FIX","","","","","","","","","","",""
"","","","","629fa760fe340707d1dfd548","bdp_wmem","Wed Jul 27 2022 12:32:37 GMT-0500 (Central Daylight Time)","622178","Match,No Match","html-keyboard-response","182","441158","0.0-7.0-2.29","","null","","<div class='trialBorder'><div class='vertical-center'><img style='vertical-align:center; align:center' src='img/fixation2_sml.jpg'></div><div class='arrayDiv2'><div class='tl'><img class='introPic' src='trustrating_stim/white_mw085.bmp'><br><font color='red'><strong>Keep</strong></font></div><div class='tr'><img class='introPic' src='trustrating_stim/white_mw010.bmp'><br><font color='green'><strong>Share</strong></font></div></div></div>","null","ARRAY","2","trustrating_stim/white_mw085.bmp,trustrating_stim/white_mw010.bmp","0,1","Match","e","3000","","","","",""
"","","","","629fa760fe340707d1dfd548","bdp_wmem","Wed Jul 27 2022 12:32:37 GMT-0500 (Central Daylight Time)","622178","Match,No Match","html-keyboard-response","183","445173","0.0-7.0-3.29","","null","","<div class='trialBorder'><div class='vertical-center'><img src='img/fixation2_sml.jpg'</img></div></div>","null","DELAY","","","","","","","","","","",""
"","","","","629fa760fe340707d1dfd548","bdp_wmem","Wed Jul 27 2022 12:32:37 GMT-0500 (Central Daylight Time)","622178","Match,No Match","html-keyboard-response","184","446122","0.0-7.0-4.29","","948","","<div class='trialBorder'><div class='targDiv'><div class='tc'><img class='introPic' src='trustrating_stim/white_mw085.bmp'><br><font color='red'><strong>Keep</strong></font></div></div><div class='respDiv'><div class='respDivL'>Match<br>(e)</div><div class='respDivR'>No Match<br>(i)</div></div></div>","e","TARGET","2","trustrating_stim/white_mw085.bmp,trustrating_stim/white_mw010.bmp","0,1","Match","e","3000","trustrating_stim/white_mw085.bmp","red","Keep","REAL","1"
"","","","","629fa760fe340707d1dfd548","bdp_wmem","Wed Jul 27 2022 12:32:37 GMT-0500 (Central Daylight Time)","622178","Match,No Match","html-keyboard-response","185","446626","0.0-7.0-5.29","","null","","<div class='trialBorder'><div class='vertical-center'><img src='img/correct.jpg'></div><div class='respDiv'><div class='respDivL'><font style='color:orange'>Match<br>(e)</font></div><div class='respDivR'>No Match<br>(i)</div></div></div>","null","FEEDBACK","","","","","","","","","","",""
"","","","","629fa760fe340707d1dfd548","bdp_wmem","Wed Jul 27 2022 12:32:37 GMT-0500 (Central Daylight Time)","622178","Match,No Match","html-keyboard-response","186","447142","0.0-7.0-1.30","","null","","<div class='trialBorder'><div class='vertical-center'><img src='img/fixation2_sml.jpg'</img></div></div>","null","FIX","","","","","","","","","","",""
"","","","","629fa760fe340707d1dfd548","bdp_wmem","Wed Jul 27 2022 12:32:37 GMT-0500 (Central Daylight Time)","622178","Match,No Match","html-keyboard-response","187","450152","0.0-7.0-2.30","","null","","<div class='trialBorder'><div class='vertical-center'><img style='vertical-align:center; align:center' src='img/fixation2_sml.jpg'></div><div class='arrayDiv2'><div class='tl'><img class='introPic' src='trustrating_stim/white_mw013.bmp'><br><font color='red'><strong>Keep</strong></font></div><div class='tr'><img class='introPic' src='trustrating_stim/white_mw038.bmp'><br><font color='green'><strong>Share</strong></font></div></div></div>","null","ARRAY","2","trustrating_stim/white_mw013.bmp,trustrating_stim/white_mw038.bmp","0,1","noMatchFace","i","3000","","","","",""
"","","","","629fa760fe340707d1dfd548","bdp_wmem","Wed Jul 27 2022 12:32:37 GMT-0500 (Central Daylight Time)","622178","Match,No Match","html-keyboard-response","188","454164","0.0-7.0-3.30","","null","","<div class='trialBorder'><div class='vertical-center'><img src='img/fixation2_sml.jpg'</img></div></div>","null","DELAY","","","","","","","","","","",""
"","","","","629fa760fe340707d1dfd548","bdp_wmem","Wed Jul 27 2022 12:32:37 GMT-0500 (Central Daylight Time)","622178","Match,No Match","html-keyboard-response","189","455482","0.0-7.0-4.30","","1317","","<div class='trialBorder'><div class='targDiv'><div class='tc'><img class='introPic' src='trustrating_stim/white_mw085.bmp'><br><font color='red'><strong>Keep</strong></font></div></div><div class='respDiv'><div class='respDivL'>Match<br>(e)</div><div class='respDivR'>No Match<br>(i)</div></div></div>","i","TARGET","2","trustrating_stim/white_mw013.bmp,trustrating_stim/white_mw038.bmp","0,1","noMatchFace","i","3000","trustrating_stim/white_mw085.bmp","red","Keep","REAL","1"
