"trial_type","trial_index","time_elapsed","internal_node_id","subject_id","task","startTime","totalTime","labels","view_history","rt","event","trial","time","trialtype","success","stimulus","key_press","stimType","arraySize","arrayFaces","arrayOutcomes","matchType","corrResp","arrayDur","targFace","targCol","targOutcome","trialType","corr"
"pavlovia","0","3","0.0-0.0","6108cd48a97ffccb0e7e518c","bdp_wmem","Wed Mar 15 2023 15:19:26 GMT-0400 (Eastern Daylight Time)","635020","Match,No Match","","","","","","","","","","","","","","","","","","","","",""
"instructions","1","4981","0.0-1.0","6108cd48a97ffccb0e7e518c","bdp_wmem","Wed Mar 15 2023 15:19:26 GMT-0400 (Eastern Daylight Time)","635020","Match,No Match","[{""page_index"":0,""viewing_time"":4977}]","4978","","","","","","","","","","","","","","","","","","",""
"","","","","6108cd48a97ffccb0e7e518c","bdp_wmem","Wed Mar 15 2023 15:19:26 GMT-0400 (Eastern Daylight Time)","635020","Match,No Match","","","fullscreenenter","2","8473","fullscreenenter","","","","","","","","","","","","","","",""
"fullscreen","2","9468","0.0-2.0","6108cd48a97ffccb0e7e518c","bdp_wmem","Wed Mar 15 2023 15:19:26 GMT-0400 (Eastern Daylight Time)","635020","Match,No Match","","","","","","","true","","","","","","","","","","","","","",""
"instructions","3","74037","0.0-4.0","6108cd48a97ffccb0e7e518c","bdp_wmem","Wed Mar 15 2023 15:19:26 GMT-0400 (Eastern Daylight Time)","635020","Match,No Match","[{""page_index"":0,""viewing_time"":29047},{""page_index"":1,""viewing_time"":20483},{""page_index"":2,""viewing_time"":9150},{""page_index"":3,""viewing_time"":3124},{""page_index"":4,""viewing_time"":2762}]","64566","","","","","","","","","","","","","","","","","","",""
"html-keyboard-response","4","74547","0.0-5.0-1.0","6108cd48a97ffccb0e7e518c","bdp_wmem","Wed Mar 15 2023 15:19:26 GMT-0400 (Eastern Daylight Time)","635020","Match,No Match","","null","","","","","","<div class='trialBorder'><div class='vertical-center'><img src='img/fixation2_sml.jpg'</img></div></div>","null","FIX","","","","","","","","","","",""
"html-keyboard-response","5","79050","0.0-5.0-2.0","6108cd48a97ffccb0e7e518c","bdp_wmem","Wed Mar 15 2023 15:19:26 GMT-0400 (Eastern Daylight Time)","635020","Match,No Match","","null","","","","","","<div class='trialBorder'><div class='vertical-center'><img style='vertical-align:center; align:center' src='img/fixation2_sml.jpg'></div><div class='arrayDiv3'><div class='tl'><img class='introPic' src='trustrating_stim/white_mw038.bmp'><br><font color='red'><strong>Keep</strong></font></div><div class='tc'><img class='introPic' src='trustrating_stim/white_mw085.bmp'><br><font color='green'><strong>Share</strong></font></div><div class='tr'><img class='introPic' src='trustrating_stim/white_mw042.bmp'><br><font color='red'><strong>Keep</strong></font></div></div></div>","null","ARRAY","3","trustrating_stim/white_mw038.bmp,trustrating_stim/white_mw085.bmp,trustrating_stim/white_mw042.bmp","0,1,0","Match","e","4500","","","","",""
"html-keyboard-response","6","83059","0.0-5.0-3.0","6108cd48a97ffccb0e7e518c","bdp_wmem","Wed Mar 15 2023 15:19:26 GMT-0400 (Eastern Daylight Time)","635020","Match,No Match","","null","","","","","","<div class='trialBorder'><div class='vertical-center'><img src='img/fixation2_sml.jpg'</img></div></div>","null","DELAY","","","","","","","","","","",""
"html-keyboard-response","7","92266","0.0-5.0-4.0","6108cd48a97ffccb0e7e518c","bdp_wmem","Wed Mar 15 2023 15:19:26 GMT-0400 (Eastern Daylight Time)","635020","Match,No Match","","9202","","","","","","<div class='trialBorder'><div class='targDiv'><div class='tc'><img class='introPic' src='trustrating_stim/white_mw038.bmp'><br><font color='red'><strong>Keep</strong></font></div></div><div class='respDiv'><div class='respDivL'>Match<br>(e)</div><div class='respDivR'>No Match<br>(i)</div></div></div>","e","TARGET","3","trustrating_stim/white_mw038.bmp,trustrating_stim/white_mw085.bmp,trustrating_stim/white_mw042.bmp","0,1,0","Match","e","4500","trustrating_stim/white_mw038.bmp","red","Keep","PRACTICE","1"
"html-keyboard-response","8","92773","0.0-5.0-5.0","6108cd48a97ffccb0e7e518c","bdp_wmem","Wed Mar 15 2023 15:19:26 GMT-0400 (Eastern Daylight Time)","635020","Match,No Match","","null","","","","","","<div class='trialBorder'><div class='vertical-center'><img src='img/correct.jpg'></div><div class='respDiv'><div class='respDivL'><font style='color:orange'>Match<br>(e)</font></div><div class='respDivR'>No Match<br>(i)</div></div></div>","null","FEEDBACK","","","","","","","","","","",""
"html-keyboard-response","9","93281","0.0-5.0-1.1","6108cd48a97ffccb0e7e518c","bdp_wmem","Wed Mar 15 2023 15:19:26 GMT-0400 (Eastern Daylight Time)","635020","Match,No Match","","null","","","","","","<div class='trialBorder'><div class='vertical-center'><img src='img/fixation2_sml.jpg'</img></div></div>","null","FIX","","","","","","","","","","",""
"html-keyboard-response","10","96289","0.0-5.0-2.1","6108cd48a97ffccb0e7e518c","bdp_wmem","Wed Mar 15 2023 15:19:26 GMT-0400 (Eastern Daylight Time)","635020","Match,No Match","","null","","","","","","<div class='trialBorder'><div class='vertical-center'><img style='vertical-align:center; align:center' src='img/fixation2_sml.jpg'></div><div class='arrayDiv2'><div class='tl'><img class='introPic' src='trustrating_stim/white_mw040.bmp'><br><font color='red'><strong>Keep</strong></font></div><div class='tr'><img class='introPic' src='trustrating_stim/white_mw038.bmp'><br><font color='green'><strong>Share</strong></font></div></div></div>","null","ARRAY","2","trustrating_stim/white_mw040.bmp,trustrating_stim/white_mw038.bmp","0,1","noMatchFace","i","3000","","","","",""
"html-keyboard-response","11","100299","0.0-5.0-3.1","6108cd48a97ffccb0e7e518c","bdp_wmem","Wed Mar 15 2023 15:19:26 GMT-0400 (Eastern Daylight Time)","635020","Match,No Match","","null","","","","","","<div class='trialBorder'><div class='vertical-center'><img src='img/fixation2_sml.jpg'</img></div></div>","null","DELAY","","","","","","","","","","",""
"html-keyboard-response","12","101780","0.0-5.0-4.1","6108cd48a97ffccb0e7e518c","bdp_wmem","Wed Mar 15 2023 15:19:26 GMT-0400 (Eastern Daylight Time)","635020","Match,No Match","","1478","","","","","","<div class='trialBorder'><div class='targDiv'><div class='tc'><img class='introPic' src='trustrating_stim/white_mw091.bmp'><br><font color='green'><strong>Share</strong></font></div></div><div class='respDiv'><div class='respDivL'>Match<br>(e)</div><div class='respDivR'>No Match<br>(i)</div></div></div>","i","TARGET","2","trustrating_stim/white_mw040.bmp,trustrating_stim/white_mw038.bmp","0,1","noMatchFace","i","3000","trustrating_stim/white_mw091.bmp","green","Share","PRACTICE","1"
"html-keyboard-response","13","102290","0.0-5.0-5.1","6108cd48a97ffccb0e7e518c","bdp_wmem","Wed Mar 15 2023 15:19:26 GMT-0400 (Eastern Daylight Time)","635020","Match,No Match","","null","","","","","","<div class='trialBorder'><div class='vertical-center'><img src='img/correct.jpg'></div><div class='respDiv'><div class='respDivL'>Match<br>(e)</div><div class='respDivR'><font style='color:orange'>No Match<br>(i)</font></div></div></div>","null","FEEDBACK","","","","","","","","","","",""
"html-keyboard-response","14","102795","0.0-5.0-1.2","6108cd48a97ffccb0e7e518c","bdp_wmem","Wed Mar 15 2023 15:19:26 GMT-0400 (Eastern Daylight Time)","635020","Match,No Match","","null","","","","","","<div class='trialBorder'><div class='vertical-center'><img src='img/fixation2_sml.jpg'</img></div></div>","null","FIX","","","","","","","","","","",""
"html-keyboard-response","15","104305","0.0-5.0-2.2","6108cd48a97ffccb0e7e518c","bdp_wmem","Wed Mar 15 2023 15:19:26 GMT-0400 (Eastern Daylight Time)","635020","Match,No Match","","null","","","","","","<div class='trialBorder'><div class='vertical-center'><img style='vertical-align:center; align:center' src='img/fixation2_sml.jpg'></div><div class='arrayDiv1'><div class='tc'><img class='introPic' src='trustrating_stim/white_mw013.bmp'><br><font color='red'><strong>Keep</strong></font></div></div></div>","null","ARRAY","1","trustrating_stim/white_mw013.bmp","0","noMatchFace","i","1500","","","","",""
"html-keyboard-response","16","108316","0.0-5.0-3.2","6108cd48a97ffccb0e7e518c","bdp_wmem","Wed Mar 15 2023 15:19:26 GMT-0400 (Eastern Daylight Time)","635020","Match,No Match","","null","","","","","","<div class='trialBorder'><div class='vertical-center'><img src='img/fixation2_sml.jpg'</img></div></div>","null","DELAY","","","","","","","","","","",""
"html-keyboard-response","17","109960","0.0-5.0-4.2","6108cd48a97ffccb0e7e518c","bdp_wmem","Wed Mar 15 2023 15:19:26 GMT-0400 (Eastern Daylight Time)","635020","Match,No Match","","1642","","","","","","<div class='trialBorder'><div class='targDiv'><div class='tc'><img class='introPic' src='trustrating_stim/white_mw012.bmp'><br><font color='red'><strong>Keep</strong></font></div></div><div class='respDiv'><div class='respDivL'>Match<br>(e)</div><div class='respDivR'>No Match<br>(i)</div></div></div>","i","TARGET","1","trustrating_stim/white_mw013.bmp","0","noMatchFace","i","1500","trustrating_stim/white_mw012.bmp","red","Keep","PRACTICE","1"
"html-keyboard-response","18","110465","0.0-5.0-5.2","6108cd48a97ffccb0e7e518c","bdp_wmem","Wed Mar 15 2023 15:19:26 GMT-0400 (Eastern Daylight Time)","635020","Match,No Match","","null","","","","","","<div class='trialBorder'><div class='vertical-center'><img src='img/correct.jpg'></div><div class='respDiv'><div class='respDivL'>Match<br>(e)</div><div class='respDivR'><font style='color:orange'>No Match<br>(i)</font></div></div></div>","null","FEEDBACK","","","","","","","","","","",""
"html-keyboard-response","19","110968","0.0-5.0-1.3","6108cd48a97ffccb0e7e518c","bdp_wmem","Wed Mar 15 2023 15:19:26 GMT-0400 (Eastern Daylight Time)","635020","Match,No Match","","null","","","","","","<div class='trialBorder'><div class='vertical-center'><img src='img/fixation2_sml.jpg'</img></div></div>","null","FIX","","","","","","","","","","",""
"html-keyboard-response","20","113977","0.0-5.0-2.3","6108cd48a97ffccb0e7e518c","bdp_wmem","Wed Mar 15 2023 15:19:26 GMT-0400 (Eastern Daylight Time)","635020","Match,No Match","","null","","","","","","<div class='trialBorder'><div class='vertical-center'><img style='vertical-align:center; align:center' src='img/fixation2_sml.jpg'></div><div class='arrayDiv2'><div class='tl'><img class='introPic' src='trustrating_stim/white_mw042.bmp'><br><font color='green'><strong>Share</strong></font></div><div class='tr'><img class='introPic' src='trustrating_stim/white_mw078.bmp'><br><font color='red'><strong>Keep</strong></font></div></div></div>","null","ARRAY","2","trustrating_stim/white_mw042.bmp,trustrating_stim/white_mw078.bmp","1,0","Match","e","3000","","","","",""
"html-keyboard-response","21","117986","0.0-5.0-3.3","6108cd48a97ffccb0e7e518c","bdp_wmem","Wed Mar 15 2023 15:19:26 GMT-0400 (Eastern Daylight Time)","635020","Match,No Match","","null","","","","","","<div class='trialBorder'><div class='vertical-center'><img src='img/fixation2_sml.jpg'</img></div></div>","null","DELAY","","","","","","","","","","",""
"html-keyboard-response","22","120149","0.0-5.0-4.3","6108cd48a97ffccb0e7e518c","bdp_wmem","Wed Mar 15 2023 15:19:26 GMT-0400 (Eastern Daylight Time)","635020","Match,No Match","","2161","","","","","","<div class='trialBorder'><div class='targDiv'><div class='tc'><img class='introPic' src='trustrating_stim/white_mw042.bmp'><br><font color='green'><strong>Share</strong></font></div></div><div class='respDiv'><div class='respDivL'>Match<br>(e)</div><div class='respDivR'>No Match<br>(i)</div></div></div>","e","TARGET","2","trustrating_stim/white_mw042.bmp,trustrating_stim/white_mw078.bmp","1,0","Match","e","3000","trustrating_stim/white_mw042.bmp","green","Share","PRACTICE","1"
"html-keyboard-response","23","120656","0.0-5.0-5.3","6108cd48a97ffccb0e7e518c","bdp_wmem","Wed Mar 15 2023 15:19:26 GMT-0400 (Eastern Daylight Time)","635020","Match,No Match","","null","","","","","","<div class='trialBorder'><div class='vertical-center'><img src='img/correct.jpg'></div><div class='respDiv'><div class='respDivL'><font style='color:orange'>Match<br>(e)</font></div><div class='respDivR'>No Match<br>(i)</div></div></div>","null","FEEDBACK","","","","","","","","","","",""
"html-keyboard-response","24","121161","0.0-5.0-1.4","6108cd48a97ffccb0e7e518c","bdp_wmem","Wed Mar 15 2023 15:19:26 GMT-0400 (Eastern Daylight Time)","635020","Match,No Match","","null","","","","","","<div class='trialBorder'><div class='vertical-center'><img src='img/fixation2_sml.jpg'</img></div></div>","null","FIX","","","","","","","","","","",""
"html-keyboard-response","25","122672","0.0-5.0-2.4","6108cd48a97ffccb0e7e518c","bdp_wmem","Wed Mar 15 2023 15:19:26 GMT-0400 (Eastern Daylight Time)","635020","Match,No Match","","null","","","","","","<div class='trialBorder'><div class='vertical-center'><img style='vertical-align:center; align:center' src='img/fixation2_sml.jpg'></div><div class='arrayDiv1'><div class='tc'><img class='introPic' src='trustrating_stim/white_mw078.bmp'><br><font color='red'><strong>Keep</strong></font></div></div></div>","null","ARRAY","1","trustrating_stim/white_mw078.bmp","0","Match","e","1500","","","","",""
"html-keyboard-response","26","126682","0.0-5.0-3.4","6108cd48a97ffccb0e7e518c","bdp_wmem","Wed Mar 15 2023 15:19:26 GMT-0400 (Eastern Daylight Time)","635020","Match,No Match","","null","","","","","","<div class='trialBorder'><div class='vertical-center'><img src='img/fixation2_sml.jpg'</img></div></div>","null","DELAY","","","","","","","","","","",""
"html-keyboard-response","27","128238","0.0-5.0-4.4","6108cd48a97ffccb0e7e518c","bdp_wmem","Wed Mar 15 2023 15:19:26 GMT-0400 (Eastern Daylight Time)","635020","Match,No Match","","1554","","","","","","<div class='trialBorder'><div class='targDiv'><div class='tc'><img class='introPic' src='trustrating_stim/white_mw078.bmp'><br><font color='red'><strong>Keep</strong></font></div></div><div class='respDiv'><div class='respDivL'>Match<br>(e)</div><div class='respDivR'>No Match<br>(i)</div></div></div>","e","TARGET","1","trustrating_stim/white_mw078.bmp","0","Match","e","1500","trustrating_stim/white_mw078.bmp","red","Keep","PRACTICE","1"
"html-keyboard-response","28","128744","0.0-5.0-5.4","6108cd48a97ffccb0e7e518c","bdp_wmem","Wed Mar 15 2023 15:19:26 GMT-0400 (Eastern Daylight Time)","635020","Match,No Match","","null","","","","","","<div class='trialBorder'><div class='vertical-center'><img src='img/correct.jpg'></div><div class='respDiv'><div class='respDivL'><font style='color:orange'>Match<br>(e)</font></div><div class='respDivR'>No Match<br>(i)</div></div></div>","null","FEEDBACK","","","","","","","","","","",""
"html-keyboard-response","29","129247","0.0-5.0-1.5","6108cd48a97ffccb0e7e518c","bdp_wmem","Wed Mar 15 2023 15:19:26 GMT-0400 (Eastern Daylight Time)","635020","Match,No Match","","null","","","","","","<div class='trialBorder'><div class='vertical-center'><img src='img/fixation2_sml.jpg'</img></div></div>","null","FIX","","","","","","","","","","",""
"html-keyboard-response","30","133752","0.0-5.0-2.5","6108cd48a97ffccb0e7e518c","bdp_wmem","Wed Mar 15 2023 15:19:26 GMT-0400 (Eastern Daylight Time)","635020","Match,No Match","","null","","","","","","<div class='trialBorder'><div class='vertical-center'><img style='vertical-align:center; align:center' src='img/fixation2_sml.jpg'></div><div class='arrayDiv3'><div class='tl'><img class='introPic' src='trustrating_stim/white_mw012.bmp'><br><font color='green'><strong>Share</strong></font></div><div class='tc'><img class='introPic' src='trustrating_stim/white_mw070.bmp'><br><font color='green'><strong>Share</strong></font></div><div class='tr'><img class='introPic' src='trustrating_stim/white_mw003.bmp'><br><font color='red'><strong>Keep</strong></font></div></div></div>","null","ARRAY","3","trustrating_stim/white_mw012.bmp,trustrating_stim/white_mw070.bmp,trustrating_stim/white_mw003.bmp","1,1,0","noMatchOutcome","i","4500","","","","",""
"html-keyboard-response","31","137759","0.0-5.0-3.5","6108cd48a97ffccb0e7e518c","bdp_wmem","Wed Mar 15 2023 15:19:26 GMT-0400 (Eastern Daylight Time)","635020","Match,No Match","","null","","","","","","<div class='trialBorder'><div class='vertical-center'><img src='img/fixation2_sml.jpg'</img></div></div>","null","DELAY","","","","","","","","","","",""
"html-keyboard-response","32","143289","0.0-5.0-4.5","6108cd48a97ffccb0e7e518c","bdp_wmem","Wed Mar 15 2023 15:19:26 GMT-0400 (Eastern Daylight Time)","635020","Match,No Match","","5527","","","","","","<div class='trialBorder'><div class='targDiv'><div class='tc'><img class='introPic' src='trustrating_stim/white_mw070.bmp'><br><font color='red'><strong>Keep</strong></font></div></div><div class='respDiv'><div class='respDivL'>Match<br>(e)</div><div class='respDivR'>No Match<br>(i)</div></div></div>","i","TARGET","3","trustrating_stim/white_mw012.bmp,trustrating_stim/white_mw070.bmp,trustrating_stim/white_mw003.bmp","1,1,0","noMatchOutcome","i","4500","trustrating_stim/white_mw070.bmp","red","Keep","PRACTICE","1"
"html-keyboard-response","33","143794","0.0-5.0-5.5","6108cd48a97ffccb0e7e518c","bdp_wmem","Wed Mar 15 2023 15:19:26 GMT-0400 (Eastern Daylight Time)","635020","Match,No Match","","null","","","","","","<div class='trialBorder'><div class='vertical-center'><img src='img/correct.jpg'></div><div class='respDiv'><div class='respDivL'>Match<br>(e)</div><div class='respDivR'><font style='color:orange'>No Match<br>(i)</font></div></div></div>","null","FEEDBACK","","","","","","","","","","",""
"instructions","34","148051","0.0-6.0","6108cd48a97ffccb0e7e518c","bdp_wmem","Wed Mar 15 2023 15:19:26 GMT-0400 (Eastern Daylight Time)","635020","Match,No Match","[{""page_index"":0,""viewing_time"":4256}]","4256","","","","","","","","","","","","","","","","","","",""
"html-keyboard-response","35","148560","0.0-7.0-1.0","6108cd48a97ffccb0e7e518c","bdp_wmem","Wed Mar 15 2023 15:19:26 GMT-0400 (Eastern Daylight Time)","635020","Match,No Match","","null","","","","","","<div class='trialBorder'><div class='vertical-center'><img src='img/fixation2_sml.jpg'</img></div></div>","null","FIX","","","","","","","","","","",""
"html-keyboard-response","36","151567","0.0-7.0-2.0","6108cd48a97ffccb0e7e518c","bdp_wmem","Wed Mar 15 2023 15:19:26 GMT-0400 (Eastern Daylight Time)","635020","Match,No Match","","null","","","","","","<div class='trialBorder'><div class='vertical-center'><img style='vertical-align:center; align:center' src='img/fixation2_sml.jpg'></div><div class='arrayDiv2'><div class='tl'><img class='introPic' src='trustrating_stim/white_mw085.bmp'><br><font color='green'><strong>Share</strong></font></div><div class='tr'><img class='introPic' src='trustrating_stim/white_mw091.bmp'><br><font color='red'><strong>Keep</strong></font></div></div></div>","null","ARRAY","2","trustrating_stim/white_mw085.bmp,trustrating_stim/white_mw091.bmp","1,0","Match","e","3000","","","","",""
"html-keyboard-response","37","155578","0.0-7.0-3.0","6108cd48a97ffccb0e7e518c","bdp_wmem","Wed Mar 15 2023 15:19:26 GMT-0400 (Eastern Daylight Time)","635020","Match,No Match","","null","","","","","","<div class='trialBorder'><div class='vertical-center'><img src='img/fixation2_sml.jpg'</img></div></div>","null","DELAY","","","","","","","","","","",""
"html-keyboard-response","38","157272","0.0-7.0-4.0","6108cd48a97ffccb0e7e518c","bdp_wmem","Wed Mar 15 2023 15:19:26 GMT-0400 (Eastern Daylight Time)","635020","Match,No Match","","1692","","","","","","<div class='trialBorder'><div class='targDiv'><div class='tc'><img class='introPic' src='trustrating_stim/white_mw085.bmp'><br><font color='green'><strong>Share</strong></font></div></div><div class='respDiv'><div class='respDivL'>Match<br>(e)</div><div class='respDivR'>No Match<br>(i)</div></div></div>","e","TARGET","2","trustrating_stim/white_mw085.bmp,trustrating_stim/white_mw091.bmp","1,0","Match","e","3000","trustrating_stim/white_mw085.bmp","green","Share","REAL","1"
"html-keyboard-response","39","157774","0.0-7.0-5.0","6108cd48a97ffccb0e7e518c","bdp_wmem","Wed Mar 15 2023 15:19:26 GMT-0400 (Eastern Daylight Time)","635020","Match,No Match","","null","","","","","","<div class='trialBorder'><div class='vertical-center'><img src='img/correct.jpg'></div><div class='respDiv'><div class='respDivL'><font style='color:orange'>Match<br>(e)</font></div><div class='respDivR'>No Match<br>(i)</div></div></div>","null","FEEDBACK","","","","","","","","","","",""
"html-keyboard-response","40","158279","0.0-7.0-1.1","6108cd48a97ffccb0e7e518c","bdp_wmem","Wed Mar 15 2023 15:19:26 GMT-0400 (Eastern Daylight Time)","635020","Match,No Match","","null","","","","","","<div class='trialBorder'><div class='vertical-center'><img src='img/fixation2_sml.jpg'</img></div></div>","null","FIX","","","","","","","","","","",""
"html-keyboard-response","41","162782","0.0-7.0-2.1","6108cd48a97ffccb0e7e518c","bdp_wmem","Wed Mar 15 2023 15:19:26 GMT-0400 (Eastern Daylight Time)","635020","Match,No Match","","null","","","","","","<div class='trialBorder'><div class='vertical-center'><img style='vertical-align:center; align:center' src='img/fixation2_sml.jpg'></div><div class='arrayDiv3'><div class='tl'><img class='introPic' src='trustrating_stim/white_mw012.bmp'><br><font color='green'><strong>Share</strong></font></div><div class='tc'><img class='introPic' src='trustrating_stim/white_mw078.bmp'><br><font color='green'><strong>Share</strong></font></div><div class='tr'><img class='introPic' src='trustrating_stim/white_mw040.bmp'><br><font color='red'><strong>Keep</strong></font></div></div></div>","null","ARRAY","3","trustrating_stim/white_mw012.bmp,trustrating_stim/white_mw078.bmp,trustrating_stim/white_mw040.bmp","1,1,0","Match","e","4500","","","","",""
"html-keyboard-response","42","166792","0.0-7.0-3.1","6108cd48a97ffccb0e7e518c","bdp_wmem","Wed Mar 15 2023 15:19:26 GMT-0400 (Eastern Daylight Time)","635020","Match,No Match","","null","","","","","","<div class='trialBorder'><div class='vertical-center'><img src='img/fixation2_sml.jpg'</img></div></div>","null","DELAY","","","","","","","","","","",""
"html-keyboard-response","43","174864","0.0-7.0-4.1","6108cd48a97ffccb0e7e518c","bdp_wmem","Wed Mar 15 2023 15:19:26 GMT-0400 (Eastern Daylight Time)","635020","Match,No Match","","8069","","","","","","<div class='trialBorder'><div class='targDiv'><div class='tc'><img class='introPic' src='trustrating_stim/white_mw040.bmp'><br><font color='red'><strong>Keep</strong></font></div></div><div class='respDiv'><div class='respDivL'>Match<br>(e)</div><div class='respDivR'>No Match<br>(i)</div></div></div>","e","TARGET","3","trustrating_stim/white_mw012.bmp,trustrating_stim/white_mw078.bmp,trustrating_stim/white_mw040.bmp","1,1,0","Match","e","4500","trustrating_stim/white_mw040.bmp","red","Keep","REAL","1"
"html-keyboard-response","44","175373","0.0-7.0-5.1","6108cd48a97ffccb0e7e518c","bdp_wmem","Wed Mar 15 2023 15:19:26 GMT-0400 (Eastern Daylight Time)","635020","Match,No Match","","null","","","","","","<div class='trialBorder'><div class='vertical-center'><img src='img/correct.jpg'></div><div class='respDiv'><div class='respDivL'><font style='color:orange'>Match<br>(e)</font></div><div class='respDivR'>No Match<br>(i)</div></div></div>","null","FEEDBACK","","","","","","","","","","",""
"html-keyboard-response","45","175877","0.0-7.0-1.2","6108cd48a97ffccb0e7e518c","bdp_wmem","Wed Mar 15 2023 15:19:26 GMT-0400 (Eastern Daylight Time)","635020","Match,No Match","","null","","","","","","<div class='trialBorder'><div class='vertical-center'><img src='img/fixation2_sml.jpg'</img></div></div>","null","FIX","","","","","","","","","","",""
"html-keyboard-response","46","178885","0.0-7.0-2.2","6108cd48a97ffccb0e7e518c","bdp_wmem","Wed Mar 15 2023 15:19:26 GMT-0400 (Eastern Daylight Time)","635020","Match,No Match","","null","","","","","","<div class='trialBorder'><div class='vertical-center'><img style='vertical-align:center; align:center' src='img/fixation2_sml.jpg'></div><div class='arrayDiv2'><div class='tl'><img class='introPic' src='trustrating_stim/white_mw010.bmp'><br><font color='red'><strong>Keep</strong></font></div><div class='tr'><img class='introPic' src='trustrating_stim/white_mw078.bmp'><br><font color='green'><strong>Share</strong></font></div></div></div>","null","ARRAY","2","trustrating_stim/white_mw010.bmp,trustrating_stim/white_mw078.bmp","0,1","Match","e","3000","","","","",""
"html-keyboard-response","47","182895","0.0-7.0-3.2","6108cd48a97ffccb0e7e518c","bdp_wmem","Wed Mar 15 2023 15:19:26 GMT-0400 (Eastern Daylight Time)","635020","Match,No Match","","null","","","","","","<div class='trialBorder'><div class='vertical-center'><img src='img/fixation2_sml.jpg'</img></div></div>","null","DELAY","","","","","","","","","","",""
"html-keyboard-response","48","185486","0.0-7.0-4.2","6108cd48a97ffccb0e7e518c","bdp_wmem","Wed Mar 15 2023 15:19:26 GMT-0400 (Eastern Daylight Time)","635020","Match,No Match","","2589","","","","","","<div class='trialBorder'><div class='targDiv'><div class='tc'><img class='introPic' src='trustrating_stim/white_mw010.bmp'><br><font color='red'><strong>Keep</strong></font></div></div><div class='respDiv'><div class='respDivL'>Match<br>(e)</div><div class='respDivR'>No Match<br>(i)</div></div></div>","i","TARGET","2","trustrating_stim/white_mw010.bmp,trustrating_stim/white_mw078.bmp","0,1","Match","e","3000","trustrating_stim/white_mw010.bmp","red","Keep","REAL","0"
"html-keyboard-response","49","185989","0.0-7.0-5.2","6108cd48a97ffccb0e7e518c","bdp_wmem","Wed Mar 15 2023 15:19:26 GMT-0400 (Eastern Daylight Time)","635020","Match,No Match","","null","","","","","","<div class='trialBorder'><div class='vertical-center'><img src='img/error.jpg'></div><div class='respDiv'><div class='respDivL'>Match<br>(e)</div><div class='respDivR'><font style='color:orange'>No Match<br>(i)</font></div></div></div>","null","FEEDBACK","","","","","","","","","","",""
"html-keyboard-response","50","186494","0.0-7.0-1.3","6108cd48a97ffccb0e7e518c","bdp_wmem","Wed Mar 15 2023 15:19:26 GMT-0400 (Eastern Daylight Time)","635020","Match,No Match","","null","","","","","","<div class='trialBorder'><div class='vertical-center'><img src='img/fixation2_sml.jpg'</img></div></div>","null","FIX","","","","","","","","","","",""
"html-keyboard-response","51","189501","0.0-7.0-2.3","6108cd48a97ffccb0e7e518c","bdp_wmem","Wed Mar 15 2023 15:19:26 GMT-0400 (Eastern Daylight Time)","635020","Match,No Match","","null","","","","","","<div class='trialBorder'><div class='vertical-center'><img style='vertical-align:center; align:center' src='img/fixation2_sml.jpg'></div><div class='arrayDiv2'><div class='tl'><img class='introPic' src='trustrating_stim/white_mw092.bmp'><br><font color='green'><strong>Share</strong></font></div><div class='tr'><img class='introPic' src='trustrating_stim/white_mw085.bmp'><br><font color='red'><strong>Keep</strong></font></div></div></div>","null","ARRAY","2","trustrating_stim/white_mw092.bmp,trustrating_stim/white_mw085.bmp","1,0","Match","e","3000","","","","",""
"html-keyboard-response","52","193511","0.0-7.0-3.3","6108cd48a97ffccb0e7e518c","bdp_wmem","Wed Mar 15 2023 15:19:26 GMT-0400 (Eastern Daylight Time)","635020","Match,No Match","","null","","","","","","<div class='trialBorder'><div class='vertical-center'><img src='img/fixation2_sml.jpg'</img></div></div>","null","DELAY","","","","","","","","","","",""
"html-keyboard-response","53","198081","0.0-7.0-4.3","6108cd48a97ffccb0e7e518c","bdp_wmem","Wed Mar 15 2023 15:19:26 GMT-0400 (Eastern Daylight Time)","635020","Match,No Match","","4568","","","","","","<div class='trialBorder'><div class='targDiv'><div class='tc'><img class='introPic' src='trustrating_stim/white_mw092.bmp'><br><font color='green'><strong>Share</strong></font></div></div><div class='respDiv'><div class='respDivL'>Match<br>(e)</div><div class='respDivR'>No Match<br>(i)</div></div></div>","e","TARGET","2","trustrating_stim/white_mw092.bmp,trustrating_stim/white_mw085.bmp","1,0","Match","e","3000","trustrating_stim/white_mw092.bmp","green","Share","REAL","1"
"html-keyboard-response","54","198589","0.0-7.0-5.3","6108cd48a97ffccb0e7e518c","bdp_wmem","Wed Mar 15 2023 15:19:26 GMT-0400 (Eastern Daylight Time)","635020","Match,No Match","","null","","","","","","<div class='trialBorder'><div class='vertical-center'><img src='img/correct.jpg'></div><div class='respDiv'><div class='respDivL'><font style='color:orange'>Match<br>(e)</font></div><div class='respDivR'>No Match<br>(i)</div></div></div>","null","FEEDBACK","","","","","","","","","","",""
"html-keyboard-response","55","199096","0.0-7.0-1.4","6108cd48a97ffccb0e7e518c","bdp_wmem","Wed Mar 15 2023 15:19:26 GMT-0400 (Eastern Daylight Time)","635020","Match,No Match","","null","","","","","","<div class='trialBorder'><div class='vertical-center'><img src='img/fixation2_sml.jpg'</img></div></div>","null","FIX","","","","","","","","","","",""
"html-keyboard-response","56","202103","0.0-7.0-2.4","6108cd48a97ffccb0e7e518c","bdp_wmem","Wed Mar 15 2023 15:19:26 GMT-0400 (Eastern Daylight Time)","635020","Match,No Match","","null","","","","","","<div class='trialBorder'><div class='vertical-center'><img style='vertical-align:center; align:center' src='img/fixation2_sml.jpg'></div><div class='arrayDiv2'><div class='tl'><img class='introPic' src='trustrating_stim/white_mw070.bmp'><br><font color='green'><strong>Share</strong></font></div><div class='tr'><img class='introPic' src='trustrating_stim/white_mw040.bmp'><br><font color='red'><strong>Keep</strong></font></div></div></div>","null","ARRAY","2","trustrating_stim/white_mw070.bmp,trustrating_stim/white_mw040.bmp","1,0","Match","e","3000","","","","",""
"html-keyboard-response","57","206108","0.0-7.0-3.4","6108cd48a97ffccb0e7e518c","bdp_wmem","Wed Mar 15 2023 15:19:26 GMT-0400 (Eastern Daylight Time)","635020","Match,No Match","","null","","","","","","<div class='trialBorder'><div class='vertical-center'><img src='img/fixation2_sml.jpg'</img></div></div>","null","DELAY","","","","","","","","","","",""
"html-keyboard-response","58","210330","0.0-7.0-4.4","6108cd48a97ffccb0e7e518c","bdp_wmem","Wed Mar 15 2023 15:19:26 GMT-0400 (Eastern Daylight Time)","635020","Match,No Match","","4220","","","","","","<div class='trialBorder'><div class='targDiv'><div class='tc'><img class='introPic' src='trustrating_stim/white_mw040.bmp'><br><font color='red'><strong>Keep</strong></font></div></div><div class='respDiv'><div class='respDivL'>Match<br>(e)</div><div class='respDivR'>No Match<br>(i)</div></div></div>","e","TARGET","2","trustrating_stim/white_mw070.bmp,trustrating_stim/white_mw040.bmp","1,0","Match","e","3000","trustrating_stim/white_mw040.bmp","red","Keep","REAL","1"
"html-keyboard-response","59","210839","0.0-7.0-5.4","6108cd48a97ffccb0e7e518c","bdp_wmem","Wed Mar 15 2023 15:19:26 GMT-0400 (Eastern Daylight Time)","635020","Match,No Match","","null","","","","","","<div class='trialBorder'><div class='vertical-center'><img src='img/correct.jpg'></div><div class='respDiv'><div class='respDivL'><font style='color:orange'>Match<br>(e)</font></div><div class='respDivR'>No Match<br>(i)</div></div></div>","null","FEEDBACK","","","","","","","","","","",""
"html-keyboard-response","60","211348","0.0-7.0-1.5","6108cd48a97ffccb0e7e518c","bdp_wmem","Wed Mar 15 2023 15:19:26 GMT-0400 (Eastern Daylight Time)","635020","Match,No Match","","null","","","","","","<div class='trialBorder'><div class='vertical-center'><img src='img/fixation2_sml.jpg'</img></div></div>","null","FIX","","","","","","","","","","",""
"html-keyboard-response","61","212853","0.0-7.0-2.5","6108cd48a97ffccb0e7e518c","bdp_wmem","Wed Mar 15 2023 15:19:26 GMT-0400 (Eastern Daylight Time)","635020","Match,No Match","","null","","","","","","<div class='trialBorder'><div class='vertical-center'><img style='vertical-align:center; align:center' src='img/fixation2_sml.jpg'></div><div class='arrayDiv1'><div class='tc'><img class='introPic' src='trustrating_stim/white_mw013.bmp'><br><font color='red'><strong>Keep</strong></font></div></div></div>","null","ARRAY","1","trustrating_stim/white_mw013.bmp","0","Match","e","1500","","","","",""
"html-keyboard-response","62","216860","0.0-7.0-3.5","6108cd48a97ffccb0e7e518c","bdp_wmem","Wed Mar 15 2023 15:19:26 GMT-0400 (Eastern Daylight Time)","635020","Match,No Match","","null","","","","","","<div class='trialBorder'><div class='vertical-center'><img src='img/fixation2_sml.jpg'</img></div></div>","null","DELAY","","","","","","","","","","",""
"html-keyboard-response","63","218205","0.0-7.0-4.5","6108cd48a97ffccb0e7e518c","bdp_wmem","Wed Mar 15 2023 15:19:26 GMT-0400 (Eastern Daylight Time)","635020","Match,No Match","","1343","","","","","","<div class='trialBorder'><div class='targDiv'><div class='tc'><img class='introPic' src='trustrating_stim/white_mw013.bmp'><br><font color='red'><strong>Keep</strong></font></div></div><div class='respDiv'><div class='respDivL'>Match<br>(e)</div><div class='respDivR'>No Match<br>(i)</div></div></div>","e","TARGET","1","trustrating_stim/white_mw013.bmp","0","Match","e","1500","trustrating_stim/white_mw013.bmp","red","Keep","REAL","1"
"html-keyboard-response","64","218710","0.0-7.0-5.5","6108cd48a97ffccb0e7e518c","bdp_wmem","Wed Mar 15 2023 15:19:26 GMT-0400 (Eastern Daylight Time)","635020","Match,No Match","","null","","","","","","<div class='trialBorder'><div class='vertical-center'><img src='img/correct.jpg'></div><div class='respDiv'><div class='respDivL'><font style='color:orange'>Match<br>(e)</font></div><div class='respDivR'>No Match<br>(i)</div></div></div>","null","FEEDBACK","","","","","","","","","","",""
"html-keyboard-response","65","219221","0.0-7.0-1.6","6108cd48a97ffccb0e7e518c","bdp_wmem","Wed Mar 15 2023 15:19:26 GMT-0400 (Eastern Daylight Time)","635020","Match,No Match","","null","","","","","","<div class='trialBorder'><div class='vertical-center'><img src='img/fixation2_sml.jpg'</img></div></div>","null","FIX","","","","","","","","","","",""
"html-keyboard-response","66","222228","0.0-7.0-2.6","6108cd48a97ffccb0e7e518c","bdp_wmem","Wed Mar 15 2023 15:19:26 GMT-0400 (Eastern Daylight Time)","635020","Match,No Match","","null","","","","","","<div class='trialBorder'><div class='vertical-center'><img style='vertical-align:center; align:center' src='img/fixation2_sml.jpg'></div><div class='arrayDiv2'><div class='tl'><img class='introPic' src='trustrating_stim/white_mw012.bmp'><br><font color='green'><strong>Share</strong></font></div><div class='tr'><img class='introPic' src='trustrating_stim/white_mw040.bmp'><br><font color='red'><strong>Keep</strong></font></div></div></div>","null","ARRAY","2","trustrating_stim/white_mw012.bmp,trustrating_stim/white_mw040.bmp","1,0","noMatchFace","i","3000","","","","",""
"html-keyboard-response","67","226235","0.0-7.0-3.6","6108cd48a97ffccb0e7e518c","bdp_wmem","Wed Mar 15 2023 15:19:26 GMT-0400 (Eastern Daylight Time)","635020","Match,No Match","","null","","","","","","<div class='trialBorder'><div class='vertical-center'><img src='img/fixation2_sml.jpg'</img></div></div>","null","DELAY","","","","","","","","","","",""
"html-keyboard-response","68","229644","0.0-7.0-4.6","6108cd48a97ffccb0e7e518c","bdp_wmem","Wed Mar 15 2023 15:19:26 GMT-0400 (Eastern Daylight Time)","635020","Match,No Match","","3407","","","","","","<div class='trialBorder'><div class='targDiv'><div class='tc'><img class='introPic' src='trustrating_stim/white_mw092.bmp'><br><font color='red'><strong>Keep</strong></font></div></div><div class='respDiv'><div class='respDivL'>Match<br>(e)</div><div class='respDivR'>No Match<br>(i)</div></div></div>","i","TARGET","2","trustrating_stim/white_mw012.bmp,trustrating_stim/white_mw040.bmp","1,0","noMatchFace","i","3000","trustrating_stim/white_mw092.bmp","red","Keep","REAL","1"
"html-keyboard-response","69","230147","0.0-7.0-5.6","6108cd48a97ffccb0e7e518c","bdp_wmem","Wed Mar 15 2023 15:19:26 GMT-0400 (Eastern Daylight Time)","635020","Match,No Match","","null","","","","","","<div class='trialBorder'><div class='vertical-center'><img src='img/correct.jpg'></div><div class='respDiv'><div class='respDivL'>Match<br>(e)</div><div class='respDivR'><font style='color:orange'>No Match<br>(i)</font></div></div></div>","null","FEEDBACK","","","","","","","","","","",""
"html-keyboard-response","70","230650","0.0-7.0-1.7","6108cd48a97ffccb0e7e518c","bdp_wmem","Wed Mar 15 2023 15:19:26 GMT-0400 (Eastern Daylight Time)","635020","Match,No Match","","null","","","","","","<div class='trialBorder'><div class='vertical-center'><img src='img/fixation2_sml.jpg'</img></div></div>","null","FIX","","","","","","","","","","",""
"html-keyboard-response","71","233659","0.0-7.0-2.7","6108cd48a97ffccb0e7e518c","bdp_wmem","Wed Mar 15 2023 15:19:26 GMT-0400 (Eastern Daylight Time)","635020","Match,No Match","","null","","","","","","<div class='trialBorder'><div class='vertical-center'><img style='vertical-align:center; align:center' src='img/fixation2_sml.jpg'></div><div class='arrayDiv2'><div class='tl'><img class='introPic' src='trustrating_stim/white_mw091.bmp'><br><font color='green'><strong>Share</strong></font></div><div class='tr'><img class='introPic' src='trustrating_stim/white_mw010.bmp'><br><font color='red'><strong>Keep</strong></font></div></div></div>","null","ARRAY","2","trustrating_stim/white_mw091.bmp,trustrating_stim/white_mw010.bmp","1,0","Match","e","3000","","","","",""
"html-keyboard-response","72","237668","0.0-7.0-3.7","6108cd48a97ffccb0e7e518c","bdp_wmem","Wed Mar 15 2023 15:19:26 GMT-0400 (Eastern Daylight Time)","635020","Match,No Match","","null","","","","","","<div class='trialBorder'><div class='vertical-center'><img src='img/fixation2_sml.jpg'</img></div></div>","null","DELAY","","","","","","","","","","",""
"html-keyboard-response","73","239595","0.0-7.0-4.7","6108cd48a97ffccb0e7e518c","bdp_wmem","Wed Mar 15 2023 15:19:26 GMT-0400 (Eastern Daylight Time)","635020","Match,No Match","","1925","","","","","","<div class='trialBorder'><div class='targDiv'><div class='tc'><img class='introPic' src='trustrating_stim/white_mw010.bmp'><br><font color='red'><strong>Keep</strong></font></div></div><div class='respDiv'><div class='respDivL'>Match<br>(e)</div><div class='respDivR'>No Match<br>(i)</div></div></div>","e","TARGET","2","trustrating_stim/white_mw091.bmp,trustrating_stim/white_mw010.bmp","1,0","Match","e","3000","trustrating_stim/white_mw010.bmp","red","Keep","REAL","1"
"html-keyboard-response","74","240100","0.0-7.0-5.7","6108cd48a97ffccb0e7e518c","bdp_wmem","Wed Mar 15 2023 15:19:26 GMT-0400 (Eastern Daylight Time)","635020","Match,No Match","","null","","","","","","<div class='trialBorder'><div class='vertical-center'><img src='img/correct.jpg'></div><div class='respDiv'><div class='respDivL'><font style='color:orange'>Match<br>(e)</font></div><div class='respDivR'>No Match<br>(i)</div></div></div>","null","FEEDBACK","","","","","","","","","","",""
"html-keyboard-response","75","240611","0.0-7.0-1.8","6108cd48a97ffccb0e7e518c","bdp_wmem","Wed Mar 15 2023 15:19:26 GMT-0400 (Eastern Daylight Time)","635020","Match,No Match","","null","","","","","","<div class='trialBorder'><div class='vertical-center'><img src='img/fixation2_sml.jpg'</img></div></div>","null","FIX","","","","","","","","","","",""
"html-keyboard-response","76","243618","0.0-7.0-2.8","6108cd48a97ffccb0e7e518c","bdp_wmem","Wed Mar 15 2023 15:19:26 GMT-0400 (Eastern Daylight Time)","635020","Match,No Match","","null","","","","","","<div class='trialBorder'><div class='vertical-center'><img style='vertical-align:center; align:center' src='img/fixation2_sml.jpg'></div><div class='arrayDiv2'><div class='tl'><img class='introPic' src='trustrating_stim/white_mw040.bmp'><br><font color='green'><strong>Share</strong></font></div><div class='tr'><img class='introPic' src='trustrating_stim/white_mw092.bmp'><br><font color='red'><strong>Keep</strong></font></div></div></div>","null","ARRAY","2","trustrating_stim/white_mw040.bmp,trustrating_stim/white_mw092.bmp","1,0","Match","e","3000","","","","",""
"html-keyboard-response","77","247629","0.0-7.0-3.8","6108cd48a97ffccb0e7e518c","bdp_wmem","Wed Mar 15 2023 15:19:26 GMT-0400 (Eastern Daylight Time)","635020","Match,No Match","","null","","","","","","<div class='trialBorder'><div class='vertical-center'><img src='img/fixation2_sml.jpg'</img></div></div>","null","DELAY","","","","","","","","","","",""
"html-keyboard-response","78","249745","0.0-7.0-4.8","6108cd48a97ffccb0e7e518c","bdp_wmem","Wed Mar 15 2023 15:19:26 GMT-0400 (Eastern Daylight Time)","635020","Match,No Match","","2113","","","","","","<div class='trialBorder'><div class='targDiv'><div class='tc'><img class='introPic' src='trustrating_stim/white_mw092.bmp'><br><font color='red'><strong>Keep</strong></font></div></div><div class='respDiv'><div class='respDivL'>Match<br>(e)</div><div class='respDivR'>No Match<br>(i)</div></div></div>","e","TARGET","2","trustrating_stim/white_mw040.bmp,trustrating_stim/white_mw092.bmp","1,0","Match","e","3000","trustrating_stim/white_mw092.bmp","red","Keep","REAL","1"
"html-keyboard-response","79","250253","0.0-7.0-5.8","6108cd48a97ffccb0e7e518c","bdp_wmem","Wed Mar 15 2023 15:19:26 GMT-0400 (Eastern Daylight Time)","635020","Match,No Match","","null","","","","","","<div class='trialBorder'><div class='vertical-center'><img src='img/correct.jpg'></div><div class='respDiv'><div class='respDivL'><font style='color:orange'>Match<br>(e)</font></div><div class='respDivR'>No Match<br>(i)</div></div></div>","null","FEEDBACK","","","","","","","","","","",""
"html-keyboard-response","80","250763","0.0-7.0-1.9","6108cd48a97ffccb0e7e518c","bdp_wmem","Wed Mar 15 2023 15:19:26 GMT-0400 (Eastern Daylight Time)","635020","Match,No Match","","null","","","","","","<div class='trialBorder'><div class='vertical-center'><img src='img/fixation2_sml.jpg'</img></div></div>","null","FIX","","","","","","","","","","",""
"html-keyboard-response","81","253770","0.0-7.0-2.9","6108cd48a97ffccb0e7e518c","bdp_wmem","Wed Mar 15 2023 15:19:26 GMT-0400 (Eastern Daylight Time)","635020","Match,No Match","","null","","","","","","<div class='trialBorder'><div class='vertical-center'><img style='vertical-align:center; align:center' src='img/fixation2_sml.jpg'></div><div class='arrayDiv2'><div class='tl'><img class='introPic' src='trustrating_stim/white_mw091.bmp'><br><font color='red'><strong>Keep</strong></font></div><div class='tr'><img class='introPic' src='trustrating_stim/white_mw013.bmp'><br><font color='green'><strong>Share</strong></font></div></div></div>","null","ARRAY","2","trustrating_stim/white_mw091.bmp,trustrating_stim/white_mw013.bmp","0,1","noMatchOutcome","i","3000","","","","",""
"html-keyboard-response","82","257777","0.0-7.0-3.9","6108cd48a97ffccb0e7e518c","bdp_wmem","Wed Mar 15 2023 15:19:26 GMT-0400 (Eastern Daylight Time)","635020","Match,No Match","","null","","","","","","<div class='trialBorder'><div class='vertical-center'><img src='img/fixation2_sml.jpg'</img></div></div>","null","DELAY","","","","","","","","","","",""
"html-keyboard-response","83","260037","0.0-7.0-4.9","6108cd48a97ffccb0e7e518c","bdp_wmem","Wed Mar 15 2023 15:19:26 GMT-0400 (Eastern Daylight Time)","635020","Match,No Match","","2257","","","","","","<div class='trialBorder'><div class='targDiv'><div class='tc'><img class='introPic' src='trustrating_stim/white_mw091.bmp'><br><font color='green'><strong>Share</strong></font></div></div><div class='respDiv'><div class='respDivL'>Match<br>(e)</div><div class='respDivR'>No Match<br>(i)</div></div></div>","i","TARGET","2","trustrating_stim/white_mw091.bmp,trustrating_stim/white_mw013.bmp","0,1","noMatchOutcome","i","3000","trustrating_stim/white_mw091.bmp","green","Share","REAL","1"
"html-keyboard-response","84","260539","0.0-7.0-5.9","6108cd48a97ffccb0e7e518c","bdp_wmem","Wed Mar 15 2023 15:19:26 GMT-0400 (Eastern Daylight Time)","635020","Match,No Match","","null","","","","","","<div class='trialBorder'><div class='vertical-center'><img src='img/correct.jpg'></div><div class='respDiv'><div class='respDivL'>Match<br>(e)</div><div class='respDivR'><font style='color:orange'>No Match<br>(i)</font></div></div></div>","null","FEEDBACK","","","","","","","","","","",""
"html-keyboard-response","85","261044","0.0-7.0-1.10","6108cd48a97ffccb0e7e518c","bdp_wmem","Wed Mar 15 2023 15:19:26 GMT-0400 (Eastern Daylight Time)","635020","Match,No Match","","null","","","","","","<div class='trialBorder'><div class='vertical-center'><img src='img/fixation2_sml.jpg'</img></div></div>","null","FIX","","","","","","","","","","",""
"html-keyboard-response","86","265554","0.0-7.0-2.10","6108cd48a97ffccb0e7e518c","bdp_wmem","Wed Mar 15 2023 15:19:26 GMT-0400 (Eastern Daylight Time)","635020","Match,No Match","","null","","","","","","<div class='trialBorder'><div class='vertical-center'><img style='vertical-align:center; align:center' src='img/fixation2_sml.jpg'></div><div class='arrayDiv3'><div class='tl'><img class='introPic' src='trustrating_stim/white_mw042.bmp'><br><font color='green'><strong>Share</strong></font></div><div class='tc'><img class='introPic' src='trustrating_stim/white_mw013.bmp'><br><font color='green'><strong>Share</strong></font></div><div class='tr'><img class='introPic' src='trustrating_stim/white_mw010.bmp'><br><font color='red'><strong>Keep</strong></font></div></div></div>","null","ARRAY","3","trustrating_stim/white_mw042.bmp,trustrating_stim/white_mw013.bmp,trustrating_stim/white_mw010.bmp","1,1,0","noMatchFace","i","4500","","","","",""
"html-keyboard-response","87","269561","0.0-7.0-3.10","6108cd48a97ffccb0e7e518c","bdp_wmem","Wed Mar 15 2023 15:19:26 GMT-0400 (Eastern Daylight Time)","635020","Match,No Match","","null","","","","","","<div class='trialBorder'><div class='vertical-center'><img src='img/fixation2_sml.jpg'</img></div></div>","null","DELAY","","","","","","","","","","",""
"html-keyboard-response","88","272238","0.0-7.0-4.10","6108cd48a97ffccb0e7e518c","bdp_wmem","Wed Mar 15 2023 15:19:26 GMT-0400 (Eastern Daylight Time)","635020","Match,No Match","","2675","","","","","","<div class='trialBorder'><div class='targDiv'><div class='tc'><img class='introPic' src='trustrating_stim/white_mw012.bmp'><br><font color='green'><strong>Share</strong></font></div></div><div class='respDiv'><div class='respDivL'>Match<br>(e)</div><div class='respDivR'>No Match<br>(i)</div></div></div>","i","TARGET","3","trustrating_stim/white_mw042.bmp,trustrating_stim/white_mw013.bmp,trustrating_stim/white_mw010.bmp","1,1,0","noMatchFace","i","4500","trustrating_stim/white_mw012.bmp","green","Share","REAL","1"
"html-keyboard-response","89","272746","0.0-7.0-5.10","6108cd48a97ffccb0e7e518c","bdp_wmem","Wed Mar 15 2023 15:19:26 GMT-0400 (Eastern Daylight Time)","635020","Match,No Match","","null","","","","","","<div class='trialBorder'><div class='vertical-center'><img src='img/correct.jpg'></div><div class='respDiv'><div class='respDivL'>Match<br>(e)</div><div class='respDivR'><font style='color:orange'>No Match<br>(i)</font></div></div></div>","null","FEEDBACK","","","","","","","","","","",""
"html-keyboard-response","90","273251","0.0-7.0-1.11","6108cd48a97ffccb0e7e518c","bdp_wmem","Wed Mar 15 2023 15:19:26 GMT-0400 (Eastern Daylight Time)","635020","Match,No Match","","null","","","","","","<div class='trialBorder'><div class='vertical-center'><img src='img/fixation2_sml.jpg'</img></div></div>","null","FIX","","","","","","","","","","",""
"html-keyboard-response","91","274760","0.0-7.0-2.11","6108cd48a97ffccb0e7e518c","bdp_wmem","Wed Mar 15 2023 15:19:26 GMT-0400 (Eastern Daylight Time)","635020","Match,No Match","","null","","","","","","<div class='trialBorder'><div class='vertical-center'><img style='vertical-align:center; align:center' src='img/fixation2_sml.jpg'></div><div class='arrayDiv1'><div class='tc'><img class='introPic' src='trustrating_stim/white_mw038.bmp'><br><font color='red'><strong>Keep</strong></font></div></div></div>","null","ARRAY","1","trustrating_stim/white_mw038.bmp","0","Match","e","1500","","","","",""
"html-keyboard-response","92","278771","0.0-7.0-3.11","6108cd48a97ffccb0e7e518c","bdp_wmem","Wed Mar 15 2023 15:19:26 GMT-0400 (Eastern Daylight Time)","635020","Match,No Match","","null","","","","","","<div class='trialBorder'><div class='vertical-center'><img src='img/fixation2_sml.jpg'</img></div></div>","null","DELAY","","","","","","","","","","",""
"html-keyboard-response","93","280034","0.0-7.0-4.11","6108cd48a97ffccb0e7e518c","bdp_wmem","Wed Mar 15 2023 15:19:26 GMT-0400 (Eastern Daylight Time)","635020","Match,No Match","","1260","","","","","","<div class='trialBorder'><div class='targDiv'><div class='tc'><img class='introPic' src='trustrating_stim/white_mw038.bmp'><br><font color='red'><strong>Keep</strong></font></div></div><div class='respDiv'><div class='respDivL'>Match<br>(e)</div><div class='respDivR'>No Match<br>(i)</div></div></div>","e","TARGET","1","trustrating_stim/white_mw038.bmp","0","Match","e","1500","trustrating_stim/white_mw038.bmp","red","Keep","REAL","1"
"html-keyboard-response","94","280537","0.0-7.0-5.11","6108cd48a97ffccb0e7e518c","bdp_wmem","Wed Mar 15 2023 15:19:26 GMT-0400 (Eastern Daylight Time)","635020","Match,No Match","","null","","","","","","<div class='trialBorder'><div class='vertical-center'><img src='img/correct.jpg'></div><div class='respDiv'><div class='respDivL'><font style='color:orange'>Match<br>(e)</font></div><div class='respDivR'>No Match<br>(i)</div></div></div>","null","FEEDBACK","","","","","","","","","","",""
"html-keyboard-response","95","281041","0.0-7.0-1.12","6108cd48a97ffccb0e7e518c","bdp_wmem","Wed Mar 15 2023 15:19:26 GMT-0400 (Eastern Daylight Time)","635020","Match,No Match","","null","","","","","","<div class='trialBorder'><div class='vertical-center'><img src='img/fixation2_sml.jpg'</img></div></div>","null","FIX","","","","","","","","","","",""
"html-keyboard-response","96","285545","0.0-7.0-2.12","6108cd48a97ffccb0e7e518c","bdp_wmem","Wed Mar 15 2023 15:19:26 GMT-0400 (Eastern Daylight Time)","635020","Match,No Match","","null","","","","","","<div class='trialBorder'><div class='vertical-center'><img style='vertical-align:center; align:center' src='img/fixation2_sml.jpg'></div><div class='arrayDiv3'><div class='tl'><img class='introPic' src='trustrating_stim/white_mw070.bmp'><br><font color='green'><strong>Share</strong></font></div><div class='tc'><img class='introPic' src='trustrating_stim/white_mw013.bmp'><br><font color='green'><strong>Share</strong></font></div><div class='tr'><img class='introPic' src='trustrating_stim/white_mw092.bmp'><br><font color='red'><strong>Keep</strong></font></div></div></div>","null","ARRAY","3","trustrating_stim/white_mw070.bmp,trustrating_stim/white_mw013.bmp,trustrating_stim/white_mw092.bmp","1,1,0","noMatchFace","i","4500","","","","",""
"html-keyboard-response","97","289553","0.0-7.0-3.12","6108cd48a97ffccb0e7e518c","bdp_wmem","Wed Mar 15 2023 15:19:26 GMT-0400 (Eastern Daylight Time)","635020","Match,No Match","","null","","","","","","<div class='trialBorder'><div class='vertical-center'><img src='img/fixation2_sml.jpg'</img></div></div>","null","DELAY","","","","","","","","","","",""
"html-keyboard-response","98","291887","0.0-7.0-4.12","6108cd48a97ffccb0e7e518c","bdp_wmem","Wed Mar 15 2023 15:19:26 GMT-0400 (Eastern Daylight Time)","635020","Match,No Match","","2332","","","","","","<div class='trialBorder'><div class='targDiv'><div class='tc'><img class='introPic' src='trustrating_stim/white_mw010.bmp'><br><font color='green'><strong>Share</strong></font></div></div><div class='respDiv'><div class='respDivL'>Match<br>(e)</div><div class='respDivR'>No Match<br>(i)</div></div></div>","i","TARGET","3","trustrating_stim/white_mw070.bmp,trustrating_stim/white_mw013.bmp,trustrating_stim/white_mw092.bmp","1,1,0","noMatchFace","i","4500","trustrating_stim/white_mw010.bmp","green","Share","REAL","1"
"html-keyboard-response","99","292395","0.0-7.0-5.12","6108cd48a97ffccb0e7e518c","bdp_wmem","Wed Mar 15 2023 15:19:26 GMT-0400 (Eastern Daylight Time)","635020","Match,No Match","","null","","","","","","<div class='trialBorder'><div class='vertical-center'><img src='img/correct.jpg'></div><div class='respDiv'><div class='respDivL'>Match<br>(e)</div><div class='respDivR'><font style='color:orange'>No Match<br>(i)</font></div></div></div>","null","FEEDBACK","","","","","","","","","","",""
"html-keyboard-response","100","292905","0.0-7.0-1.13","6108cd48a97ffccb0e7e518c","bdp_wmem","Wed Mar 15 2023 15:19:26 GMT-0400 (Eastern Daylight Time)","635020","Match,No Match","","null","","","","","","<div class='trialBorder'><div class='vertical-center'><img src='img/fixation2_sml.jpg'</img></div></div>","null","FIX","","","","","","","","","","",""
"html-keyboard-response","101","294409","0.0-7.0-2.13","6108cd48a97ffccb0e7e518c","bdp_wmem","Wed Mar 15 2023 15:19:26 GMT-0400 (Eastern Daylight Time)","635020","Match,No Match","","null","","","","","","<div class='trialBorder'><div class='vertical-center'><img style='vertical-align:center; align:center' src='img/fixation2_sml.jpg'></div><div class='arrayDiv1'><div class='tc'><img class='introPic' src='trustrating_stim/white_mw091.bmp'><br><font color='red'><strong>Keep</strong></font></div></div></div>","null","ARRAY","1","trustrating_stim/white_mw091.bmp","0","noMatchFace","i","1500","","","","",""
"html-keyboard-response","102","298420","0.0-7.0-3.13","6108cd48a97ffccb0e7e518c","bdp_wmem","Wed Mar 15 2023 15:19:26 GMT-0400 (Eastern Daylight Time)","635020","Match,No Match","","null","","","","","","<div class='trialBorder'><div class='vertical-center'><img src='img/fixation2_sml.jpg'</img></div></div>","null","DELAY","","","","","","","","","","",""
"html-keyboard-response","103","300013","0.0-7.0-4.13","6108cd48a97ffccb0e7e518c","bdp_wmem","Wed Mar 15 2023 15:19:26 GMT-0400 (Eastern Daylight Time)","635020","Match,No Match","","1590","","","","","","<div class='trialBorder'><div class='targDiv'><div class='tc'><img class='introPic' src='trustrating_stim/white_mw078.bmp'><br><font color='red'><strong>Keep</strong></font></div></div><div class='respDiv'><div class='respDivL'>Match<br>(e)</div><div class='respDivR'>No Match<br>(i)</div></div></div>","i","TARGET","1","trustrating_stim/white_mw091.bmp","0","noMatchFace","i","1500","trustrating_stim/white_mw078.bmp","red","Keep","REAL","1"
"html-keyboard-response","104","300516","0.0-7.0-5.13","6108cd48a97ffccb0e7e518c","bdp_wmem","Wed Mar 15 2023 15:19:26 GMT-0400 (Eastern Daylight Time)","635020","Match,No Match","","null","","","","","","<div class='trialBorder'><div class='vertical-center'><img src='img/correct.jpg'></div><div class='respDiv'><div class='respDivL'>Match<br>(e)</div><div class='respDivR'><font style='color:orange'>No Match<br>(i)</font></div></div></div>","null","FEEDBACK","","","","","","","","","","",""
"html-keyboard-response","105","301027","0.0-7.0-1.14","6108cd48a97ffccb0e7e518c","bdp_wmem","Wed Mar 15 2023 15:19:26 GMT-0400 (Eastern Daylight Time)","635020","Match,No Match","","null","","","","","","<div class='trialBorder'><div class='vertical-center'><img src='img/fixation2_sml.jpg'</img></div></div>","null","FIX","","","","","","","","","","",""
"html-keyboard-response","106","305537","0.0-7.0-2.14","6108cd48a97ffccb0e7e518c","bdp_wmem","Wed Mar 15 2023 15:19:26 GMT-0400 (Eastern Daylight Time)","635020","Match,No Match","","null","","","","","","<div class='trialBorder'><div class='vertical-center'><img style='vertical-align:center; align:center' src='img/fixation2_sml.jpg'></div><div class='arrayDiv3'><div class='tl'><img class='introPic' src='trustrating_stim/white_mw078.bmp'><br><font color='green'><strong>Share</strong></font></div><div class='tc'><img class='introPic' src='trustrating_stim/white_mw070.bmp'><br><font color='green'><strong>Share</strong></font></div><div class='tr'><img class='introPic' src='trustrating_stim/white_mw038.bmp'><br><font color='red'><strong>Keep</strong></font></div></div></div>","null","ARRAY","3","trustrating_stim/white_mw078.bmp,trustrating_stim/white_mw070.bmp,trustrating_stim/white_mw038.bmp","1,1,0","Match","e","4500","","","","",""
"html-keyboard-response","107","309544","0.0-7.0-3.14","6108cd48a97ffccb0e7e518c","bdp_wmem","Wed Mar 15 2023 15:19:26 GMT-0400 (Eastern Daylight Time)","635020","Match,No Match","","null","","","","","","<div class='trialBorder'><div class='vertical-center'><img src='img/fixation2_sml.jpg'</img></div></div>","null","DELAY","","","","","","","","","","",""
"html-keyboard-response","108","311720","0.0-7.0-4.14","6108cd48a97ffccb0e7e518c","bdp_wmem","Wed Mar 15 2023 15:19:26 GMT-0400 (Eastern Daylight Time)","635020","Match,No Match","","2174","","","","","","<div class='trialBorder'><div class='targDiv'><div class='tc'><img class='introPic' src='trustrating_stim/white_mw038.bmp'><br><font color='red'><strong>Keep</strong></font></div></div><div class='respDiv'><div class='respDivL'>Match<br>(e)</div><div class='respDivR'>No Match<br>(i)</div></div></div>","e","TARGET","3","trustrating_stim/white_mw078.bmp,trustrating_stim/white_mw070.bmp,trustrating_stim/white_mw038.bmp","1,1,0","Match","e","4500","trustrating_stim/white_mw038.bmp","red","Keep","REAL","1"
"html-keyboard-response","109","312224","0.0-7.0-5.14","6108cd48a97ffccb0e7e518c","bdp_wmem","Wed Mar 15 2023 15:19:26 GMT-0400 (Eastern Daylight Time)","635020","Match,No Match","","null","","","","","","<div class='trialBorder'><div class='vertical-center'><img src='img/correct.jpg'></div><div class='respDiv'><div class='respDivL'><font style='color:orange'>Match<br>(e)</font></div><div class='respDivR'>No Match<br>(i)</div></div></div>","null","FEEDBACK","","","","","","","","","","",""
"html-keyboard-response","110","312729","0.0-7.0-1.15","6108cd48a97ffccb0e7e518c","bdp_wmem","Wed Mar 15 2023 15:19:26 GMT-0400 (Eastern Daylight Time)","635020","Match,No Match","","null","","","","","","<div class='trialBorder'><div class='vertical-center'><img src='img/fixation2_sml.jpg'</img></div></div>","null","FIX","","","","","","","","","","",""
"html-keyboard-response","111","314239","0.0-7.0-2.15","6108cd48a97ffccb0e7e518c","bdp_wmem","Wed Mar 15 2023 15:19:26 GMT-0400 (Eastern Daylight Time)","635020","Match,No Match","","null","","","","","","<div class='trialBorder'><div class='vertical-center'><img style='vertical-align:center; align:center' src='img/fixation2_sml.jpg'></div><div class='arrayDiv1'><div class='tc'><img class='introPic' src='trustrating_stim/white_mw013.bmp'><br><font color='green'><strong>Share</strong></font></div></div></div>","null","ARRAY","1","trustrating_stim/white_mw013.bmp","1","noMatchOutcome","i","1500","","","","",""
"html-keyboard-response","112","318249","0.0-7.0-3.15","6108cd48a97ffccb0e7e518c","bdp_wmem","Wed Mar 15 2023 15:19:26 GMT-0400 (Eastern Daylight Time)","635020","Match,No Match","","null","","","","","","<div class='trialBorder'><div class='vertical-center'><img src='img/fixation2_sml.jpg'</img></div></div>","null","DELAY","","","","","","","","","","",""
"html-keyboard-response","113","319998","0.0-7.0-4.15","6108cd48a97ffccb0e7e518c","bdp_wmem","Wed Mar 15 2023 15:19:26 GMT-0400 (Eastern Daylight Time)","635020","Match,No Match","","1745","","","","","","<div class='trialBorder'><div class='targDiv'><div class='tc'><img class='introPic' src='trustrating_stim/white_mw013.bmp'><br><font color='red'><strong>Keep</strong></font></div></div><div class='respDiv'><div class='respDivL'>Match<br>(e)</div><div class='respDivR'>No Match<br>(i)</div></div></div>","i","TARGET","1","trustrating_stim/white_mw013.bmp","1","noMatchOutcome","i","1500","trustrating_stim/white_mw013.bmp","red","Keep","REAL","1"
"html-keyboard-response","114","320504","0.0-7.0-5.15","6108cd48a97ffccb0e7e518c","bdp_wmem","Wed Mar 15 2023 15:19:26 GMT-0400 (Eastern Daylight Time)","635020","Match,No Match","","null","","","","","","<div class='trialBorder'><div class='vertical-center'><img src='img/correct.jpg'></div><div class='respDiv'><div class='respDivL'>Match<br>(e)</div><div class='respDivR'><font style='color:orange'>No Match<br>(i)</font></div></div></div>","null","FEEDBACK","","","","","","","","","","",""
"html-keyboard-response","115","321007","0.0-7.0-1.16","6108cd48a97ffccb0e7e518c","bdp_wmem","Wed Mar 15 2023 15:19:26 GMT-0400 (Eastern Daylight Time)","635020","Match,No Match","","null","","","","","","<div class='trialBorder'><div class='vertical-center'><img src='img/fixation2_sml.jpg'</img></div></div>","null","FIX","","","","","","","","","","",""
"html-keyboard-response","116","324015","0.0-7.0-2.16","6108cd48a97ffccb0e7e518c","bdp_wmem","Wed Mar 15 2023 15:19:26 GMT-0400 (Eastern Daylight Time)","635020","Match,No Match","","null","","","","","","<div class='trialBorder'><div class='vertical-center'><img style='vertical-align:center; align:center' src='img/fixation2_sml.jpg'></div><div class='arrayDiv2'><div class='tl'><img class='introPic' src='trustrating_stim/white_mw013.bmp'><br><font color='red'><strong>Keep</strong></font></div><div class='tr'><img class='introPic' src='trustrating_stim/white_mw012.bmp'><br><font color='green'><strong>Share</strong></font></div></div></div>","null","ARRAY","2","trustrating_stim/white_mw013.bmp,trustrating_stim/white_mw012.bmp","0,1","Match","e","3000","","","","",""
"html-keyboard-response","117","328025","0.0-7.0-3.16","6108cd48a97ffccb0e7e518c","bdp_wmem","Wed Mar 15 2023 15:19:26 GMT-0400 (Eastern Daylight Time)","635020","Match,No Match","","null","","","","","","<div class='trialBorder'><div class='vertical-center'><img src='img/fixation2_sml.jpg'</img></div></div>","null","DELAY","","","","","","","","","","",""
"html-keyboard-response","118","330004","0.0-7.0-4.16","6108cd48a97ffccb0e7e518c","bdp_wmem","Wed Mar 15 2023 15:19:26 GMT-0400 (Eastern Daylight Time)","635020","Match,No Match","","1976","","","","","","<div class='trialBorder'><div class='targDiv'><div class='tc'><img class='introPic' src='trustrating_stim/white_mw013.bmp'><br><font color='red'><strong>Keep</strong></font></div></div><div class='respDiv'><div class='respDivL'>Match<br>(e)</div><div class='respDivR'>No Match<br>(i)</div></div></div>","e","TARGET","2","trustrating_stim/white_mw013.bmp,trustrating_stim/white_mw012.bmp","0,1","Match","e","3000","trustrating_stim/white_mw013.bmp","red","Keep","REAL","1"
"html-keyboard-response","119","330511","0.0-7.0-5.16","6108cd48a97ffccb0e7e518c","bdp_wmem","Wed Mar 15 2023 15:19:26 GMT-0400 (Eastern Daylight Time)","635020","Match,No Match","","null","","","","","","<div class='trialBorder'><div class='vertical-center'><img src='img/correct.jpg'></div><div class='respDiv'><div class='respDivL'><font style='color:orange'>Match<br>(e)</font></div><div class='respDivR'>No Match<br>(i)</div></div></div>","null","FEEDBACK","","","","","","","","","","",""
"html-keyboard-response","120","331014","0.0-7.0-1.17","6108cd48a97ffccb0e7e518c","bdp_wmem","Wed Mar 15 2023 15:19:26 GMT-0400 (Eastern Daylight Time)","635020","Match,No Match","","null","","","","","","<div class='trialBorder'><div class='vertical-center'><img src='img/fixation2_sml.jpg'</img></div></div>","null","FIX","","","","","","","","","","",""
"html-keyboard-response","121","335519","0.0-7.0-2.17","6108cd48a97ffccb0e7e518c","bdp_wmem","Wed Mar 15 2023 15:19:26 GMT-0400 (Eastern Daylight Time)","635020","Match,No Match","","null","","","","","","<div class='trialBorder'><div class='vertical-center'><img style='vertical-align:center; align:center' src='img/fixation2_sml.jpg'></div><div class='arrayDiv3'><div class='tl'><img class='introPic' src='trustrating_stim/white_mw091.bmp'><br><font color='green'><strong>Share</strong></font></div><div class='tc'><img class='introPic' src='trustrating_stim/white_mw012.bmp'><br><font color='red'><strong>Keep</strong></font></div><div class='tr'><img class='introPic' src='trustrating_stim/white_mw092.bmp'><br><font color='red'><strong>Keep</strong></font></div></div></div>","null","ARRAY","3","trustrating_stim/white_mw091.bmp,trustrating_stim/white_mw012.bmp,trustrating_stim/white_mw092.bmp","1,0,0","Match","e","4500","","","","",""
"html-keyboard-response","122","339530","0.0-7.0-3.17","6108cd48a97ffccb0e7e518c","bdp_wmem","Wed Mar 15 2023 15:19:26 GMT-0400 (Eastern Daylight Time)","635020","Match,No Match","","null","","","","","","<div class='trialBorder'><div class='vertical-center'><img src='img/fixation2_sml.jpg'</img></div></div>","null","DELAY","","","","","","","","","","",""
"html-keyboard-response","123","341207","0.0-7.0-4.17","6108cd48a97ffccb0e7e518c","bdp_wmem","Wed Mar 15 2023 15:19:26 GMT-0400 (Eastern Daylight Time)","635020","Match,No Match","","1674","","","","","","<div class='trialBorder'><div class='targDiv'><div class='tc'><img class='introPic' src='trustrating_stim/white_mw091.bmp'><br><font color='green'><strong>Share</strong></font></div></div><div class='respDiv'><div class='respDivL'>Match<br>(e)</div><div class='respDivR'>No Match<br>(i)</div></div></div>","e","TARGET","3","trustrating_stim/white_mw091.bmp,trustrating_stim/white_mw012.bmp,trustrating_stim/white_mw092.bmp","1,0,0","Match","e","4500","trustrating_stim/white_mw091.bmp","green","Share","REAL","1"
"html-keyboard-response","124","341712","0.0-7.0-5.17","6108cd48a97ffccb0e7e518c","bdp_wmem","Wed Mar 15 2023 15:19:26 GMT-0400 (Eastern Daylight Time)","635020","Match,No Match","","null","","","","","","<div class='trialBorder'><div class='vertical-center'><img src='img/correct.jpg'></div><div class='respDiv'><div class='respDivL'><font style='color:orange'>Match<br>(e)</font></div><div class='respDivR'>No Match<br>(i)</div></div></div>","null","FEEDBACK","","","","","","","","","","",""
"html-keyboard-response","125","342223","0.0-7.0-1.18","6108cd48a97ffccb0e7e518c","bdp_wmem","Wed Mar 15 2023 15:19:26 GMT-0400 (Eastern Daylight Time)","635020","Match,No Match","","null","","","","","","<div class='trialBorder'><div class='vertical-center'><img src='img/fixation2_sml.jpg'</img></div></div>","null","FIX","","","","","","","","","","",""
"html-keyboard-response","126","346728","0.0-7.0-2.18","6108cd48a97ffccb0e7e518c","bdp_wmem","Wed Mar 15 2023 15:19:26 GMT-0400 (Eastern Daylight Time)","635020","Match,No Match","","null","","","","","","<div class='trialBorder'><div class='vertical-center'><img style='vertical-align:center; align:center' src='img/fixation2_sml.jpg'></div><div class='arrayDiv3'><div class='tl'><img class='introPic' src='trustrating_stim/white_mw070.bmp'><br><font color='green'><strong>Share</strong></font></div><div class='tc'><img class='introPic' src='trustrating_stim/white_mw091.bmp'><br><font color='green'><strong>Share</strong></font></div><div class='tr'><img class='introPic' src='trustrating_stim/white_mw092.bmp'><br><font color='red'><strong>Keep</strong></font></div></div></div>","null","ARRAY","3","trustrating_stim/white_mw070.bmp,trustrating_stim/white_mw091.bmp,trustrating_stim/white_mw092.bmp","1,1,0","noMatchOutcome","i","4500","","","","",""
"html-keyboard-response","127","350734","0.0-7.0-3.18","6108cd48a97ffccb0e7e518c","bdp_wmem","Wed Mar 15 2023 15:19:26 GMT-0400 (Eastern Daylight Time)","635020","Match,No Match","","null","","","","","","<div class='trialBorder'><div class='vertical-center'><img src='img/fixation2_sml.jpg'</img></div></div>","null","DELAY","","","","","","","","","","",""
"html-keyboard-response","128","352709","0.0-7.0-4.18","6108cd48a97ffccb0e7e518c","bdp_wmem","Wed Mar 15 2023 15:19:26 GMT-0400 (Eastern Daylight Time)","635020","Match,No Match","","1972","","","","","","<div class='trialBorder'><div class='targDiv'><div class='tc'><img class='introPic' src='trustrating_stim/white_mw091.bmp'><br><font color='red'><strong>Keep</strong></font></div></div><div class='respDiv'><div class='respDivL'>Match<br>(e)</div><div class='respDivR'>No Match<br>(i)</div></div></div>","i","TARGET","3","trustrating_stim/white_mw070.bmp,trustrating_stim/white_mw091.bmp,trustrating_stim/white_mw092.bmp","1,1,0","noMatchOutcome","i","4500","trustrating_stim/white_mw091.bmp","red","Keep","REAL","1"
"html-keyboard-response","129","353213","0.0-7.0-5.18","6108cd48a97ffccb0e7e518c","bdp_wmem","Wed Mar 15 2023 15:19:26 GMT-0400 (Eastern Daylight Time)","635020","Match,No Match","","null","","","","","","<div class='trialBorder'><div class='vertical-center'><img src='img/correct.jpg'></div><div class='respDiv'><div class='respDivL'>Match<br>(e)</div><div class='respDivR'><font style='color:orange'>No Match<br>(i)</font></div></div></div>","null","FEEDBACK","","","","","","","","","","",""
"html-keyboard-response","130","353718","0.0-7.0-1.19","6108cd48a97ffccb0e7e518c","bdp_wmem","Wed Mar 15 2023 15:19:26 GMT-0400 (Eastern Daylight Time)","635020","Match,No Match","","null","","","","","","<div class='trialBorder'><div class='vertical-center'><img src='img/fixation2_sml.jpg'</img></div></div>","null","FIX","","","","","","","","","","",""
"html-keyboard-response","131","355222","0.0-7.0-2.19","6108cd48a97ffccb0e7e518c","bdp_wmem","Wed Mar 15 2023 15:19:26 GMT-0400 (Eastern Daylight Time)","635020","Match,No Match","","null","","","","","","<div class='trialBorder'><div class='vertical-center'><img style='vertical-align:center; align:center' src='img/fixation2_sml.jpg'></div><div class='arrayDiv1'><div class='tc'><img class='introPic' src='trustrating_stim/white_mw010.bmp'><br><font color='red'><strong>Keep</strong></font></div></div></div>","null","ARRAY","1","trustrating_stim/white_mw010.bmp","0","Match","e","1500","","","","",""
"html-keyboard-response","132","359231","0.0-7.0-3.19","6108cd48a97ffccb0e7e518c","bdp_wmem","Wed Mar 15 2023 15:19:26 GMT-0400 (Eastern Daylight Time)","635020","Match,No Match","","null","","","","","","<div class='trialBorder'><div class='vertical-center'><img src='img/fixation2_sml.jpg'</img></div></div>","null","DELAY","","","","","","","","","","",""
"html-keyboard-response","133","360331","0.0-7.0-4.19","6108cd48a97ffccb0e7e518c","bdp_wmem","Wed Mar 15 2023 15:19:26 GMT-0400 (Eastern Daylight Time)","635020","Match,No Match","","1097","","","","","","<div class='trialBorder'><div class='targDiv'><div class='tc'><img class='introPic' src='trustrating_stim/white_mw010.bmp'><br><font color='red'><strong>Keep</strong></font></div></div><div class='respDiv'><div class='respDivL'>Match<br>(e)</div><div class='respDivR'>No Match<br>(i)</div></div></div>","e","TARGET","1","trustrating_stim/white_mw010.bmp","0","Match","e","1500","trustrating_stim/white_mw010.bmp","red","Keep","REAL","1"
"html-keyboard-response","134","360839","0.0-7.0-5.19","6108cd48a97ffccb0e7e518c","bdp_wmem","Wed Mar 15 2023 15:19:26 GMT-0400 (Eastern Daylight Time)","635020","Match,No Match","","null","","","","","","<div class='trialBorder'><div class='vertical-center'><img src='img/correct.jpg'></div><div class='respDiv'><div class='respDivL'><font style='color:orange'>Match<br>(e)</font></div><div class='respDivR'>No Match<br>(i)</div></div></div>","null","FEEDBACK","","","","","","","","","","",""
"html-keyboard-response","135","361344","0.0-7.0-1.20","6108cd48a97ffccb0e7e518c","bdp_wmem","Wed Mar 15 2023 15:19:26 GMT-0400 (Eastern Daylight Time)","635020","Match,No Match","","null","","","","","","<div class='trialBorder'><div class='vertical-center'><img src='img/fixation2_sml.jpg'</img></div></div>","null","FIX","","","","","","","","","","",""
"html-keyboard-response","136","365854","0.0-7.0-2.20","6108cd48a97ffccb0e7e518c","bdp_wmem","Wed Mar 15 2023 15:19:26 GMT-0400 (Eastern Daylight Time)","635020","Match,No Match","","null","","","","","","<div class='trialBorder'><div class='vertical-center'><img style='vertical-align:center; align:center' src='img/fixation2_sml.jpg'></div><div class='arrayDiv3'><div class='tl'><img class='introPic' src='trustrating_stim/white_mw078.bmp'><br><font color='red'><strong>Keep</strong></font></div><div class='tc'><img class='introPic' src='trustrating_stim/white_mw003.bmp'><br><font color='green'><strong>Share</strong></font></div><div class='tr'><img class='introPic' src='trustrating_stim/white_mw092.bmp'><br><font color='green'><strong>Share</strong></font></div></div></div>","null","ARRAY","3","trustrating_stim/white_mw078.bmp,trustrating_stim/white_mw003.bmp,trustrating_stim/white_mw092.bmp","0,1,1","noMatchFace","i","4500","","","","",""
"html-keyboard-response","137","369861","0.0-7.0-3.20","6108cd48a97ffccb0e7e518c","bdp_wmem","Wed Mar 15 2023 15:19:26 GMT-0400 (Eastern Daylight Time)","635020","Match,No Match","","null","","","","","","<div class='trialBorder'><div class='vertical-center'><img src='img/fixation2_sml.jpg'</img></div></div>","null","DELAY","","","","","","","","","","",""
"html-keyboard-response","138","372442","0.0-7.0-4.20","6108cd48a97ffccb0e7e518c","bdp_wmem","Wed Mar 15 2023 15:19:26 GMT-0400 (Eastern Daylight Time)","635020","Match,No Match","","2578","","","","","","<div class='trialBorder'><div class='targDiv'><div class='tc'><img class='introPic' src='trustrating_stim/white_mw038.bmp'><br><font color='red'><strong>Keep</strong></font></div></div><div class='respDiv'><div class='respDivL'>Match<br>(e)</div><div class='respDivR'>No Match<br>(i)</div></div></div>","i","TARGET","3","trustrating_stim/white_mw078.bmp,trustrating_stim/white_mw003.bmp,trustrating_stim/white_mw092.bmp","0,1,1","noMatchFace","i","4500","trustrating_stim/white_mw038.bmp","red","Keep","REAL","1"
"html-keyboard-response","139","372949","0.0-7.0-5.20","6108cd48a97ffccb0e7e518c","bdp_wmem","Wed Mar 15 2023 15:19:26 GMT-0400 (Eastern Daylight Time)","635020","Match,No Match","","null","","","","","","<div class='trialBorder'><div class='vertical-center'><img src='img/correct.jpg'></div><div class='respDiv'><div class='respDivL'>Match<br>(e)</div><div class='respDivR'><font style='color:orange'>No Match<br>(i)</font></div></div></div>","null","FEEDBACK","","","","","","","","","","",""
"html-keyboard-response","140","373452","0.0-7.0-1.21","6108cd48a97ffccb0e7e518c","bdp_wmem","Wed Mar 15 2023 15:19:26 GMT-0400 (Eastern Daylight Time)","635020","Match,No Match","","null","","","","","","<div class='trialBorder'><div class='vertical-center'><img src='img/fixation2_sml.jpg'</img></div></div>","null","FIX","","","","","","","","","","",""
"html-keyboard-response","141","374956","0.0-7.0-2.21","6108cd48a97ffccb0e7e518c","bdp_wmem","Wed Mar 15 2023 15:19:26 GMT-0400 (Eastern Daylight Time)","635020","Match,No Match","","null","","","","","","<div class='trialBorder'><div class='vertical-center'><img style='vertical-align:center; align:center' src='img/fixation2_sml.jpg'></div><div class='arrayDiv1'><div class='tc'><img class='introPic' src='trustrating_stim/white_mw013.bmp'><br><font color='red'><strong>Keep</strong></font></div></div></div>","null","ARRAY","1","trustrating_stim/white_mw013.bmp","0","noMatchOutcome","i","1500","","","","",""
"html-keyboard-response","142","378967","0.0-7.0-3.21","6108cd48a97ffccb0e7e518c","bdp_wmem","Wed Mar 15 2023 15:19:26 GMT-0400 (Eastern Daylight Time)","635020","Match,No Match","","null","","","","","","<div class='trialBorder'><div class='vertical-center'><img src='img/fixation2_sml.jpg'</img></div></div>","null","DELAY","","","","","","","","","","",""
"html-keyboard-response","143","380437","0.0-7.0-4.21","6108cd48a97ffccb0e7e518c","bdp_wmem","Wed Mar 15 2023 15:19:26 GMT-0400 (Eastern Daylight Time)","635020","Match,No Match","","1468","","","","","","<div class='trialBorder'><div class='targDiv'><div class='tc'><img class='introPic' src='trustrating_stim/white_mw013.bmp'><br><font color='green'><strong>Share</strong></font></div></div><div class='respDiv'><div class='respDivL'>Match<br>(e)</div><div class='respDivR'>No Match<br>(i)</div></div></div>","i","TARGET","1","trustrating_stim/white_mw013.bmp","0","noMatchOutcome","i","1500","trustrating_stim/white_mw013.bmp","green","Share","REAL","1"
"html-keyboard-response","144","380941","0.0-7.0-5.21","6108cd48a97ffccb0e7e518c","bdp_wmem","Wed Mar 15 2023 15:19:26 GMT-0400 (Eastern Daylight Time)","635020","Match,No Match","","null","","","","","","<div class='trialBorder'><div class='vertical-center'><img src='img/correct.jpg'></div><div class='respDiv'><div class='respDivL'>Match<br>(e)</div><div class='respDivR'><font style='color:orange'>No Match<br>(i)</font></div></div></div>","null","FEEDBACK","","","","","","","","","","",""
"html-keyboard-response","145","381446","0.0-7.0-1.22","6108cd48a97ffccb0e7e518c","bdp_wmem","Wed Mar 15 2023 15:19:26 GMT-0400 (Eastern Daylight Time)","635020","Match,No Match","","null","","","","","","<div class='trialBorder'><div class='vertical-center'><img src='img/fixation2_sml.jpg'</img></div></div>","null","FIX","","","","","","","","","","",""
"html-keyboard-response","146","382957","0.0-7.0-2.22","6108cd48a97ffccb0e7e518c","bdp_wmem","Wed Mar 15 2023 15:19:26 GMT-0400 (Eastern Daylight Time)","635020","Match,No Match","","null","","","","","","<div class='trialBorder'><div class='vertical-center'><img style='vertical-align:center; align:center' src='img/fixation2_sml.jpg'></div><div class='arrayDiv1'><div class='tc'><img class='introPic' src='trustrating_stim/white_mw070.bmp'><br><font color='green'><strong>Share</strong></font></div></div></div>","null","ARRAY","1","trustrating_stim/white_mw070.bmp","1","noMatchFace","i","1500","","","","",""
"html-keyboard-response","147","386966","0.0-7.0-3.22","6108cd48a97ffccb0e7e518c","bdp_wmem","Wed Mar 15 2023 15:19:26 GMT-0400 (Eastern Daylight Time)","635020","Match,No Match","","null","","","","","","<div class='trialBorder'><div class='vertical-center'><img src='img/fixation2_sml.jpg'</img></div></div>","null","DELAY","","","","","","","","","","",""
"html-keyboard-response","148","388734","0.0-7.0-4.22","6108cd48a97ffccb0e7e518c","bdp_wmem","Wed Mar 15 2023 15:19:26 GMT-0400 (Eastern Daylight Time)","635020","Match,No Match","","1766","","","","","","<div class='trialBorder'><div class='targDiv'><div class='tc'><img class='introPic' src='trustrating_stim/white_mw010.bmp'><br><font color='green'><strong>Share</strong></font></div></div><div class='respDiv'><div class='respDivL'>Match<br>(e)</div><div class='respDivR'>No Match<br>(i)</div></div></div>","i","TARGET","1","trustrating_stim/white_mw070.bmp","1","noMatchFace","i","1500","trustrating_stim/white_mw010.bmp","green","Share","REAL","1"
"html-keyboard-response","149","389245","0.0-7.0-5.22","6108cd48a97ffccb0e7e518c","bdp_wmem","Wed Mar 15 2023 15:19:26 GMT-0400 (Eastern Daylight Time)","635020","Match,No Match","","null","","","","","","<div class='trialBorder'><div class='vertical-center'><img src='img/correct.jpg'></div><div class='respDiv'><div class='respDivL'>Match<br>(e)</div><div class='respDivR'><font style='color:orange'>No Match<br>(i)</font></div></div></div>","null","FEEDBACK","","","","","","","","","","",""
"html-keyboard-response","150","389748","0.0-7.0-1.23","6108cd48a97ffccb0e7e518c","bdp_wmem","Wed Mar 15 2023 15:19:26 GMT-0400 (Eastern Daylight Time)","635020","Match,No Match","","null","","","","","","<div class='trialBorder'><div class='vertical-center'><img src='img/fixation2_sml.jpg'</img></div></div>","null","FIX","","","","","","","","","","",""
"html-keyboard-response","151","394253","0.0-7.0-2.23","6108cd48a97ffccb0e7e518c","bdp_wmem","Wed Mar 15 2023 15:19:26 GMT-0400 (Eastern Daylight Time)","635020","Match,No Match","","null","","","","","","<div class='trialBorder'><div class='vertical-center'><img style='vertical-align:center; align:center' src='img/fixation2_sml.jpg'></div><div class='arrayDiv3'><div class='tl'><img class='introPic' src='trustrating_stim/white_mw013.bmp'><br><font color='green'><strong>Share</strong></font></div><div class='tc'><img class='introPic' src='trustrating_stim/white_mw070.bmp'><br><font color='red'><strong>Keep</strong></font></div><div class='tr'><img class='introPic' src='trustrating_stim/white_mw038.bmp'><br><font color='green'><strong>Share</strong></font></div></div></div>","null","ARRAY","3","trustrating_stim/white_mw013.bmp,trustrating_stim/white_mw070.bmp,trustrating_stim/white_mw038.bmp","1,0,1","noMatchOutcome","i","4500","","","","",""
"html-keyboard-response","152","398262","0.0-7.0-3.23","6108cd48a97ffccb0e7e518c","bdp_wmem","Wed Mar 15 2023 15:19:26 GMT-0400 (Eastern Daylight Time)","635020","Match,No Match","","null","","","","","","<div class='trialBorder'><div class='vertical-center'><img src='img/fixation2_sml.jpg'</img></div></div>","null","DELAY","","","","","","","","","","",""
"html-keyboard-response","153","400852","0.0-7.0-4.23","6108cd48a97ffccb0e7e518c","bdp_wmem","Wed Mar 15 2023 15:19:26 GMT-0400 (Eastern Daylight Time)","635020","Match,No Match","","2588","","","","","","<div class='trialBorder'><div class='targDiv'><div class='tc'><img class='introPic' src='trustrating_stim/white_mw070.bmp'><br><font color='green'><strong>Share</strong></font></div></div><div class='respDiv'><div class='respDivL'>Match<br>(e)</div><div class='respDivR'>No Match<br>(i)</div></div></div>","i","TARGET","3","trustrating_stim/white_mw013.bmp,trustrating_stim/white_mw070.bmp,trustrating_stim/white_mw038.bmp","1,0,1","noMatchOutcome","i","4500","trustrating_stim/white_mw070.bmp","green","Share","REAL","1"
"html-keyboard-response","154","401356","0.0-7.0-5.23","6108cd48a97ffccb0e7e518c","bdp_wmem","Wed Mar 15 2023 15:19:26 GMT-0400 (Eastern Daylight Time)","635020","Match,No Match","","null","","","","","","<div class='trialBorder'><div class='vertical-center'><img src='img/correct.jpg'></div><div class='respDiv'><div class='respDivL'>Match<br>(e)</div><div class='respDivR'><font style='color:orange'>No Match<br>(i)</font></div></div></div>","null","FEEDBACK","","","","","","","","","","",""
"html-keyboard-response","155","401861","0.0-7.0-1.24","6108cd48a97ffccb0e7e518c","bdp_wmem","Wed Mar 15 2023 15:19:26 GMT-0400 (Eastern Daylight Time)","635020","Match,No Match","","null","","","","","","<div class='trialBorder'><div class='vertical-center'><img src='img/fixation2_sml.jpg'</img></div></div>","null","FIX","","","","","","","","","","",""
"html-keyboard-response","156","403372","0.0-7.0-2.24","6108cd48a97ffccb0e7e518c","bdp_wmem","Wed Mar 15 2023 15:19:26 GMT-0400 (Eastern Daylight Time)","635020","Match,No Match","","null","","","","","","<div class='trialBorder'><div class='vertical-center'><img style='vertical-align:center; align:center' src='img/fixation2_sml.jpg'></div><div class='arrayDiv1'><div class='tc'><img class='introPic' src='trustrating_stim/white_mw042.bmp'><br><font color='green'><strong>Share</strong></font></div></div></div>","null","ARRAY","1","trustrating_stim/white_mw042.bmp","1","Match","e","1500","","","","",""
"html-keyboard-response","157","407381","0.0-7.0-3.24","6108cd48a97ffccb0e7e518c","bdp_wmem","Wed Mar 15 2023 15:19:26 GMT-0400 (Eastern Daylight Time)","635020","Match,No Match","","null","","","","","","<div class='trialBorder'><div class='vertical-center'><img src='img/fixation2_sml.jpg'</img></div></div>","null","DELAY","","","","","","","","","","",""
"html-keyboard-response","158","408780","0.0-7.0-4.24","6108cd48a97ffccb0e7e518c","bdp_wmem","Wed Mar 15 2023 15:19:26 GMT-0400 (Eastern Daylight Time)","635020","Match,No Match","","1397","","","","","","<div class='trialBorder'><div class='targDiv'><div class='tc'><img class='introPic' src='trustrating_stim/white_mw042.bmp'><br><font color='green'><strong>Share</strong></font></div></div><div class='respDiv'><div class='respDivL'>Match<br>(e)</div><div class='respDivR'>No Match<br>(i)</div></div></div>","e","TARGET","1","trustrating_stim/white_mw042.bmp","1","Match","e","1500","trustrating_stim/white_mw042.bmp","green","Share","REAL","1"
"html-keyboard-response","159","409285","0.0-7.0-5.24","6108cd48a97ffccb0e7e518c","bdp_wmem","Wed Mar 15 2023 15:19:26 GMT-0400 (Eastern Daylight Time)","635020","Match,No Match","","null","","","","","","<div class='trialBorder'><div class='vertical-center'><img src='img/correct.jpg'></div><div class='respDiv'><div class='respDivL'><font style='color:orange'>Match<br>(e)</font></div><div class='respDivR'>No Match<br>(i)</div></div></div>","null","FEEDBACK","","","","","","","","","","",""
"html-keyboard-response","160","409796","0.0-7.0-1.25","6108cd48a97ffccb0e7e518c","bdp_wmem","Wed Mar 15 2023 15:19:26 GMT-0400 (Eastern Daylight Time)","635020","Match,No Match","","null","","","","","","<div class='trialBorder'><div class='vertical-center'><img src='img/fixation2_sml.jpg'</img></div></div>","null","FIX","","","","","","","","","","",""
"html-keyboard-response","161","411299","0.0-7.0-2.25","6108cd48a97ffccb0e7e518c","bdp_wmem","Wed Mar 15 2023 15:19:26 GMT-0400 (Eastern Daylight Time)","635020","Match,No Match","","null","","","","","","<div class='trialBorder'><div class='vertical-center'><img style='vertical-align:center; align:center' src='img/fixation2_sml.jpg'></div><div class='arrayDiv1'><div class='tc'><img class='introPic' src='trustrating_stim/white_mw078.bmp'><br><font color='red'><strong>Keep</strong></font></div></div></div>","null","ARRAY","1","trustrating_stim/white_mw078.bmp","0","noMatchOutcome","i","1500","","","","",""
"html-keyboard-response","162","415306","0.0-7.0-3.25","6108cd48a97ffccb0e7e518c","bdp_wmem","Wed Mar 15 2023 15:19:26 GMT-0400 (Eastern Daylight Time)","635020","Match,No Match","","null","","","","","","<div class='trialBorder'><div class='vertical-center'><img src='img/fixation2_sml.jpg'</img></div></div>","null","DELAY","","","","","","","","","","",""
"html-keyboard-response","163","416423","0.0-7.0-4.25","6108cd48a97ffccb0e7e518c","bdp_wmem","Wed Mar 15 2023 15:19:26 GMT-0400 (Eastern Daylight Time)","635020","Match,No Match","","1113","","","","","","<div class='trialBorder'><div class='targDiv'><div class='tc'><img class='introPic' src='trustrating_stim/white_mw078.bmp'><br><font color='green'><strong>Share</strong></font></div></div><div class='respDiv'><div class='respDivL'>Match<br>(e)</div><div class='respDivR'>No Match<br>(i)</div></div></div>","i","TARGET","1","trustrating_stim/white_mw078.bmp","0","noMatchOutcome","i","1500","trustrating_stim/white_mw078.bmp","green","Share","REAL","1"
"html-keyboard-response","164","416930","0.0-7.0-5.25","6108cd48a97ffccb0e7e518c","bdp_wmem","Wed Mar 15 2023 15:19:26 GMT-0400 (Eastern Daylight Time)","635020","Match,No Match","","null","","","","","","<div class='trialBorder'><div class='vertical-center'><img src='img/correct.jpg'></div><div class='respDiv'><div class='respDivL'>Match<br>(e)</div><div class='respDivR'><font style='color:orange'>No Match<br>(i)</font></div></div></div>","null","FEEDBACK","","","","","","","","","","",""
"html-keyboard-response","165","417435","0.0-7.0-1.26","6108cd48a97ffccb0e7e518c","bdp_wmem","Wed Mar 15 2023 15:19:26 GMT-0400 (Eastern Daylight Time)","635020","Match,No Match","","null","","","","","","<div class='trialBorder'><div class='vertical-center'><img src='img/fixation2_sml.jpg'</img></div></div>","null","FIX","","","","","","","","","","",""
"html-keyboard-response","166","421939","0.0-7.0-2.26","6108cd48a97ffccb0e7e518c","bdp_wmem","Wed Mar 15 2023 15:19:26 GMT-0400 (Eastern Daylight Time)","635020","Match,No Match","","null","","","","","","<div class='trialBorder'><div class='vertical-center'><img style='vertical-align:center; align:center' src='img/fixation2_sml.jpg'></div><div class='arrayDiv3'><div class='tl'><img class='introPic' src='trustrating_stim/white_mw091.bmp'><br><font color='red'><strong>Keep</strong></font></div><div class='tc'><img class='introPic' src='trustrating_stim/white_mw012.bmp'><br><font color='green'><strong>Share</strong></font></div><div class='tr'><img class='introPic' src='trustrating_stim/white_mw038.bmp'><br><font color='red'><strong>Keep</strong></font></div></div></div>","null","ARRAY","3","trustrating_stim/white_mw091.bmp,trustrating_stim/white_mw012.bmp,trustrating_stim/white_mw038.bmp","0,1,0","noMatchFace","i","4500","","","","",""
"html-keyboard-response","167","425946","0.0-7.0-3.26","6108cd48a97ffccb0e7e518c","bdp_wmem","Wed Mar 15 2023 15:19:26 GMT-0400 (Eastern Daylight Time)","635020","Match,No Match","","null","","","","","","<div class='trialBorder'><div class='vertical-center'><img src='img/fixation2_sml.jpg'</img></div></div>","null","DELAY","","","","","","","","","","",""
"html-keyboard-response","168","427699","0.0-7.0-4.26","6108cd48a97ffccb0e7e518c","bdp_wmem","Wed Mar 15 2023 15:19:26 GMT-0400 (Eastern Daylight Time)","635020","Match,No Match","","1751","","","","","","<div class='trialBorder'><div class='targDiv'><div class='tc'><img class='introPic' src='trustrating_stim/white_mw085.bmp'><br><font color='green'><strong>Share</strong></font></div></div><div class='respDiv'><div class='respDivL'>Match<br>(e)</div><div class='respDivR'>No Match<br>(i)</div></div></div>","i","TARGET","3","trustrating_stim/white_mw091.bmp,trustrating_stim/white_mw012.bmp,trustrating_stim/white_mw038.bmp","0,1,0","noMatchFace","i","4500","trustrating_stim/white_mw085.bmp","green","Share","REAL","1"
"html-keyboard-response","169","428203","0.0-7.0-5.26","6108cd48a97ffccb0e7e518c","bdp_wmem","Wed Mar 15 2023 15:19:26 GMT-0400 (Eastern Daylight Time)","635020","Match,No Match","","null","","","","","","<div class='trialBorder'><div class='vertical-center'><img src='img/correct.jpg'></div><div class='respDiv'><div class='respDivL'>Match<br>(e)</div><div class='respDivR'><font style='color:orange'>No Match<br>(i)</font></div></div></div>","null","FEEDBACK","","","","","","","","","","",""
"html-keyboard-response","170","428708","0.0-7.0-1.27","6108cd48a97ffccb0e7e518c","bdp_wmem","Wed Mar 15 2023 15:19:26 GMT-0400 (Eastern Daylight Time)","635020","Match,No Match","","null","","","","","","<div class='trialBorder'><div class='vertical-center'><img src='img/fixation2_sml.jpg'</img></div></div>","null","FIX","","","","","","","","","","",""
"html-keyboard-response","171","431715","0.0-7.0-2.27","6108cd48a97ffccb0e7e518c","bdp_wmem","Wed Mar 15 2023 15:19:26 GMT-0400 (Eastern Daylight Time)","635020","Match,No Match","","null","","","","","","<div class='trialBorder'><div class='vertical-center'><img style='vertical-align:center; align:center' src='img/fixation2_sml.jpg'></div><div class='arrayDiv2'><div class='tl'><img class='introPic' src='trustrating_stim/white_mw070.bmp'><br><font color='red'><strong>Keep</strong></font></div><div class='tr'><img class='introPic' src='trustrating_stim/white_mw003.bmp'><br><font color='green'><strong>Share</strong></font></div></div></div>","null","ARRAY","2","trustrating_stim/white_mw070.bmp,trustrating_stim/white_mw003.bmp","0,1","noMatchFace","i","3000","","","","",""
"html-keyboard-response","172","435722","0.0-7.0-3.27","6108cd48a97ffccb0e7e518c","bdp_wmem","Wed Mar 15 2023 15:19:26 GMT-0400 (Eastern Daylight Time)","635020","Match,No Match","","null","","","","","","<div class='trialBorder'><div class='vertical-center'><img src='img/fixation2_sml.jpg'</img></div></div>","null","DELAY","","","","","","","","","","",""
"html-keyboard-response","173","438320","0.0-7.0-4.27","6108cd48a97ffccb0e7e518c","bdp_wmem","Wed Mar 15 2023 15:19:26 GMT-0400 (Eastern Daylight Time)","635020","Match,No Match","","2596","","","","","","<div class='trialBorder'><div class='targDiv'><div class='tc'><img class='introPic' src='trustrating_stim/white_mw038.bmp'><br><font color='red'><strong>Keep</strong></font></div></div><div class='respDiv'><div class='respDivL'>Match<br>(e)</div><div class='respDivR'>No Match<br>(i)</div></div></div>","i","TARGET","2","trustrating_stim/white_mw070.bmp,trustrating_stim/white_mw003.bmp","0,1","noMatchFace","i","3000","trustrating_stim/white_mw038.bmp","red","Keep","REAL","1"
"html-keyboard-response","174","438825","0.0-7.0-5.27","6108cd48a97ffccb0e7e518c","bdp_wmem","Wed Mar 15 2023 15:19:26 GMT-0400 (Eastern Daylight Time)","635020","Match,No Match","","null","","","","","","<div class='trialBorder'><div class='vertical-center'><img src='img/correct.jpg'></div><div class='respDiv'><div class='respDivL'>Match<br>(e)</div><div class='respDivR'><font style='color:orange'>No Match<br>(i)</font></div></div></div>","null","FEEDBACK","","","","","","","","","","",""
"html-keyboard-response","175","439330","0.0-7.0-1.28","6108cd48a97ffccb0e7e518c","bdp_wmem","Wed Mar 15 2023 15:19:26 GMT-0400 (Eastern Daylight Time)","635020","Match,No Match","","null","","","","","","<div class='trialBorder'><div class='vertical-center'><img src='img/fixation2_sml.jpg'</img></div></div>","null","FIX","","","","","","","","","","",""
"html-keyboard-response","176","440836","0.0-7.0-2.28","6108cd48a97ffccb0e7e518c","bdp_wmem","Wed Mar 15 2023 15:19:26 GMT-0400 (Eastern Daylight Time)","635020","Match,No Match","","null","","","","","","<div class='trialBorder'><div class='vertical-center'><img style='vertical-align:center; align:center' src='img/fixation2_sml.jpg'></div><div class='arrayDiv1'><div class='tc'><img class='introPic' src='trustrating_stim/white_mw013.bmp'><br><font color='red'><strong>Keep</strong></font></div></div></div>","null","ARRAY","1","trustrating_stim/white_mw013.bmp","0","noMatchOutcome","i","1500","","","","",""
"html-keyboard-response","177","444845","0.0-7.0-3.28","6108cd48a97ffccb0e7e518c","bdp_wmem","Wed Mar 15 2023 15:19:26 GMT-0400 (Eastern Daylight Time)","635020","Match,No Match","","null","","","","","","<div class='trialBorder'><div class='vertical-center'><img src='img/fixation2_sml.jpg'</img></div></div>","null","DELAY","","","","","","","","","","",""
"html-keyboard-response","178","446041","0.0-7.0-4.28","6108cd48a97ffccb0e7e518c","bdp_wmem","Wed Mar 15 2023 15:19:26 GMT-0400 (Eastern Daylight Time)","635020","Match,No Match","","1193","","","","","","<div class='trialBorder'><div class='targDiv'><div class='tc'><img class='introPic' src='trustrating_stim/white_mw013.bmp'><br><font color='green'><strong>Share</strong></font></div></div><div class='respDiv'><div class='respDivL'>Match<br>(e)</div><div class='respDivR'>No Match<br>(i)</div></div></div>","i","TARGET","1","trustrating_stim/white_mw013.bmp","0","noMatchOutcome","i","1500","trustrating_stim/white_mw013.bmp","green","Share","REAL","1"
"html-keyboard-response","179","446546","0.0-7.0-5.28","6108cd48a97ffccb0e7e518c","bdp_wmem","Wed Mar 15 2023 15:19:26 GMT-0400 (Eastern Daylight Time)","635020","Match,No Match","","null","","","","","","<div class='trialBorder'><div class='vertical-center'><img src='img/correct.jpg'></div><div class='respDiv'><div class='respDivL'>Match<br>(e)</div><div class='respDivR'><font style='color:orange'>No Match<br>(i)</font></div></div></div>","null","FEEDBACK","","","","","","","","","","",""
"html-keyboard-response","180","447051","0.0-7.0-1.29","6108cd48a97ffccb0e7e518c","bdp_wmem","Wed Mar 15 2023 15:19:26 GMT-0400 (Eastern Daylight Time)","635020","Match,No Match","","null","","","","","","<div class='trialBorder'><div class='vertical-center'><img src='img/fixation2_sml.jpg'</img></div></div>","null","FIX","","","","","","","","","","",""
"html-keyboard-response","181","451561","0.0-7.0-2.29","6108cd48a97ffccb0e7e518c","bdp_wmem","Wed Mar 15 2023 15:19:26 GMT-0400 (Eastern Daylight Time)","635020","Match,No Match","","null","","","","","","<div class='trialBorder'><div class='vertical-center'><img style='vertical-align:center; align:center' src='img/fixation2_sml.jpg'></div><div class='arrayDiv3'><div class='tl'><img class='introPic' src='trustrating_stim/white_mw038.bmp'><br><font color='green'><strong>Share</strong></font></div><div class='tc'><img class='introPic' src='trustrating_stim/white_mw085.bmp'><br><font color='green'><strong>Share</strong></font></div><div class='tr'><img class='introPic' src='trustrating_stim/white_mw013.bmp'><br><font color='red'><strong>Keep</strong></font></div></div></div>","null","ARRAY","3","trustrating_stim/white_mw038.bmp,trustrating_stim/white_mw085.bmp,trustrating_stim/white_mw013.bmp","1,1,0","Match","e","4500","","","","",""
"html-keyboard-response","182","455572","0.0-7.0-3.29","6108cd48a97ffccb0e7e518c","bdp_wmem","Wed Mar 15 2023 15:19:26 GMT-0400 (Eastern Daylight Time)","635020","Match,No Match","","null","","","","","","<div class='trialBorder'><div class='vertical-center'><img src='img/fixation2_sml.jpg'</img></div></div>","null","DELAY","","","","","","","","","","",""
"html-keyboard-response","183","457573","0.0-7.0-4.29","6108cd48a97ffccb0e7e518c","bdp_wmem","Wed Mar 15 2023 15:19:26 GMT-0400 (Eastern Daylight Time)","635020","Match,No Match","","1998","","","","","","<div class='trialBorder'><div class='targDiv'><div class='tc'><img class='introPic' src='trustrating_stim/white_mw085.bmp'><br><font color='green'><strong>Share</strong></font></div></div><div class='respDiv'><div class='respDivL'>Match<br>(e)</div><div class='respDivR'>No Match<br>(i)</div></div></div>","e","TARGET","3","trustrating_stim/white_mw038.bmp,trustrating_stim/white_mw085.bmp,trustrating_stim/white_mw013.bmp","1,1,0","Match","e","4500","trustrating_stim/white_mw085.bmp","green","Share","REAL","1"
"html-keyboard-response","184","458082","0.0-7.0-5.29","6108cd48a97ffccb0e7e518c","bdp_wmem","Wed Mar 15 2023 15:19:26 GMT-0400 (Eastern Daylight Time)","635020","Match,No Match","","null","","","","","","<div class='trialBorder'><div class='vertical-center'><img src='img/correct.jpg'></div><div class='respDiv'><div class='respDivL'><font style='color:orange'>Match<br>(e)</font></div><div class='respDivR'>No Match<br>(i)</div></div></div>","null","FEEDBACK","","","","","","","","","","",""
"html-keyboard-response","185","458585","0.0-7.0-1.30","6108cd48a97ffccb0e7e518c","bdp_wmem","Wed Mar 15 2023 15:19:26 GMT-0400 (Eastern Daylight Time)","635020","Match,No Match","","null","","","","","","<div class='trialBorder'><div class='vertical-center'><img src='img/fixation2_sml.jpg'</img></div></div>","null","FIX","","","","","","","","","","",""
"html-keyboard-response","186","463089","0.0-7.0-2.30","6108cd48a97ffccb0e7e518c","bdp_wmem","Wed Mar 15 2023 15:19:26 GMT-0400 (Eastern Daylight Time)","635020","Match,No Match","","null","","","","","","<div class='trialBorder'><div class='vertical-center'><img style='vertical-align:center; align:center' src='img/fixation2_sml.jpg'></div><div class='arrayDiv3'><div class='tl'><img class='introPic' src='trustrating_stim/white_mw078.bmp'><br><font color='green'><strong>Share</strong></font></div><div class='tc'><img class='introPic' src='trustrating_stim/white_mw012.bmp'><br><font color='red'><strong>Keep</strong></font></div><div class='tr'><img class='introPic' src='trustrating_stim/white_mw038.bmp'><br><font color='green'><strong>Share</strong></font></div></div></div>","null","ARRAY","3","trustrating_stim/white_mw078.bmp,trustrating_stim/white_mw012.bmp,trustrating_stim/white_mw038.bmp","1,0,1","Match","e","4500","","","","",""
"html-keyboard-response","187","467096","0.0-7.0-3.30","6108cd48a97ffccb0e7e518c","bdp_wmem","Wed Mar 15 2023 15:19:26 GMT-0400 (Eastern Daylight Time)","635020","Match,No Match","","null","","","","","","<div class='trialBorder'><div class='vertical-center'><img src='img/fixation2_sml.jpg'</img></div></div>","null","DELAY","","","","","","","","","","",""
