"trial_type","trial_index","time_elapsed","internal_node_id","subject_id","task","startTime","totalTime","labels","view_history","rt","event","trial","time","trialtype","success","stimulus","key_press","stimType","arraySize","arrayFaces","arrayOutcomes","matchType","corrResp","arrayDur","targFace","targCol","targOutcome","trialType","corr"
"pavlovia","0","4","0.0-0.0","sconelab3","bdp_wmem","Wed Feb 22 2023 11:31:03 GMT-0500 (Eastern Standard Time)","633899","Match,No Match","","","","","","","","","","","","","","","","","","","","",""
"instructions","1","7153","0.0-1.0","sconelab3","bdp_wmem","Wed Feb 22 2023 11:31:03 GMT-0500 (Eastern Standard Time)","633899","Match,No Match","[{""page_index"":0,""viewing_time"":7146}]","7147","","","","","","","","","","","","","","","","","","",""
"","","","","sconelab3","bdp_wmem","Wed Feb 22 2023 11:31:03 GMT-0500 (Eastern Standard Time)","633899","Match,No Match","","","fullscreenenter","2","8902","fullscreenenter","","","","","","","","","","","","","","",""
"fullscreen","2","9892","0.0-2.0","sconelab3","bdp_wmem","Wed Feb 22 2023 11:31:03 GMT-0500 (Eastern Standard Time)","633899","Match,No Match","","","","","","","true","","","","","","","","","","","","","",""
"instructions","3","88954","0.0-4.0","sconelab3","bdp_wmem","Wed Feb 22 2023 11:31:03 GMT-0500 (Eastern Standard Time)","633899","Match,No Match","[{""page_index"":0,""viewing_time"":43769},{""page_index"":1,""viewing_time"":29028},{""page_index"":2,""viewing_time"":2514},{""page_index"":3,""viewing_time"":2382},{""page_index"":4,""viewing_time"":1364}]","79058","","","","","","","","","","","","","","","","","","",""
"html-keyboard-response","4","89464","0.0-5.0-1.0","sconelab3","bdp_wmem","Wed Feb 22 2023 11:31:03 GMT-0500 (Eastern Standard Time)","633899","Match,No Match","","null","","","","","","<div class='trialBorder'><div class='vertical-center'><img src='img/fixation2_sml.jpg'</img></div></div>","null","FIX","","","","","","","","","","",""
"html-keyboard-response","5","90976","0.0-5.0-2.0","sconelab3","bdp_wmem","Wed Feb 22 2023 11:31:03 GMT-0500 (Eastern Standard Time)","633899","Match,No Match","","null","","","","","","<div class='trialBorder'><div class='vertical-center'><img style='vertical-align:center; align:center' src='img/fixation2_sml.jpg'></div><div class='arrayDiv1'><div class='tc'><img class='introPic' src='trustrating_stim/white_mw040.bmp'><br><font color='red'><strong>Keep</strong></font></div></div></div>","null","ARRAY","1","trustrating_stim/white_mw040.bmp","0","Match","e","1500","","","","",""
"html-keyboard-response","6","94982","0.0-5.0-3.0","sconelab3","bdp_wmem","Wed Feb 22 2023 11:31:03 GMT-0500 (Eastern Standard Time)","633899","Match,No Match","","null","","","","","","<div class='trialBorder'><div class='vertical-center'><img src='img/fixation2_sml.jpg'</img></div></div>","null","DELAY","","","","","","","","","","",""
"html-keyboard-response","7","96673","0.0-5.0-4.0","sconelab3","bdp_wmem","Wed Feb 22 2023 11:31:03 GMT-0500 (Eastern Standard Time)","633899","Match,No Match","","1688","","","","","","<div class='trialBorder'><div class='targDiv'><div class='tc'><img class='introPic' src='trustrating_stim/white_mw040.bmp'><br><font color='red'><strong>Keep</strong></font></div></div><div class='respDiv'><div class='respDivL'>Match<br>(e)</div><div class='respDivR'>No Match<br>(i)</div></div></div>","e","TARGET","1","trustrating_stim/white_mw040.bmp","0","Match","e","1500","trustrating_stim/white_mw040.bmp","red","Keep","PRACTICE","1"
"html-keyboard-response","8","97184","0.0-5.0-5.0","sconelab3","bdp_wmem","Wed Feb 22 2023 11:31:03 GMT-0500 (Eastern Standard Time)","633899","Match,No Match","","null","","","","","","<div class='trialBorder'><div class='vertical-center'><img src='img/correct.jpg'></div><div class='respDiv'><div class='respDivL'><font style='color:orange'>Match<br>(e)</font></div><div class='respDivR'>No Match<br>(i)</div></div></div>","null","FEEDBACK","","","","","","","","","","",""
"html-keyboard-response","9","97695","0.0-5.0-1.1","sconelab3","bdp_wmem","Wed Feb 22 2023 11:31:03 GMT-0500 (Eastern Standard Time)","633899","Match,No Match","","null","","","","","","<div class='trialBorder'><div class='vertical-center'><img src='img/fixation2_sml.jpg'</img></div></div>","null","FIX","","","","","","","","","","",""
"html-keyboard-response","10","102208","0.0-5.0-2.1","sconelab3","bdp_wmem","Wed Feb 22 2023 11:31:03 GMT-0500 (Eastern Standard Time)","633899","Match,No Match","","null","","","","","","<div class='trialBorder'><div class='vertical-center'><img style='vertical-align:center; align:center' src='img/fixation2_sml.jpg'></div><div class='arrayDiv3'><div class='tl'><img class='introPic' src='trustrating_stim/white_mw085.bmp'><br><font color='red'><strong>Keep</strong></font></div><div class='tc'><img class='introPic' src='trustrating_stim/white_mw010.bmp'><br><font color='red'><strong>Keep</strong></font></div><div class='tr'><img class='introPic' src='trustrating_stim/white_mw042.bmp'><br><font color='green'><strong>Share</strong></font></div></div></div>","null","ARRAY","3","trustrating_stim/white_mw085.bmp,trustrating_stim/white_mw010.bmp,trustrating_stim/white_mw042.bmp","0,0,1","Match","e","4500","","","","",""
"html-keyboard-response","11","106214","0.0-5.0-3.1","sconelab3","bdp_wmem","Wed Feb 22 2023 11:31:03 GMT-0500 (Eastern Standard Time)","633899","Match,No Match","","null","","","","","","<div class='trialBorder'><div class='vertical-center'><img src='img/fixation2_sml.jpg'</img></div></div>","null","DELAY","","","","","","","","","","",""
"html-keyboard-response","12","108271","0.0-5.0-4.1","sconelab3","bdp_wmem","Wed Feb 22 2023 11:31:03 GMT-0500 (Eastern Standard Time)","633899","Match,No Match","","2055","","","","","","<div class='trialBorder'><div class='targDiv'><div class='tc'><img class='introPic' src='trustrating_stim/white_mw010.bmp'><br><font color='red'><strong>Keep</strong></font></div></div><div class='respDiv'><div class='respDivL'>Match<br>(e)</div><div class='respDivR'>No Match<br>(i)</div></div></div>","e","TARGET","3","trustrating_stim/white_mw085.bmp,trustrating_stim/white_mw010.bmp,trustrating_stim/white_mw042.bmp","0,0,1","Match","e","4500","trustrating_stim/white_mw010.bmp","red","Keep","PRACTICE","1"
"html-keyboard-response","13","108774","0.0-5.0-5.1","sconelab3","bdp_wmem","Wed Feb 22 2023 11:31:03 GMT-0500 (Eastern Standard Time)","633899","Match,No Match","","null","","","","","","<div class='trialBorder'><div class='vertical-center'><img src='img/correct.jpg'></div><div class='respDiv'><div class='respDivL'><font style='color:orange'>Match<br>(e)</font></div><div class='respDivR'>No Match<br>(i)</div></div></div>","null","FEEDBACK","","","","","","","","","","",""
"html-keyboard-response","14","109279","0.0-5.0-1.2","sconelab3","bdp_wmem","Wed Feb 22 2023 11:31:03 GMT-0500 (Eastern Standard Time)","633899","Match,No Match","","null","","","","","","<div class='trialBorder'><div class='vertical-center'><img src='img/fixation2_sml.jpg'</img></div></div>","null","FIX","","","","","","","","","","",""
"html-keyboard-response","15","112287","0.0-5.0-2.2","sconelab3","bdp_wmem","Wed Feb 22 2023 11:31:03 GMT-0500 (Eastern Standard Time)","633899","Match,No Match","","null","","","","","","<div class='trialBorder'><div class='vertical-center'><img style='vertical-align:center; align:center' src='img/fixation2_sml.jpg'></div><div class='arrayDiv2'><div class='tl'><img class='introPic' src='trustrating_stim/white_mw070.bmp'><br><font color='red'><strong>Keep</strong></font></div><div class='tr'><img class='introPic' src='trustrating_stim/white_mw042.bmp'><br><font color='green'><strong>Share</strong></font></div></div></div>","null","ARRAY","2","trustrating_stim/white_mw070.bmp,trustrating_stim/white_mw042.bmp","0,1","noMatchFace","i","3000","","","","",""
"html-keyboard-response","16","116293","0.0-5.0-3.2","sconelab3","bdp_wmem","Wed Feb 22 2023 11:31:03 GMT-0500 (Eastern Standard Time)","633899","Match,No Match","","null","","","","","","<div class='trialBorder'><div class='vertical-center'><img src='img/fixation2_sml.jpg'</img></div></div>","null","DELAY","","","","","","","","","","",""
"html-keyboard-response","17","119670","0.0-5.0-4.2","sconelab3","bdp_wmem","Wed Feb 22 2023 11:31:03 GMT-0500 (Eastern Standard Time)","633899","Match,No Match","","3373","","","","","","<div class='trialBorder'><div class='targDiv'><div class='tc'><img class='introPic' src='trustrating_stim/white_mw078.bmp'><br><font color='green'><strong>Share</strong></font></div></div><div class='respDiv'><div class='respDivL'>Match<br>(e)</div><div class='respDivR'>No Match<br>(i)</div></div></div>","e","TARGET","2","trustrating_stim/white_mw070.bmp,trustrating_stim/white_mw042.bmp","0,1","noMatchFace","i","3000","trustrating_stim/white_mw078.bmp","green","Share","PRACTICE","0"
"html-keyboard-response","18","120175","0.0-5.0-5.2","sconelab3","bdp_wmem","Wed Feb 22 2023 11:31:03 GMT-0500 (Eastern Standard Time)","633899","Match,No Match","","null","","","","","","<div class='trialBorder'><div class='vertical-center'><img src='img/error.jpg'></div><div class='respDiv'><div class='respDivL'><font style='color:orange'>Match<br>(e)</font></div><div class='respDivR'>No Match<br>(i)</div></div></div>","null","FEEDBACK","","","","","","","","","","",""
"html-keyboard-response","19","120677","0.0-5.0-1.3","sconelab3","bdp_wmem","Wed Feb 22 2023 11:31:03 GMT-0500 (Eastern Standard Time)","633899","Match,No Match","","null","","","","","","<div class='trialBorder'><div class='vertical-center'><img src='img/fixation2_sml.jpg'</img></div></div>","null","FIX","","","","","","","","","","",""
"html-keyboard-response","20","125182","0.0-5.0-2.3","sconelab3","bdp_wmem","Wed Feb 22 2023 11:31:03 GMT-0500 (Eastern Standard Time)","633899","Match,No Match","","null","","","","","","<div class='trialBorder'><div class='vertical-center'><img style='vertical-align:center; align:center' src='img/fixation2_sml.jpg'></div><div class='arrayDiv3'><div class='tl'><img class='introPic' src='trustrating_stim/white_mw013.bmp'><br><font color='green'><strong>Share</strong></font></div><div class='tc'><img class='introPic' src='trustrating_stim/white_mw012.bmp'><br><font color='green'><strong>Share</strong></font></div><div class='tr'><img class='introPic' src='trustrating_stim/white_mw091.bmp'><br><font color='red'><strong>Keep</strong></font></div></div></div>","null","ARRAY","3","trustrating_stim/white_mw013.bmp,trustrating_stim/white_mw012.bmp,trustrating_stim/white_mw091.bmp","1,1,0","noMatchOutcome","i","4500","","","","",""
"html-keyboard-response","21","129188","0.0-5.0-3.3","sconelab3","bdp_wmem","Wed Feb 22 2023 11:31:03 GMT-0500 (Eastern Standard Time)","633899","Match,No Match","","null","","","","","","<div class='trialBorder'><div class='vertical-center'><img src='img/fixation2_sml.jpg'</img></div></div>","null","DELAY","","","","","","","","","","",""
"html-keyboard-response","22","130670","0.0-5.0-4.3","sconelab3","bdp_wmem","Wed Feb 22 2023 11:31:03 GMT-0500 (Eastern Standard Time)","633899","Match,No Match","","1478","","","","","","<div class='trialBorder'><div class='targDiv'><div class='tc'><img class='introPic' src='trustrating_stim/white_mw091.bmp'><br><font color='green'><strong>Share</strong></font></div></div><div class='respDiv'><div class='respDivL'>Match<br>(e)</div><div class='respDivR'>No Match<br>(i)</div></div></div>","i","TARGET","3","trustrating_stim/white_mw013.bmp,trustrating_stim/white_mw012.bmp,trustrating_stim/white_mw091.bmp","1,1,0","noMatchOutcome","i","4500","trustrating_stim/white_mw091.bmp","green","Share","PRACTICE","1"
"html-keyboard-response","23","131172","0.0-5.0-5.3","sconelab3","bdp_wmem","Wed Feb 22 2023 11:31:03 GMT-0500 (Eastern Standard Time)","633899","Match,No Match","","null","","","","","","<div class='trialBorder'><div class='vertical-center'><img src='img/correct.jpg'></div><div class='respDiv'><div class='respDivL'>Match<br>(e)</div><div class='respDivR'><font style='color:orange'>No Match<br>(i)</font></div></div></div>","null","FEEDBACK","","","","","","","","","","",""
"html-keyboard-response","24","131678","0.0-5.0-1.4","sconelab3","bdp_wmem","Wed Feb 22 2023 11:31:03 GMT-0500 (Eastern Standard Time)","633899","Match,No Match","","null","","","","","","<div class='trialBorder'><div class='vertical-center'><img src='img/fixation2_sml.jpg'</img></div></div>","null","FIX","","","","","","","","","","",""
"html-keyboard-response","25","134686","0.0-5.0-2.4","sconelab3","bdp_wmem","Wed Feb 22 2023 11:31:03 GMT-0500 (Eastern Standard Time)","633899","Match,No Match","","null","","","","","","<div class='trialBorder'><div class='vertical-center'><img style='vertical-align:center; align:center' src='img/fixation2_sml.jpg'></div><div class='arrayDiv2'><div class='tl'><img class='introPic' src='trustrating_stim/white_mw078.bmp'><br><font color='red'><strong>Keep</strong></font></div><div class='tr'><img class='introPic' src='trustrating_stim/white_mw013.bmp'><br><font color='green'><strong>Share</strong></font></div></div></div>","null","ARRAY","2","trustrating_stim/white_mw078.bmp,trustrating_stim/white_mw013.bmp","0,1","Match","e","3000","","","","",""
"html-keyboard-response","26","138692","0.0-5.0-3.4","sconelab3","bdp_wmem","Wed Feb 22 2023 11:31:03 GMT-0500 (Eastern Standard Time)","633899","Match,No Match","","null","","","","","","<div class='trialBorder'><div class='vertical-center'><img src='img/fixation2_sml.jpg'</img></div></div>","null","DELAY","","","","","","","","","","",""
"html-keyboard-response","27","141363","0.0-5.0-4.4","sconelab3","bdp_wmem","Wed Feb 22 2023 11:31:03 GMT-0500 (Eastern Standard Time)","633899","Match,No Match","","2668","","","","","","<div class='trialBorder'><div class='targDiv'><div class='tc'><img class='introPic' src='trustrating_stim/white_mw078.bmp'><br><font color='red'><strong>Keep</strong></font></div></div><div class='respDiv'><div class='respDivL'>Match<br>(e)</div><div class='respDivR'>No Match<br>(i)</div></div></div>","e","TARGET","2","trustrating_stim/white_mw078.bmp,trustrating_stim/white_mw013.bmp","0,1","Match","e","3000","trustrating_stim/white_mw078.bmp","red","Keep","PRACTICE","1"
"html-keyboard-response","28","141869","0.0-5.0-5.4","sconelab3","bdp_wmem","Wed Feb 22 2023 11:31:03 GMT-0500 (Eastern Standard Time)","633899","Match,No Match","","null","","","","","","<div class='trialBorder'><div class='vertical-center'><img src='img/correct.jpg'></div><div class='respDiv'><div class='respDivL'><font style='color:orange'>Match<br>(e)</font></div><div class='respDivR'>No Match<br>(i)</div></div></div>","null","FEEDBACK","","","","","","","","","","",""
"html-keyboard-response","29","142372","0.0-5.0-1.5","sconelab3","bdp_wmem","Wed Feb 22 2023 11:31:03 GMT-0500 (Eastern Standard Time)","633899","Match,No Match","","null","","","","","","<div class='trialBorder'><div class='vertical-center'><img src='img/fixation2_sml.jpg'</img></div></div>","null","FIX","","","","","","","","","","",""
"html-keyboard-response","30","143876","0.0-5.0-2.5","sconelab3","bdp_wmem","Wed Feb 22 2023 11:31:03 GMT-0500 (Eastern Standard Time)","633899","Match,No Match","","null","","","","","","<div class='trialBorder'><div class='vertical-center'><img style='vertical-align:center; align:center' src='img/fixation2_sml.jpg'></div><div class='arrayDiv1'><div class='tc'><img class='introPic' src='trustrating_stim/white_mw085.bmp'><br><font color='red'><strong>Keep</strong></font></div></div></div>","null","ARRAY","1","trustrating_stim/white_mw085.bmp","0","noMatchFace","i","1500","","","","",""
"html-keyboard-response","31","147885","0.0-5.0-3.5","sconelab3","bdp_wmem","Wed Feb 22 2023 11:31:03 GMT-0500 (Eastern Standard Time)","633899","Match,No Match","","null","","","","","","<div class='trialBorder'><div class='vertical-center'><img src='img/fixation2_sml.jpg'</img></div></div>","null","DELAY","","","","","","","","","","",""
"html-keyboard-response","32","151543","0.0-5.0-4.5","sconelab3","bdp_wmem","Wed Feb 22 2023 11:31:03 GMT-0500 (Eastern Standard Time)","633899","Match,No Match","","3655","","","","","","<div class='trialBorder'><div class='targDiv'><div class='tc'><img class='introPic' src='trustrating_stim/white_mw070.bmp'><br><font color='red'><strong>Keep</strong></font></div></div><div class='respDiv'><div class='respDivL'>Match<br>(e)</div><div class='respDivR'>No Match<br>(i)</div></div></div>","i","TARGET","1","trustrating_stim/white_mw085.bmp","0","noMatchFace","i","1500","trustrating_stim/white_mw070.bmp","red","Keep","PRACTICE","1"
"html-keyboard-response","33","152045","0.0-5.0-5.5","sconelab3","bdp_wmem","Wed Feb 22 2023 11:31:03 GMT-0500 (Eastern Standard Time)","633899","Match,No Match","","null","","","","","","<div class='trialBorder'><div class='vertical-center'><img src='img/correct.jpg'></div><div class='respDiv'><div class='respDivL'>Match<br>(e)</div><div class='respDivR'><font style='color:orange'>No Match<br>(i)</font></div></div></div>","null","FEEDBACK","","","","","","","","","","",""
"instructions","34","153934","0.0-6.0","sconelab3","bdp_wmem","Wed Feb 22 2023 11:31:03 GMT-0500 (Eastern Standard Time)","633899","Match,No Match","[{""page_index"":0,""viewing_time"":1888}]","1888","","","","","","","","","","","","","","","","","","",""
"html-keyboard-response","35","154445","0.0-7.0-1.0","sconelab3","bdp_wmem","Wed Feb 22 2023 11:31:03 GMT-0500 (Eastern Standard Time)","633899","Match,No Match","","null","","","","","","<div class='trialBorder'><div class='vertical-center'><img src='img/fixation2_sml.jpg'</img></div></div>","null","FIX","","","","","","","","","","",""
"html-keyboard-response","36","155949","0.0-7.0-2.0","sconelab3","bdp_wmem","Wed Feb 22 2023 11:31:03 GMT-0500 (Eastern Standard Time)","633899","Match,No Match","","null","","","","","","<div class='trialBorder'><div class='vertical-center'><img style='vertical-align:center; align:center' src='img/fixation2_sml.jpg'></div><div class='arrayDiv1'><div class='tc'><img class='introPic' src='trustrating_stim/white_mw070.bmp'><br><font color='red'><strong>Keep</strong></font></div></div></div>","null","ARRAY","1","trustrating_stim/white_mw070.bmp","0","Match","e","1500","","","","",""
"html-keyboard-response","37","159955","0.0-7.0-3.0","sconelab3","bdp_wmem","Wed Feb 22 2023 11:31:03 GMT-0500 (Eastern Standard Time)","633899","Match,No Match","","null","","","","","","<div class='trialBorder'><div class='vertical-center'><img src='img/fixation2_sml.jpg'</img></div></div>","null","DELAY","","","","","","","","","","",""
"html-keyboard-response","38","160939","0.0-7.0-4.0","sconelab3","bdp_wmem","Wed Feb 22 2023 11:31:03 GMT-0500 (Eastern Standard Time)","633899","Match,No Match","","982","","","","","","<div class='trialBorder'><div class='targDiv'><div class='tc'><img class='introPic' src='trustrating_stim/white_mw070.bmp'><br><font color='red'><strong>Keep</strong></font></div></div><div class='respDiv'><div class='respDivL'>Match<br>(e)</div><div class='respDivR'>No Match<br>(i)</div></div></div>","e","TARGET","1","trustrating_stim/white_mw070.bmp","0","Match","e","1500","trustrating_stim/white_mw070.bmp","red","Keep","REAL","1"
"html-keyboard-response","39","161443","0.0-7.0-5.0","sconelab3","bdp_wmem","Wed Feb 22 2023 11:31:03 GMT-0500 (Eastern Standard Time)","633899","Match,No Match","","null","","","","","","<div class='trialBorder'><div class='vertical-center'><img src='img/correct.jpg'></div><div class='respDiv'><div class='respDivL'><font style='color:orange'>Match<br>(e)</font></div><div class='respDivR'>No Match<br>(i)</div></div></div>","null","FEEDBACK","","","","","","","","","","",""
"html-keyboard-response","40","161949","0.0-7.0-1.1","sconelab3","bdp_wmem","Wed Feb 22 2023 11:31:03 GMT-0500 (Eastern Standard Time)","633899","Match,No Match","","null","","","","","","<div class='trialBorder'><div class='vertical-center'><img src='img/fixation2_sml.jpg'</img></div></div>","null","FIX","","","","","","","","","","",""
"html-keyboard-response","41","164956","0.0-7.0-2.1","sconelab3","bdp_wmem","Wed Feb 22 2023 11:31:03 GMT-0500 (Eastern Standard Time)","633899","Match,No Match","","null","","","","","","<div class='trialBorder'><div class='vertical-center'><img style='vertical-align:center; align:center' src='img/fixation2_sml.jpg'></div><div class='arrayDiv2'><div class='tl'><img class='introPic' src='trustrating_stim/white_mw092.bmp'><br><font color='red'><strong>Keep</strong></font></div><div class='tr'><img class='introPic' src='trustrating_stim/white_mw010.bmp'><br><font color='green'><strong>Share</strong></font></div></div></div>","null","ARRAY","2","trustrating_stim/white_mw092.bmp,trustrating_stim/white_mw010.bmp","0,1","noMatchOutcome","i","3000","","","","",""
"html-keyboard-response","42","168967","0.0-7.0-3.1","sconelab3","bdp_wmem","Wed Feb 22 2023 11:31:03 GMT-0500 (Eastern Standard Time)","633899","Match,No Match","","null","","","","","","<div class='trialBorder'><div class='vertical-center'><img src='img/fixation2_sml.jpg'</img></div></div>","null","DELAY","","","","","","","","","","",""
"html-keyboard-response","43","170321","0.0-7.0-4.1","sconelab3","bdp_wmem","Wed Feb 22 2023 11:31:03 GMT-0500 (Eastern Standard Time)","633899","Match,No Match","","1352","","","","","","<div class='trialBorder'><div class='targDiv'><div class='tc'><img class='introPic' src='trustrating_stim/white_mw010.bmp'><br><font color='red'><strong>Keep</strong></font></div></div><div class='respDiv'><div class='respDivL'>Match<br>(e)</div><div class='respDivR'>No Match<br>(i)</div></div></div>","e","TARGET","2","trustrating_stim/white_mw092.bmp,trustrating_stim/white_mw010.bmp","0,1","noMatchOutcome","i","3000","trustrating_stim/white_mw010.bmp","red","Keep","REAL","0"
"html-keyboard-response","44","170828","0.0-7.0-5.1","sconelab3","bdp_wmem","Wed Feb 22 2023 11:31:03 GMT-0500 (Eastern Standard Time)","633899","Match,No Match","","null","","","","","","<div class='trialBorder'><div class='vertical-center'><img src='img/error.jpg'></div><div class='respDiv'><div class='respDivL'><font style='color:orange'>Match<br>(e)</font></div><div class='respDivR'>No Match<br>(i)</div></div></div>","null","FEEDBACK","","","","","","","","","","",""
"html-keyboard-response","45","171331","0.0-7.0-1.2","sconelab3","bdp_wmem","Wed Feb 22 2023 11:31:03 GMT-0500 (Eastern Standard Time)","633899","Match,No Match","","null","","","","","","<div class='trialBorder'><div class='vertical-center'><img src='img/fixation2_sml.jpg'</img></div></div>","null","FIX","","","","","","","","","","",""
"html-keyboard-response","46","172835","0.0-7.0-2.2","sconelab3","bdp_wmem","Wed Feb 22 2023 11:31:03 GMT-0500 (Eastern Standard Time)","633899","Match,No Match","","null","","","","","","<div class='trialBorder'><div class='vertical-center'><img style='vertical-align:center; align:center' src='img/fixation2_sml.jpg'></div><div class='arrayDiv1'><div class='tc'><img class='introPic' src='trustrating_stim/white_mw003.bmp'><br><font color='green'><strong>Share</strong></font></div></div></div>","null","ARRAY","1","trustrating_stim/white_mw003.bmp","1","noMatchFace","i","1500","","","","",""
"html-keyboard-response","47","176843","0.0-7.0-3.2","sconelab3","bdp_wmem","Wed Feb 22 2023 11:31:03 GMT-0500 (Eastern Standard Time)","633899","Match,No Match","","null","","","","","","<div class='trialBorder'><div class='vertical-center'><img src='img/fixation2_sml.jpg'</img></div></div>","null","DELAY","","","","","","","","","","",""
"html-keyboard-response","48","178646","0.0-7.0-4.2","sconelab3","bdp_wmem","Wed Feb 22 2023 11:31:03 GMT-0500 (Eastern Standard Time)","633899","Match,No Match","","1800","","","","","","<div class='trialBorder'><div class='targDiv'><div class='tc'><img class='introPic' src='trustrating_stim/white_mw085.bmp'><br><font color='green'><strong>Share</strong></font></div></div><div class='respDiv'><div class='respDivL'>Match<br>(e)</div><div class='respDivR'>No Match<br>(i)</div></div></div>","i","TARGET","1","trustrating_stim/white_mw003.bmp","1","noMatchFace","i","1500","trustrating_stim/white_mw085.bmp","green","Share","REAL","1"
"html-keyboard-response","49","179154","0.0-7.0-5.2","sconelab3","bdp_wmem","Wed Feb 22 2023 11:31:03 GMT-0500 (Eastern Standard Time)","633899","Match,No Match","","null","","","","","","<div class='trialBorder'><div class='vertical-center'><img src='img/correct.jpg'></div><div class='respDiv'><div class='respDivL'>Match<br>(e)</div><div class='respDivR'><font style='color:orange'>No Match<br>(i)</font></div></div></div>","null","FEEDBACK","","","","","","","","","","",""
"html-keyboard-response","50","179660","0.0-7.0-1.3","sconelab3","bdp_wmem","Wed Feb 22 2023 11:31:03 GMT-0500 (Eastern Standard Time)","633899","Match,No Match","","null","","","","","","<div class='trialBorder'><div class='vertical-center'><img src='img/fixation2_sml.jpg'</img></div></div>","null","FIX","","","","","","","","","","",""
"html-keyboard-response","51","182667","0.0-7.0-2.3","sconelab3","bdp_wmem","Wed Feb 22 2023 11:31:03 GMT-0500 (Eastern Standard Time)","633899","Match,No Match","","null","","","","","","<div class='trialBorder'><div class='vertical-center'><img style='vertical-align:center; align:center' src='img/fixation2_sml.jpg'></div><div class='arrayDiv2'><div class='tl'><img class='introPic' src='trustrating_stim/white_mw012.bmp'><br><font color='green'><strong>Share</strong></font></div><div class='tr'><img class='introPic' src='trustrating_stim/white_mw013.bmp'><br><font color='red'><strong>Keep</strong></font></div></div></div>","null","ARRAY","2","trustrating_stim/white_mw012.bmp,trustrating_stim/white_mw013.bmp","1,0","Match","e","3000","","","","",""
"html-keyboard-response","52","186674","0.0-7.0-3.3","sconelab3","bdp_wmem","Wed Feb 22 2023 11:31:03 GMT-0500 (Eastern Standard Time)","633899","Match,No Match","","null","","","","","","<div class='trialBorder'><div class='vertical-center'><img src='img/fixation2_sml.jpg'</img></div></div>","null","DELAY","","","","","","","","","","",""
"html-keyboard-response","53","188252","0.0-7.0-4.3","sconelab3","bdp_wmem","Wed Feb 22 2023 11:31:03 GMT-0500 (Eastern Standard Time)","633899","Match,No Match","","1576","","","","","","<div class='trialBorder'><div class='targDiv'><div class='tc'><img class='introPic' src='trustrating_stim/white_mw012.bmp'><br><font color='green'><strong>Share</strong></font></div></div><div class='respDiv'><div class='respDivL'>Match<br>(e)</div><div class='respDivR'>No Match<br>(i)</div></div></div>","e","TARGET","2","trustrating_stim/white_mw012.bmp,trustrating_stim/white_mw013.bmp","1,0","Match","e","3000","trustrating_stim/white_mw012.bmp","green","Share","REAL","1"
"html-keyboard-response","54","188754","0.0-7.0-5.3","sconelab3","bdp_wmem","Wed Feb 22 2023 11:31:03 GMT-0500 (Eastern Standard Time)","633899","Match,No Match","","null","","","","","","<div class='trialBorder'><div class='vertical-center'><img src='img/correct.jpg'></div><div class='respDiv'><div class='respDivL'><font style='color:orange'>Match<br>(e)</font></div><div class='respDivR'>No Match<br>(i)</div></div></div>","null","FEEDBACK","","","","","","","","","","",""
"html-keyboard-response","55","189259","0.0-7.0-1.4","sconelab3","bdp_wmem","Wed Feb 22 2023 11:31:03 GMT-0500 (Eastern Standard Time)","633899","Match,No Match","","null","","","","","","<div class='trialBorder'><div class='vertical-center'><img src='img/fixation2_sml.jpg'</img></div></div>","null","FIX","","","","","","","","","","",""
"html-keyboard-response","56","192267","0.0-7.0-2.4","sconelab3","bdp_wmem","Wed Feb 22 2023 11:31:03 GMT-0500 (Eastern Standard Time)","633899","Match,No Match","","null","","","","","","<div class='trialBorder'><div class='vertical-center'><img style='vertical-align:center; align:center' src='img/fixation2_sml.jpg'></div><div class='arrayDiv2'><div class='tl'><img class='introPic' src='trustrating_stim/white_mw010.bmp'><br><font color='red'><strong>Keep</strong></font></div><div class='tr'><img class='introPic' src='trustrating_stim/white_mw040.bmp'><br><font color='green'><strong>Share</strong></font></div></div></div>","null","ARRAY","2","trustrating_stim/white_mw010.bmp,trustrating_stim/white_mw040.bmp","0,1","Match","e","3000","","","","",""
"html-keyboard-response","57","196273","0.0-7.0-3.4","sconelab3","bdp_wmem","Wed Feb 22 2023 11:31:03 GMT-0500 (Eastern Standard Time)","633899","Match,No Match","","null","","","","","","<div class='trialBorder'><div class='vertical-center'><img src='img/fixation2_sml.jpg'</img></div></div>","null","DELAY","","","","","","","","","","",""
"html-keyboard-response","58","197951","0.0-7.0-4.4","sconelab3","bdp_wmem","Wed Feb 22 2023 11:31:03 GMT-0500 (Eastern Standard Time)","633899","Match,No Match","","1675","","","","","","<div class='trialBorder'><div class='targDiv'><div class='tc'><img class='introPic' src='trustrating_stim/white_mw010.bmp'><br><font color='red'><strong>Keep</strong></font></div></div><div class='respDiv'><div class='respDivL'>Match<br>(e)</div><div class='respDivR'>No Match<br>(i)</div></div></div>","e","TARGET","2","trustrating_stim/white_mw010.bmp,trustrating_stim/white_mw040.bmp","0,1","Match","e","3000","trustrating_stim/white_mw010.bmp","red","Keep","REAL","1"
"html-keyboard-response","59","198459","0.0-7.0-5.4","sconelab3","bdp_wmem","Wed Feb 22 2023 11:31:03 GMT-0500 (Eastern Standard Time)","633899","Match,No Match","","null","","","","","","<div class='trialBorder'><div class='vertical-center'><img src='img/correct.jpg'></div><div class='respDiv'><div class='respDivL'><font style='color:orange'>Match<br>(e)</font></div><div class='respDivR'>No Match<br>(i)</div></div></div>","null","FEEDBACK","","","","","","","","","","",""
"html-keyboard-response","60","198961","0.0-7.0-1.5","sconelab3","bdp_wmem","Wed Feb 22 2023 11:31:03 GMT-0500 (Eastern Standard Time)","633899","Match,No Match","","null","","","","","","<div class='trialBorder'><div class='vertical-center'><img src='img/fixation2_sml.jpg'</img></div></div>","null","FIX","","","","","","","","","","",""
"html-keyboard-response","61","203466","0.0-7.0-2.5","sconelab3","bdp_wmem","Wed Feb 22 2023 11:31:03 GMT-0500 (Eastern Standard Time)","633899","Match,No Match","","null","","","","","","<div class='trialBorder'><div class='vertical-center'><img style='vertical-align:center; align:center' src='img/fixation2_sml.jpg'></div><div class='arrayDiv3'><div class='tl'><img class='introPic' src='trustrating_stim/white_mw013.bmp'><br><font color='green'><strong>Share</strong></font></div><div class='tc'><img class='introPic' src='trustrating_stim/white_mw091.bmp'><br><font color='red'><strong>Keep</strong></font></div><div class='tr'><img class='introPic' src='trustrating_stim/white_mw040.bmp'><br><font color='red'><strong>Keep</strong></font></div></div></div>","null","ARRAY","3","trustrating_stim/white_mw013.bmp,trustrating_stim/white_mw091.bmp,trustrating_stim/white_mw040.bmp","1,0,0","Match","e","4500","","","","",""
"html-keyboard-response","62","207473","0.0-7.0-3.5","sconelab3","bdp_wmem","Wed Feb 22 2023 11:31:03 GMT-0500 (Eastern Standard Time)","633899","Match,No Match","","null","","","","","","<div class='trialBorder'><div class='vertical-center'><img src='img/fixation2_sml.jpg'</img></div></div>","null","DELAY","","","","","","","","","","",""
"html-keyboard-response","63","209599","0.0-7.0-4.5","sconelab3","bdp_wmem","Wed Feb 22 2023 11:31:03 GMT-0500 (Eastern Standard Time)","633899","Match,No Match","","2124","","","","","","<div class='trialBorder'><div class='targDiv'><div class='tc'><img class='introPic' src='trustrating_stim/white_mw013.bmp'><br><font color='green'><strong>Share</strong></font></div></div><div class='respDiv'><div class='respDivL'>Match<br>(e)</div><div class='respDivR'>No Match<br>(i)</div></div></div>","e","TARGET","3","trustrating_stim/white_mw013.bmp,trustrating_stim/white_mw091.bmp,trustrating_stim/white_mw040.bmp","1,0,0","Match","e","4500","trustrating_stim/white_mw013.bmp","green","Share","REAL","1"
"html-keyboard-response","64","210106","0.0-7.0-5.5","sconelab3","bdp_wmem","Wed Feb 22 2023 11:31:03 GMT-0500 (Eastern Standard Time)","633899","Match,No Match","","null","","","","","","<div class='trialBorder'><div class='vertical-center'><img src='img/correct.jpg'></div><div class='respDiv'><div class='respDivL'><font style='color:orange'>Match<br>(e)</font></div><div class='respDivR'>No Match<br>(i)</div></div></div>","null","FEEDBACK","","","","","","","","","","",""
"html-keyboard-response","65","210609","0.0-7.0-1.6","sconelab3","bdp_wmem","Wed Feb 22 2023 11:31:03 GMT-0500 (Eastern Standard Time)","633899","Match,No Match","","null","","","","","","<div class='trialBorder'><div class='vertical-center'><img src='img/fixation2_sml.jpg'</img></div></div>","null","FIX","","","","","","","","","","",""
"html-keyboard-response","66","215114","0.0-7.0-2.6","sconelab3","bdp_wmem","Wed Feb 22 2023 11:31:03 GMT-0500 (Eastern Standard Time)","633899","Match,No Match","","null","","","","","","<div class='trialBorder'><div class='vertical-center'><img style='vertical-align:center; align:center' src='img/fixation2_sml.jpg'></div><div class='arrayDiv3'><div class='tl'><img class='introPic' src='trustrating_stim/white_mw092.bmp'><br><font color='red'><strong>Keep</strong></font></div><div class='tc'><img class='introPic' src='trustrating_stim/white_mw085.bmp'><br><font color='green'><strong>Share</strong></font></div><div class='tr'><img class='introPic' src='trustrating_stim/white_mw003.bmp'><br><font color='red'><strong>Keep</strong></font></div></div></div>","null","ARRAY","3","trustrating_stim/white_mw092.bmp,trustrating_stim/white_mw085.bmp,trustrating_stim/white_mw003.bmp","0,1,0","noMatchFace","i","4500","","","","",""
"html-keyboard-response","67","219120","0.0-7.0-3.6","sconelab3","bdp_wmem","Wed Feb 22 2023 11:31:03 GMT-0500 (Eastern Standard Time)","633899","Match,No Match","","null","","","","","","<div class='trialBorder'><div class='vertical-center'><img src='img/fixation2_sml.jpg'</img></div></div>","null","DELAY","","","","","","","","","","",""
"html-keyboard-response","68","220602","0.0-7.0-4.6","sconelab3","bdp_wmem","Wed Feb 22 2023 11:31:03 GMT-0500 (Eastern Standard Time)","633899","Match,No Match","","1479","","","","","","<div class='trialBorder'><div class='targDiv'><div class='tc'><img class='introPic' src='trustrating_stim/white_mw091.bmp'><br><font color='green'><strong>Share</strong></font></div></div><div class='respDiv'><div class='respDivL'>Match<br>(e)</div><div class='respDivR'>No Match<br>(i)</div></div></div>","i","TARGET","3","trustrating_stim/white_mw092.bmp,trustrating_stim/white_mw085.bmp,trustrating_stim/white_mw003.bmp","0,1,0","noMatchFace","i","4500","trustrating_stim/white_mw091.bmp","green","Share","REAL","1"
"html-keyboard-response","69","221104","0.0-7.0-5.6","sconelab3","bdp_wmem","Wed Feb 22 2023 11:31:03 GMT-0500 (Eastern Standard Time)","633899","Match,No Match","","null","","","","","","<div class='trialBorder'><div class='vertical-center'><img src='img/correct.jpg'></div><div class='respDiv'><div class='respDivL'>Match<br>(e)</div><div class='respDivR'><font style='color:orange'>No Match<br>(i)</font></div></div></div>","null","FEEDBACK","","","","","","","","","","",""
"html-keyboard-response","70","221609","0.0-7.0-1.7","sconelab3","bdp_wmem","Wed Feb 22 2023 11:31:03 GMT-0500 (Eastern Standard Time)","633899","Match,No Match","","null","","","","","","<div class='trialBorder'><div class='vertical-center'><img src='img/fixation2_sml.jpg'</img></div></div>","null","FIX","","","","","","","","","","",""
"html-keyboard-response","71","224617","0.0-7.0-2.7","sconelab3","bdp_wmem","Wed Feb 22 2023 11:31:03 GMT-0500 (Eastern Standard Time)","633899","Match,No Match","","null","","","","","","<div class='trialBorder'><div class='vertical-center'><img style='vertical-align:center; align:center' src='img/fixation2_sml.jpg'></div><div class='arrayDiv2'><div class='tl'><img class='introPic' src='trustrating_stim/white_mw078.bmp'><br><font color='red'><strong>Keep</strong></font></div><div class='tr'><img class='introPic' src='trustrating_stim/white_mw010.bmp'><br><font color='green'><strong>Share</strong></font></div></div></div>","null","ARRAY","2","trustrating_stim/white_mw078.bmp,trustrating_stim/white_mw010.bmp","0,1","noMatchOutcome","i","3000","","","","",""
"html-keyboard-response","72","228624","0.0-7.0-3.7","sconelab3","bdp_wmem","Wed Feb 22 2023 11:31:03 GMT-0500 (Eastern Standard Time)","633899","Match,No Match","","null","","","","","","<div class='trialBorder'><div class='vertical-center'><img src='img/fixation2_sml.jpg'</img></div></div>","null","DELAY","","","","","","","","","","",""
"html-keyboard-response","73","229817","0.0-7.0-4.7","sconelab3","bdp_wmem","Wed Feb 22 2023 11:31:03 GMT-0500 (Eastern Standard Time)","633899","Match,No Match","","1190","","","","","","<div class='trialBorder'><div class='targDiv'><div class='tc'><img class='introPic' src='trustrating_stim/white_mw078.bmp'><br><font color='green'><strong>Share</strong></font></div></div><div class='respDiv'><div class='respDivL'>Match<br>(e)</div><div class='respDivR'>No Match<br>(i)</div></div></div>","i","TARGET","2","trustrating_stim/white_mw078.bmp,trustrating_stim/white_mw010.bmp","0,1","noMatchOutcome","i","3000","trustrating_stim/white_mw078.bmp","green","Share","REAL","1"
"html-keyboard-response","74","230320","0.0-7.0-5.7","sconelab3","bdp_wmem","Wed Feb 22 2023 11:31:03 GMT-0500 (Eastern Standard Time)","633899","Match,No Match","","null","","","","","","<div class='trialBorder'><div class='vertical-center'><img src='img/correct.jpg'></div><div class='respDiv'><div class='respDivL'>Match<br>(e)</div><div class='respDivR'><font style='color:orange'>No Match<br>(i)</font></div></div></div>","null","FEEDBACK","","","","","","","","","","",""
"html-keyboard-response","75","230825","0.0-7.0-1.8","sconelab3","bdp_wmem","Wed Feb 22 2023 11:31:03 GMT-0500 (Eastern Standard Time)","633899","Match,No Match","","null","","","","","","<div class='trialBorder'><div class='vertical-center'><img src='img/fixation2_sml.jpg'</img></div></div>","null","FIX","","","","","","","","","","",""
"html-keyboard-response","76","232329","0.0-7.0-2.8","sconelab3","bdp_wmem","Wed Feb 22 2023 11:31:03 GMT-0500 (Eastern Standard Time)","633899","Match,No Match","","null","","","","","","<div class='trialBorder'><div class='vertical-center'><img style='vertical-align:center; align:center' src='img/fixation2_sml.jpg'></div><div class='arrayDiv1'><div class='tc'><img class='introPic' src='trustrating_stim/white_mw012.bmp'><br><font color='red'><strong>Keep</strong></font></div></div></div>","null","ARRAY","1","trustrating_stim/white_mw012.bmp","0","noMatchOutcome","i","1500","","","","",""
"html-keyboard-response","77","236335","0.0-7.0-3.8","sconelab3","bdp_wmem","Wed Feb 22 2023 11:31:03 GMT-0500 (Eastern Standard Time)","633899","Match,No Match","","null","","","","","","<div class='trialBorder'><div class='vertical-center'><img src='img/fixation2_sml.jpg'</img></div></div>","null","DELAY","","","","","","","","","","",""
"html-keyboard-response","78","237808","0.0-7.0-4.8","sconelab3","bdp_wmem","Wed Feb 22 2023 11:31:03 GMT-0500 (Eastern Standard Time)","633899","Match,No Match","","1469","","","","","","<div class='trialBorder'><div class='targDiv'><div class='tc'><img class='introPic' src='trustrating_stim/white_mw012.bmp'><br><font color='green'><strong>Share</strong></font></div></div><div class='respDiv'><div class='respDivL'>Match<br>(e)</div><div class='respDivR'>No Match<br>(i)</div></div></div>","i","TARGET","1","trustrating_stim/white_mw012.bmp","0","noMatchOutcome","i","1500","trustrating_stim/white_mw012.bmp","green","Share","REAL","1"
"html-keyboard-response","79","238313","0.0-7.0-5.8","sconelab3","bdp_wmem","Wed Feb 22 2023 11:31:03 GMT-0500 (Eastern Standard Time)","633899","Match,No Match","","null","","","","","","<div class='trialBorder'><div class='vertical-center'><img src='img/correct.jpg'></div><div class='respDiv'><div class='respDivL'>Match<br>(e)</div><div class='respDivR'><font style='color:orange'>No Match<br>(i)</font></div></div></div>","null","FEEDBACK","","","","","","","","","","",""
"html-keyboard-response","80","238819","0.0-7.0-1.9","sconelab3","bdp_wmem","Wed Feb 22 2023 11:31:03 GMT-0500 (Eastern Standard Time)","633899","Match,No Match","","null","","","","","","<div class='trialBorder'><div class='vertical-center'><img src='img/fixation2_sml.jpg'</img></div></div>","null","FIX","","","","","","","","","","",""
"html-keyboard-response","81","243327","0.0-7.0-2.9","sconelab3","bdp_wmem","Wed Feb 22 2023 11:31:03 GMT-0500 (Eastern Standard Time)","633899","Match,No Match","","null","","","","","","<div class='trialBorder'><div class='vertical-center'><img style='vertical-align:center; align:center' src='img/fixation2_sml.jpg'></div><div class='arrayDiv3'><div class='tl'><img class='introPic' src='trustrating_stim/white_mw042.bmp'><br><font color='green'><strong>Share</strong></font></div><div class='tc'><img class='introPic' src='trustrating_stim/white_mw013.bmp'><br><font color='red'><strong>Keep</strong></font></div><div class='tr'><img class='introPic' src='trustrating_stim/white_mw092.bmp'><br><font color='green'><strong>Share</strong></font></div></div></div>","null","ARRAY","3","trustrating_stim/white_mw042.bmp,trustrating_stim/white_mw013.bmp,trustrating_stim/white_mw092.bmp","1,0,1","noMatchFace","i","4500","","","","",""
"html-keyboard-response","82","247336","0.0-7.0-3.9","sconelab3","bdp_wmem","Wed Feb 22 2023 11:31:03 GMT-0500 (Eastern Standard Time)","633899","Match,No Match","","null","","","","","","<div class='trialBorder'><div class='vertical-center'><img src='img/fixation2_sml.jpg'</img></div></div>","null","DELAY","","","","","","","","","","",""
"html-keyboard-response","83","248325","0.0-7.0-4.9","sconelab3","bdp_wmem","Wed Feb 22 2023 11:31:03 GMT-0500 (Eastern Standard Time)","633899","Match,No Match","","987","","","","","","<div class='trialBorder'><div class='targDiv'><div class='tc'><img class='introPic' src='trustrating_stim/white_mw012.bmp'><br><font color='green'><strong>Share</strong></font></div></div><div class='respDiv'><div class='respDivL'>Match<br>(e)</div><div class='respDivR'>No Match<br>(i)</div></div></div>","e","TARGET","3","trustrating_stim/white_mw042.bmp,trustrating_stim/white_mw013.bmp,trustrating_stim/white_mw092.bmp","1,0,1","noMatchFace","i","4500","trustrating_stim/white_mw012.bmp","green","Share","REAL","0"
"html-keyboard-response","84","248831","0.0-7.0-5.9","sconelab3","bdp_wmem","Wed Feb 22 2023 11:31:03 GMT-0500 (Eastern Standard Time)","633899","Match,No Match","","null","","","","","","<div class='trialBorder'><div class='vertical-center'><img src='img/error.jpg'></div><div class='respDiv'><div class='respDivL'><font style='color:orange'>Match<br>(e)</font></div><div class='respDivR'>No Match<br>(i)</div></div></div>","null","FEEDBACK","","","","","","","","","","",""
"html-keyboard-response","85","249336","0.0-7.0-1.10","sconelab3","bdp_wmem","Wed Feb 22 2023 11:31:03 GMT-0500 (Eastern Standard Time)","633899","Match,No Match","","null","","","","","","<div class='trialBorder'><div class='vertical-center'><img src='img/fixation2_sml.jpg'</img></div></div>","null","FIX","","","","","","","","","","",""
"html-keyboard-response","86","250840","0.0-7.0-2.10","sconelab3","bdp_wmem","Wed Feb 22 2023 11:31:03 GMT-0500 (Eastern Standard Time)","633899","Match,No Match","","null","","","","","","<div class='trialBorder'><div class='vertical-center'><img style='vertical-align:center; align:center' src='img/fixation2_sml.jpg'></div><div class='arrayDiv1'><div class='tc'><img class='introPic' src='trustrating_stim/white_mw091.bmp'><br><font color='red'><strong>Keep</strong></font></div></div></div>","null","ARRAY","1","trustrating_stim/white_mw091.bmp","0","noMatchFace","i","1500","","","","",""
"html-keyboard-response","87","254846","0.0-7.0-3.10","sconelab3","bdp_wmem","Wed Feb 22 2023 11:31:03 GMT-0500 (Eastern Standard Time)","633899","Match,No Match","","null","","","","","","<div class='trialBorder'><div class='vertical-center'><img src='img/fixation2_sml.jpg'</img></div></div>","null","DELAY","","","","","","","","","","",""
"html-keyboard-response","88","258706","0.0-7.0-4.10","sconelab3","bdp_wmem","Wed Feb 22 2023 11:31:03 GMT-0500 (Eastern Standard Time)","633899","Match,No Match","","3857","","","","","","<div class='trialBorder'><div class='targDiv'><div class='tc'><img class='introPic' src='trustrating_stim/white_mw010.bmp'><br><font color='red'><strong>Keep</strong></font></div></div><div class='respDiv'><div class='respDivL'>Match<br>(e)</div><div class='respDivR'>No Match<br>(i)</div></div></div>","i","TARGET","1","trustrating_stim/white_mw091.bmp","0","noMatchFace","i","1500","trustrating_stim/white_mw010.bmp","red","Keep","REAL","1"
"html-keyboard-response","89","259208","0.0-7.0-5.10","sconelab3","bdp_wmem","Wed Feb 22 2023 11:31:03 GMT-0500 (Eastern Standard Time)","633899","Match,No Match","","null","","","","","","<div class='trialBorder'><div class='vertical-center'><img src='img/correct.jpg'></div><div class='respDiv'><div class='respDivL'>Match<br>(e)</div><div class='respDivR'><font style='color:orange'>No Match<br>(i)</font></div></div></div>","null","FEEDBACK","","","","","","","","","","",""
"html-keyboard-response","90","259710","0.0-7.0-1.11","sconelab3","bdp_wmem","Wed Feb 22 2023 11:31:03 GMT-0500 (Eastern Standard Time)","633899","Match,No Match","","null","","","","","","<div class='trialBorder'><div class='vertical-center'><img src='img/fixation2_sml.jpg'</img></div></div>","null","FIX","","","","","","","","","","",""
"html-keyboard-response","91","262718","0.0-7.0-2.11","sconelab3","bdp_wmem","Wed Feb 22 2023 11:31:03 GMT-0500 (Eastern Standard Time)","633899","Match,No Match","","null","","","","","","<div class='trialBorder'><div class='vertical-center'><img style='vertical-align:center; align:center' src='img/fixation2_sml.jpg'></div><div class='arrayDiv2'><div class='tl'><img class='introPic' src='trustrating_stim/white_mw013.bmp'><br><font color='green'><strong>Share</strong></font></div><div class='tr'><img class='introPic' src='trustrating_stim/white_mw040.bmp'><br><font color='red'><strong>Keep</strong></font></div></div></div>","null","ARRAY","2","trustrating_stim/white_mw013.bmp,trustrating_stim/white_mw040.bmp","1,0","Match","e","3000","","","","",""
"html-keyboard-response","92","266728","0.0-7.0-3.11","sconelab3","bdp_wmem","Wed Feb 22 2023 11:31:03 GMT-0500 (Eastern Standard Time)","633899","Match,No Match","","null","","","","","","<div class='trialBorder'><div class='vertical-center'><img src='img/fixation2_sml.jpg'</img></div></div>","null","DELAY","","","","","","","","","","",""
"html-keyboard-response","93","269927","0.0-7.0-4.11","sconelab3","bdp_wmem","Wed Feb 22 2023 11:31:03 GMT-0500 (Eastern Standard Time)","633899","Match,No Match","","3197","","","","","","<div class='trialBorder'><div class='targDiv'><div class='tc'><img class='introPic' src='trustrating_stim/white_mw013.bmp'><br><font color='green'><strong>Share</strong></font></div></div><div class='respDiv'><div class='respDivL'>Match<br>(e)</div><div class='respDivR'>No Match<br>(i)</div></div></div>","e","TARGET","2","trustrating_stim/white_mw013.bmp,trustrating_stim/white_mw040.bmp","1,0","Match","e","3000","trustrating_stim/white_mw013.bmp","green","Share","REAL","1"
"html-keyboard-response","94","270430","0.0-7.0-5.11","sconelab3","bdp_wmem","Wed Feb 22 2023 11:31:03 GMT-0500 (Eastern Standard Time)","633899","Match,No Match","","null","","","","","","<div class='trialBorder'><div class='vertical-center'><img src='img/correct.jpg'></div><div class='respDiv'><div class='respDivL'><font style='color:orange'>Match<br>(e)</font></div><div class='respDivR'>No Match<br>(i)</div></div></div>","null","FEEDBACK","","","","","","","","","","",""
"html-keyboard-response","95","270935","0.0-7.0-1.12","sconelab3","bdp_wmem","Wed Feb 22 2023 11:31:03 GMT-0500 (Eastern Standard Time)","633899","Match,No Match","","null","","","","","","<div class='trialBorder'><div class='vertical-center'><img src='img/fixation2_sml.jpg'</img></div></div>","null","FIX","","","","","","","","","","",""
"html-keyboard-response","96","273943","0.0-7.0-2.12","sconelab3","bdp_wmem","Wed Feb 22 2023 11:31:03 GMT-0500 (Eastern Standard Time)","633899","Match,No Match","","null","","","","","","<div class='trialBorder'><div class='vertical-center'><img style='vertical-align:center; align:center' src='img/fixation2_sml.jpg'></div><div class='arrayDiv2'><div class='tl'><img class='introPic' src='trustrating_stim/white_mw038.bmp'><br><font color='red'><strong>Keep</strong></font></div><div class='tr'><img class='introPic' src='trustrating_stim/white_mw070.bmp'><br><font color='green'><strong>Share</strong></font></div></div></div>","null","ARRAY","2","trustrating_stim/white_mw038.bmp,trustrating_stim/white_mw070.bmp","0,1","Match","e","3000","","","","",""
"html-keyboard-response","97","277949","0.0-7.0-3.12","sconelab3","bdp_wmem","Wed Feb 22 2023 11:31:03 GMT-0500 (Eastern Standard Time)","633899","Match,No Match","","null","","","","","","<div class='trialBorder'><div class='vertical-center'><img src='img/fixation2_sml.jpg'</img></div></div>","null","DELAY","","","","","","","","","","",""
"html-keyboard-response","98","279465","0.0-7.0-4.12","sconelab3","bdp_wmem","Wed Feb 22 2023 11:31:03 GMT-0500 (Eastern Standard Time)","633899","Match,No Match","","1513","","","","","","<div class='trialBorder'><div class='targDiv'><div class='tc'><img class='introPic' src='trustrating_stim/white_mw038.bmp'><br><font color='red'><strong>Keep</strong></font></div></div><div class='respDiv'><div class='respDivL'>Match<br>(e)</div><div class='respDivR'>No Match<br>(i)</div></div></div>","e","TARGET","2","trustrating_stim/white_mw038.bmp,trustrating_stim/white_mw070.bmp","0,1","Match","e","3000","trustrating_stim/white_mw038.bmp","red","Keep","REAL","1"
"html-keyboard-response","99","279975","0.0-7.0-5.12","sconelab3","bdp_wmem","Wed Feb 22 2023 11:31:03 GMT-0500 (Eastern Standard Time)","633899","Match,No Match","","null","","","","","","<div class='trialBorder'><div class='vertical-center'><img src='img/correct.jpg'></div><div class='respDiv'><div class='respDivL'><font style='color:orange'>Match<br>(e)</font></div><div class='respDivR'>No Match<br>(i)</div></div></div>","null","FEEDBACK","","","","","","","","","","",""
"html-keyboard-response","100","280477","0.0-7.0-1.13","sconelab3","bdp_wmem","Wed Feb 22 2023 11:31:03 GMT-0500 (Eastern Standard Time)","633899","Match,No Match","","null","","","","","","<div class='trialBorder'><div class='vertical-center'><img src='img/fixation2_sml.jpg'</img></div></div>","null","FIX","","","","","","","","","","",""
"html-keyboard-response","101","283485","0.0-7.0-2.13","sconelab3","bdp_wmem","Wed Feb 22 2023 11:31:03 GMT-0500 (Eastern Standard Time)","633899","Match,No Match","","null","","","","","","<div class='trialBorder'><div class='vertical-center'><img style='vertical-align:center; align:center' src='img/fixation2_sml.jpg'></div><div class='arrayDiv2'><div class='tl'><img class='introPic' src='trustrating_stim/white_mw092.bmp'><br><font color='green'><strong>Share</strong></font></div><div class='tr'><img class='introPic' src='trustrating_stim/white_mw042.bmp'><br><font color='red'><strong>Keep</strong></font></div></div></div>","null","ARRAY","2","trustrating_stim/white_mw092.bmp,trustrating_stim/white_mw042.bmp","1,0","Match","e","3000","","","","",""
"html-keyboard-response","102","287495","0.0-7.0-3.13","sconelab3","bdp_wmem","Wed Feb 22 2023 11:31:03 GMT-0500 (Eastern Standard Time)","633899","Match,No Match","","null","","","","","","<div class='trialBorder'><div class='vertical-center'><img src='img/fixation2_sml.jpg'</img></div></div>","null","DELAY","","","","","","","","","","",""
"html-keyboard-response","103","289211","0.0-7.0-4.13","sconelab3","bdp_wmem","Wed Feb 22 2023 11:31:03 GMT-0500 (Eastern Standard Time)","633899","Match,No Match","","1713","","","","","","<div class='trialBorder'><div class='targDiv'><div class='tc'><img class='introPic' src='trustrating_stim/white_mw042.bmp'><br><font color='red'><strong>Keep</strong></font></div></div><div class='respDiv'><div class='respDivL'>Match<br>(e)</div><div class='respDivR'>No Match<br>(i)</div></div></div>","i","TARGET","2","trustrating_stim/white_mw092.bmp,trustrating_stim/white_mw042.bmp","1,0","Match","e","3000","trustrating_stim/white_mw042.bmp","red","Keep","REAL","0"
"html-keyboard-response","104","289719","0.0-7.0-5.13","sconelab3","bdp_wmem","Wed Feb 22 2023 11:31:03 GMT-0500 (Eastern Standard Time)","633899","Match,No Match","","null","","","","","","<div class='trialBorder'><div class='vertical-center'><img src='img/error.jpg'></div><div class='respDiv'><div class='respDivL'>Match<br>(e)</div><div class='respDivR'><font style='color:orange'>No Match<br>(i)</font></div></div></div>","null","FEEDBACK","","","","","","","","","","",""
"html-keyboard-response","105","290221","0.0-7.0-1.14","sconelab3","bdp_wmem","Wed Feb 22 2023 11:31:03 GMT-0500 (Eastern Standard Time)","633899","Match,No Match","","null","","","","","","<div class='trialBorder'><div class='vertical-center'><img src='img/fixation2_sml.jpg'</img></div></div>","null","FIX","","","","","","","","","","",""
"html-keyboard-response","106","291725","0.0-7.0-2.14","sconelab3","bdp_wmem","Wed Feb 22 2023 11:31:03 GMT-0500 (Eastern Standard Time)","633899","Match,No Match","","null","","","","","","<div class='trialBorder'><div class='vertical-center'><img style='vertical-align:center; align:center' src='img/fixation2_sml.jpg'></div><div class='arrayDiv1'><div class='tc'><img class='introPic' src='trustrating_stim/white_mw038.bmp'><br><font color='green'><strong>Share</strong></font></div></div></div>","null","ARRAY","1","trustrating_stim/white_mw038.bmp","1","noMatchOutcome","i","1500","","","","",""
"html-keyboard-response","107","295734","0.0-7.0-3.14","sconelab3","bdp_wmem","Wed Feb 22 2023 11:31:03 GMT-0500 (Eastern Standard Time)","633899","Match,No Match","","null","","","","","","<div class='trialBorder'><div class='vertical-center'><img src='img/fixation2_sml.jpg'</img></div></div>","null","DELAY","","","","","","","","","","",""
"html-keyboard-response","108","298303","0.0-7.0-4.14","sconelab3","bdp_wmem","Wed Feb 22 2023 11:31:03 GMT-0500 (Eastern Standard Time)","633899","Match,No Match","","2567","","","","","","<div class='trialBorder'><div class='targDiv'><div class='tc'><img class='introPic' src='trustrating_stim/white_mw038.bmp'><br><font color='red'><strong>Keep</strong></font></div></div><div class='respDiv'><div class='respDivL'>Match<br>(e)</div><div class='respDivR'>No Match<br>(i)</div></div></div>","e","TARGET","1","trustrating_stim/white_mw038.bmp","1","noMatchOutcome","i","1500","trustrating_stim/white_mw038.bmp","red","Keep","REAL","0"
"html-keyboard-response","109","298806","0.0-7.0-5.14","sconelab3","bdp_wmem","Wed Feb 22 2023 11:31:03 GMT-0500 (Eastern Standard Time)","633899","Match,No Match","","null","","","","","","<div class='trialBorder'><div class='vertical-center'><img src='img/error.jpg'></div><div class='respDiv'><div class='respDivL'><font style='color:orange'>Match<br>(e)</font></div><div class='respDivR'>No Match<br>(i)</div></div></div>","null","FEEDBACK","","","","","","","","","","",""
"html-keyboard-response","110","299308","0.0-7.0-1.15","sconelab3","bdp_wmem","Wed Feb 22 2023 11:31:03 GMT-0500 (Eastern Standard Time)","633899","Match,No Match","","null","","","","","","<div class='trialBorder'><div class='vertical-center'><img src='img/fixation2_sml.jpg'</img></div></div>","null","FIX","","","","","","","","","","",""
"html-keyboard-response","111","300812","0.0-7.0-2.15","sconelab3","bdp_wmem","Wed Feb 22 2023 11:31:03 GMT-0500 (Eastern Standard Time)","633899","Match,No Match","","null","","","","","","<div class='trialBorder'><div class='vertical-center'><img style='vertical-align:center; align:center' src='img/fixation2_sml.jpg'></div><div class='arrayDiv1'><div class='tc'><img class='introPic' src='trustrating_stim/white_mw078.bmp'><br><font color='green'><strong>Share</strong></font></div></div></div>","null","ARRAY","1","trustrating_stim/white_mw078.bmp","1","Match","e","1500","","","","",""
"html-keyboard-response","112","304822","0.0-7.0-3.15","sconelab3","bdp_wmem","Wed Feb 22 2023 11:31:03 GMT-0500 (Eastern Standard Time)","633899","Match,No Match","","null","","","","","","<div class='trialBorder'><div class='vertical-center'><img src='img/fixation2_sml.jpg'</img></div></div>","null","DELAY","","","","","","","","","","",""
"html-keyboard-response","113","307046","0.0-7.0-4.15","sconelab3","bdp_wmem","Wed Feb 22 2023 11:31:03 GMT-0500 (Eastern Standard Time)","633899","Match,No Match","","2222","","","","","","<div class='trialBorder'><div class='targDiv'><div class='tc'><img class='introPic' src='trustrating_stim/white_mw078.bmp'><br><font color='green'><strong>Share</strong></font></div></div><div class='respDiv'><div class='respDivL'>Match<br>(e)</div><div class='respDivR'>No Match<br>(i)</div></div></div>","e","TARGET","1","trustrating_stim/white_mw078.bmp","1","Match","e","1500","trustrating_stim/white_mw078.bmp","green","Share","REAL","1"
"html-keyboard-response","114","307548","0.0-7.0-5.15","sconelab3","bdp_wmem","Wed Feb 22 2023 11:31:03 GMT-0500 (Eastern Standard Time)","633899","Match,No Match","","null","","","","","","<div class='trialBorder'><div class='vertical-center'><img src='img/correct.jpg'></div><div class='respDiv'><div class='respDivL'><font style='color:orange'>Match<br>(e)</font></div><div class='respDivR'>No Match<br>(i)</div></div></div>","null","FEEDBACK","","","","","","","","","","",""
"html-keyboard-response","115","308054","0.0-7.0-1.16","sconelab3","bdp_wmem","Wed Feb 22 2023 11:31:03 GMT-0500 (Eastern Standard Time)","633899","Match,No Match","","null","","","","","","<div class='trialBorder'><div class='vertical-center'><img src='img/fixation2_sml.jpg'</img></div></div>","null","FIX","","","","","","","","","","",""
"html-keyboard-response","116","309568","0.0-7.0-2.16","sconelab3","bdp_wmem","Wed Feb 22 2023 11:31:03 GMT-0500 (Eastern Standard Time)","633899","Match,No Match","","null","","","","","","<div class='trialBorder'><div class='vertical-center'><img style='vertical-align:center; align:center' src='img/fixation2_sml.jpg'></div><div class='arrayDiv1'><div class='tc'><img class='introPic' src='trustrating_stim/white_mw040.bmp'><br><font color='red'><strong>Keep</strong></font></div></div></div>","null","ARRAY","1","trustrating_stim/white_mw040.bmp","0","Match","e","1500","","","","",""
"html-keyboard-response","117","313573","0.0-7.0-3.16","sconelab3","bdp_wmem","Wed Feb 22 2023 11:31:03 GMT-0500 (Eastern Standard Time)","633899","Match,No Match","","null","","","","","","<div class='trialBorder'><div class='vertical-center'><img src='img/fixation2_sml.jpg'</img></div></div>","null","DELAY","","","","","","","","","","",""
"html-keyboard-response","118","315040","0.0-7.0-4.16","sconelab3","bdp_wmem","Wed Feb 22 2023 11:31:03 GMT-0500 (Eastern Standard Time)","633899","Match,No Match","","1463","","","","","","<div class='trialBorder'><div class='targDiv'><div class='tc'><img class='introPic' src='trustrating_stim/white_mw040.bmp'><br><font color='red'><strong>Keep</strong></font></div></div><div class='respDiv'><div class='respDivL'>Match<br>(e)</div><div class='respDivR'>No Match<br>(i)</div></div></div>","e","TARGET","1","trustrating_stim/white_mw040.bmp","0","Match","e","1500","trustrating_stim/white_mw040.bmp","red","Keep","REAL","1"
"html-keyboard-response","119","315548","0.0-7.0-5.16","sconelab3","bdp_wmem","Wed Feb 22 2023 11:31:03 GMT-0500 (Eastern Standard Time)","633899","Match,No Match","","null","","","","","","<div class='trialBorder'><div class='vertical-center'><img src='img/correct.jpg'></div><div class='respDiv'><div class='respDivL'><font style='color:orange'>Match<br>(e)</font></div><div class='respDivR'>No Match<br>(i)</div></div></div>","null","FEEDBACK","","","","","","","","","","",""
"html-keyboard-response","120","316053","0.0-7.0-1.17","sconelab3","bdp_wmem","Wed Feb 22 2023 11:31:03 GMT-0500 (Eastern Standard Time)","633899","Match,No Match","","null","","","","","","<div class='trialBorder'><div class='vertical-center'><img src='img/fixation2_sml.jpg'</img></div></div>","null","FIX","","","","","","","","","","",""
"html-keyboard-response","121","317564","0.0-7.0-2.17","sconelab3","bdp_wmem","Wed Feb 22 2023 11:31:03 GMT-0500 (Eastern Standard Time)","633899","Match,No Match","","null","","","","","","<div class='trialBorder'><div class='vertical-center'><img style='vertical-align:center; align:center' src='img/fixation2_sml.jpg'></div><div class='arrayDiv1'><div class='tc'><img class='introPic' src='trustrating_stim/white_mw042.bmp'><br><font color='red'><strong>Keep</strong></font></div></div></div>","null","ARRAY","1","trustrating_stim/white_mw042.bmp","0","Match","e","1500","","","","",""
"html-keyboard-response","122","321573","0.0-7.0-3.17","sconelab3","bdp_wmem","Wed Feb 22 2023 11:31:03 GMT-0500 (Eastern Standard Time)","633899","Match,No Match","","null","","","","","","<div class='trialBorder'><div class='vertical-center'><img src='img/fixation2_sml.jpg'</img></div></div>","null","DELAY","","","","","","","","","","",""
"html-keyboard-response","123","323394","0.0-7.0-4.17","sconelab3","bdp_wmem","Wed Feb 22 2023 11:31:03 GMT-0500 (Eastern Standard Time)","633899","Match,No Match","","1819","","","","","","<div class='trialBorder'><div class='targDiv'><div class='tc'><img class='introPic' src='trustrating_stim/white_mw042.bmp'><br><font color='red'><strong>Keep</strong></font></div></div><div class='respDiv'><div class='respDivL'>Match<br>(e)</div><div class='respDivR'>No Match<br>(i)</div></div></div>","e","TARGET","1","trustrating_stim/white_mw042.bmp","0","Match","e","1500","trustrating_stim/white_mw042.bmp","red","Keep","REAL","1"
"html-keyboard-response","124","323899","0.0-7.0-5.17","sconelab3","bdp_wmem","Wed Feb 22 2023 11:31:03 GMT-0500 (Eastern Standard Time)","633899","Match,No Match","","null","","","","","","<div class='trialBorder'><div class='vertical-center'><img src='img/correct.jpg'></div><div class='respDiv'><div class='respDivL'><font style='color:orange'>Match<br>(e)</font></div><div class='respDivR'>No Match<br>(i)</div></div></div>","null","FEEDBACK","","","","","","","","","","",""
"html-keyboard-response","125","324405","0.0-7.0-1.18","sconelab3","bdp_wmem","Wed Feb 22 2023 11:31:03 GMT-0500 (Eastern Standard Time)","633899","Match,No Match","","null","","","","","","<div class='trialBorder'><div class='vertical-center'><img src='img/fixation2_sml.jpg'</img></div></div>","null","FIX","","","","","","","","","","",""
"html-keyboard-response","126","325915","0.0-7.0-2.18","sconelab3","bdp_wmem","Wed Feb 22 2023 11:31:03 GMT-0500 (Eastern Standard Time)","633899","Match,No Match","","null","","","","","","<div class='trialBorder'><div class='vertical-center'><img style='vertical-align:center; align:center' src='img/fixation2_sml.jpg'></div><div class='arrayDiv1'><div class='tc'><img class='introPic' src='trustrating_stim/white_mw040.bmp'><br><font color='red'><strong>Keep</strong></font></div></div></div>","null","ARRAY","1","trustrating_stim/white_mw040.bmp","0","noMatchOutcome","i","1500","","","","",""
"html-keyboard-response","127","329924","0.0-7.0-3.18","sconelab3","bdp_wmem","Wed Feb 22 2023 11:31:03 GMT-0500 (Eastern Standard Time)","633899","Match,No Match","","null","","","","","","<div class='trialBorder'><div class='vertical-center'><img src='img/fixation2_sml.jpg'</img></div></div>","null","DELAY","","","","","","","","","","",""
"html-keyboard-response","128","331641","0.0-7.0-4.18","sconelab3","bdp_wmem","Wed Feb 22 2023 11:31:03 GMT-0500 (Eastern Standard Time)","633899","Match,No Match","","1714","","","","","","<div class='trialBorder'><div class='targDiv'><div class='tc'><img class='introPic' src='trustrating_stim/white_mw040.bmp'><br><font color='green'><strong>Share</strong></font></div></div><div class='respDiv'><div class='respDivL'>Match<br>(e)</div><div class='respDivR'>No Match<br>(i)</div></div></div>","i","TARGET","1","trustrating_stim/white_mw040.bmp","0","noMatchOutcome","i","1500","trustrating_stim/white_mw040.bmp","green","Share","REAL","1"
"html-keyboard-response","129","332149","0.0-7.0-5.18","sconelab3","bdp_wmem","Wed Feb 22 2023 11:31:03 GMT-0500 (Eastern Standard Time)","633899","Match,No Match","","null","","","","","","<div class='trialBorder'><div class='vertical-center'><img src='img/correct.jpg'></div><div class='respDiv'><div class='respDivL'>Match<br>(e)</div><div class='respDivR'><font style='color:orange'>No Match<br>(i)</font></div></div></div>","null","FEEDBACK","","","","","","","","","","",""
"html-keyboard-response","130","332651","0.0-7.0-1.19","sconelab3","bdp_wmem","Wed Feb 22 2023 11:31:03 GMT-0500 (Eastern Standard Time)","633899","Match,No Match","","null","","","","","","<div class='trialBorder'><div class='vertical-center'><img src='img/fixation2_sml.jpg'</img></div></div>","null","FIX","","","","","","","","","","",""
"html-keyboard-response","131","337157","0.0-7.0-2.19","sconelab3","bdp_wmem","Wed Feb 22 2023 11:31:03 GMT-0500 (Eastern Standard Time)","633899","Match,No Match","","null","","","","","","<div class='trialBorder'><div class='vertical-center'><img style='vertical-align:center; align:center' src='img/fixation2_sml.jpg'></div><div class='arrayDiv3'><div class='tl'><img class='introPic' src='trustrating_stim/white_mw078.bmp'><br><font color='green'><strong>Share</strong></font></div><div class='tc'><img class='introPic' src='trustrating_stim/white_mw038.bmp'><br><font color='red'><strong>Keep</strong></font></div><div class='tr'><img class='introPic' src='trustrating_stim/white_mw091.bmp'><br><font color='red'><strong>Keep</strong></font></div></div></div>","null","ARRAY","3","trustrating_stim/white_mw078.bmp,trustrating_stim/white_mw038.bmp,trustrating_stim/white_mw091.bmp","1,0,0","Match","e","4500","","","","",""
"html-keyboard-response","132","341162","0.0-7.0-3.19","sconelab3","bdp_wmem","Wed Feb 22 2023 11:31:03 GMT-0500 (Eastern Standard Time)","633899","Match,No Match","","null","","","","","","<div class='trialBorder'><div class='vertical-center'><img src='img/fixation2_sml.jpg'</img></div></div>","null","DELAY","","","","","","","","","","",""
"html-keyboard-response","133","343044","0.0-7.0-4.19","sconelab3","bdp_wmem","Wed Feb 22 2023 11:31:03 GMT-0500 (Eastern Standard Time)","633899","Match,No Match","","1879","","","","","","<div class='trialBorder'><div class='targDiv'><div class='tc'><img class='introPic' src='trustrating_stim/white_mw091.bmp'><br><font color='red'><strong>Keep</strong></font></div></div><div class='respDiv'><div class='respDivL'>Match<br>(e)</div><div class='respDivR'>No Match<br>(i)</div></div></div>","i","TARGET","3","trustrating_stim/white_mw078.bmp,trustrating_stim/white_mw038.bmp,trustrating_stim/white_mw091.bmp","1,0,0","Match","e","4500","trustrating_stim/white_mw091.bmp","red","Keep","REAL","0"
"html-keyboard-response","134","343546","0.0-7.0-5.19","sconelab3","bdp_wmem","Wed Feb 22 2023 11:31:03 GMT-0500 (Eastern Standard Time)","633899","Match,No Match","","null","","","","","","<div class='trialBorder'><div class='vertical-center'><img src='img/error.jpg'></div><div class='respDiv'><div class='respDivL'>Match<br>(e)</div><div class='respDivR'><font style='color:orange'>No Match<br>(i)</font></div></div></div>","null","FEEDBACK","","","","","","","","","","",""
"html-keyboard-response","135","344052","0.0-7.0-1.20","sconelab3","bdp_wmem","Wed Feb 22 2023 11:31:03 GMT-0500 (Eastern Standard Time)","633899","Match,No Match","","null","","","","","","<div class='trialBorder'><div class='vertical-center'><img src='img/fixation2_sml.jpg'</img></div></div>","null","FIX","","","","","","","","","","",""
"html-keyboard-response","136","345562","0.0-7.0-2.20","sconelab3","bdp_wmem","Wed Feb 22 2023 11:31:03 GMT-0500 (Eastern Standard Time)","633899","Match,No Match","","null","","","","","","<div class='trialBorder'><div class='vertical-center'><img style='vertical-align:center; align:center' src='img/fixation2_sml.jpg'></div><div class='arrayDiv1'><div class='tc'><img class='introPic' src='trustrating_stim/white_mw003.bmp'><br><font color='red'><strong>Keep</strong></font></div></div></div>","null","ARRAY","1","trustrating_stim/white_mw003.bmp","0","Match","e","1500","","","","",""
"html-keyboard-response","137","349571","0.0-7.0-3.20","sconelab3","bdp_wmem","Wed Feb 22 2023 11:31:03 GMT-0500 (Eastern Standard Time)","633899","Match,No Match","","null","","","","","","<div class='trialBorder'><div class='vertical-center'><img src='img/fixation2_sml.jpg'</img></div></div>","null","DELAY","","","","","","","","","","",""
"html-keyboard-response","138","351684","0.0-7.0-4.20","sconelab3","bdp_wmem","Wed Feb 22 2023 11:31:03 GMT-0500 (Eastern Standard Time)","633899","Match,No Match","","2111","","","","","","<div class='trialBorder'><div class='targDiv'><div class='tc'><img class='introPic' src='trustrating_stim/white_mw003.bmp'><br><font color='red'><strong>Keep</strong></font></div></div><div class='respDiv'><div class='respDivL'>Match<br>(e)</div><div class='respDivR'>No Match<br>(i)</div></div></div>","e","TARGET","1","trustrating_stim/white_mw003.bmp","0","Match","e","1500","trustrating_stim/white_mw003.bmp","red","Keep","REAL","1"
"html-keyboard-response","139","352186","0.0-7.0-5.20","sconelab3","bdp_wmem","Wed Feb 22 2023 11:31:03 GMT-0500 (Eastern Standard Time)","633899","Match,No Match","","null","","","","","","<div class='trialBorder'><div class='vertical-center'><img src='img/correct.jpg'></div><div class='respDiv'><div class='respDivL'><font style='color:orange'>Match<br>(e)</font></div><div class='respDivR'>No Match<br>(i)</div></div></div>","null","FEEDBACK","","","","","","","","","","",""
"html-keyboard-response","140","352691","0.0-7.0-1.21","sconelab3","bdp_wmem","Wed Feb 22 2023 11:31:03 GMT-0500 (Eastern Standard Time)","633899","Match,No Match","","null","","","","","","<div class='trialBorder'><div class='vertical-center'><img src='img/fixation2_sml.jpg'</img></div></div>","null","FIX","","","","","","","","","","",""
"html-keyboard-response","141","357203","0.0-7.0-2.21","sconelab3","bdp_wmem","Wed Feb 22 2023 11:31:03 GMT-0500 (Eastern Standard Time)","633899","Match,No Match","","null","","","","","","<div class='trialBorder'><div class='vertical-center'><img style='vertical-align:center; align:center' src='img/fixation2_sml.jpg'></div><div class='arrayDiv3'><div class='tl'><img class='introPic' src='trustrating_stim/white_mw042.bmp'><br><font color='red'><strong>Keep</strong></font></div><div class='tc'><img class='introPic' src='trustrating_stim/white_mw091.bmp'><br><font color='red'><strong>Keep</strong></font></div><div class='tr'><img class='introPic' src='trustrating_stim/white_mw038.bmp'><br><font color='green'><strong>Share</strong></font></div></div></div>","null","ARRAY","3","trustrating_stim/white_mw042.bmp,trustrating_stim/white_mw091.bmp,trustrating_stim/white_mw038.bmp","0,0,1","noMatchOutcome","i","4500","","","","",""
"html-keyboard-response","142","361209","0.0-7.0-3.21","sconelab3","bdp_wmem","Wed Feb 22 2023 11:31:03 GMT-0500 (Eastern Standard Time)","633899","Match,No Match","","null","","","","","","<div class='trialBorder'><div class='vertical-center'><img src='img/fixation2_sml.jpg'</img></div></div>","null","DELAY","","","","","","","","","","",""
"html-keyboard-response","143","363165","0.0-7.0-4.21","sconelab3","bdp_wmem","Wed Feb 22 2023 11:31:03 GMT-0500 (Eastern Standard Time)","633899","Match,No Match","","1953","","","","","","<div class='trialBorder'><div class='targDiv'><div class='tc'><img class='introPic' src='trustrating_stim/white_mw042.bmp'><br><font color='green'><strong>Share</strong></font></div></div><div class='respDiv'><div class='respDivL'>Match<br>(e)</div><div class='respDivR'>No Match<br>(i)</div></div></div>","e","TARGET","3","trustrating_stim/white_mw042.bmp,trustrating_stim/white_mw091.bmp,trustrating_stim/white_mw038.bmp","0,0,1","noMatchOutcome","i","4500","trustrating_stim/white_mw042.bmp","green","Share","REAL","0"
"html-keyboard-response","144","363667","0.0-7.0-5.21","sconelab3","bdp_wmem","Wed Feb 22 2023 11:31:03 GMT-0500 (Eastern Standard Time)","633899","Match,No Match","","null","","","","","","<div class='trialBorder'><div class='vertical-center'><img src='img/error.jpg'></div><div class='respDiv'><div class='respDivL'><font style='color:orange'>Match<br>(e)</font></div><div class='respDivR'>No Match<br>(i)</div></div></div>","null","FEEDBACK","","","","","","","","","","",""
"html-keyboard-response","145","364174","0.0-7.0-1.22","sconelab3","bdp_wmem","Wed Feb 22 2023 11:31:03 GMT-0500 (Eastern Standard Time)","633899","Match,No Match","","null","","","","","","<div class='trialBorder'><div class='vertical-center'><img src='img/fixation2_sml.jpg'</img></div></div>","null","FIX","","","","","","","","","","",""
"html-keyboard-response","146","365682","0.0-7.0-2.22","sconelab3","bdp_wmem","Wed Feb 22 2023 11:31:03 GMT-0500 (Eastern Standard Time)","633899","Match,No Match","","null","","","","","","<div class='trialBorder'><div class='vertical-center'><img style='vertical-align:center; align:center' src='img/fixation2_sml.jpg'></div><div class='arrayDiv1'><div class='tc'><img class='introPic' src='trustrating_stim/white_mw092.bmp'><br><font color='red'><strong>Keep</strong></font></div></div></div>","null","ARRAY","1","trustrating_stim/white_mw092.bmp","0","Match","e","1500","","","","",""
"html-keyboard-response","147","369689","0.0-7.0-3.22","sconelab3","bdp_wmem","Wed Feb 22 2023 11:31:03 GMT-0500 (Eastern Standard Time)","633899","Match,No Match","","null","","","","","","<div class='trialBorder'><div class='vertical-center'><img src='img/fixation2_sml.jpg'</img></div></div>","null","DELAY","","","","","","","","","","",""
"html-keyboard-response","148","371191","0.0-7.0-4.22","sconelab3","bdp_wmem","Wed Feb 22 2023 11:31:03 GMT-0500 (Eastern Standard Time)","633899","Match,No Match","","1500","","","","","","<div class='trialBorder'><div class='targDiv'><div class='tc'><img class='introPic' src='trustrating_stim/white_mw092.bmp'><br><font color='red'><strong>Keep</strong></font></div></div><div class='respDiv'><div class='respDivL'>Match<br>(e)</div><div class='respDivR'>No Match<br>(i)</div></div></div>","e","TARGET","1","trustrating_stim/white_mw092.bmp","0","Match","e","1500","trustrating_stim/white_mw092.bmp","red","Keep","REAL","1"
"html-keyboard-response","149","371699","0.0-7.0-5.22","sconelab3","bdp_wmem","Wed Feb 22 2023 11:31:03 GMT-0500 (Eastern Standard Time)","633899","Match,No Match","","null","","","","","","<div class='trialBorder'><div class='vertical-center'><img src='img/correct.jpg'></div><div class='respDiv'><div class='respDivL'><font style='color:orange'>Match<br>(e)</font></div><div class='respDivR'>No Match<br>(i)</div></div></div>","null","FEEDBACK","","","","","","","","","","",""
"html-keyboard-response","150","372201","0.0-7.0-1.23","sconelab3","bdp_wmem","Wed Feb 22 2023 11:31:03 GMT-0500 (Eastern Standard Time)","633899","Match,No Match","","null","","","","","","<div class='trialBorder'><div class='vertical-center'><img src='img/fixation2_sml.jpg'</img></div></div>","null","FIX","","","","","","","","","","",""
"html-keyboard-response","151","376706","0.0-7.0-2.23","sconelab3","bdp_wmem","Wed Feb 22 2023 11:31:03 GMT-0500 (Eastern Standard Time)","633899","Match,No Match","","null","","","","","","<div class='trialBorder'><div class='vertical-center'><img style='vertical-align:center; align:center' src='img/fixation2_sml.jpg'></div><div class='arrayDiv3'><div class='tl'><img class='introPic' src='trustrating_stim/white_mw070.bmp'><br><font color='green'><strong>Share</strong></font></div><div class='tc'><img class='introPic' src='trustrating_stim/white_mw010.bmp'><br><font color='red'><strong>Keep</strong></font></div><div class='tr'><img class='introPic' src='trustrating_stim/white_mw003.bmp'><br><font color='red'><strong>Keep</strong></font></div></div></div>","null","ARRAY","3","trustrating_stim/white_mw070.bmp,trustrating_stim/white_mw010.bmp,trustrating_stim/white_mw003.bmp","1,0,0","Match","e","4500","","","","",""
"html-keyboard-response","152","380712","0.0-7.0-3.23","sconelab3","bdp_wmem","Wed Feb 22 2023 11:31:03 GMT-0500 (Eastern Standard Time)","633899","Match,No Match","","null","","","","","","<div class='trialBorder'><div class='vertical-center'><img src='img/fixation2_sml.jpg'</img></div></div>","null","DELAY","","","","","","","","","","",""
"html-keyboard-response","153","383402","0.0-7.0-4.23","sconelab3","bdp_wmem","Wed Feb 22 2023 11:31:03 GMT-0500 (Eastern Standard Time)","633899","Match,No Match","","2687","","","","","","<div class='trialBorder'><div class='targDiv'><div class='tc'><img class='introPic' src='trustrating_stim/white_mw010.bmp'><br><font color='red'><strong>Keep</strong></font></div></div><div class='respDiv'><div class='respDivL'>Match<br>(e)</div><div class='respDivR'>No Match<br>(i)</div></div></div>","e","TARGET","3","trustrating_stim/white_mw070.bmp,trustrating_stim/white_mw010.bmp,trustrating_stim/white_mw003.bmp","1,0,0","Match","e","4500","trustrating_stim/white_mw010.bmp","red","Keep","REAL","1"
"html-keyboard-response","154","383906","0.0-7.0-5.23","sconelab3","bdp_wmem","Wed Feb 22 2023 11:31:03 GMT-0500 (Eastern Standard Time)","633899","Match,No Match","","null","","","","","","<div class='trialBorder'><div class='vertical-center'><img src='img/correct.jpg'></div><div class='respDiv'><div class='respDivL'><font style='color:orange'>Match<br>(e)</font></div><div class='respDivR'>No Match<br>(i)</div></div></div>","null","FEEDBACK","","","","","","","","","","",""
"html-keyboard-response","155","384408","0.0-7.0-1.24","sconelab3","bdp_wmem","Wed Feb 22 2023 11:31:03 GMT-0500 (Eastern Standard Time)","633899","Match,No Match","","null","","","","","","<div class='trialBorder'><div class='vertical-center'><img src='img/fixation2_sml.jpg'</img></div></div>","null","FIX","","","","","","","","","","",""
"html-keyboard-response","156","385912","0.0-7.0-2.24","sconelab3","bdp_wmem","Wed Feb 22 2023 11:31:03 GMT-0500 (Eastern Standard Time)","633899","Match,No Match","","null","","","","","","<div class='trialBorder'><div class='vertical-center'><img style='vertical-align:center; align:center' src='img/fixation2_sml.jpg'></div><div class='arrayDiv1'><div class='tc'><img class='introPic' src='trustrating_stim/white_mw012.bmp'><br><font color='green'><strong>Share</strong></font></div></div></div>","null","ARRAY","1","trustrating_stim/white_mw012.bmp","1","Match","e","1500","","","","",""
"html-keyboard-response","157","389921","0.0-7.0-3.24","sconelab3","bdp_wmem","Wed Feb 22 2023 11:31:03 GMT-0500 (Eastern Standard Time)","633899","Match,No Match","","null","","","","","","<div class='trialBorder'><div class='vertical-center'><img src='img/fixation2_sml.jpg'</img></div></div>","null","DELAY","","","","","","","","","","",""
"html-keyboard-response","158","391474","0.0-7.0-4.24","sconelab3","bdp_wmem","Wed Feb 22 2023 11:31:03 GMT-0500 (Eastern Standard Time)","633899","Match,No Match","","1550","","","","","","<div class='trialBorder'><div class='targDiv'><div class='tc'><img class='introPic' src='trustrating_stim/white_mw012.bmp'><br><font color='green'><strong>Share</strong></font></div></div><div class='respDiv'><div class='respDivL'>Match<br>(e)</div><div class='respDivR'>No Match<br>(i)</div></div></div>","e","TARGET","1","trustrating_stim/white_mw012.bmp","1","Match","e","1500","trustrating_stim/white_mw012.bmp","green","Share","REAL","1"
"html-keyboard-response","159","391980","0.0-7.0-5.24","sconelab3","bdp_wmem","Wed Feb 22 2023 11:31:03 GMT-0500 (Eastern Standard Time)","633899","Match,No Match","","null","","","","","","<div class='trialBorder'><div class='vertical-center'><img src='img/correct.jpg'></div><div class='respDiv'><div class='respDivL'><font style='color:orange'>Match<br>(e)</font></div><div class='respDivR'>No Match<br>(i)</div></div></div>","null","FEEDBACK","","","","","","","","","","",""
"html-keyboard-response","160","392492","0.0-7.0-1.25","sconelab3","bdp_wmem","Wed Feb 22 2023 11:31:03 GMT-0500 (Eastern Standard Time)","633899","Match,No Match","","null","","","","","","<div class='trialBorder'><div class='vertical-center'><img src='img/fixation2_sml.jpg'</img></div></div>","null","FIX","","","","","","","","","","",""
"html-keyboard-response","161","397000","0.0-7.0-2.25","sconelab3","bdp_wmem","Wed Feb 22 2023 11:31:03 GMT-0500 (Eastern Standard Time)","633899","Match,No Match","","null","","","","","","<div class='trialBorder'><div class='vertical-center'><img style='vertical-align:center; align:center' src='img/fixation2_sml.jpg'></div><div class='arrayDiv3'><div class='tl'><img class='introPic' src='trustrating_stim/white_mw085.bmp'><br><font color='green'><strong>Share</strong></font></div><div class='tc'><img class='introPic' src='trustrating_stim/white_mw013.bmp'><br><font color='green'><strong>Share</strong></font></div><div class='tr'><img class='introPic' src='trustrating_stim/white_mw042.bmp'><br><font color='red'><strong>Keep</strong></font></div></div></div>","null","ARRAY","3","trustrating_stim/white_mw085.bmp,trustrating_stim/white_mw013.bmp,trustrating_stim/white_mw042.bmp","1,1,0","noMatchOutcome","i","4500","","","","",""
"html-keyboard-response","162","401009","0.0-7.0-3.25","sconelab3","bdp_wmem","Wed Feb 22 2023 11:31:03 GMT-0500 (Eastern Standard Time)","633899","Match,No Match","","null","","","","","","<div class='trialBorder'><div class='vertical-center'><img src='img/fixation2_sml.jpg'</img></div></div>","null","DELAY","","","","","","","","","","",""
"html-keyboard-response","163","402338","0.0-7.0-4.25","sconelab3","bdp_wmem","Wed Feb 22 2023 11:31:03 GMT-0500 (Eastern Standard Time)","633899","Match,No Match","","1326","","","","","","<div class='trialBorder'><div class='targDiv'><div class='tc'><img class='introPic' src='trustrating_stim/white_mw042.bmp'><br><font color='green'><strong>Share</strong></font></div></div><div class='respDiv'><div class='respDivL'>Match<br>(e)</div><div class='respDivR'>No Match<br>(i)</div></div></div>","e","TARGET","3","trustrating_stim/white_mw085.bmp,trustrating_stim/white_mw013.bmp,trustrating_stim/white_mw042.bmp","1,1,0","noMatchOutcome","i","4500","trustrating_stim/white_mw042.bmp","green","Share","REAL","0"
"html-keyboard-response","164","402840","0.0-7.0-5.25","sconelab3","bdp_wmem","Wed Feb 22 2023 11:31:03 GMT-0500 (Eastern Standard Time)","633899","Match,No Match","","null","","","","","","<div class='trialBorder'><div class='vertical-center'><img src='img/error.jpg'></div><div class='respDiv'><div class='respDivL'><font style='color:orange'>Match<br>(e)</font></div><div class='respDivR'>No Match<br>(i)</div></div></div>","null","FEEDBACK","","","","","","","","","","",""
"html-keyboard-response","165","403345","0.0-7.0-1.26","sconelab3","bdp_wmem","Wed Feb 22 2023 11:31:03 GMT-0500 (Eastern Standard Time)","633899","Match,No Match","","null","","","","","","<div class='trialBorder'><div class='vertical-center'><img src='img/fixation2_sml.jpg'</img></div></div>","null","FIX","","","","","","","","","","",""
"html-keyboard-response","166","404849","0.0-7.0-2.26","sconelab3","bdp_wmem","Wed Feb 22 2023 11:31:03 GMT-0500 (Eastern Standard Time)","633899","Match,No Match","","null","","","","","","<div class='trialBorder'><div class='vertical-center'><img style='vertical-align:center; align:center' src='img/fixation2_sml.jpg'></div><div class='arrayDiv1'><div class='tc'><img class='introPic' src='trustrating_stim/white_mw070.bmp'><br><font color='green'><strong>Share</strong></font></div></div></div>","null","ARRAY","1","trustrating_stim/white_mw070.bmp","1","Match","e","1500","","","","",""
"html-keyboard-response","167","408855","0.0-7.0-3.26","sconelab3","bdp_wmem","Wed Feb 22 2023 11:31:03 GMT-0500 (Eastern Standard Time)","633899","Match,No Match","","null","","","","","","<div class='trialBorder'><div class='vertical-center'><img src='img/fixation2_sml.jpg'</img></div></div>","null","DELAY","","","","","","","","","","",""
"html-keyboard-response","168","410032","0.0-7.0-4.26","sconelab3","bdp_wmem","Wed Feb 22 2023 11:31:03 GMT-0500 (Eastern Standard Time)","633899","Match,No Match","","1175","","","","","","<div class='trialBorder'><div class='targDiv'><div class='tc'><img class='introPic' src='trustrating_stim/white_mw070.bmp'><br><font color='green'><strong>Share</strong></font></div></div><div class='respDiv'><div class='respDivL'>Match<br>(e)</div><div class='respDivR'>No Match<br>(i)</div></div></div>","e","TARGET","1","trustrating_stim/white_mw070.bmp","1","Match","e","1500","trustrating_stim/white_mw070.bmp","green","Share","REAL","1"
"html-keyboard-response","169","410539","0.0-7.0-5.26","sconelab3","bdp_wmem","Wed Feb 22 2023 11:31:03 GMT-0500 (Eastern Standard Time)","633899","Match,No Match","","null","","","","","","<div class='trialBorder'><div class='vertical-center'><img src='img/correct.jpg'></div><div class='respDiv'><div class='respDivL'><font style='color:orange'>Match<br>(e)</font></div><div class='respDivR'>No Match<br>(i)</div></div></div>","null","FEEDBACK","","","","","","","","","","",""
"html-keyboard-response","170","411047","0.0-7.0-1.27","sconelab3","bdp_wmem","Wed Feb 22 2023 11:31:03 GMT-0500 (Eastern Standard Time)","633899","Match,No Match","","null","","","","","","<div class='trialBorder'><div class='vertical-center'><img src='img/fixation2_sml.jpg'</img></div></div>","null","FIX","","","","","","","","","","",""
"html-keyboard-response","171","415552","0.0-7.0-2.27","sconelab3","bdp_wmem","Wed Feb 22 2023 11:31:03 GMT-0500 (Eastern Standard Time)","633899","Match,No Match","","null","","","","","","<div class='trialBorder'><div class='vertical-center'><img style='vertical-align:center; align:center' src='img/fixation2_sml.jpg'></div><div class='arrayDiv3'><div class='tl'><img class='introPic' src='trustrating_stim/white_mw070.bmp'><br><font color='green'><strong>Share</strong></font></div><div class='tc'><img class='introPic' src='trustrating_stim/white_mw012.bmp'><br><font color='red'><strong>Keep</strong></font></div><div class='tr'><img class='introPic' src='trustrating_stim/white_mw040.bmp'><br><font color='green'><strong>Share</strong></font></div></div></div>","null","ARRAY","3","trustrating_stim/white_mw070.bmp,trustrating_stim/white_mw012.bmp,trustrating_stim/white_mw040.bmp","1,0,1","noMatchFace","i","4500","","","","",""
"html-keyboard-response","172","419559","0.0-7.0-3.27","sconelab3","bdp_wmem","Wed Feb 22 2023 11:31:03 GMT-0500 (Eastern Standard Time)","633899","Match,No Match","","null","","","","","","<div class='trialBorder'><div class='vertical-center'><img src='img/fixation2_sml.jpg'</img></div></div>","null","DELAY","","","","","","","","","","",""
"html-keyboard-response","173","425287","0.0-7.0-4.27","sconelab3","bdp_wmem","Wed Feb 22 2023 11:31:03 GMT-0500 (Eastern Standard Time)","633899","Match,No Match","","5726","","","","","","<div class='trialBorder'><div class='targDiv'><div class='tc'><img class='introPic' src='trustrating_stim/white_mw091.bmp'><br><font color='red'><strong>Keep</strong></font></div></div><div class='respDiv'><div class='respDivL'>Match<br>(e)</div><div class='respDivR'>No Match<br>(i)</div></div></div>","e","TARGET","3","trustrating_stim/white_mw070.bmp,trustrating_stim/white_mw012.bmp,trustrating_stim/white_mw040.bmp","1,0,1","noMatchFace","i","4500","trustrating_stim/white_mw091.bmp","red","Keep","REAL","0"
"html-keyboard-response","174","425792","0.0-7.0-5.27","sconelab3","bdp_wmem","Wed Feb 22 2023 11:31:03 GMT-0500 (Eastern Standard Time)","633899","Match,No Match","","null","","","","","","<div class='trialBorder'><div class='vertical-center'><img src='img/error.jpg'></div><div class='respDiv'><div class='respDivL'><font style='color:orange'>Match<br>(e)</font></div><div class='respDivR'>No Match<br>(i)</div></div></div>","null","FEEDBACK","","","","","","","","","","",""
"html-keyboard-response","175","426294","0.0-7.0-1.28","sconelab3","bdp_wmem","Wed Feb 22 2023 11:31:03 GMT-0500 (Eastern Standard Time)","633899","Match,No Match","","null","","","","","","<div class='trialBorder'><div class='vertical-center'><img src='img/fixation2_sml.jpg'</img></div></div>","null","FIX","","","","","","","","","","",""
"html-keyboard-response","176","429302","0.0-7.0-2.28","sconelab3","bdp_wmem","Wed Feb 22 2023 11:31:03 GMT-0500 (Eastern Standard Time)","633899","Match,No Match","","null","","","","","","<div class='trialBorder'><div class='vertical-center'><img style='vertical-align:center; align:center' src='img/fixation2_sml.jpg'></div><div class='arrayDiv2'><div class='tl'><img class='introPic' src='trustrating_stim/white_mw040.bmp'><br><font color='red'><strong>Keep</strong></font></div><div class='tr'><img class='introPic' src='trustrating_stim/white_mw085.bmp'><br><font color='green'><strong>Share</strong></font></div></div></div>","null","ARRAY","2","trustrating_stim/white_mw040.bmp,trustrating_stim/white_mw085.bmp","0,1","noMatchFace","i","3000","","","","",""
"html-keyboard-response","177","433311","0.0-7.0-3.28","sconelab3","bdp_wmem","Wed Feb 22 2023 11:31:03 GMT-0500 (Eastern Standard Time)","633899","Match,No Match","","null","","","","","","<div class='trialBorder'><div class='vertical-center'><img src='img/fixation2_sml.jpg'</img></div></div>","null","DELAY","","","","","","","","","","",""
"html-keyboard-response","178","436000","0.0-7.0-4.28","sconelab3","bdp_wmem","Wed Feb 22 2023 11:31:03 GMT-0500 (Eastern Standard Time)","633899","Match,No Match","","2686","","","","","","<div class='trialBorder'><div class='targDiv'><div class='tc'><img class='introPic' src='trustrating_stim/white_mw070.bmp'><br><font color='green'><strong>Share</strong></font></div></div><div class='respDiv'><div class='respDivL'>Match<br>(e)</div><div class='respDivR'>No Match<br>(i)</div></div></div>","e","TARGET","2","trustrating_stim/white_mw040.bmp,trustrating_stim/white_mw085.bmp","0,1","noMatchFace","i","3000","trustrating_stim/white_mw070.bmp","green","Share","REAL","0"
"html-keyboard-response","179","436502","0.0-7.0-5.28","sconelab3","bdp_wmem","Wed Feb 22 2023 11:31:03 GMT-0500 (Eastern Standard Time)","633899","Match,No Match","","null","","","","","","<div class='trialBorder'><div class='vertical-center'><img src='img/error.jpg'></div><div class='respDiv'><div class='respDivL'><font style='color:orange'>Match<br>(e)</font></div><div class='respDivR'>No Match<br>(i)</div></div></div>","null","FEEDBACK","","","","","","","","","","",""
"html-keyboard-response","180","437007","0.0-7.0-1.29","sconelab3","bdp_wmem","Wed Feb 22 2023 11:31:03 GMT-0500 (Eastern Standard Time)","633899","Match,No Match","","null","","","","","","<div class='trialBorder'><div class='vertical-center'><img src='img/fixation2_sml.jpg'</img></div></div>","null","FIX","","","","","","","","","","",""
"html-keyboard-response","181","441519","0.0-7.0-2.29","sconelab3","bdp_wmem","Wed Feb 22 2023 11:31:03 GMT-0500 (Eastern Standard Time)","633899","Match,No Match","","null","","","","","","<div class='trialBorder'><div class='vertical-center'><img style='vertical-align:center; align:center' src='img/fixation2_sml.jpg'></div><div class='arrayDiv3'><div class='tl'><img class='introPic' src='trustrating_stim/white_mw040.bmp'><br><font color='green'><strong>Share</strong></font></div><div class='tc'><img class='introPic' src='trustrating_stim/white_mw092.bmp'><br><font color='red'><strong>Keep</strong></font></div><div class='tr'><img class='introPic' src='trustrating_stim/white_mw070.bmp'><br><font color='green'><strong>Share</strong></font></div></div></div>","null","ARRAY","3","trustrating_stim/white_mw040.bmp,trustrating_stim/white_mw092.bmp,trustrating_stim/white_mw070.bmp","1,0,1","noMatchOutcome","i","4500","","","","",""
"html-keyboard-response","182","445525","0.0-7.0-3.29","sconelab3","bdp_wmem","Wed Feb 22 2023 11:31:03 GMT-0500 (Eastern Standard Time)","633899","Match,No Match","","null","","","","","","<div class='trialBorder'><div class='vertical-center'><img src='img/fixation2_sml.jpg'</img></div></div>","null","DELAY","","","","","","","","","","",""
"html-keyboard-response","183","447682","0.0-7.0-4.29","sconelab3","bdp_wmem","Wed Feb 22 2023 11:31:03 GMT-0500 (Eastern Standard Time)","633899","Match,No Match","","2154","","","","","","<div class='trialBorder'><div class='targDiv'><div class='tc'><img class='introPic' src='trustrating_stim/white_mw040.bmp'><br><font color='red'><strong>Keep</strong></font></div></div><div class='respDiv'><div class='respDivL'>Match<br>(e)</div><div class='respDivR'>No Match<br>(i)</div></div></div>","e","TARGET","3","trustrating_stim/white_mw040.bmp,trustrating_stim/white_mw092.bmp,trustrating_stim/white_mw070.bmp","1,0,1","noMatchOutcome","i","4500","trustrating_stim/white_mw040.bmp","red","Keep","REAL","0"
"html-keyboard-response","184","448191","0.0-7.0-5.29","sconelab3","bdp_wmem","Wed Feb 22 2023 11:31:03 GMT-0500 (Eastern Standard Time)","633899","Match,No Match","","null","","","","","","<div class='trialBorder'><div class='vertical-center'><img src='img/error.jpg'></div><div class='respDiv'><div class='respDivL'><font style='color:orange'>Match<br>(e)</font></div><div class='respDivR'>No Match<br>(i)</div></div></div>","null","FEEDBACK","","","","","","","","","","",""
"html-keyboard-response","185","448693","0.0-7.0-1.30","sconelab3","bdp_wmem","Wed Feb 22 2023 11:31:03 GMT-0500 (Eastern Standard Time)","633899","Match,No Match","","null","","","","","","<div class='trialBorder'><div class='vertical-center'><img src='img/fixation2_sml.jpg'</img></div></div>","null","FIX","","","","","","","","","","",""
"html-keyboard-response","186","451701","0.0-7.0-2.30","sconelab3","bdp_wmem","Wed Feb 22 2023 11:31:03 GMT-0500 (Eastern Standard Time)","633899","Match,No Match","","null","","","","","","<div class='trialBorder'><div class='vertical-center'><img style='vertical-align:center; align:center' src='img/fixation2_sml.jpg'></div><div class='arrayDiv2'><div class='tl'><img class='introPic' src='trustrating_stim/white_mw013.bmp'><br><font color='green'><strong>Share</strong></font></div><div class='tr'><img class='introPic' src='trustrating_stim/white_mw078.bmp'><br><font color='red'><strong>Keep</strong></font></div></div></div>","null","ARRAY","2","trustrating_stim/white_mw013.bmp,trustrating_stim/white_mw078.bmp","1,0","Match","e","3000","","","","",""
"html-keyboard-response","187","455713","0.0-7.0-3.30","sconelab3","bdp_wmem","Wed Feb 22 2023 11:31:03 GMT-0500 (Eastern Standard Time)","633899","Match,No Match","","null","","","","","","<div class='trialBorder'><div class='vertical-center'><img src='img/fixation2_sml.jpg'</img></div></div>","null","DELAY","","","","","","","","","","",""
"html-keyboard-response","188","456859","0.0-7.0-4.30","sconelab3","bdp_wmem","Wed Feb 22 2023 11:31:03 GMT-0500 (Eastern Standard Time)","633899","Match,No Match","","1144","","","","","","<div class='trialBorder'><div class='targDiv'><div class='tc'><img class='introPic' src='trustrating_stim/white_mw013.bmp'><br><font color='green'><strong>Share</strong></font></div></div><div class='respDiv'><div class='respDivL'>Match<br>(e)</div><div class='respDivR'>No Match<br>(i)</div></div></div>","i","TARGET","2","trustrating_stim/white_mw013.bmp,trustrating_stim/white_mw078.bmp","1,0","Match","e","3000","trustrating_stim/white_mw013.bmp","green","Share","REAL","0"
"html-keyboard-response","189","457365","0.0-7.0-5.30","sconelab3","bdp_wmem","Wed Feb 22 2023 11:31:03 GMT-0500 (Eastern Standard Time)","633899","Match,No Match","","null","","","","","","<div class='trialBorder'><div class='vertical-center'><img src='img/error.jpg'></div><div class='respDiv'><div class='respDivL'>Match<br>(e)</div><div class='respDivR'><font style='color:orange'>No Match<br>(i)</font></div></div></div>","null","FEEDBACK","","","","","","","","","","",""
"html-keyboard-response","190","457870","0.0-7.0-1.31","sconelab3","bdp_wmem","Wed Feb 22 2023 11:31:03 GMT-0500 (Eastern Standard Time)","633899","Match,No Match","","null","","","","","","<div class='trialBorder'><div class='vertical-center'><img src='img/fixation2_sml.jpg'</img></div></div>","null","FIX","","","","","","","","","","",""
"html-keyboard-response","191","460878","0.0-7.0-2.31","sconelab3","bdp_wmem","Wed Feb 22 2023 11:31:03 GMT-0500 (Eastern Standard Time)","633899","Match,No Match","","null","","","","","","<div class='trialBorder'><div class='vertical-center'><img style='vertical-align:center; align:center' src='img/fixation2_sml.jpg'></div><div class='arrayDiv2'><div class='tl'><img class='introPic' src='trustrating_stim/white_mw012.bmp'><br><font color='green'><strong>Share</strong></font></div><div class='tr'><img class='introPic' src='trustrating_stim/white_mw070.bmp'><br><font color='red'><strong>Keep</strong></font></div></div></div>","null","ARRAY","2","trustrating_stim/white_mw012.bmp,trustrating_stim/white_mw070.bmp","1,0","Match","e","3000","","","","",""
"html-keyboard-response","192","464884","0.0-7.0-3.31","sconelab3","bdp_wmem","Wed Feb 22 2023 11:31:03 GMT-0500 (Eastern Standard Time)","633899","Match,No Match","","null","","","","","","<div class='trialBorder'><div class='vertical-center'><img src='img/fixation2_sml.jpg'</img></div></div>","null","DELAY","","","","","","","","","","",""
"html-keyboard-response","193","465508","0.0-7.0-4.31","sconelab3","bdp_wmem","Wed Feb 22 2023 11:31:03 GMT-0500 (Eastern Standard Time)","633899","Match,No Match","","620","","","","","","<div class='trialBorder'><div class='targDiv'><div class='tc'><img class='introPic' src='trustrating_stim/white_mw012.bmp'><br><font color='green'><strong>Share</strong></font></div></div><div class='respDiv'><div class='respDivL'>Match<br>(e)</div><div class='respDivR'>No Match<br>(i)</div></div></div>","e","TARGET","2","trustrating_stim/white_mw012.bmp,trustrating_stim/white_mw070.bmp","1,0","Match","e","3000","trustrating_stim/white_mw012.bmp","green","Share","REAL","1"
"html-keyboard-response","194","466015","0.0-7.0-5.31","sconelab3","bdp_wmem","Wed Feb 22 2023 11:31:03 GMT-0500 (Eastern Standard Time)","633899","Match,No Match","","null","","","","","","<div class='trialBorder'><div class='vertical-center'><img src='img/correct.jpg'></div><div class='respDiv'><div class='respDivL'><font style='color:orange'>Match<br>(e)</font></div><div class='respDivR'>No Match<br>(i)</div></div></div>","null","FEEDBACK","","","","","","","","","","",""
"html-keyboard-response","195","466526","0.0-7.0-1.32","sconelab3","bdp_wmem","Wed Feb 22 2023 11:31:03 GMT-0500 (Eastern Standard Time)","633899","Match,No Match","","null","","","","","","<div class='trialBorder'><div class='vertical-center'><img src='img/fixation2_sml.jpg'</img></div></div>","null","FIX","","","","","","","","","","",""
