"event","trial","time","trialtype","subject_id","task","startTime","totalTime","labels","trial_type","trial_index","time_elapsed","internal_node_id","view_history","rt","success","stimulus","key_press","stimType","arraySize","arrayFaces","arrayOutcomes","matchType","corrResp","arrayDur","targFace","targCol","targOutcome","trialType","corr"
"focus","0","0","focusevent","63ea5b93d1c6d38e1f57dcfa","bdp_wmem","Sat Apr 08 2023 12:22:21 GMT-0400 (Eastern Daylight Time)","529759","Match,No Match","","","","","","","","","","","","","","","","","","","","",""
"","","","","63ea5b93d1c6d38e1f57dcfa","bdp_wmem","Sat Apr 08 2023 12:22:21 GMT-0400 (Eastern Daylight Time)","529759","Match,No Match","pavlovia","0","1","0.0-0.0","","","","","","","","","","","","","","","","",""
"","","","","63ea5b93d1c6d38e1f57dcfa","bdp_wmem","Sat Apr 08 2023 12:22:21 GMT-0400 (Eastern Daylight Time)","529759","Match,No Match","instructions","1","1475","0.0-1.0","[{""page_index"":0,""viewing_time"":1473}]","1473","","","","","","","","","","","","","","",""
"fullscreenexit","2","3095","fullscreenexit","63ea5b93d1c6d38e1f57dcfa","bdp_wmem","Sat Apr 08 2023 12:22:21 GMT-0400 (Eastern Daylight Time)","529759","Match,No Match","","","","","","","","","","","","","","","","","","","","",""
"","","","","63ea5b93d1c6d38e1f57dcfa","bdp_wmem","Sat Apr 08 2023 12:22:21 GMT-0400 (Eastern Daylight Time)","529759","Match,No Match","fullscreen","2","3892","0.0-2.0","","","true","","","","","","","","","","","","","",""
"","","","fullscreenfail","63ea5b93d1c6d38e1f57dcfa","bdp_wmem","Sat Apr 08 2023 12:22:21 GMT-0400 (Eastern Daylight Time)","529759","Match,No Match","image-keyboard-response","3","4855","0.0-3.0-0.0","","963","","","32","","","","","","","","","","","",""
"","","","","63ea5b93d1c6d38e1f57dcfa","bdp_wmem","Sat Apr 08 2023 12:22:21 GMT-0400 (Eastern Daylight Time)","529759","Match,No Match","instructions","4","40405","0.0-4.0","[{""page_index"":0,""viewing_time"":10855},{""page_index"":1,""viewing_time"":8070},{""page_index"":2,""viewing_time"":9411},{""page_index"":3,""viewing_time"":4305},{""page_index"":4,""viewing_time"":2643}]","35284","","","","","","","","","","","","","","",""
"","","","","63ea5b93d1c6d38e1f57dcfa","bdp_wmem","Sat Apr 08 2023 12:22:21 GMT-0400 (Eastern Daylight Time)","529759","Match,No Match","html-keyboard-response","5","40921","0.0-5.0-1.0","","null","","<div class='trialBorder'><div class='vertical-center'><img src='img/fixation2_sml.jpg'</img></div></div>","null","FIX","","","","","","","","","","",""
"","","","","63ea5b93d1c6d38e1f57dcfa","bdp_wmem","Sat Apr 08 2023 12:22:21 GMT-0400 (Eastern Daylight Time)","529759","Match,No Match","html-keyboard-response","6","43930","0.0-5.0-2.0","","null","","<div class='trialBorder'><div class='vertical-center'><img style='vertical-align:center; align:center' src='img/fixation2_sml.jpg'></div><div class='arrayDiv2'><div class='tl'><img class='introPic' src='trustrating_stim/white_mw070.bmp'><br><font color='red'><strong>Keep</strong></font></div><div class='tr'><img class='introPic' src='trustrating_stim/white_mw040.bmp'><br><font color='green'><strong>Share</strong></font></div></div></div>","null","ARRAY","2","trustrating_stim/white_mw070.bmp,trustrating_stim/white_mw040.bmp","0,1","Match","e","3000","","","","",""
"","","","","63ea5b93d1c6d38e1f57dcfa","bdp_wmem","Sat Apr 08 2023 12:22:21 GMT-0400 (Eastern Daylight Time)","529759","Match,No Match","html-keyboard-response","7","47939","0.0-5.0-3.0","","null","","<div class='trialBorder'><div class='vertical-center'><img src='img/fixation2_sml.jpg'</img></div></div>","null","DELAY","","","","","","","","","","",""
"","","","","63ea5b93d1c6d38e1f57dcfa","bdp_wmem","Sat Apr 08 2023 12:22:21 GMT-0400 (Eastern Daylight Time)","529759","Match,No Match","html-keyboard-response","8","49877","0.0-5.0-4.0","","1937","","<div class='trialBorder'><div class='targDiv'><div class='tc'><img class='introPic' src='trustrating_stim/white_mw070.bmp'><br><font color='red'><strong>Keep</strong></font></div></div><div class='respDiv'><div class='respDivL'>Match<br>(e)</div><div class='respDivR'>No Match<br>(i)</div></div></div>","e","TARGET","2","trustrating_stim/white_mw070.bmp,trustrating_stim/white_mw040.bmp","0,1","Match","e","3000","trustrating_stim/white_mw070.bmp","red","Keep","PRACTICE","1"
"","","","","63ea5b93d1c6d38e1f57dcfa","bdp_wmem","Sat Apr 08 2023 12:22:21 GMT-0400 (Eastern Daylight Time)","529759","Match,No Match","html-keyboard-response","9","50388","0.0-5.0-5.0","","null","","<div class='trialBorder'><div class='vertical-center'><img src='img/correct.jpg'></div><div class='respDiv'><div class='respDivL'><font style='color:orange'>Match<br>(e)</font></div><div class='respDivR'>No Match<br>(i)</div></div></div>","null","FEEDBACK","","","","","","","","","","",""
"","","","","63ea5b93d1c6d38e1f57dcfa","bdp_wmem","Sat Apr 08 2023 12:22:21 GMT-0400 (Eastern Daylight Time)","529759","Match,No Match","html-keyboard-response","10","50899","0.0-5.0-1.1","","null","","<div class='trialBorder'><div class='vertical-center'><img src='img/fixation2_sml.jpg'</img></div></div>","null","FIX","","","","","","","","","","",""
"","","","","63ea5b93d1c6d38e1f57dcfa","bdp_wmem","Sat Apr 08 2023 12:22:21 GMT-0400 (Eastern Daylight Time)","529759","Match,No Match","html-keyboard-response","11","55407","0.0-5.0-2.1","","null","","<div class='trialBorder'><div class='vertical-center'><img style='vertical-align:center; align:center' src='img/fixation2_sml.jpg'></div><div class='arrayDiv3'><div class='tl'><img class='introPic' src='trustrating_stim/white_mw091.bmp'><br><font color='red'><strong>Keep</strong></font></div><div class='tc'><img class='introPic' src='trustrating_stim/white_mw040.bmp'><br><font color='red'><strong>Keep</strong></font></div><div class='tr'><img class='introPic' src='trustrating_stim/white_mw010.bmp'><br><font color='green'><strong>Share</strong></font></div></div></div>","null","ARRAY","3","trustrating_stim/white_mw091.bmp,trustrating_stim/white_mw040.bmp,trustrating_stim/white_mw010.bmp","0,0,1","noMatchOutcome","i","4500","","","","",""
"","","","","63ea5b93d1c6d38e1f57dcfa","bdp_wmem","Sat Apr 08 2023 12:22:21 GMT-0400 (Eastern Daylight Time)","529759","Match,No Match","html-keyboard-response","12","59412","0.0-5.0-3.1","","null","","<div class='trialBorder'><div class='vertical-center'><img src='img/fixation2_sml.jpg'</img></div></div>","null","DELAY","","","","","","","","","","",""
"","","","","63ea5b93d1c6d38e1f57dcfa","bdp_wmem","Sat Apr 08 2023 12:22:21 GMT-0400 (Eastern Daylight Time)","529759","Match,No Match","html-keyboard-response","13","60459","0.0-5.0-4.1","","1045","","<div class='trialBorder'><div class='targDiv'><div class='tc'><img class='introPic' src='trustrating_stim/white_mw010.bmp'><br><font color='red'><strong>Keep</strong></font></div></div><div class='respDiv'><div class='respDivL'>Match<br>(e)</div><div class='respDivR'>No Match<br>(i)</div></div></div>","i","TARGET","3","trustrating_stim/white_mw091.bmp,trustrating_stim/white_mw040.bmp,trustrating_stim/white_mw010.bmp","0,0,1","noMatchOutcome","i","4500","trustrating_stim/white_mw010.bmp","red","Keep","PRACTICE","1"
"","","","","63ea5b93d1c6d38e1f57dcfa","bdp_wmem","Sat Apr 08 2023 12:22:21 GMT-0400 (Eastern Daylight Time)","529759","Match,No Match","html-keyboard-response","14","60961","0.0-5.0-5.1","","null","","<div class='trialBorder'><div class='vertical-center'><img src='img/correct.jpg'></div><div class='respDiv'><div class='respDivL'>Match<br>(e)</div><div class='respDivR'><font style='color:orange'>No Match<br>(i)</font></div></div></div>","null","FEEDBACK","","","","","","","","","","",""
"","","","","63ea5b93d1c6d38e1f57dcfa","bdp_wmem","Sat Apr 08 2023 12:22:21 GMT-0400 (Eastern Daylight Time)","529759","Match,No Match","html-keyboard-response","15","61471","0.0-5.0-1.2","","null","","<div class='trialBorder'><div class='vertical-center'><img src='img/fixation2_sml.jpg'</img></div></div>","null","FIX","","","","","","","","","","",""
"","","","","63ea5b93d1c6d38e1f57dcfa","bdp_wmem","Sat Apr 08 2023 12:22:21 GMT-0400 (Eastern Daylight Time)","529759","Match,No Match","html-keyboard-response","16","62976","0.0-5.0-2.2","","null","","<div class='trialBorder'><div class='vertical-center'><img style='vertical-align:center; align:center' src='img/fixation2_sml.jpg'></div><div class='arrayDiv1'><div class='tc'><img class='introPic' src='trustrating_stim/white_mw092.bmp'><br><font color='red'><strong>Keep</strong></font></div></div></div>","null","ARRAY","1","trustrating_stim/white_mw092.bmp","0","noMatchFace","i","1500","","","","",""
"","","","","63ea5b93d1c6d38e1f57dcfa","bdp_wmem","Sat Apr 08 2023 12:22:21 GMT-0400 (Eastern Daylight Time)","529759","Match,No Match","html-keyboard-response","17","66991","0.0-5.0-3.2","","null","","<div class='trialBorder'><div class='vertical-center'><img src='img/fixation2_sml.jpg'</img></div></div>","null","DELAY","","","","","","","","","","",""
"","","","","63ea5b93d1c6d38e1f57dcfa","bdp_wmem","Sat Apr 08 2023 12:22:21 GMT-0400 (Eastern Daylight Time)","529759","Match,No Match","html-keyboard-response","18","67787","0.0-5.0-4.2","","795","","<div class='trialBorder'><div class='targDiv'><div class='tc'><img class='introPic' src='trustrating_stim/white_mw085.bmp'><br><font color='red'><strong>Keep</strong></font></div></div><div class='respDiv'><div class='respDivL'>Match<br>(e)</div><div class='respDivR'>No Match<br>(i)</div></div></div>","i","TARGET","1","trustrating_stim/white_mw092.bmp","0","noMatchFace","i","1500","trustrating_stim/white_mw085.bmp","red","Keep","PRACTICE","1"
"","","","","63ea5b93d1c6d38e1f57dcfa","bdp_wmem","Sat Apr 08 2023 12:22:21 GMT-0400 (Eastern Daylight Time)","529759","Match,No Match","html-keyboard-response","19","68291","0.0-5.0-5.2","","null","","<div class='trialBorder'><div class='vertical-center'><img src='img/correct.jpg'></div><div class='respDiv'><div class='respDivL'>Match<br>(e)</div><div class='respDivR'><font style='color:orange'>No Match<br>(i)</font></div></div></div>","null","FEEDBACK","","","","","","","","","","",""
"","","","","63ea5b93d1c6d38e1f57dcfa","bdp_wmem","Sat Apr 08 2023 12:22:21 GMT-0400 (Eastern Daylight Time)","529759","Match,No Match","html-keyboard-response","20","68802","0.0-5.0-1.3","","null","","<div class='trialBorder'><div class='vertical-center'><img src='img/fixation2_sml.jpg'</img></div></div>","null","FIX","","","","","","","","","","",""
"","","","","63ea5b93d1c6d38e1f57dcfa","bdp_wmem","Sat Apr 08 2023 12:22:21 GMT-0400 (Eastern Daylight Time)","529759","Match,No Match","html-keyboard-response","21","71808","0.0-5.0-2.3","","null","","<div class='trialBorder'><div class='vertical-center'><img style='vertical-align:center; align:center' src='img/fixation2_sml.jpg'></div><div class='arrayDiv2'><div class='tl'><img class='introPic' src='trustrating_stim/white_mw078.bmp'><br><font color='red'><strong>Keep</strong></font></div><div class='tr'><img class='introPic' src='trustrating_stim/white_mw091.bmp'><br><font color='green'><strong>Share</strong></font></div></div></div>","null","ARRAY","2","trustrating_stim/white_mw078.bmp,trustrating_stim/white_mw091.bmp","0,1","noMatchOutcome","i","3000","","","","",""
"","","","","63ea5b93d1c6d38e1f57dcfa","bdp_wmem","Sat Apr 08 2023 12:22:21 GMT-0400 (Eastern Daylight Time)","529759","Match,No Match","html-keyboard-response","22","75820","0.0-5.0-3.3","","null","","<div class='trialBorder'><div class='vertical-center'><img src='img/fixation2_sml.jpg'</img></div></div>","null","DELAY","","","","","","","","","","",""
"","","","","63ea5b93d1c6d38e1f57dcfa","bdp_wmem","Sat Apr 08 2023 12:22:21 GMT-0400 (Eastern Daylight Time)","529759","Match,No Match","html-keyboard-response","23","76572","0.0-5.0-4.3","","752","","<div class='trialBorder'><div class='targDiv'><div class='tc'><img class='introPic' src='trustrating_stim/white_mw091.bmp'><br><font color='red'><strong>Keep</strong></font></div></div><div class='respDiv'><div class='respDivL'>Match<br>(e)</div><div class='respDivR'>No Match<br>(i)</div></div></div>","i","TARGET","2","trustrating_stim/white_mw078.bmp,trustrating_stim/white_mw091.bmp","0,1","noMatchOutcome","i","3000","trustrating_stim/white_mw091.bmp","red","Keep","PRACTICE","1"
"","","","","63ea5b93d1c6d38e1f57dcfa","bdp_wmem","Sat Apr 08 2023 12:22:21 GMT-0400 (Eastern Daylight Time)","529759","Match,No Match","html-keyboard-response","24","77074","0.0-5.0-5.3","","null","","<div class='trialBorder'><div class='vertical-center'><img src='img/correct.jpg'></div><div class='respDiv'><div class='respDivL'>Match<br>(e)</div><div class='respDivR'><font style='color:orange'>No Match<br>(i)</font></div></div></div>","null","FEEDBACK","","","","","","","","","","",""
"","","","","63ea5b93d1c6d38e1f57dcfa","bdp_wmem","Sat Apr 08 2023 12:22:21 GMT-0400 (Eastern Daylight Time)","529759","Match,No Match","html-keyboard-response","25","77582","0.0-5.0-1.4","","null","","<div class='trialBorder'><div class='vertical-center'><img src='img/fixation2_sml.jpg'</img></div></div>","null","FIX","","","","","","","","","","",""
"","","","","63ea5b93d1c6d38e1f57dcfa","bdp_wmem","Sat Apr 08 2023 12:22:21 GMT-0400 (Eastern Daylight Time)","529759","Match,No Match","html-keyboard-response","26","79084","0.0-5.0-2.4","","null","","<div class='trialBorder'><div class='vertical-center'><img style='vertical-align:center; align:center' src='img/fixation2_sml.jpg'></div><div class='arrayDiv1'><div class='tc'><img class='introPic' src='trustrating_stim/white_mw040.bmp'><br><font color='red'><strong>Keep</strong></font></div></div></div>","null","ARRAY","1","trustrating_stim/white_mw040.bmp","0","Match","e","1500","","","","",""
"","","","","63ea5b93d1c6d38e1f57dcfa","bdp_wmem","Sat Apr 08 2023 12:22:21 GMT-0400 (Eastern Daylight Time)","529759","Match,No Match","html-keyboard-response","27","83088","0.0-5.0-3.4","","null","","<div class='trialBorder'><div class='vertical-center'><img src='img/fixation2_sml.jpg'</img></div></div>","null","DELAY","","","","","","","","","","",""
"","","","","63ea5b93d1c6d38e1f57dcfa","bdp_wmem","Sat Apr 08 2023 12:22:21 GMT-0400 (Eastern Daylight Time)","529759","Match,No Match","html-keyboard-response","28","83417","0.0-5.0-4.4","","329","","<div class='trialBorder'><div class='targDiv'><div class='tc'><img class='introPic' src='trustrating_stim/white_mw040.bmp'><br><font color='red'><strong>Keep</strong></font></div></div><div class='respDiv'><div class='respDivL'>Match<br>(e)</div><div class='respDivR'>No Match<br>(i)</div></div></div>","i","TARGET","1","trustrating_stim/white_mw040.bmp","0","Match","e","1500","trustrating_stim/white_mw040.bmp","red","Keep","PRACTICE","0"
"","","","","63ea5b93d1c6d38e1f57dcfa","bdp_wmem","Sat Apr 08 2023 12:22:21 GMT-0400 (Eastern Daylight Time)","529759","Match,No Match","html-keyboard-response","29","83921","0.0-5.0-5.4","","null","","<div class='trialBorder'><div class='vertical-center'><img src='img/error.jpg'></div><div class='respDiv'><div class='respDivL'>Match<br>(e)</div><div class='respDivR'><font style='color:orange'>No Match<br>(i)</font></div></div></div>","null","FEEDBACK","","","","","","","","","","",""
"","","","","63ea5b93d1c6d38e1f57dcfa","bdp_wmem","Sat Apr 08 2023 12:22:21 GMT-0400 (Eastern Daylight Time)","529759","Match,No Match","html-keyboard-response","30","84431","0.0-5.0-1.5","","null","","<div class='trialBorder'><div class='vertical-center'><img src='img/fixation2_sml.jpg'</img></div></div>","null","FIX","","","","","","","","","","",""
"","","","","63ea5b93d1c6d38e1f57dcfa","bdp_wmem","Sat Apr 08 2023 12:22:21 GMT-0400 (Eastern Daylight Time)","529759","Match,No Match","html-keyboard-response","31","88935","0.0-5.0-2.5","","null","","<div class='trialBorder'><div class='vertical-center'><img style='vertical-align:center; align:center' src='img/fixation2_sml.jpg'></div><div class='arrayDiv3'><div class='tl'><img class='introPic' src='trustrating_stim/white_mw091.bmp'><br><font color='green'><strong>Share</strong></font></div><div class='tc'><img class='introPic' src='trustrating_stim/white_mw012.bmp'><br><font color='green'><strong>Share</strong></font></div><div class='tr'><img class='introPic' src='trustrating_stim/white_mw038.bmp'><br><font color='red'><strong>Keep</strong></font></div></div></div>","null","ARRAY","3","trustrating_stim/white_mw091.bmp,trustrating_stim/white_mw012.bmp,trustrating_stim/white_mw038.bmp","1,1,0","Match","e","4500","","","","",""
"","","","","63ea5b93d1c6d38e1f57dcfa","bdp_wmem","Sat Apr 08 2023 12:22:21 GMT-0400 (Eastern Daylight Time)","529759","Match,No Match","html-keyboard-response","32","92938","0.0-5.0-3.5","","null","","<div class='trialBorder'><div class='vertical-center'><img src='img/fixation2_sml.jpg'</img></div></div>","null","DELAY","","","","","","","","","","",""
"","","","","63ea5b93d1c6d38e1f57dcfa","bdp_wmem","Sat Apr 08 2023 12:22:21 GMT-0400 (Eastern Daylight Time)","529759","Match,No Match","html-keyboard-response","33","94098","0.0-5.0-4.5","","1160","","<div class='trialBorder'><div class='targDiv'><div class='tc'><img class='introPic' src='trustrating_stim/white_mw012.bmp'><br><font color='green'><strong>Share</strong></font></div></div><div class='respDiv'><div class='respDivL'>Match<br>(e)</div><div class='respDivR'>No Match<br>(i)</div></div></div>","i","TARGET","3","trustrating_stim/white_mw091.bmp,trustrating_stim/white_mw012.bmp,trustrating_stim/white_mw038.bmp","1,1,0","Match","e","4500","trustrating_stim/white_mw012.bmp","green","Share","PRACTICE","0"
"","","","","63ea5b93d1c6d38e1f57dcfa","bdp_wmem","Sat Apr 08 2023 12:22:21 GMT-0400 (Eastern Daylight Time)","529759","Match,No Match","html-keyboard-response","34","94607","0.0-5.0-5.5","","null","","<div class='trialBorder'><div class='vertical-center'><img src='img/error.jpg'></div><div class='respDiv'><div class='respDivL'>Match<br>(e)</div><div class='respDivR'><font style='color:orange'>No Match<br>(i)</font></div></div></div>","null","FEEDBACK","","","","","","","","","","",""
"","","","","63ea5b93d1c6d38e1f57dcfa","bdp_wmem","Sat Apr 08 2023 12:22:21 GMT-0400 (Eastern Daylight Time)","529759","Match,No Match","instructions","35","99694","0.0-6.0","[{""page_index"":0,""viewing_time"":5087}]","5087","","","","","","","","","","","","","","",""
"","","","","63ea5b93d1c6d38e1f57dcfa","bdp_wmem","Sat Apr 08 2023 12:22:21 GMT-0400 (Eastern Daylight Time)","529759","Match,No Match","html-keyboard-response","36","100204","0.0-7.0-1.0","","null","","<div class='trialBorder'><div class='vertical-center'><img src='img/fixation2_sml.jpg'</img></div></div>","null","FIX","","","","","","","","","","",""
"","","","","63ea5b93d1c6d38e1f57dcfa","bdp_wmem","Sat Apr 08 2023 12:22:21 GMT-0400 (Eastern Daylight Time)","529759","Match,No Match","html-keyboard-response","37","103214","0.0-7.0-2.0","","null","","<div class='trialBorder'><div class='vertical-center'><img style='vertical-align:center; align:center' src='img/fixation2_sml.jpg'></div><div class='arrayDiv2'><div class='tl'><img class='introPic' src='trustrating_stim/white_mw010.bmp'><br><font color='red'><strong>Keep</strong></font></div><div class='tr'><img class='introPic' src='trustrating_stim/white_mw085.bmp'><br><font color='green'><strong>Share</strong></font></div></div></div>","null","ARRAY","2","trustrating_stim/white_mw010.bmp,trustrating_stim/white_mw085.bmp","0,1","noMatchOutcome","i","3000","","","","",""
"","","","","63ea5b93d1c6d38e1f57dcfa","bdp_wmem","Sat Apr 08 2023 12:22:21 GMT-0400 (Eastern Daylight Time)","529759","Match,No Match","html-keyboard-response","38","107215","0.0-7.0-3.0","","null","","<div class='trialBorder'><div class='vertical-center'><img src='img/fixation2_sml.jpg'</img></div></div>","null","DELAY","","","","","","","","","","",""
"","","","","63ea5b93d1c6d38e1f57dcfa","bdp_wmem","Sat Apr 08 2023 12:22:21 GMT-0400 (Eastern Daylight Time)","529759","Match,No Match","html-keyboard-response","39","108548","0.0-7.0-4.0","","1332","","<div class='trialBorder'><div class='targDiv'><div class='tc'><img class='introPic' src='trustrating_stim/white_mw010.bmp'><br><font color='green'><strong>Share</strong></font></div></div><div class='respDiv'><div class='respDivL'>Match<br>(e)</div><div class='respDivR'>No Match<br>(i)</div></div></div>","i","TARGET","2","trustrating_stim/white_mw010.bmp,trustrating_stim/white_mw085.bmp","0,1","noMatchOutcome","i","3000","trustrating_stim/white_mw010.bmp","green","Share","REAL","1"
"","","","","63ea5b93d1c6d38e1f57dcfa","bdp_wmem","Sat Apr 08 2023 12:22:21 GMT-0400 (Eastern Daylight Time)","529759","Match,No Match","html-keyboard-response","40","109059","0.0-7.0-5.0","","null","","<div class='trialBorder'><div class='vertical-center'><img src='img/correct.jpg'></div><div class='respDiv'><div class='respDivL'>Match<br>(e)</div><div class='respDivR'><font style='color:orange'>No Match<br>(i)</font></div></div></div>","null","FEEDBACK","","","","","","","","","","",""
"","","","","63ea5b93d1c6d38e1f57dcfa","bdp_wmem","Sat Apr 08 2023 12:22:21 GMT-0400 (Eastern Daylight Time)","529759","Match,No Match","html-keyboard-response","41","109571","0.0-7.0-1.1","","null","","<div class='trialBorder'><div class='vertical-center'><img src='img/fixation2_sml.jpg'</img></div></div>","null","FIX","","","","","","","","","","",""
"","","","","63ea5b93d1c6d38e1f57dcfa","bdp_wmem","Sat Apr 08 2023 12:22:21 GMT-0400 (Eastern Daylight Time)","529759","Match,No Match","html-keyboard-response","42","114078","0.0-7.0-2.1","","null","","<div class='trialBorder'><div class='vertical-center'><img style='vertical-align:center; align:center' src='img/fixation2_sml.jpg'></div><div class='arrayDiv3'><div class='tl'><img class='introPic' src='trustrating_stim/white_mw003.bmp'><br><font color='green'><strong>Share</strong></font></div><div class='tc'><img class='introPic' src='trustrating_stim/white_mw038.bmp'><br><font color='green'><strong>Share</strong></font></div><div class='tr'><img class='introPic' src='trustrating_stim/white_mw085.bmp'><br><font color='red'><strong>Keep</strong></font></div></div></div>","null","ARRAY","3","trustrating_stim/white_mw003.bmp,trustrating_stim/white_mw038.bmp,trustrating_stim/white_mw085.bmp","1,1,0","noMatchFace","i","4500","","","","",""
"","","","","63ea5b93d1c6d38e1f57dcfa","bdp_wmem","Sat Apr 08 2023 12:22:21 GMT-0400 (Eastern Daylight Time)","529759","Match,No Match","html-keyboard-response","43","118093","0.0-7.0-3.1","","null","","<div class='trialBorder'><div class='vertical-center'><img src='img/fixation2_sml.jpg'</img></div></div>","null","DELAY","","","","","","","","","","",""
"","","","","63ea5b93d1c6d38e1f57dcfa","bdp_wmem","Sat Apr 08 2023 12:22:21 GMT-0400 (Eastern Daylight Time)","529759","Match,No Match","html-keyboard-response","44","119323","0.0-7.0-4.1","","1229","","<div class='trialBorder'><div class='targDiv'><div class='tc'><img class='introPic' src='trustrating_stim/white_mw010.bmp'><br><font color='red'><strong>Keep</strong></font></div></div><div class='respDiv'><div class='respDivL'>Match<br>(e)</div><div class='respDivR'>No Match<br>(i)</div></div></div>","i","TARGET","3","trustrating_stim/white_mw003.bmp,trustrating_stim/white_mw038.bmp,trustrating_stim/white_mw085.bmp","1,1,0","noMatchFace","i","4500","trustrating_stim/white_mw010.bmp","red","Keep","REAL","1"
"","","","","63ea5b93d1c6d38e1f57dcfa","bdp_wmem","Sat Apr 08 2023 12:22:21 GMT-0400 (Eastern Daylight Time)","529759","Match,No Match","html-keyboard-response","45","119825","0.0-7.0-5.1","","null","","<div class='trialBorder'><div class='vertical-center'><img src='img/correct.jpg'></div><div class='respDiv'><div class='respDivL'>Match<br>(e)</div><div class='respDivR'><font style='color:orange'>No Match<br>(i)</font></div></div></div>","null","FEEDBACK","","","","","","","","","","",""
"","","","","63ea5b93d1c6d38e1f57dcfa","bdp_wmem","Sat Apr 08 2023 12:22:21 GMT-0400 (Eastern Daylight Time)","529759","Match,No Match","html-keyboard-response","46","120337","0.0-7.0-1.2","","null","","<div class='trialBorder'><div class='vertical-center'><img src='img/fixation2_sml.jpg'</img></div></div>","null","FIX","","","","","","","","","","",""
"","","","","63ea5b93d1c6d38e1f57dcfa","bdp_wmem","Sat Apr 08 2023 12:22:21 GMT-0400 (Eastern Daylight Time)","529759","Match,No Match","html-keyboard-response","47","123343","0.0-7.0-2.2","","null","","<div class='trialBorder'><div class='vertical-center'><img style='vertical-align:center; align:center' src='img/fixation2_sml.jpg'></div><div class='arrayDiv2'><div class='tl'><img class='introPic' src='trustrating_stim/white_mw042.bmp'><br><font color='green'><strong>Share</strong></font></div><div class='tr'><img class='introPic' src='trustrating_stim/white_mw085.bmp'><br><font color='red'><strong>Keep</strong></font></div></div></div>","null","ARRAY","2","trustrating_stim/white_mw042.bmp,trustrating_stim/white_mw085.bmp","1,0","noMatchOutcome","i","3000","","","","",""
"","","","","63ea5b93d1c6d38e1f57dcfa","bdp_wmem","Sat Apr 08 2023 12:22:21 GMT-0400 (Eastern Daylight Time)","529759","Match,No Match","html-keyboard-response","48","127354","0.0-7.0-3.2","","null","","<div class='trialBorder'><div class='vertical-center'><img src='img/fixation2_sml.jpg'</img></div></div>","null","DELAY","","","","","","","","","","",""
"","","","","63ea5b93d1c6d38e1f57dcfa","bdp_wmem","Sat Apr 08 2023 12:22:21 GMT-0400 (Eastern Daylight Time)","529759","Match,No Match","html-keyboard-response","49","129266","0.0-7.0-4.2","","1912","","<div class='trialBorder'><div class='targDiv'><div class='tc'><img class='introPic' src='trustrating_stim/white_mw042.bmp'><br><font color='red'><strong>Keep</strong></font></div></div><div class='respDiv'><div class='respDivL'>Match<br>(e)</div><div class='respDivR'>No Match<br>(i)</div></div></div>","i","TARGET","2","trustrating_stim/white_mw042.bmp,trustrating_stim/white_mw085.bmp","1,0","noMatchOutcome","i","3000","trustrating_stim/white_mw042.bmp","red","Keep","REAL","1"
"","","","","63ea5b93d1c6d38e1f57dcfa","bdp_wmem","Sat Apr 08 2023 12:22:21 GMT-0400 (Eastern Daylight Time)","529759","Match,No Match","html-keyboard-response","50","129770","0.0-7.0-5.2","","null","","<div class='trialBorder'><div class='vertical-center'><img src='img/correct.jpg'></div><div class='respDiv'><div class='respDivL'>Match<br>(e)</div><div class='respDivR'><font style='color:orange'>No Match<br>(i)</font></div></div></div>","null","FEEDBACK","","","","","","","","","","",""
"","","","","63ea5b93d1c6d38e1f57dcfa","bdp_wmem","Sat Apr 08 2023 12:22:21 GMT-0400 (Eastern Daylight Time)","529759","Match,No Match","html-keyboard-response","51","130283","0.0-7.0-1.3","","null","","<div class='trialBorder'><div class='vertical-center'><img src='img/fixation2_sml.jpg'</img></div></div>","null","FIX","","","","","","","","","","",""
"","","","","63ea5b93d1c6d38e1f57dcfa","bdp_wmem","Sat Apr 08 2023 12:22:21 GMT-0400 (Eastern Daylight Time)","529759","Match,No Match","html-keyboard-response","52","133293","0.0-7.0-2.3","","null","","<div class='trialBorder'><div class='vertical-center'><img style='vertical-align:center; align:center' src='img/fixation2_sml.jpg'></div><div class='arrayDiv2'><div class='tl'><img class='introPic' src='trustrating_stim/white_mw092.bmp'><br><font color='green'><strong>Share</strong></font></div><div class='tr'><img class='introPic' src='trustrating_stim/white_mw078.bmp'><br><font color='red'><strong>Keep</strong></font></div></div></div>","null","ARRAY","2","trustrating_stim/white_mw092.bmp,trustrating_stim/white_mw078.bmp","1,0","Match","e","3000","","","","",""
"","","","","63ea5b93d1c6d38e1f57dcfa","bdp_wmem","Sat Apr 08 2023 12:22:21 GMT-0400 (Eastern Daylight Time)","529759","Match,No Match","html-keyboard-response","53","137306","0.0-7.0-3.3","","null","","<div class='trialBorder'><div class='vertical-center'><img src='img/fixation2_sml.jpg'</img></div></div>","null","DELAY","","","","","","","","","","",""
"","","","","63ea5b93d1c6d38e1f57dcfa","bdp_wmem","Sat Apr 08 2023 12:22:21 GMT-0400 (Eastern Daylight Time)","529759","Match,No Match","html-keyboard-response","54","139089","0.0-7.0-4.3","","1783","","<div class='trialBorder'><div class='targDiv'><div class='tc'><img class='introPic' src='trustrating_stim/white_mw078.bmp'><br><font color='red'><strong>Keep</strong></font></div></div><div class='respDiv'><div class='respDivL'>Match<br>(e)</div><div class='respDivR'>No Match<br>(i)</div></div></div>","e","TARGET","2","trustrating_stim/white_mw092.bmp,trustrating_stim/white_mw078.bmp","1,0","Match","e","3000","trustrating_stim/white_mw078.bmp","red","Keep","REAL","1"
"","","","","63ea5b93d1c6d38e1f57dcfa","bdp_wmem","Sat Apr 08 2023 12:22:21 GMT-0400 (Eastern Daylight Time)","529759","Match,No Match","html-keyboard-response","55","139597","0.0-7.0-5.3","","null","","<div class='trialBorder'><div class='vertical-center'><img src='img/correct.jpg'></div><div class='respDiv'><div class='respDivL'><font style='color:orange'>Match<br>(e)</font></div><div class='respDivR'>No Match<br>(i)</div></div></div>","null","FEEDBACK","","","","","","","","","","",""
"","","","","63ea5b93d1c6d38e1f57dcfa","bdp_wmem","Sat Apr 08 2023 12:22:21 GMT-0400 (Eastern Daylight Time)","529759","Match,No Match","html-keyboard-response","56","140110","0.0-7.0-1.4","","null","","<div class='trialBorder'><div class='vertical-center'><img src='img/fixation2_sml.jpg'</img></div></div>","null","FIX","","","","","","","","","","",""
"","","","","63ea5b93d1c6d38e1f57dcfa","bdp_wmem","Sat Apr 08 2023 12:22:21 GMT-0400 (Eastern Daylight Time)","529759","Match,No Match","html-keyboard-response","57","144615","0.0-7.0-2.4","","null","","<div class='trialBorder'><div class='vertical-center'><img style='vertical-align:center; align:center' src='img/fixation2_sml.jpg'></div><div class='arrayDiv3'><div class='tl'><img class='introPic' src='trustrating_stim/white_mw012.bmp'><br><font color='red'><strong>Keep</strong></font></div><div class='tc'><img class='introPic' src='trustrating_stim/white_mw003.bmp'><br><font color='green'><strong>Share</strong></font></div><div class='tr'><img class='introPic' src='trustrating_stim/white_mw091.bmp'><br><font color='red'><strong>Keep</strong></font></div></div></div>","null","ARRAY","3","trustrating_stim/white_mw012.bmp,trustrating_stim/white_mw003.bmp,trustrating_stim/white_mw091.bmp","0,1,0","noMatchOutcome","i","4500","","","","",""
"","","","","63ea5b93d1c6d38e1f57dcfa","bdp_wmem","Sat Apr 08 2023 12:22:21 GMT-0400 (Eastern Daylight Time)","529759","Match,No Match","html-keyboard-response","58","148619","0.0-7.0-3.4","","null","","<div class='trialBorder'><div class='vertical-center'><img src='img/fixation2_sml.jpg'</img></div></div>","null","DELAY","","","","","","","","","","",""
"","","","","63ea5b93d1c6d38e1f57dcfa","bdp_wmem","Sat Apr 08 2023 12:22:21 GMT-0400 (Eastern Daylight Time)","529759","Match,No Match","html-keyboard-response","59","149313","0.0-7.0-4.4","","694","","<div class='trialBorder'><div class='targDiv'><div class='tc'><img class='introPic' src='trustrating_stim/white_mw012.bmp'><br><font color='green'><strong>Share</strong></font></div></div><div class='respDiv'><div class='respDivL'>Match<br>(e)</div><div class='respDivR'>No Match<br>(i)</div></div></div>","e","TARGET","3","trustrating_stim/white_mw012.bmp,trustrating_stim/white_mw003.bmp,trustrating_stim/white_mw091.bmp","0,1,0","noMatchOutcome","i","4500","trustrating_stim/white_mw012.bmp","green","Share","REAL","0"
"","","","","63ea5b93d1c6d38e1f57dcfa","bdp_wmem","Sat Apr 08 2023 12:22:21 GMT-0400 (Eastern Daylight Time)","529759","Match,No Match","html-keyboard-response","60","149828","0.0-7.0-5.4","","null","","<div class='trialBorder'><div class='vertical-center'><img src='img/error.jpg'></div><div class='respDiv'><div class='respDivL'><font style='color:orange'>Match<br>(e)</font></div><div class='respDivR'>No Match<br>(i)</div></div></div>","null","FEEDBACK","","","","","","","","","","",""
"","","","","63ea5b93d1c6d38e1f57dcfa","bdp_wmem","Sat Apr 08 2023 12:22:21 GMT-0400 (Eastern Daylight Time)","529759","Match,No Match","html-keyboard-response","61","150339","0.0-7.0-1.5","","null","","<div class='trialBorder'><div class='vertical-center'><img src='img/fixation2_sml.jpg'</img></div></div>","null","FIX","","","","","","","","","","",""
"","","","","63ea5b93d1c6d38e1f57dcfa","bdp_wmem","Sat Apr 08 2023 12:22:21 GMT-0400 (Eastern Daylight Time)","529759","Match,No Match","html-keyboard-response","62","151846","0.0-7.0-2.5","","null","","<div class='trialBorder'><div class='vertical-center'><img style='vertical-align:center; align:center' src='img/fixation2_sml.jpg'></div><div class='arrayDiv1'><div class='tc'><img class='introPic' src='trustrating_stim/white_mw092.bmp'><br><font color='red'><strong>Keep</strong></font></div></div></div>","null","ARRAY","1","trustrating_stim/white_mw092.bmp","0","noMatchFace","i","1500","","","","",""
"","","","","63ea5b93d1c6d38e1f57dcfa","bdp_wmem","Sat Apr 08 2023 12:22:21 GMT-0400 (Eastern Daylight Time)","529759","Match,No Match","html-keyboard-response","63","155858","0.0-7.0-3.5","","null","","<div class='trialBorder'><div class='vertical-center'><img src='img/fixation2_sml.jpg'</img></div></div>","null","DELAY","","","","","","","","","","",""
"","","","","63ea5b93d1c6d38e1f57dcfa","bdp_wmem","Sat Apr 08 2023 12:22:21 GMT-0400 (Eastern Daylight Time)","529759","Match,No Match","html-keyboard-response","64","156583","0.0-7.0-4.5","","724","","<div class='trialBorder'><div class='targDiv'><div class='tc'><img class='introPic' src='trustrating_stim/white_mw010.bmp'><br><font color='red'><strong>Keep</strong></font></div></div><div class='respDiv'><div class='respDivL'>Match<br>(e)</div><div class='respDivR'>No Match<br>(i)</div></div></div>","i","TARGET","1","trustrating_stim/white_mw092.bmp","0","noMatchFace","i","1500","trustrating_stim/white_mw010.bmp","red","Keep","REAL","1"
"","","","","63ea5b93d1c6d38e1f57dcfa","bdp_wmem","Sat Apr 08 2023 12:22:21 GMT-0400 (Eastern Daylight Time)","529759","Match,No Match","html-keyboard-response","65","157097","0.0-7.0-5.5","","null","","<div class='trialBorder'><div class='vertical-center'><img src='img/correct.jpg'></div><div class='respDiv'><div class='respDivL'>Match<br>(e)</div><div class='respDivR'><font style='color:orange'>No Match<br>(i)</font></div></div></div>","null","FEEDBACK","","","","","","","","","","",""
"","","","","63ea5b93d1c6d38e1f57dcfa","bdp_wmem","Sat Apr 08 2023 12:22:21 GMT-0400 (Eastern Daylight Time)","529759","Match,No Match","html-keyboard-response","66","157611","0.0-7.0-1.6","","null","","<div class='trialBorder'><div class='vertical-center'><img src='img/fixation2_sml.jpg'</img></div></div>","null","FIX","","","","","","","","","","",""
"","","","","63ea5b93d1c6d38e1f57dcfa","bdp_wmem","Sat Apr 08 2023 12:22:21 GMT-0400 (Eastern Daylight Time)","529759","Match,No Match","html-keyboard-response","67","160616","0.0-7.0-2.6","","null","","<div class='trialBorder'><div class='vertical-center'><img style='vertical-align:center; align:center' src='img/fixation2_sml.jpg'></div><div class='arrayDiv2'><div class='tl'><img class='introPic' src='trustrating_stim/white_mw078.bmp'><br><font color='green'><strong>Share</strong></font></div><div class='tr'><img class='introPic' src='trustrating_stim/white_mw085.bmp'><br><font color='red'><strong>Keep</strong></font></div></div></div>","null","ARRAY","2","trustrating_stim/white_mw078.bmp,trustrating_stim/white_mw085.bmp","1,0","Match","e","3000","","","","",""
"","","","","63ea5b93d1c6d38e1f57dcfa","bdp_wmem","Sat Apr 08 2023 12:22:21 GMT-0400 (Eastern Daylight Time)","529759","Match,No Match","html-keyboard-response","68","164622","0.0-7.0-3.6","","null","","<div class='trialBorder'><div class='vertical-center'><img src='img/fixation2_sml.jpg'</img></div></div>","null","DELAY","","","","","","","","","","",""
"","","","","63ea5b93d1c6d38e1f57dcfa","bdp_wmem","Sat Apr 08 2023 12:22:21 GMT-0400 (Eastern Daylight Time)","529759","Match,No Match","html-keyboard-response","69","165270","0.0-7.0-4.6","","648","","<div class='trialBorder'><div class='targDiv'><div class='tc'><img class='introPic' src='trustrating_stim/white_mw078.bmp'><br><font color='green'><strong>Share</strong></font></div></div><div class='respDiv'><div class='respDivL'>Match<br>(e)</div><div class='respDivR'>No Match<br>(i)</div></div></div>","e","TARGET","2","trustrating_stim/white_mw078.bmp,trustrating_stim/white_mw085.bmp","1,0","Match","e","3000","trustrating_stim/white_mw078.bmp","green","Share","REAL","1"
"","","","","63ea5b93d1c6d38e1f57dcfa","bdp_wmem","Sat Apr 08 2023 12:22:21 GMT-0400 (Eastern Daylight Time)","529759","Match,No Match","html-keyboard-response","70","165771","0.0-7.0-5.6","","null","","<div class='trialBorder'><div class='vertical-center'><img src='img/correct.jpg'></div><div class='respDiv'><div class='respDivL'><font style='color:orange'>Match<br>(e)</font></div><div class='respDivR'>No Match<br>(i)</div></div></div>","null","FEEDBACK","","","","","","","","","","",""
"","","","","63ea5b93d1c6d38e1f57dcfa","bdp_wmem","Sat Apr 08 2023 12:22:21 GMT-0400 (Eastern Daylight Time)","529759","Match,No Match","html-keyboard-response","71","166284","0.0-7.0-1.7","","null","","<div class='trialBorder'><div class='vertical-center'><img src='img/fixation2_sml.jpg'</img></div></div>","null","FIX","","","","","","","","","","",""
"","","","","63ea5b93d1c6d38e1f57dcfa","bdp_wmem","Sat Apr 08 2023 12:22:21 GMT-0400 (Eastern Daylight Time)","529759","Match,No Match","html-keyboard-response","72","167795","0.0-7.0-2.7","","null","","<div class='trialBorder'><div class='vertical-center'><img style='vertical-align:center; align:center' src='img/fixation2_sml.jpg'></div><div class='arrayDiv1'><div class='tc'><img class='introPic' src='trustrating_stim/white_mw040.bmp'><br><font color='red'><strong>Keep</strong></font></div></div></div>","null","ARRAY","1","trustrating_stim/white_mw040.bmp","0","noMatchFace","i","1500","","","","",""
"","","","","63ea5b93d1c6d38e1f57dcfa","bdp_wmem","Sat Apr 08 2023 12:22:21 GMT-0400 (Eastern Daylight Time)","529759","Match,No Match","html-keyboard-response","73","171808","0.0-7.0-3.7","","null","","<div class='trialBorder'><div class='vertical-center'><img src='img/fixation2_sml.jpg'</img></div></div>","null","DELAY","","","","","","","","","","",""
"","","","","63ea5b93d1c6d38e1f57dcfa","bdp_wmem","Sat Apr 08 2023 12:22:21 GMT-0400 (Eastern Daylight Time)","529759","Match,No Match","html-keyboard-response","74","172538","0.0-7.0-4.7","","730","","<div class='trialBorder'><div class='targDiv'><div class='tc'><img class='introPic' src='trustrating_stim/white_mw013.bmp'><br><font color='red'><strong>Keep</strong></font></div></div><div class='respDiv'><div class='respDivL'>Match<br>(e)</div><div class='respDivR'>No Match<br>(i)</div></div></div>","i","TARGET","1","trustrating_stim/white_mw040.bmp","0","noMatchFace","i","1500","trustrating_stim/white_mw013.bmp","red","Keep","REAL","1"
"","","","","63ea5b93d1c6d38e1f57dcfa","bdp_wmem","Sat Apr 08 2023 12:22:21 GMT-0400 (Eastern Daylight Time)","529759","Match,No Match","html-keyboard-response","75","173050","0.0-7.0-5.7","","null","","<div class='trialBorder'><div class='vertical-center'><img src='img/correct.jpg'></div><div class='respDiv'><div class='respDivL'>Match<br>(e)</div><div class='respDivR'><font style='color:orange'>No Match<br>(i)</font></div></div></div>","null","FEEDBACK","","","","","","","","","","",""
"","","","","63ea5b93d1c6d38e1f57dcfa","bdp_wmem","Sat Apr 08 2023 12:22:21 GMT-0400 (Eastern Daylight Time)","529759","Match,No Match","html-keyboard-response","76","173564","0.0-7.0-1.8","","null","","<div class='trialBorder'><div class='vertical-center'><img src='img/fixation2_sml.jpg'</img></div></div>","null","FIX","","","","","","","","","","",""
"","","","","63ea5b93d1c6d38e1f57dcfa","bdp_wmem","Sat Apr 08 2023 12:22:21 GMT-0400 (Eastern Daylight Time)","529759","Match,No Match","html-keyboard-response","77","175072","0.0-7.0-2.8","","null","","<div class='trialBorder'><div class='vertical-center'><img style='vertical-align:center; align:center' src='img/fixation2_sml.jpg'></div><div class='arrayDiv1'><div class='tc'><img class='introPic' src='trustrating_stim/white_mw042.bmp'><br><font color='red'><strong>Keep</strong></font></div></div></div>","null","ARRAY","1","trustrating_stim/white_mw042.bmp","0","noMatchOutcome","i","1500","","","","",""
"","","","","63ea5b93d1c6d38e1f57dcfa","bdp_wmem","Sat Apr 08 2023 12:22:21 GMT-0400 (Eastern Daylight Time)","529759","Match,No Match","html-keyboard-response","78","179076","0.0-7.0-3.8","","null","","<div class='trialBorder'><div class='vertical-center'><img src='img/fixation2_sml.jpg'</img></div></div>","null","DELAY","","","","","","","","","","",""
"","","","","63ea5b93d1c6d38e1f57dcfa","bdp_wmem","Sat Apr 08 2023 12:22:21 GMT-0400 (Eastern Daylight Time)","529759","Match,No Match","html-keyboard-response","79","179790","0.0-7.0-4.8","","713","","<div class='trialBorder'><div class='targDiv'><div class='tc'><img class='introPic' src='trustrating_stim/white_mw042.bmp'><br><font color='green'><strong>Share</strong></font></div></div><div class='respDiv'><div class='respDivL'>Match<br>(e)</div><div class='respDivR'>No Match<br>(i)</div></div></div>","e","TARGET","1","trustrating_stim/white_mw042.bmp","0","noMatchOutcome","i","1500","trustrating_stim/white_mw042.bmp","green","Share","REAL","0"
"","","","","63ea5b93d1c6d38e1f57dcfa","bdp_wmem","Sat Apr 08 2023 12:22:21 GMT-0400 (Eastern Daylight Time)","529759","Match,No Match","html-keyboard-response","80","180301","0.0-7.0-5.8","","null","","<div class='trialBorder'><div class='vertical-center'><img src='img/error.jpg'></div><div class='respDiv'><div class='respDivL'><font style='color:orange'>Match<br>(e)</font></div><div class='respDivR'>No Match<br>(i)</div></div></div>","null","FEEDBACK","","","","","","","","","","",""
"","","","","63ea5b93d1c6d38e1f57dcfa","bdp_wmem","Sat Apr 08 2023 12:22:21 GMT-0400 (Eastern Daylight Time)","529759","Match,No Match","html-keyboard-response","81","180813","0.0-7.0-1.9","","null","","<div class='trialBorder'><div class='vertical-center'><img src='img/fixation2_sml.jpg'</img></div></div>","null","FIX","","","","","","","","","","",""
"","","","","63ea5b93d1c6d38e1f57dcfa","bdp_wmem","Sat Apr 08 2023 12:22:21 GMT-0400 (Eastern Daylight Time)","529759","Match,No Match","html-keyboard-response","82","185328","0.0-7.0-2.9","","null","","<div class='trialBorder'><div class='vertical-center'><img style='vertical-align:center; align:center' src='img/fixation2_sml.jpg'></div><div class='arrayDiv3'><div class='tl'><img class='introPic' src='trustrating_stim/white_mw078.bmp'><br><font color='red'><strong>Keep</strong></font></div><div class='tc'><img class='introPic' src='trustrating_stim/white_mw040.bmp'><br><font color='green'><strong>Share</strong></font></div><div class='tr'><img class='introPic' src='trustrating_stim/white_mw091.bmp'><br><font color='green'><strong>Share</strong></font></div></div></div>","null","ARRAY","3","trustrating_stim/white_mw078.bmp,trustrating_stim/white_mw040.bmp,trustrating_stim/white_mw091.bmp","0,1,1","noMatchOutcome","i","4500","","","","",""
"","","","","63ea5b93d1c6d38e1f57dcfa","bdp_wmem","Sat Apr 08 2023 12:22:21 GMT-0400 (Eastern Daylight Time)","529759","Match,No Match","html-keyboard-response","83","189330","0.0-7.0-3.9","","null","","<div class='trialBorder'><div class='vertical-center'><img src='img/fixation2_sml.jpg'</img></div></div>","null","DELAY","","","","","","","","","","",""
"","","","","63ea5b93d1c6d38e1f57dcfa","bdp_wmem","Sat Apr 08 2023 12:22:21 GMT-0400 (Eastern Daylight Time)","529759","Match,No Match","html-keyboard-response","84","190572","0.0-7.0-4.9","","1241","","<div class='trialBorder'><div class='targDiv'><div class='tc'><img class='introPic' src='trustrating_stim/white_mw078.bmp'><br><font color='green'><strong>Share</strong></font></div></div><div class='respDiv'><div class='respDivL'>Match<br>(e)</div><div class='respDivR'>No Match<br>(i)</div></div></div>","i","TARGET","3","trustrating_stim/white_mw078.bmp,trustrating_stim/white_mw040.bmp,trustrating_stim/white_mw091.bmp","0,1,1","noMatchOutcome","i","4500","trustrating_stim/white_mw078.bmp","green","Share","REAL","1"
"","","","","63ea5b93d1c6d38e1f57dcfa","bdp_wmem","Sat Apr 08 2023 12:22:21 GMT-0400 (Eastern Daylight Time)","529759","Match,No Match","html-keyboard-response","85","191082","0.0-7.0-5.9","","null","","<div class='trialBorder'><div class='vertical-center'><img src='img/correct.jpg'></div><div class='respDiv'><div class='respDivL'>Match<br>(e)</div><div class='respDivR'><font style='color:orange'>No Match<br>(i)</font></div></div></div>","null","FEEDBACK","","","","","","","","","","",""
"","","","","63ea5b93d1c6d38e1f57dcfa","bdp_wmem","Sat Apr 08 2023 12:22:21 GMT-0400 (Eastern Daylight Time)","529759","Match,No Match","html-keyboard-response","86","191594","0.0-7.0-1.10","","null","","<div class='trialBorder'><div class='vertical-center'><img src='img/fixation2_sml.jpg'</img></div></div>","null","FIX","","","","","","","","","","",""
"","","","","63ea5b93d1c6d38e1f57dcfa","bdp_wmem","Sat Apr 08 2023 12:22:21 GMT-0400 (Eastern Daylight Time)","529759","Match,No Match","html-keyboard-response","87","193101","0.0-7.0-2.10","","null","","<div class='trialBorder'><div class='vertical-center'><img style='vertical-align:center; align:center' src='img/fixation2_sml.jpg'></div><div class='arrayDiv1'><div class='tc'><img class='introPic' src='trustrating_stim/white_mw038.bmp'><br><font color='red'><strong>Keep</strong></font></div></div></div>","null","ARRAY","1","trustrating_stim/white_mw038.bmp","0","Match","e","1500","","","","",""
"","","","","63ea5b93d1c6d38e1f57dcfa","bdp_wmem","Sat Apr 08 2023 12:22:21 GMT-0400 (Eastern Daylight Time)","529759","Match,No Match","html-keyboard-response","88","197110","0.0-7.0-3.10","","null","","<div class='trialBorder'><div class='vertical-center'><img src='img/fixation2_sml.jpg'</img></div></div>","null","DELAY","","","","","","","","","","",""
"","","","","63ea5b93d1c6d38e1f57dcfa","bdp_wmem","Sat Apr 08 2023 12:22:21 GMT-0400 (Eastern Daylight Time)","529759","Match,No Match","html-keyboard-response","89","197756","0.0-7.0-4.10","","646","","<div class='trialBorder'><div class='targDiv'><div class='tc'><img class='introPic' src='trustrating_stim/white_mw038.bmp'><br><font color='red'><strong>Keep</strong></font></div></div><div class='respDiv'><div class='respDivL'>Match<br>(e)</div><div class='respDivR'>No Match<br>(i)</div></div></div>","e","TARGET","1","trustrating_stim/white_mw038.bmp","0","Match","e","1500","trustrating_stim/white_mw038.bmp","red","Keep","REAL","1"
"","","","","63ea5b93d1c6d38e1f57dcfa","bdp_wmem","Sat Apr 08 2023 12:22:21 GMT-0400 (Eastern Daylight Time)","529759","Match,No Match","html-keyboard-response","90","198272","0.0-7.0-5.10","","null","","<div class='trialBorder'><div class='vertical-center'><img src='img/correct.jpg'></div><div class='respDiv'><div class='respDivL'><font style='color:orange'>Match<br>(e)</font></div><div class='respDivR'>No Match<br>(i)</div></div></div>","null","FEEDBACK","","","","","","","","","","",""
"","","","","63ea5b93d1c6d38e1f57dcfa","bdp_wmem","Sat Apr 08 2023 12:22:21 GMT-0400 (Eastern Daylight Time)","529759","Match,No Match","html-keyboard-response","91","198786","0.0-7.0-1.11","","null","","<div class='trialBorder'><div class='vertical-center'><img src='img/fixation2_sml.jpg'</img></div></div>","null","FIX","","","","","","","","","","",""
"","","","","63ea5b93d1c6d38e1f57dcfa","bdp_wmem","Sat Apr 08 2023 12:22:21 GMT-0400 (Eastern Daylight Time)","529759","Match,No Match","html-keyboard-response","92","200290","0.0-7.0-2.11","","null","","<div class='trialBorder'><div class='vertical-center'><img style='vertical-align:center; align:center' src='img/fixation2_sml.jpg'></div><div class='arrayDiv1'><div class='tc'><img class='introPic' src='trustrating_stim/white_mw078.bmp'><br><font color='red'><strong>Keep</strong></font></div></div></div>","null","ARRAY","1","trustrating_stim/white_mw078.bmp","0","noMatchOutcome","i","1500","","","","",""
"","","","","63ea5b93d1c6d38e1f57dcfa","bdp_wmem","Sat Apr 08 2023 12:22:21 GMT-0400 (Eastern Daylight Time)","529759","Match,No Match","html-keyboard-response","93","204301","0.0-7.0-3.11","","null","","<div class='trialBorder'><div class='vertical-center'><img src='img/fixation2_sml.jpg'</img></div></div>","null","DELAY","","","","","","","","","","",""
"","","","","63ea5b93d1c6d38e1f57dcfa","bdp_wmem","Sat Apr 08 2023 12:22:21 GMT-0400 (Eastern Daylight Time)","529759","Match,No Match","html-keyboard-response","94","204981","0.0-7.0-4.11","","680","","<div class='trialBorder'><div class='targDiv'><div class='tc'><img class='introPic' src='trustrating_stim/white_mw078.bmp'><br><font color='green'><strong>Share</strong></font></div></div><div class='respDiv'><div class='respDivL'>Match<br>(e)</div><div class='respDivR'>No Match<br>(i)</div></div></div>","i","TARGET","1","trustrating_stim/white_mw078.bmp","0","noMatchOutcome","i","1500","trustrating_stim/white_mw078.bmp","green","Share","REAL","1"
"","","","","63ea5b93d1c6d38e1f57dcfa","bdp_wmem","Sat Apr 08 2023 12:22:21 GMT-0400 (Eastern Daylight Time)","529759","Match,No Match","html-keyboard-response","95","205488","0.0-7.0-5.11","","null","","<div class='trialBorder'><div class='vertical-center'><img src='img/correct.jpg'></div><div class='respDiv'><div class='respDivL'>Match<br>(e)</div><div class='respDivR'><font style='color:orange'>No Match<br>(i)</font></div></div></div>","null","FEEDBACK","","","","","","","","","","",""
"","","","","63ea5b93d1c6d38e1f57dcfa","bdp_wmem","Sat Apr 08 2023 12:22:21 GMT-0400 (Eastern Daylight Time)","529759","Match,No Match","html-keyboard-response","96","205998","0.0-7.0-1.12","","null","","<div class='trialBorder'><div class='vertical-center'><img src='img/fixation2_sml.jpg'</img></div></div>","null","FIX","","","","","","","","","","",""
"","","","","63ea5b93d1c6d38e1f57dcfa","bdp_wmem","Sat Apr 08 2023 12:22:21 GMT-0400 (Eastern Daylight Time)","529759","Match,No Match","html-keyboard-response","97","210507","0.0-7.0-2.12","","null","","<div class='trialBorder'><div class='vertical-center'><img style='vertical-align:center; align:center' src='img/fixation2_sml.jpg'></div><div class='arrayDiv3'><div class='tl'><img class='introPic' src='trustrating_stim/white_mw040.bmp'><br><font color='red'><strong>Keep</strong></font></div><div class='tc'><img class='introPic' src='trustrating_stim/white_mw038.bmp'><br><font color='green'><strong>Share</strong></font></div><div class='tr'><img class='introPic' src='trustrating_stim/white_mw042.bmp'><br><font color='red'><strong>Keep</strong></font></div></div></div>","null","ARRAY","3","trustrating_stim/white_mw040.bmp,trustrating_stim/white_mw038.bmp,trustrating_stim/white_mw042.bmp","0,1,0","Match","e","4500","","","","",""
"","","","","63ea5b93d1c6d38e1f57dcfa","bdp_wmem","Sat Apr 08 2023 12:22:21 GMT-0400 (Eastern Daylight Time)","529759","Match,No Match","html-keyboard-response","98","214519","0.0-7.0-3.12","","null","","<div class='trialBorder'><div class='vertical-center'><img src='img/fixation2_sml.jpg'</img></div></div>","null","DELAY","","","","","","","","","","",""
"","","","","63ea5b93d1c6d38e1f57dcfa","bdp_wmem","Sat Apr 08 2023 12:22:21 GMT-0400 (Eastern Daylight Time)","529759","Match,No Match","html-keyboard-response","99","215612","0.0-7.0-4.12","","1093","","<div class='trialBorder'><div class='targDiv'><div class='tc'><img class='introPic' src='trustrating_stim/white_mw040.bmp'><br><font color='red'><strong>Keep</strong></font></div></div><div class='respDiv'><div class='respDivL'>Match<br>(e)</div><div class='respDivR'>No Match<br>(i)</div></div></div>","e","TARGET","3","trustrating_stim/white_mw040.bmp,trustrating_stim/white_mw038.bmp,trustrating_stim/white_mw042.bmp","0,1,0","Match","e","4500","trustrating_stim/white_mw040.bmp","red","Keep","REAL","1"
"","","","","63ea5b93d1c6d38e1f57dcfa","bdp_wmem","Sat Apr 08 2023 12:22:21 GMT-0400 (Eastern Daylight Time)","529759","Match,No Match","html-keyboard-response","100","216117","0.0-7.0-5.12","","null","","<div class='trialBorder'><div class='vertical-center'><img src='img/correct.jpg'></div><div class='respDiv'><div class='respDivL'><font style='color:orange'>Match<br>(e)</font></div><div class='respDivR'>No Match<br>(i)</div></div></div>","null","FEEDBACK","","","","","","","","","","",""
"","","","","63ea5b93d1c6d38e1f57dcfa","bdp_wmem","Sat Apr 08 2023 12:22:21 GMT-0400 (Eastern Daylight Time)","529759","Match,No Match","html-keyboard-response","101","216619","0.0-7.0-1.13","","null","","<div class='trialBorder'><div class='vertical-center'><img src='img/fixation2_sml.jpg'</img></div></div>","null","FIX","","","","","","","","","","",""
"","","","","63ea5b93d1c6d38e1f57dcfa","bdp_wmem","Sat Apr 08 2023 12:22:21 GMT-0400 (Eastern Daylight Time)","529759","Match,No Match","html-keyboard-response","102","219625","0.0-7.0-2.13","","null","","<div class='trialBorder'><div class='vertical-center'><img style='vertical-align:center; align:center' src='img/fixation2_sml.jpg'></div><div class='arrayDiv2'><div class='tl'><img class='introPic' src='trustrating_stim/white_mw085.bmp'><br><font color='green'><strong>Share</strong></font></div><div class='tr'><img class='introPic' src='trustrating_stim/white_mw038.bmp'><br><font color='red'><strong>Keep</strong></font></div></div></div>","null","ARRAY","2","trustrating_stim/white_mw085.bmp,trustrating_stim/white_mw038.bmp","1,0","Match","e","3000","","","","",""
"","","","","63ea5b93d1c6d38e1f57dcfa","bdp_wmem","Sat Apr 08 2023 12:22:21 GMT-0400 (Eastern Daylight Time)","529759","Match,No Match","html-keyboard-response","103","223632","0.0-7.0-3.13","","null","","<div class='trialBorder'><div class='vertical-center'><img src='img/fixation2_sml.jpg'</img></div></div>","null","DELAY","","","","","","","","","","",""
"","","","","63ea5b93d1c6d38e1f57dcfa","bdp_wmem","Sat Apr 08 2023 12:22:21 GMT-0400 (Eastern Daylight Time)","529759","Match,No Match","html-keyboard-response","104","224584","0.0-7.0-4.13","","952","","<div class='trialBorder'><div class='targDiv'><div class='tc'><img class='introPic' src='trustrating_stim/white_mw085.bmp'><br><font color='green'><strong>Share</strong></font></div></div><div class='respDiv'><div class='respDivL'>Match<br>(e)</div><div class='respDivR'>No Match<br>(i)</div></div></div>","e","TARGET","2","trustrating_stim/white_mw085.bmp,trustrating_stim/white_mw038.bmp","1,0","Match","e","3000","trustrating_stim/white_mw085.bmp","green","Share","REAL","1"
"","","","","63ea5b93d1c6d38e1f57dcfa","bdp_wmem","Sat Apr 08 2023 12:22:21 GMT-0400 (Eastern Daylight Time)","529759","Match,No Match","html-keyboard-response","105","225087","0.0-7.0-5.13","","null","","<div class='trialBorder'><div class='vertical-center'><img src='img/correct.jpg'></div><div class='respDiv'><div class='respDivL'><font style='color:orange'>Match<br>(e)</font></div><div class='respDivR'>No Match<br>(i)</div></div></div>","null","FEEDBACK","","","","","","","","","","",""
"","","","","63ea5b93d1c6d38e1f57dcfa","bdp_wmem","Sat Apr 08 2023 12:22:21 GMT-0400 (Eastern Daylight Time)","529759","Match,No Match","html-keyboard-response","106","225597","0.0-7.0-1.14","","null","","<div class='trialBorder'><div class='vertical-center'><img src='img/fixation2_sml.jpg'</img></div></div>","null","FIX","","","","","","","","","","",""
"","","","","63ea5b93d1c6d38e1f57dcfa","bdp_wmem","Sat Apr 08 2023 12:22:21 GMT-0400 (Eastern Daylight Time)","529759","Match,No Match","html-keyboard-response","107","227100","0.0-7.0-2.14","","null","","<div class='trialBorder'><div class='vertical-center'><img style='vertical-align:center; align:center' src='img/fixation2_sml.jpg'></div><div class='arrayDiv1'><div class='tc'><img class='introPic' src='trustrating_stim/white_mw038.bmp'><br><font color='green'><strong>Share</strong></font></div></div></div>","null","ARRAY","1","trustrating_stim/white_mw038.bmp","1","noMatchOutcome","i","1500","","","","",""
"","","","","63ea5b93d1c6d38e1f57dcfa","bdp_wmem","Sat Apr 08 2023 12:22:21 GMT-0400 (Eastern Daylight Time)","529759","Match,No Match","html-keyboard-response","108","231114","0.0-7.0-3.14","","null","","<div class='trialBorder'><div class='vertical-center'><img src='img/fixation2_sml.jpg'</img></div></div>","null","DELAY","","","","","","","","","","",""
"","","","","63ea5b93d1c6d38e1f57dcfa","bdp_wmem","Sat Apr 08 2023 12:22:21 GMT-0400 (Eastern Daylight Time)","529759","Match,No Match","html-keyboard-response","109","231578","0.0-7.0-4.14","","463","","<div class='trialBorder'><div class='targDiv'><div class='tc'><img class='introPic' src='trustrating_stim/white_mw038.bmp'><br><font color='red'><strong>Keep</strong></font></div></div><div class='respDiv'><div class='respDivL'>Match<br>(e)</div><div class='respDivR'>No Match<br>(i)</div></div></div>","i","TARGET","1","trustrating_stim/white_mw038.bmp","1","noMatchOutcome","i","1500","trustrating_stim/white_mw038.bmp","red","Keep","REAL","1"
"","","","","63ea5b93d1c6d38e1f57dcfa","bdp_wmem","Sat Apr 08 2023 12:22:21 GMT-0400 (Eastern Daylight Time)","529759","Match,No Match","html-keyboard-response","110","232091","0.0-7.0-5.14","","null","","<div class='trialBorder'><div class='vertical-center'><img src='img/correct.jpg'></div><div class='respDiv'><div class='respDivL'>Match<br>(e)</div><div class='respDivR'><font style='color:orange'>No Match<br>(i)</font></div></div></div>","null","FEEDBACK","","","","","","","","","","",""
"","","","","63ea5b93d1c6d38e1f57dcfa","bdp_wmem","Sat Apr 08 2023 12:22:21 GMT-0400 (Eastern Daylight Time)","529759","Match,No Match","html-keyboard-response","111","232602","0.0-7.0-1.15","","null","","<div class='trialBorder'><div class='vertical-center'><img src='img/fixation2_sml.jpg'</img></div></div>","null","FIX","","","","","","","","","","",""
"","","","","63ea5b93d1c6d38e1f57dcfa","bdp_wmem","Sat Apr 08 2023 12:22:21 GMT-0400 (Eastern Daylight Time)","529759","Match,No Match","html-keyboard-response","112","234109","0.0-7.0-2.15","","null","","<div class='trialBorder'><div class='vertical-center'><img style='vertical-align:center; align:center' src='img/fixation2_sml.jpg'></div><div class='arrayDiv1'><div class='tc'><img class='introPic' src='trustrating_stim/white_mw092.bmp'><br><font color='red'><strong>Keep</strong></font></div></div></div>","null","ARRAY","1","trustrating_stim/white_mw092.bmp","0","noMatchOutcome","i","1500","","","","",""
"","","","","63ea5b93d1c6d38e1f57dcfa","bdp_wmem","Sat Apr 08 2023 12:22:21 GMT-0400 (Eastern Daylight Time)","529759","Match,No Match","html-keyboard-response","113","238110","0.0-7.0-3.15","","null","","<div class='trialBorder'><div class='vertical-center'><img src='img/fixation2_sml.jpg'</img></div></div>","null","DELAY","","","","","","","","","","",""
"","","","","63ea5b93d1c6d38e1f57dcfa","bdp_wmem","Sat Apr 08 2023 12:22:21 GMT-0400 (Eastern Daylight Time)","529759","Match,No Match","html-keyboard-response","114","238675","0.0-7.0-4.15","","564","","<div class='trialBorder'><div class='targDiv'><div class='tc'><img class='introPic' src='trustrating_stim/white_mw092.bmp'><br><font color='green'><strong>Share</strong></font></div></div><div class='respDiv'><div class='respDivL'>Match<br>(e)</div><div class='respDivR'>No Match<br>(i)</div></div></div>","e","TARGET","1","trustrating_stim/white_mw092.bmp","0","noMatchOutcome","i","1500","trustrating_stim/white_mw092.bmp","green","Share","REAL","0"
"","","","","63ea5b93d1c6d38e1f57dcfa","bdp_wmem","Sat Apr 08 2023 12:22:21 GMT-0400 (Eastern Daylight Time)","529759","Match,No Match","html-keyboard-response","115","239186","0.0-7.0-5.15","","null","","<div class='trialBorder'><div class='vertical-center'><img src='img/error.jpg'></div><div class='respDiv'><div class='respDivL'><font style='color:orange'>Match<br>(e)</font></div><div class='respDivR'>No Match<br>(i)</div></div></div>","null","FEEDBACK","","","","","","","","","","",""
"","","","","63ea5b93d1c6d38e1f57dcfa","bdp_wmem","Sat Apr 08 2023 12:22:21 GMT-0400 (Eastern Daylight Time)","529759","Match,No Match","html-keyboard-response","116","239699","0.0-7.0-1.16","","null","","<div class='trialBorder'><div class='vertical-center'><img src='img/fixation2_sml.jpg'</img></div></div>","null","FIX","","","","","","","","","","",""
"","","","","63ea5b93d1c6d38e1f57dcfa","bdp_wmem","Sat Apr 08 2023 12:22:21 GMT-0400 (Eastern Daylight Time)","529759","Match,No Match","html-keyboard-response","117","241212","0.0-7.0-2.16","","null","","<div class='trialBorder'><div class='vertical-center'><img style='vertical-align:center; align:center' src='img/fixation2_sml.jpg'></div><div class='arrayDiv1'><div class='tc'><img class='introPic' src='trustrating_stim/white_mw042.bmp'><br><font color='green'><strong>Share</strong></font></div></div></div>","null","ARRAY","1","trustrating_stim/white_mw042.bmp","1","Match","e","1500","","","","",""
"","","","","63ea5b93d1c6d38e1f57dcfa","bdp_wmem","Sat Apr 08 2023 12:22:21 GMT-0400 (Eastern Daylight Time)","529759","Match,No Match","html-keyboard-response","118","245225","0.0-7.0-3.16","","null","","<div class='trialBorder'><div class='vertical-center'><img src='img/fixation2_sml.jpg'</img></div></div>","null","DELAY","","","","","","","","","","",""
"","","","","63ea5b93d1c6d38e1f57dcfa","bdp_wmem","Sat Apr 08 2023 12:22:21 GMT-0400 (Eastern Daylight Time)","529759","Match,No Match","html-keyboard-response","119","246052","0.0-7.0-4.16","","827","","<div class='trialBorder'><div class='targDiv'><div class='tc'><img class='introPic' src='trustrating_stim/white_mw042.bmp'><br><font color='green'><strong>Share</strong></font></div></div><div class='respDiv'><div class='respDivL'>Match<br>(e)</div><div class='respDivR'>No Match<br>(i)</div></div></div>","e","TARGET","1","trustrating_stim/white_mw042.bmp","1","Match","e","1500","trustrating_stim/white_mw042.bmp","green","Share","REAL","1"
"","","","","63ea5b93d1c6d38e1f57dcfa","bdp_wmem","Sat Apr 08 2023 12:22:21 GMT-0400 (Eastern Daylight Time)","529759","Match,No Match","html-keyboard-response","120","246556","0.0-7.0-5.16","","null","","<div class='trialBorder'><div class='vertical-center'><img src='img/correct.jpg'></div><div class='respDiv'><div class='respDivL'><font style='color:orange'>Match<br>(e)</font></div><div class='respDivR'>No Match<br>(i)</div></div></div>","null","FEEDBACK","","","","","","","","","","",""
"","","","","63ea5b93d1c6d38e1f57dcfa","bdp_wmem","Sat Apr 08 2023 12:22:21 GMT-0400 (Eastern Daylight Time)","529759","Match,No Match","html-keyboard-response","121","247066","0.0-7.0-1.17","","null","","<div class='trialBorder'><div class='vertical-center'><img src='img/fixation2_sml.jpg'</img></div></div>","null","FIX","","","","","","","","","","",""
"","","","","63ea5b93d1c6d38e1f57dcfa","bdp_wmem","Sat Apr 08 2023 12:22:21 GMT-0400 (Eastern Daylight Time)","529759","Match,No Match","html-keyboard-response","122","251580","0.0-7.0-2.17","","null","","<div class='trialBorder'><div class='vertical-center'><img style='vertical-align:center; align:center' src='img/fixation2_sml.jpg'></div><div class='arrayDiv3'><div class='tl'><img class='introPic' src='trustrating_stim/white_mw012.bmp'><br><font color='green'><strong>Share</strong></font></div><div class='tc'><img class='introPic' src='trustrating_stim/white_mw038.bmp'><br><font color='red'><strong>Keep</strong></font></div><div class='tr'><img class='introPic' src='trustrating_stim/white_mw078.bmp'><br><font color='red'><strong>Keep</strong></font></div></div></div>","null","ARRAY","3","trustrating_stim/white_mw012.bmp,trustrating_stim/white_mw038.bmp,trustrating_stim/white_mw078.bmp","1,0,0","noMatchOutcome","i","4500","","","","",""
"","","","","63ea5b93d1c6d38e1f57dcfa","bdp_wmem","Sat Apr 08 2023 12:22:21 GMT-0400 (Eastern Daylight Time)","529759","Match,No Match","html-keyboard-response","123","255583","0.0-7.0-3.17","","null","","<div class='trialBorder'><div class='vertical-center'><img src='img/fixation2_sml.jpg'</img></div></div>","null","DELAY","","","","","","","","","","",""
"","","","","63ea5b93d1c6d38e1f57dcfa","bdp_wmem","Sat Apr 08 2023 12:22:21 GMT-0400 (Eastern Daylight Time)","529759","Match,No Match","html-keyboard-response","124","257087","0.0-7.0-4.17","","1503","","<div class='trialBorder'><div class='targDiv'><div class='tc'><img class='introPic' src='trustrating_stim/white_mw012.bmp'><br><font color='red'><strong>Keep</strong></font></div></div><div class='respDiv'><div class='respDivL'>Match<br>(e)</div><div class='respDivR'>No Match<br>(i)</div></div></div>","i","TARGET","3","trustrating_stim/white_mw012.bmp,trustrating_stim/white_mw038.bmp,trustrating_stim/white_mw078.bmp","1,0,0","noMatchOutcome","i","4500","trustrating_stim/white_mw012.bmp","red","Keep","REAL","1"
"","","","","63ea5b93d1c6d38e1f57dcfa","bdp_wmem","Sat Apr 08 2023 12:22:21 GMT-0400 (Eastern Daylight Time)","529759","Match,No Match","html-keyboard-response","125","257600","0.0-7.0-5.17","","null","","<div class='trialBorder'><div class='vertical-center'><img src='img/correct.jpg'></div><div class='respDiv'><div class='respDivL'>Match<br>(e)</div><div class='respDivR'><font style='color:orange'>No Match<br>(i)</font></div></div></div>","null","FEEDBACK","","","","","","","","","","",""
"","","","","63ea5b93d1c6d38e1f57dcfa","bdp_wmem","Sat Apr 08 2023 12:22:21 GMT-0400 (Eastern Daylight Time)","529759","Match,No Match","html-keyboard-response","126","258110","0.0-7.0-1.18","","null","","<div class='trialBorder'><div class='vertical-center'><img src='img/fixation2_sml.jpg'</img></div></div>","null","FIX","","","","","","","","","","",""
"","","","","63ea5b93d1c6d38e1f57dcfa","bdp_wmem","Sat Apr 08 2023 12:22:21 GMT-0400 (Eastern Daylight Time)","529759","Match,No Match","html-keyboard-response","127","262622","0.0-7.0-2.18","","null","","<div class='trialBorder'><div class='vertical-center'><img style='vertical-align:center; align:center' src='img/fixation2_sml.jpg'></div><div class='arrayDiv3'><div class='tl'><img class='introPic' src='trustrating_stim/white_mw013.bmp'><br><font color='red'><strong>Keep</strong></font></div><div class='tc'><img class='introPic' src='trustrating_stim/white_mw010.bmp'><br><font color='green'><strong>Share</strong></font></div><div class='tr'><img class='introPic' src='trustrating_stim/white_mw040.bmp'><br><font color='green'><strong>Share</strong></font></div></div></div>","null","ARRAY","3","trustrating_stim/white_mw013.bmp,trustrating_stim/white_mw010.bmp,trustrating_stim/white_mw040.bmp","0,1,1","Match","e","4500","","","","",""
"","","","","63ea5b93d1c6d38e1f57dcfa","bdp_wmem","Sat Apr 08 2023 12:22:21 GMT-0400 (Eastern Daylight Time)","529759","Match,No Match","html-keyboard-response","128","266636","0.0-7.0-3.18","","null","","<div class='trialBorder'><div class='vertical-center'><img src='img/fixation2_sml.jpg'</img></div></div>","null","DELAY","","","","","","","","","","",""
"","","","","63ea5b93d1c6d38e1f57dcfa","bdp_wmem","Sat Apr 08 2023 12:22:21 GMT-0400 (Eastern Daylight Time)","529759","Match,No Match","html-keyboard-response","129","268027","0.0-7.0-4.18","","1391","","<div class='trialBorder'><div class='targDiv'><div class='tc'><img class='introPic' src='trustrating_stim/white_mw040.bmp'><br><font color='green'><strong>Share</strong></font></div></div><div class='respDiv'><div class='respDivL'>Match<br>(e)</div><div class='respDivR'>No Match<br>(i)</div></div></div>","i","TARGET","3","trustrating_stim/white_mw013.bmp,trustrating_stim/white_mw010.bmp,trustrating_stim/white_mw040.bmp","0,1,1","Match","e","4500","trustrating_stim/white_mw040.bmp","green","Share","REAL","0"
"","","","","63ea5b93d1c6d38e1f57dcfa","bdp_wmem","Sat Apr 08 2023 12:22:21 GMT-0400 (Eastern Daylight Time)","529759","Match,No Match","html-keyboard-response","130","268530","0.0-7.0-5.18","","null","","<div class='trialBorder'><div class='vertical-center'><img src='img/error.jpg'></div><div class='respDiv'><div class='respDivL'>Match<br>(e)</div><div class='respDivR'><font style='color:orange'>No Match<br>(i)</font></div></div></div>","null","FEEDBACK","","","","","","","","","","",""
"","","","","63ea5b93d1c6d38e1f57dcfa","bdp_wmem","Sat Apr 08 2023 12:22:21 GMT-0400 (Eastern Daylight Time)","529759","Match,No Match","html-keyboard-response","131","269043","0.0-7.0-1.19","","null","","<div class='trialBorder'><div class='vertical-center'><img src='img/fixation2_sml.jpg'</img></div></div>","null","FIX","","","","","","","","","","",""
"","","","","63ea5b93d1c6d38e1f57dcfa","bdp_wmem","Sat Apr 08 2023 12:22:21 GMT-0400 (Eastern Daylight Time)","529759","Match,No Match","html-keyboard-response","132","272056","0.0-7.0-2.19","","null","","<div class='trialBorder'><div class='vertical-center'><img style='vertical-align:center; align:center' src='img/fixation2_sml.jpg'></div><div class='arrayDiv2'><div class='tl'><img class='introPic' src='trustrating_stim/white_mw012.bmp'><br><font color='green'><strong>Share</strong></font></div><div class='tr'><img class='introPic' src='trustrating_stim/white_mw085.bmp'><br><font color='red'><strong>Keep</strong></font></div></div></div>","null","ARRAY","2","trustrating_stim/white_mw012.bmp,trustrating_stim/white_mw085.bmp","1,0","Match","e","3000","","","","",""
"","","","","63ea5b93d1c6d38e1f57dcfa","bdp_wmem","Sat Apr 08 2023 12:22:21 GMT-0400 (Eastern Daylight Time)","529759","Match,No Match","html-keyboard-response","133","276067","0.0-7.0-3.19","","null","","<div class='trialBorder'><div class='vertical-center'><img src='img/fixation2_sml.jpg'</img></div></div>","null","DELAY","","","","","","","","","","",""
"","","","","63ea5b93d1c6d38e1f57dcfa","bdp_wmem","Sat Apr 08 2023 12:22:21 GMT-0400 (Eastern Daylight Time)","529759","Match,No Match","html-keyboard-response","134","276647","0.0-7.0-4.19","","580","","<div class='trialBorder'><div class='targDiv'><div class='tc'><img class='introPic' src='trustrating_stim/white_mw012.bmp'><br><font color='green'><strong>Share</strong></font></div></div><div class='respDiv'><div class='respDivL'>Match<br>(e)</div><div class='respDivR'>No Match<br>(i)</div></div></div>","e","TARGET","2","trustrating_stim/white_mw012.bmp,trustrating_stim/white_mw085.bmp","1,0","Match","e","3000","trustrating_stim/white_mw012.bmp","green","Share","REAL","1"
"","","","","63ea5b93d1c6d38e1f57dcfa","bdp_wmem","Sat Apr 08 2023 12:22:21 GMT-0400 (Eastern Daylight Time)","529759","Match,No Match","html-keyboard-response","135","277153","0.0-7.0-5.19","","null","","<div class='trialBorder'><div class='vertical-center'><img src='img/correct.jpg'></div><div class='respDiv'><div class='respDivL'><font style='color:orange'>Match<br>(e)</font></div><div class='respDivR'>No Match<br>(i)</div></div></div>","null","FEEDBACK","","","","","","","","","","",""
"","","","","63ea5b93d1c6d38e1f57dcfa","bdp_wmem","Sat Apr 08 2023 12:22:21 GMT-0400 (Eastern Daylight Time)","529759","Match,No Match","html-keyboard-response","136","277664","0.0-7.0-1.20","","null","","<div class='trialBorder'><div class='vertical-center'><img src='img/fixation2_sml.jpg'</img></div></div>","null","FIX","","","","","","","","","","",""
"","","","","63ea5b93d1c6d38e1f57dcfa","bdp_wmem","Sat Apr 08 2023 12:22:21 GMT-0400 (Eastern Daylight Time)","529759","Match,No Match","html-keyboard-response","137","280671","0.0-7.0-2.20","","null","","<div class='trialBorder'><div class='vertical-center'><img style='vertical-align:center; align:center' src='img/fixation2_sml.jpg'></div><div class='arrayDiv2'><div class='tl'><img class='introPic' src='trustrating_stim/white_mw078.bmp'><br><font color='red'><strong>Keep</strong></font></div><div class='tr'><img class='introPic' src='trustrating_stim/white_mw003.bmp'><br><font color='green'><strong>Share</strong></font></div></div></div>","null","ARRAY","2","trustrating_stim/white_mw078.bmp,trustrating_stim/white_mw003.bmp","0,1","Match","e","3000","","","","",""
"","","","","63ea5b93d1c6d38e1f57dcfa","bdp_wmem","Sat Apr 08 2023 12:22:21 GMT-0400 (Eastern Daylight Time)","529759","Match,No Match","html-keyboard-response","138","284682","0.0-7.0-3.20","","null","","<div class='trialBorder'><div class='vertical-center'><img src='img/fixation2_sml.jpg'</img></div></div>","null","DELAY","","","","","","","","","","",""
"","","","","63ea5b93d1c6d38e1f57dcfa","bdp_wmem","Sat Apr 08 2023 12:22:21 GMT-0400 (Eastern Daylight Time)","529759","Match,No Match","html-keyboard-response","139","285506","0.0-7.0-4.20","","824","","<div class='trialBorder'><div class='targDiv'><div class='tc'><img class='introPic' src='trustrating_stim/white_mw003.bmp'><br><font color='green'><strong>Share</strong></font></div></div><div class='respDiv'><div class='respDivL'>Match<br>(e)</div><div class='respDivR'>No Match<br>(i)</div></div></div>","e","TARGET","2","trustrating_stim/white_mw078.bmp,trustrating_stim/white_mw003.bmp","0,1","Match","e","3000","trustrating_stim/white_mw003.bmp","green","Share","REAL","1"
"","","","","63ea5b93d1c6d38e1f57dcfa","bdp_wmem","Sat Apr 08 2023 12:22:21 GMT-0400 (Eastern Daylight Time)","529759","Match,No Match","html-keyboard-response","140","286016","0.0-7.0-5.20","","null","","<div class='trialBorder'><div class='vertical-center'><img src='img/correct.jpg'></div><div class='respDiv'><div class='respDivL'><font style='color:orange'>Match<br>(e)</font></div><div class='respDivR'>No Match<br>(i)</div></div></div>","null","FEEDBACK","","","","","","","","","","",""
"","","","","63ea5b93d1c6d38e1f57dcfa","bdp_wmem","Sat Apr 08 2023 12:22:21 GMT-0400 (Eastern Daylight Time)","529759","Match,No Match","html-keyboard-response","141","286525","0.0-7.0-1.21","","null","","<div class='trialBorder'><div class='vertical-center'><img src='img/fixation2_sml.jpg'</img></div></div>","null","FIX","","","","","","","","","","",""
"","","","","63ea5b93d1c6d38e1f57dcfa","bdp_wmem","Sat Apr 08 2023 12:22:21 GMT-0400 (Eastern Daylight Time)","529759","Match,No Match","html-keyboard-response","142","288031","0.0-7.0-2.21","","null","","<div class='trialBorder'><div class='vertical-center'><img style='vertical-align:center; align:center' src='img/fixation2_sml.jpg'></div><div class='arrayDiv1'><div class='tc'><img class='introPic' src='trustrating_stim/white_mw012.bmp'><br><font color='green'><strong>Share</strong></font></div></div></div>","null","ARRAY","1","trustrating_stim/white_mw012.bmp","1","Match","e","1500","","","","",""
"","","","","63ea5b93d1c6d38e1f57dcfa","bdp_wmem","Sat Apr 08 2023 12:22:21 GMT-0400 (Eastern Daylight Time)","529759","Match,No Match","html-keyboard-response","143","292046","0.0-7.0-3.21","","null","","<div class='trialBorder'><div class='vertical-center'><img src='img/fixation2_sml.jpg'</img></div></div>","null","DELAY","","","","","","","","","","",""
"","","","","63ea5b93d1c6d38e1f57dcfa","bdp_wmem","Sat Apr 08 2023 12:22:21 GMT-0400 (Eastern Daylight Time)","529759","Match,No Match","html-keyboard-response","144","292654","0.0-7.0-4.21","","608","","<div class='trialBorder'><div class='targDiv'><div class='tc'><img class='introPic' src='trustrating_stim/white_mw012.bmp'><br><font color='green'><strong>Share</strong></font></div></div><div class='respDiv'><div class='respDivL'>Match<br>(e)</div><div class='respDivR'>No Match<br>(i)</div></div></div>","e","TARGET","1","trustrating_stim/white_mw012.bmp","1","Match","e","1500","trustrating_stim/white_mw012.bmp","green","Share","REAL","1"
"","","","","63ea5b93d1c6d38e1f57dcfa","bdp_wmem","Sat Apr 08 2023 12:22:21 GMT-0400 (Eastern Daylight Time)","529759","Match,No Match","html-keyboard-response","145","293162","0.0-7.0-5.21","","null","","<div class='trialBorder'><div class='vertical-center'><img src='img/correct.jpg'></div><div class='respDiv'><div class='respDivL'><font style='color:orange'>Match<br>(e)</font></div><div class='respDivR'>No Match<br>(i)</div></div></div>","null","FEEDBACK","","","","","","","","","","",""
"","","","","63ea5b93d1c6d38e1f57dcfa","bdp_wmem","Sat Apr 08 2023 12:22:21 GMT-0400 (Eastern Daylight Time)","529759","Match,No Match","html-keyboard-response","146","293673","0.0-7.0-1.22","","null","","<div class='trialBorder'><div class='vertical-center'><img src='img/fixation2_sml.jpg'</img></div></div>","null","FIX","","","","","","","","","","",""
"","","","","63ea5b93d1c6d38e1f57dcfa","bdp_wmem","Sat Apr 08 2023 12:22:21 GMT-0400 (Eastern Daylight Time)","529759","Match,No Match","html-keyboard-response","147","298174","0.0-7.0-2.22","","null","","<div class='trialBorder'><div class='vertical-center'><img style='vertical-align:center; align:center' src='img/fixation2_sml.jpg'></div><div class='arrayDiv3'><div class='tl'><img class='introPic' src='trustrating_stim/white_mw003.bmp'><br><font color='red'><strong>Keep</strong></font></div><div class='tc'><img class='introPic' src='trustrating_stim/white_mw040.bmp'><br><font color='red'><strong>Keep</strong></font></div><div class='tr'><img class='introPic' src='trustrating_stim/white_mw012.bmp'><br><font color='green'><strong>Share</strong></font></div></div></div>","null","ARRAY","3","trustrating_stim/white_mw003.bmp,trustrating_stim/white_mw040.bmp,trustrating_stim/white_mw012.bmp","0,0,1","Match","e","4500","","","","",""
"","","","","63ea5b93d1c6d38e1f57dcfa","bdp_wmem","Sat Apr 08 2023 12:22:21 GMT-0400 (Eastern Daylight Time)","529759","Match,No Match","html-keyboard-response","148","302177","0.0-7.0-3.22","","null","","<div class='trialBorder'><div class='vertical-center'><img src='img/fixation2_sml.jpg'</img></div></div>","null","DELAY","","","","","","","","","","",""
"","","","","63ea5b93d1c6d38e1f57dcfa","bdp_wmem","Sat Apr 08 2023 12:22:21 GMT-0400 (Eastern Daylight Time)","529759","Match,No Match","html-keyboard-response","149","303521","0.0-7.0-4.22","","1344","","<div class='trialBorder'><div class='targDiv'><div class='tc'><img class='introPic' src='trustrating_stim/white_mw012.bmp'><br><font color='green'><strong>Share</strong></font></div></div><div class='respDiv'><div class='respDivL'>Match<br>(e)</div><div class='respDivR'>No Match<br>(i)</div></div></div>","e","TARGET","3","trustrating_stim/white_mw003.bmp,trustrating_stim/white_mw040.bmp,trustrating_stim/white_mw012.bmp","0,0,1","Match","e","4500","trustrating_stim/white_mw012.bmp","green","Share","REAL","1"
"","","","","63ea5b93d1c6d38e1f57dcfa","bdp_wmem","Sat Apr 08 2023 12:22:21 GMT-0400 (Eastern Daylight Time)","529759","Match,No Match","html-keyboard-response","150","304035","0.0-7.0-5.22","","null","","<div class='trialBorder'><div class='vertical-center'><img src='img/correct.jpg'></div><div class='respDiv'><div class='respDivL'><font style='color:orange'>Match<br>(e)</font></div><div class='respDivR'>No Match<br>(i)</div></div></div>","null","FEEDBACK","","","","","","","","","","",""
"","","","","63ea5b93d1c6d38e1f57dcfa","bdp_wmem","Sat Apr 08 2023 12:22:21 GMT-0400 (Eastern Daylight Time)","529759","Match,No Match","html-keyboard-response","151","304545","0.0-7.0-1.23","","null","","<div class='trialBorder'><div class='vertical-center'><img src='img/fixation2_sml.jpg'</img></div></div>","null","FIX","","","","","","","","","","",""
"","","","","63ea5b93d1c6d38e1f57dcfa","bdp_wmem","Sat Apr 08 2023 12:22:21 GMT-0400 (Eastern Daylight Time)","529759","Match,No Match","html-keyboard-response","152","309049","0.0-7.0-2.23","","null","","<div class='trialBorder'><div class='vertical-center'><img style='vertical-align:center; align:center' src='img/fixation2_sml.jpg'></div><div class='arrayDiv3'><div class='tl'><img class='introPic' src='trustrating_stim/white_mw038.bmp'><br><font color='red'><strong>Keep</strong></font></div><div class='tc'><img class='introPic' src='trustrating_stim/white_mw070.bmp'><br><font color='red'><strong>Keep</strong></font></div><div class='tr'><img class='introPic' src='trustrating_stim/white_mw085.bmp'><br><font color='green'><strong>Share</strong></font></div></div></div>","null","ARRAY","3","trustrating_stim/white_mw038.bmp,trustrating_stim/white_mw070.bmp,trustrating_stim/white_mw085.bmp","0,0,1","Match","e","4500","","","","",""
"","","","","63ea5b93d1c6d38e1f57dcfa","bdp_wmem","Sat Apr 08 2023 12:22:21 GMT-0400 (Eastern Daylight Time)","529759","Match,No Match","html-keyboard-response","153","313058","0.0-7.0-3.23","","null","","<div class='trialBorder'><div class='vertical-center'><img src='img/fixation2_sml.jpg'</img></div></div>","null","DELAY","","","","","","","","","","",""
"","","","","63ea5b93d1c6d38e1f57dcfa","bdp_wmem","Sat Apr 08 2023 12:22:21 GMT-0400 (Eastern Daylight Time)","529759","Match,No Match","html-keyboard-response","154","313626","0.0-7.0-4.23","","568","","<div class='trialBorder'><div class='targDiv'><div class='tc'><img class='introPic' src='trustrating_stim/white_mw038.bmp'><br><font color='red'><strong>Keep</strong></font></div></div><div class='respDiv'><div class='respDivL'>Match<br>(e)</div><div class='respDivR'>No Match<br>(i)</div></div></div>","e","TARGET","3","trustrating_stim/white_mw038.bmp,trustrating_stim/white_mw070.bmp,trustrating_stim/white_mw085.bmp","0,0,1","Match","e","4500","trustrating_stim/white_mw038.bmp","red","Keep","REAL","1"
"","","","","63ea5b93d1c6d38e1f57dcfa","bdp_wmem","Sat Apr 08 2023 12:22:21 GMT-0400 (Eastern Daylight Time)","529759","Match,No Match","html-keyboard-response","155","314127","0.0-7.0-5.23","","null","","<div class='trialBorder'><div class='vertical-center'><img src='img/correct.jpg'></div><div class='respDiv'><div class='respDivL'><font style='color:orange'>Match<br>(e)</font></div><div class='respDivR'>No Match<br>(i)</div></div></div>","null","FEEDBACK","","","","","","","","","","",""
"","","","","63ea5b93d1c6d38e1f57dcfa","bdp_wmem","Sat Apr 08 2023 12:22:21 GMT-0400 (Eastern Daylight Time)","529759","Match,No Match","html-keyboard-response","156","314636","0.0-7.0-1.24","","null","","<div class='trialBorder'><div class='vertical-center'><img src='img/fixation2_sml.jpg'</img></div></div>","null","FIX","","","","","","","","","","",""
"","","","","63ea5b93d1c6d38e1f57dcfa","bdp_wmem","Sat Apr 08 2023 12:22:21 GMT-0400 (Eastern Daylight Time)","529759","Match,No Match","html-keyboard-response","157","317645","0.0-7.0-2.24","","null","","<div class='trialBorder'><div class='vertical-center'><img style='vertical-align:center; align:center' src='img/fixation2_sml.jpg'></div><div class='arrayDiv2'><div class='tl'><img class='introPic' src='trustrating_stim/white_mw003.bmp'><br><font color='green'><strong>Share</strong></font></div><div class='tr'><img class='introPic' src='trustrating_stim/white_mw091.bmp'><br><font color='red'><strong>Keep</strong></font></div></div></div>","null","ARRAY","2","trustrating_stim/white_mw003.bmp,trustrating_stim/white_mw091.bmp","1,0","Match","e","3000","","","","",""
"","","","","63ea5b93d1c6d38e1f57dcfa","bdp_wmem","Sat Apr 08 2023 12:22:21 GMT-0400 (Eastern Daylight Time)","529759","Match,No Match","html-keyboard-response","158","321649","0.0-7.0-3.24","","null","","<div class='trialBorder'><div class='vertical-center'><img src='img/fixation2_sml.jpg'</img></div></div>","null","DELAY","","","","","","","","","","",""
"","","","","63ea5b93d1c6d38e1f57dcfa","bdp_wmem","Sat Apr 08 2023 12:22:21 GMT-0400 (Eastern Daylight Time)","529759","Match,No Match","html-keyboard-response","159","322553","0.0-7.0-4.24","","904","","<div class='trialBorder'><div class='targDiv'><div class='tc'><img class='introPic' src='trustrating_stim/white_mw091.bmp'><br><font color='red'><strong>Keep</strong></font></div></div><div class='respDiv'><div class='respDivL'>Match<br>(e)</div><div class='respDivR'>No Match<br>(i)</div></div></div>","e","TARGET","2","trustrating_stim/white_mw003.bmp,trustrating_stim/white_mw091.bmp","1,0","Match","e","3000","trustrating_stim/white_mw091.bmp","red","Keep","REAL","1"
"","","","","63ea5b93d1c6d38e1f57dcfa","bdp_wmem","Sat Apr 08 2023 12:22:21 GMT-0400 (Eastern Daylight Time)","529759","Match,No Match","html-keyboard-response","160","323061","0.0-7.0-5.24","","null","","<div class='trialBorder'><div class='vertical-center'><img src='img/correct.jpg'></div><div class='respDiv'><div class='respDivL'><font style='color:orange'>Match<br>(e)</font></div><div class='respDivR'>No Match<br>(i)</div></div></div>","null","FEEDBACK","","","","","","","","","","",""
"","","","","63ea5b93d1c6d38e1f57dcfa","bdp_wmem","Sat Apr 08 2023 12:22:21 GMT-0400 (Eastern Daylight Time)","529759","Match,No Match","html-keyboard-response","161","323572","0.0-7.0-1.25","","null","","<div class='trialBorder'><div class='vertical-center'><img src='img/fixation2_sml.jpg'</img></div></div>","null","FIX","","","","","","","","","","",""
"","","","","63ea5b93d1c6d38e1f57dcfa","bdp_wmem","Sat Apr 08 2023 12:22:21 GMT-0400 (Eastern Daylight Time)","529759","Match,No Match","html-keyboard-response","162","326587","0.0-7.0-2.25","","null","","<div class='trialBorder'><div class='vertical-center'><img style='vertical-align:center; align:center' src='img/fixation2_sml.jpg'></div><div class='arrayDiv2'><div class='tl'><img class='introPic' src='trustrating_stim/white_mw078.bmp'><br><font color='green'><strong>Share</strong></font></div><div class='tr'><img class='introPic' src='trustrating_stim/white_mw012.bmp'><br><font color='red'><strong>Keep</strong></font></div></div></div>","null","ARRAY","2","trustrating_stim/white_mw078.bmp,trustrating_stim/white_mw012.bmp","1,0","noMatchFace","i","3000","","","","",""
"","","","","63ea5b93d1c6d38e1f57dcfa","bdp_wmem","Sat Apr 08 2023 12:22:21 GMT-0400 (Eastern Daylight Time)","529759","Match,No Match","html-keyboard-response","163","330588","0.0-7.0-3.25","","null","","<div class='trialBorder'><div class='vertical-center'><img src='img/fixation2_sml.jpg'</img></div></div>","null","DELAY","","","","","","","","","","",""
"","","","","63ea5b93d1c6d38e1f57dcfa","bdp_wmem","Sat Apr 08 2023 12:22:21 GMT-0400 (Eastern Daylight Time)","529759","Match,No Match","html-keyboard-response","164","331348","0.0-7.0-4.25","","760","","<div class='trialBorder'><div class='targDiv'><div class='tc'><img class='introPic' src='trustrating_stim/white_mw091.bmp'><br><font color='green'><strong>Share</strong></font></div></div><div class='respDiv'><div class='respDivL'>Match<br>(e)</div><div class='respDivR'>No Match<br>(i)</div></div></div>","i","TARGET","2","trustrating_stim/white_mw078.bmp,trustrating_stim/white_mw012.bmp","1,0","noMatchFace","i","3000","trustrating_stim/white_mw091.bmp","green","Share","REAL","1"
"","","","","63ea5b93d1c6d38e1f57dcfa","bdp_wmem","Sat Apr 08 2023 12:22:21 GMT-0400 (Eastern Daylight Time)","529759","Match,No Match","html-keyboard-response","165","331860","0.0-7.0-5.25","","null","","<div class='trialBorder'><div class='vertical-center'><img src='img/correct.jpg'></div><div class='respDiv'><div class='respDivL'>Match<br>(e)</div><div class='respDivR'><font style='color:orange'>No Match<br>(i)</font></div></div></div>","null","FEEDBACK","","","","","","","","","","",""
"","","","","63ea5b93d1c6d38e1f57dcfa","bdp_wmem","Sat Apr 08 2023 12:22:21 GMT-0400 (Eastern Daylight Time)","529759","Match,No Match","html-keyboard-response","166","332371","0.0-7.0-1.26","","null","","<div class='trialBorder'><div class='vertical-center'><img src='img/fixation2_sml.jpg'</img></div></div>","null","FIX","","","","","","","","","","",""
"","","","","63ea5b93d1c6d38e1f57dcfa","bdp_wmem","Sat Apr 08 2023 12:22:21 GMT-0400 (Eastern Daylight Time)","529759","Match,No Match","html-keyboard-response","167","335375","0.0-7.0-2.26","","null","","<div class='trialBorder'><div class='vertical-center'><img style='vertical-align:center; align:center' src='img/fixation2_sml.jpg'></div><div class='arrayDiv2'><div class='tl'><img class='introPic' src='trustrating_stim/white_mw003.bmp'><br><font color='green'><strong>Share</strong></font></div><div class='tr'><img class='introPic' src='trustrating_stim/white_mw040.bmp'><br><font color='red'><strong>Keep</strong></font></div></div></div>","null","ARRAY","2","trustrating_stim/white_mw003.bmp,trustrating_stim/white_mw040.bmp","1,0","Match","e","3000","","","","",""
"","","","","63ea5b93d1c6d38e1f57dcfa","bdp_wmem","Sat Apr 08 2023 12:22:21 GMT-0400 (Eastern Daylight Time)","529759","Match,No Match","html-keyboard-response","168","339386","0.0-7.0-3.26","","null","","<div class='trialBorder'><div class='vertical-center'><img src='img/fixation2_sml.jpg'</img></div></div>","null","DELAY","","","","","","","","","","",""
"","","","","63ea5b93d1c6d38e1f57dcfa","bdp_wmem","Sat Apr 08 2023 12:22:21 GMT-0400 (Eastern Daylight Time)","529759","Match,No Match","html-keyboard-response","169","340892","0.0-7.0-4.26","","1505","","<div class='trialBorder'><div class='targDiv'><div class='tc'><img class='introPic' src='trustrating_stim/white_mw040.bmp'><br><font color='red'><strong>Keep</strong></font></div></div><div class='respDiv'><div class='respDivL'>Match<br>(e)</div><div class='respDivR'>No Match<br>(i)</div></div></div>","e","TARGET","2","trustrating_stim/white_mw003.bmp,trustrating_stim/white_mw040.bmp","1,0","Match","e","3000","trustrating_stim/white_mw040.bmp","red","Keep","REAL","1"
"","","","","63ea5b93d1c6d38e1f57dcfa","bdp_wmem","Sat Apr 08 2023 12:22:21 GMT-0400 (Eastern Daylight Time)","529759","Match,No Match","html-keyboard-response","170","341404","0.0-7.0-5.26","","null","","<div class='trialBorder'><div class='vertical-center'><img src='img/correct.jpg'></div><div class='respDiv'><div class='respDivL'><font style='color:orange'>Match<br>(e)</font></div><div class='respDivR'>No Match<br>(i)</div></div></div>","null","FEEDBACK","","","","","","","","","","",""
"","","","","63ea5b93d1c6d38e1f57dcfa","bdp_wmem","Sat Apr 08 2023 12:22:21 GMT-0400 (Eastern Daylight Time)","529759","Match,No Match","html-keyboard-response","171","341914","0.0-7.0-1.27","","null","","<div class='trialBorder'><div class='vertical-center'><img src='img/fixation2_sml.jpg'</img></div></div>","null","FIX","","","","","","","","","","",""
"","","","","63ea5b93d1c6d38e1f57dcfa","bdp_wmem","Sat Apr 08 2023 12:22:21 GMT-0400 (Eastern Daylight Time)","529759","Match,No Match","html-keyboard-response","172","344919","0.0-7.0-2.27","","null","","<div class='trialBorder'><div class='vertical-center'><img style='vertical-align:center; align:center' src='img/fixation2_sml.jpg'></div><div class='arrayDiv2'><div class='tl'><img class='introPic' src='trustrating_stim/white_mw042.bmp'><br><font color='green'><strong>Share</strong></font></div><div class='tr'><img class='introPic' src='trustrating_stim/white_mw010.bmp'><br><font color='red'><strong>Keep</strong></font></div></div></div>","null","ARRAY","2","trustrating_stim/white_mw042.bmp,trustrating_stim/white_mw010.bmp","1,0","noMatchFace","i","3000","","","","",""
"","","","","63ea5b93d1c6d38e1f57dcfa","bdp_wmem","Sat Apr 08 2023 12:22:21 GMT-0400 (Eastern Daylight Time)","529759","Match,No Match","html-keyboard-response","173","348920","0.0-7.0-3.27","","null","","<div class='trialBorder'><div class='vertical-center'><img src='img/fixation2_sml.jpg'</img></div></div>","null","DELAY","","","","","","","","","","",""
"","","","","63ea5b93d1c6d38e1f57dcfa","bdp_wmem","Sat Apr 08 2023 12:22:21 GMT-0400 (Eastern Daylight Time)","529759","Match,No Match","html-keyboard-response","174","349618","0.0-7.0-4.27","","698","","<div class='trialBorder'><div class='targDiv'><div class='tc'><img class='introPic' src='trustrating_stim/white_mw013.bmp'><br><font color='green'><strong>Share</strong></font></div></div><div class='respDiv'><div class='respDivL'>Match<br>(e)</div><div class='respDivR'>No Match<br>(i)</div></div></div>","i","TARGET","2","trustrating_stim/white_mw042.bmp,trustrating_stim/white_mw010.bmp","1,0","noMatchFace","i","3000","trustrating_stim/white_mw013.bmp","green","Share","REAL","1"
"","","","","63ea5b93d1c6d38e1f57dcfa","bdp_wmem","Sat Apr 08 2023 12:22:21 GMT-0400 (Eastern Daylight Time)","529759","Match,No Match","html-keyboard-response","175","350129","0.0-7.0-5.27","","null","","<div class='trialBorder'><div class='vertical-center'><img src='img/correct.jpg'></div><div class='respDiv'><div class='respDivL'>Match<br>(e)</div><div class='respDivR'><font style='color:orange'>No Match<br>(i)</font></div></div></div>","null","FEEDBACK","","","","","","","","","","",""
"","","","","63ea5b93d1c6d38e1f57dcfa","bdp_wmem","Sat Apr 08 2023 12:22:21 GMT-0400 (Eastern Daylight Time)","529759","Match,No Match","html-keyboard-response","176","350640","0.0-7.0-1.28","","null","","<div class='trialBorder'><div class='vertical-center'><img src='img/fixation2_sml.jpg'</img></div></div>","null","FIX","","","","","","","","","","",""
"","","","","63ea5b93d1c6d38e1f57dcfa","bdp_wmem","Sat Apr 08 2023 12:22:21 GMT-0400 (Eastern Daylight Time)","529759","Match,No Match","html-keyboard-response","177","355144","0.0-7.0-2.28","","null","","<div class='trialBorder'><div class='vertical-center'><img style='vertical-align:center; align:center' src='img/fixation2_sml.jpg'></div><div class='arrayDiv3'><div class='tl'><img class='introPic' src='trustrating_stim/white_mw003.bmp'><br><font color='red'><strong>Keep</strong></font></div><div class='tc'><img class='introPic' src='trustrating_stim/white_mw042.bmp'><br><font color='green'><strong>Share</strong></font></div><div class='tr'><img class='introPic' src='trustrating_stim/white_mw038.bmp'><br><font color='red'><strong>Keep</strong></font></div></div></div>","null","ARRAY","3","trustrating_stim/white_mw003.bmp,trustrating_stim/white_mw042.bmp,trustrating_stim/white_mw038.bmp","0,1,0","Match","e","4500","","","","",""
"","","","","63ea5b93d1c6d38e1f57dcfa","bdp_wmem","Sat Apr 08 2023 12:22:21 GMT-0400 (Eastern Daylight Time)","529759","Match,No Match","html-keyboard-response","178","359157","0.0-7.0-3.28","","null","","<div class='trialBorder'><div class='vertical-center'><img src='img/fixation2_sml.jpg'</img></div></div>","null","DELAY","","","","","","","","","","",""
"","","","","63ea5b93d1c6d38e1f57dcfa","bdp_wmem","Sat Apr 08 2023 12:22:21 GMT-0400 (Eastern Daylight Time)","529759","Match,No Match","html-keyboard-response","179","359743","0.0-7.0-4.28","","585","","<div class='trialBorder'><div class='targDiv'><div class='tc'><img class='introPic' src='trustrating_stim/white_mw038.bmp'><br><font color='red'><strong>Keep</strong></font></div></div><div class='respDiv'><div class='respDivL'>Match<br>(e)</div><div class='respDivR'>No Match<br>(i)</div></div></div>","e","TARGET","3","trustrating_stim/white_mw003.bmp,trustrating_stim/white_mw042.bmp,trustrating_stim/white_mw038.bmp","0,1,0","Match","e","4500","trustrating_stim/white_mw038.bmp","red","Keep","REAL","1"
"","","","","63ea5b93d1c6d38e1f57dcfa","bdp_wmem","Sat Apr 08 2023 12:22:21 GMT-0400 (Eastern Daylight Time)","529759","Match,No Match","html-keyboard-response","180","360242","0.0-7.0-5.28","","null","","<div class='trialBorder'><div class='vertical-center'><img src='img/correct.jpg'></div><div class='respDiv'><div class='respDivL'><font style='color:orange'>Match<br>(e)</font></div><div class='respDivR'>No Match<br>(i)</div></div></div>","null","FEEDBACK","","","","","","","","","","",""
"","","","","63ea5b93d1c6d38e1f57dcfa","bdp_wmem","Sat Apr 08 2023 12:22:21 GMT-0400 (Eastern Daylight Time)","529759","Match,No Match","html-keyboard-response","181","360755","0.0-7.0-1.29","","null","","<div class='trialBorder'><div class='vertical-center'><img src='img/fixation2_sml.jpg'</img></div></div>","null","FIX","","","","","","","","","","",""
"","","","","63ea5b93d1c6d38e1f57dcfa","bdp_wmem","Sat Apr 08 2023 12:22:21 GMT-0400 (Eastern Daylight Time)","529759","Match,No Match","html-keyboard-response","182","362267","0.0-7.0-2.29","","null","","<div class='trialBorder'><div class='vertical-center'><img style='vertical-align:center; align:center' src='img/fixation2_sml.jpg'></div><div class='arrayDiv1'><div class='tc'><img class='introPic' src='trustrating_stim/white_mw003.bmp'><br><font color='green'><strong>Share</strong></font></div></div></div>","null","ARRAY","1","trustrating_stim/white_mw003.bmp","1","Match","e","1500","","","","",""
"","","","","63ea5b93d1c6d38e1f57dcfa","bdp_wmem","Sat Apr 08 2023 12:22:21 GMT-0400 (Eastern Daylight Time)","529759","Match,No Match","html-keyboard-response","183","366279","0.0-7.0-3.29","","null","","<div class='trialBorder'><div class='vertical-center'><img src='img/fixation2_sml.jpg'</img></div></div>","null","DELAY","","","","","","","","","","",""
"","","","","63ea5b93d1c6d38e1f57dcfa","bdp_wmem","Sat Apr 08 2023 12:22:21 GMT-0400 (Eastern Daylight Time)","529759","Match,No Match","html-keyboard-response","184","366841","0.0-7.0-4.29","","561","","<div class='trialBorder'><div class='targDiv'><div class='tc'><img class='introPic' src='trustrating_stim/white_mw003.bmp'><br><font color='green'><strong>Share</strong></font></div></div><div class='respDiv'><div class='respDivL'>Match<br>(e)</div><div class='respDivR'>No Match<br>(i)</div></div></div>","e","TARGET","1","trustrating_stim/white_mw003.bmp","1","Match","e","1500","trustrating_stim/white_mw003.bmp","green","Share","REAL","1"
"","","","","63ea5b93d1c6d38e1f57dcfa","bdp_wmem","Sat Apr 08 2023 12:22:21 GMT-0400 (Eastern Daylight Time)","529759","Match,No Match","html-keyboard-response","185","367353","0.0-7.0-5.29","","null","","<div class='trialBorder'><div class='vertical-center'><img src='img/correct.jpg'></div><div class='respDiv'><div class='respDivL'><font style='color:orange'>Match<br>(e)</font></div><div class='respDivR'>No Match<br>(i)</div></div></div>","null","FEEDBACK","","","","","","","","","","",""
"","","","","63ea5b93d1c6d38e1f57dcfa","bdp_wmem","Sat Apr 08 2023 12:22:21 GMT-0400 (Eastern Daylight Time)","529759","Match,No Match","html-keyboard-response","186","367864","0.0-7.0-1.30","","null","","<div class='trialBorder'><div class='vertical-center'><img src='img/fixation2_sml.jpg'</img></div></div>","null","FIX","","","","","","","","","","",""
"","","","","63ea5b93d1c6d38e1f57dcfa","bdp_wmem","Sat Apr 08 2023 12:22:21 GMT-0400 (Eastern Daylight Time)","529759","Match,No Match","html-keyboard-response","187","370873","0.0-7.0-2.30","","null","","<div class='trialBorder'><div class='vertical-center'><img style='vertical-align:center; align:center' src='img/fixation2_sml.jpg'></div><div class='arrayDiv2'><div class='tl'><img class='introPic' src='trustrating_stim/white_mw092.bmp'><br><font color='green'><strong>Share</strong></font></div><div class='tr'><img class='introPic' src='trustrating_stim/white_mw091.bmp'><br><font color='red'><strong>Keep</strong></font></div></div></div>","null","ARRAY","2","trustrating_stim/white_mw092.bmp,trustrating_stim/white_mw091.bmp","1,0","noMatchOutcome","i","3000","","","","",""
"","","","","63ea5b93d1c6d38e1f57dcfa","bdp_wmem","Sat Apr 08 2023 12:22:21 GMT-0400 (Eastern Daylight Time)","529759","Match,No Match","html-keyboard-response","188","374884","0.0-7.0-3.30","","null","","<div class='trialBorder'><div class='vertical-center'><img src='img/fixation2_sml.jpg'</img></div></div>","null","DELAY","","","","","","","","","","",""
