"trial_type","trial_index","time_elapsed","internal_node_id","subject_id","task","startTime","totalTime","labels","view_history","rt","event","trial","time","trialtype","success","stimulus","key_press","stimType","arraySize","arrayFaces","arrayOutcomes","matchType","corrResp","arrayDur","targFace","targCol","targOutcome","trialType","corr"
"pavlovia","0","4","0.0-0.0","63ead665638c8546d8c3a962","bdp_wmem","Tue Mar 14 2023 21:43:47 GMT-0400 (Eastern Daylight Time)","594675","Match,No Match","","","","","","","","","","","","","","","","","","","","",""
"instructions","1","3070","0.0-1.0","63ead665638c8546d8c3a962","bdp_wmem","Tue Mar 14 2023 21:43:47 GMT-0400 (Eastern Daylight Time)","594675","Match,No Match","[{""page_index"":0,""viewing_time"":3065}]","3065","","","","","","","","","","","","","","","","","","",""
"","","","","63ead665638c8546d8c3a962","bdp_wmem","Tue Mar 14 2023 21:43:47 GMT-0400 (Eastern Daylight Time)","594675","Match,No Match","","","fullscreenenter","2","4394","fullscreenenter","","","","","","","","","","","","","","",""
"fullscreen","2","5369","0.0-2.0","63ead665638c8546d8c3a962","bdp_wmem","Tue Mar 14 2023 21:43:47 GMT-0400 (Eastern Daylight Time)","594675","Match,No Match","","","","","","","true","","","","","","","","","","","","","",""
"instructions","3","98230","0.0-4.0","63ead665638c8546d8c3a962","bdp_wmem","Tue Mar 14 2023 21:43:47 GMT-0400 (Eastern Daylight Time)","594675","Match,No Match","[{""page_index"":0,""viewing_time"":19904},{""page_index"":1,""viewing_time"":24899},{""page_index"":2,""viewing_time"":32074},{""page_index"":3,""viewing_time"":2858},{""page_index"":4,""viewing_time"":13123}]","92858","","","","","","","","","","","","","","","","","","",""
"html-keyboard-response","4","98736","0.0-5.0-1.0","63ead665638c8546d8c3a962","bdp_wmem","Tue Mar 14 2023 21:43:47 GMT-0400 (Eastern Daylight Time)","594675","Match,No Match","","null","","","","","","<div class='trialBorder'><div class='vertical-center'><img src='img/fixation2_sml.jpg'</img></div></div>","null","FIX","","","","","","","","","","",""
"html-keyboard-response","5","101739","0.0-5.0-2.0","63ead665638c8546d8c3a962","bdp_wmem","Tue Mar 14 2023 21:43:47 GMT-0400 (Eastern Daylight Time)","594675","Match,No Match","","null","","","","","","<div class='trialBorder'><div class='vertical-center'><img style='vertical-align:center; align:center' src='img/fixation2_sml.jpg'></div><div class='arrayDiv2'><div class='tl'><img class='introPic' src='trustrating_stim/white_mw078.bmp'><br><font color='red'><strong>Keep</strong></font></div><div class='tr'><img class='introPic' src='trustrating_stim/white_mw003.bmp'><br><font color='green'><strong>Share</strong></font></div></div></div>","null","ARRAY","2","trustrating_stim/white_mw078.bmp,trustrating_stim/white_mw003.bmp","0,1","Match","e","3000","","","","",""
"html-keyboard-response","6","105742","0.0-5.0-3.0","63ead665638c8546d8c3a962","bdp_wmem","Tue Mar 14 2023 21:43:47 GMT-0400 (Eastern Daylight Time)","594675","Match,No Match","","null","","","","","","<div class='trialBorder'><div class='vertical-center'><img src='img/fixation2_sml.jpg'</img></div></div>","null","DELAY","","","","","","","","","","",""
"html-keyboard-response","7","109908","0.0-5.0-4.0","63ead665638c8546d8c3a962","bdp_wmem","Tue Mar 14 2023 21:43:47 GMT-0400 (Eastern Daylight Time)","594675","Match,No Match","","4163","","","","","","<div class='trialBorder'><div class='targDiv'><div class='tc'><img class='introPic' src='trustrating_stim/white_mw078.bmp'><br><font color='red'><strong>Keep</strong></font></div></div><div class='respDiv'><div class='respDivL'>Match<br>(e)</div><div class='respDivR'>No Match<br>(i)</div></div></div>","e","TARGET","2","trustrating_stim/white_mw078.bmp,trustrating_stim/white_mw003.bmp","0,1","Match","e","3000","trustrating_stim/white_mw078.bmp","red","Keep","PRACTICE","1"
"html-keyboard-response","8","110411","0.0-5.0-5.0","63ead665638c8546d8c3a962","bdp_wmem","Tue Mar 14 2023 21:43:47 GMT-0400 (Eastern Daylight Time)","594675","Match,No Match","","null","","","","","","<div class='trialBorder'><div class='vertical-center'><img src='img/correct.jpg'></div><div class='respDiv'><div class='respDivL'><font style='color:orange'>Match<br>(e)</font></div><div class='respDivR'>No Match<br>(i)</div></div></div>","null","FEEDBACK","","","","","","","","","","",""
"html-keyboard-response","9","110915","0.0-5.0-1.1","63ead665638c8546d8c3a962","bdp_wmem","Tue Mar 14 2023 21:43:47 GMT-0400 (Eastern Daylight Time)","594675","Match,No Match","","null","","","","","","<div class='trialBorder'><div class='vertical-center'><img src='img/fixation2_sml.jpg'</img></div></div>","null","FIX","","","","","","","","","","",""
"html-keyboard-response","10","112418","0.0-5.0-2.1","63ead665638c8546d8c3a962","bdp_wmem","Tue Mar 14 2023 21:43:47 GMT-0400 (Eastern Daylight Time)","594675","Match,No Match","","null","","","","","","<div class='trialBorder'><div class='vertical-center'><img style='vertical-align:center; align:center' src='img/fixation2_sml.jpg'></div><div class='arrayDiv1'><div class='tc'><img class='introPic' src='trustrating_stim/white_mw003.bmp'><br><font color='red'><strong>Keep</strong></font></div></div></div>","null","ARRAY","1","trustrating_stim/white_mw003.bmp","0","noMatchFace","i","1500","","","","",""
"html-keyboard-response","11","116420","0.0-5.0-3.1","63ead665638c8546d8c3a962","bdp_wmem","Tue Mar 14 2023 21:43:47 GMT-0400 (Eastern Daylight Time)","594675","Match,No Match","","null","","","","","","<div class='trialBorder'><div class='vertical-center'><img src='img/fixation2_sml.jpg'</img></div></div>","null","DELAY","","","","","","","","","","",""
"html-keyboard-response","12","117909","0.0-5.0-4.1","63ead665638c8546d8c3a962","bdp_wmem","Tue Mar 14 2023 21:43:47 GMT-0400 (Eastern Daylight Time)","594675","Match,No Match","","1487","","","","","","<div class='trialBorder'><div class='targDiv'><div class='tc'><img class='introPic' src='trustrating_stim/white_mw092.bmp'><br><font color='red'><strong>Keep</strong></font></div></div><div class='respDiv'><div class='respDivL'>Match<br>(e)</div><div class='respDivR'>No Match<br>(i)</div></div></div>","i","TARGET","1","trustrating_stim/white_mw003.bmp","0","noMatchFace","i","1500","trustrating_stim/white_mw092.bmp","red","Keep","PRACTICE","1"
"html-keyboard-response","13","118412","0.0-5.0-5.1","63ead665638c8546d8c3a962","bdp_wmem","Tue Mar 14 2023 21:43:47 GMT-0400 (Eastern Daylight Time)","594675","Match,No Match","","null","","","","","","<div class='trialBorder'><div class='vertical-center'><img src='img/correct.jpg'></div><div class='respDiv'><div class='respDivL'>Match<br>(e)</div><div class='respDivR'><font style='color:orange'>No Match<br>(i)</font></div></div></div>","null","FEEDBACK","","","","","","","","","","",""
"html-keyboard-response","14","118914","0.0-5.0-1.2","63ead665638c8546d8c3a962","bdp_wmem","Tue Mar 14 2023 21:43:47 GMT-0400 (Eastern Daylight Time)","594675","Match,No Match","","null","","","","","","<div class='trialBorder'><div class='vertical-center'><img src='img/fixation2_sml.jpg'</img></div></div>","null","FIX","","","","","","","","","","",""
"html-keyboard-response","15","123418","0.0-5.0-2.2","63ead665638c8546d8c3a962","bdp_wmem","Tue Mar 14 2023 21:43:47 GMT-0400 (Eastern Daylight Time)","594675","Match,No Match","","null","","","","","","<div class='trialBorder'><div class='vertical-center'><img style='vertical-align:center; align:center' src='img/fixation2_sml.jpg'></div><div class='arrayDiv3'><div class='tl'><img class='introPic' src='trustrating_stim/white_mw042.bmp'><br><font color='red'><strong>Keep</strong></font></div><div class='tc'><img class='introPic' src='trustrating_stim/white_mw038.bmp'><br><font color='red'><strong>Keep</strong></font></div><div class='tr'><img class='introPic' src='trustrating_stim/white_mw013.bmp'><br><font color='green'><strong>Share</strong></font></div></div></div>","null","ARRAY","3","trustrating_stim/white_mw042.bmp,trustrating_stim/white_mw038.bmp,trustrating_stim/white_mw013.bmp","0,0,1","Match","e","4500","","","","",""
"html-keyboard-response","16","127420","0.0-5.0-3.2","63ead665638c8546d8c3a962","bdp_wmem","Tue Mar 14 2023 21:43:47 GMT-0400 (Eastern Daylight Time)","594675","Match,No Match","","null","","","","","","<div class='trialBorder'><div class='vertical-center'><img src='img/fixation2_sml.jpg'</img></div></div>","null","DELAY","","","","","","","","","","",""
"html-keyboard-response","17","128951","0.0-5.0-4.2","63ead665638c8546d8c3a962","bdp_wmem","Tue Mar 14 2023 21:43:47 GMT-0400 (Eastern Daylight Time)","594675","Match,No Match","","1527","","","","","","<div class='trialBorder'><div class='targDiv'><div class='tc'><img class='introPic' src='trustrating_stim/white_mw042.bmp'><br><font color='red'><strong>Keep</strong></font></div></div><div class='respDiv'><div class='respDivL'>Match<br>(e)</div><div class='respDivR'>No Match<br>(i)</div></div></div>","e","TARGET","3","trustrating_stim/white_mw042.bmp,trustrating_stim/white_mw038.bmp,trustrating_stim/white_mw013.bmp","0,0,1","Match","e","4500","trustrating_stim/white_mw042.bmp","red","Keep","PRACTICE","1"
"html-keyboard-response","18","129452","0.0-5.0-5.2","63ead665638c8546d8c3a962","bdp_wmem","Tue Mar 14 2023 21:43:47 GMT-0400 (Eastern Daylight Time)","594675","Match,No Match","","null","","","","","","<div class='trialBorder'><div class='vertical-center'><img src='img/correct.jpg'></div><div class='respDiv'><div class='respDivL'><font style='color:orange'>Match<br>(e)</font></div><div class='respDivR'>No Match<br>(i)</div></div></div>","null","FEEDBACK","","","","","","","","","","",""
"html-keyboard-response","19","129955","0.0-5.0-1.3","63ead665638c8546d8c3a962","bdp_wmem","Tue Mar 14 2023 21:43:47 GMT-0400 (Eastern Daylight Time)","594675","Match,No Match","","null","","","","","","<div class='trialBorder'><div class='vertical-center'><img src='img/fixation2_sml.jpg'</img></div></div>","null","FIX","","","","","","","","","","",""
"html-keyboard-response","20","132957","0.0-5.0-2.3","63ead665638c8546d8c3a962","bdp_wmem","Tue Mar 14 2023 21:43:47 GMT-0400 (Eastern Daylight Time)","594675","Match,No Match","","null","","","","","","<div class='trialBorder'><div class='vertical-center'><img style='vertical-align:center; align:center' src='img/fixation2_sml.jpg'></div><div class='arrayDiv2'><div class='tl'><img class='introPic' src='trustrating_stim/white_mw070.bmp'><br><font color='red'><strong>Keep</strong></font></div><div class='tr'><img class='introPic' src='trustrating_stim/white_mw013.bmp'><br><font color='green'><strong>Share</strong></font></div></div></div>","null","ARRAY","2","trustrating_stim/white_mw070.bmp,trustrating_stim/white_mw013.bmp","0,1","noMatchOutcome","i","3000","","","","",""
"html-keyboard-response","21","136959","0.0-5.0-3.3","63ead665638c8546d8c3a962","bdp_wmem","Tue Mar 14 2023 21:43:47 GMT-0400 (Eastern Daylight Time)","594675","Match,No Match","","null","","","","","","<div class='trialBorder'><div class='vertical-center'><img src='img/fixation2_sml.jpg'</img></div></div>","null","DELAY","","","","","","","","","","",""
"html-keyboard-response","22","139447","0.0-5.0-4.3","63ead665638c8546d8c3a962","bdp_wmem","Tue Mar 14 2023 21:43:47 GMT-0400 (Eastern Daylight Time)","594675","Match,No Match","","2484","","","","","","<div class='trialBorder'><div class='targDiv'><div class='tc'><img class='introPic' src='trustrating_stim/white_mw070.bmp'><br><font color='green'><strong>Share</strong></font></div></div><div class='respDiv'><div class='respDivL'>Match<br>(e)</div><div class='respDivR'>No Match<br>(i)</div></div></div>","i","TARGET","2","trustrating_stim/white_mw070.bmp,trustrating_stim/white_mw013.bmp","0,1","noMatchOutcome","i","3000","trustrating_stim/white_mw070.bmp","green","Share","PRACTICE","1"
"html-keyboard-response","23","139949","0.0-5.0-5.3","63ead665638c8546d8c3a962","bdp_wmem","Tue Mar 14 2023 21:43:47 GMT-0400 (Eastern Daylight Time)","594675","Match,No Match","","null","","","","","","<div class='trialBorder'><div class='vertical-center'><img src='img/correct.jpg'></div><div class='respDiv'><div class='respDivL'>Match<br>(e)</div><div class='respDivR'><font style='color:orange'>No Match<br>(i)</font></div></div></div>","null","FEEDBACK","","","","","","","","","","",""
"html-keyboard-response","24","140450","0.0-5.0-1.4","63ead665638c8546d8c3a962","bdp_wmem","Tue Mar 14 2023 21:43:47 GMT-0400 (Eastern Daylight Time)","594675","Match,No Match","","null","","","","","","<div class='trialBorder'><div class='vertical-center'><img src='img/fixation2_sml.jpg'</img></div></div>","null","FIX","","","","","","","","","","",""
"html-keyboard-response","25","141953","0.0-5.0-2.4","63ead665638c8546d8c3a962","bdp_wmem","Tue Mar 14 2023 21:43:47 GMT-0400 (Eastern Daylight Time)","594675","Match,No Match","","null","","","","","","<div class='trialBorder'><div class='vertical-center'><img style='vertical-align:center; align:center' src='img/fixation2_sml.jpg'></div><div class='arrayDiv1'><div class='tc'><img class='introPic' src='trustrating_stim/white_mw070.bmp'><br><font color='red'><strong>Keep</strong></font></div></div></div>","null","ARRAY","1","trustrating_stim/white_mw070.bmp","0","Match","e","1500","","","","",""
"html-keyboard-response","26","145955","0.0-5.0-3.4","63ead665638c8546d8c3a962","bdp_wmem","Tue Mar 14 2023 21:43:47 GMT-0400 (Eastern Daylight Time)","594675","Match,No Match","","null","","","","","","<div class='trialBorder'><div class='vertical-center'><img src='img/fixation2_sml.jpg'</img></div></div>","null","DELAY","","","","","","","","","","",""
"html-keyboard-response","27","147382","0.0-5.0-4.4","63ead665638c8546d8c3a962","bdp_wmem","Tue Mar 14 2023 21:43:47 GMT-0400 (Eastern Daylight Time)","594675","Match,No Match","","1425","","","","","","<div class='trialBorder'><div class='targDiv'><div class='tc'><img class='introPic' src='trustrating_stim/white_mw070.bmp'><br><font color='red'><strong>Keep</strong></font></div></div><div class='respDiv'><div class='respDivL'>Match<br>(e)</div><div class='respDivR'>No Match<br>(i)</div></div></div>","e","TARGET","1","trustrating_stim/white_mw070.bmp","0","Match","e","1500","trustrating_stim/white_mw070.bmp","red","Keep","PRACTICE","1"
"html-keyboard-response","28","147884","0.0-5.0-5.4","63ead665638c8546d8c3a962","bdp_wmem","Tue Mar 14 2023 21:43:47 GMT-0400 (Eastern Daylight Time)","594675","Match,No Match","","null","","","","","","<div class='trialBorder'><div class='vertical-center'><img src='img/correct.jpg'></div><div class='respDiv'><div class='respDivL'><font style='color:orange'>Match<br>(e)</font></div><div class='respDivR'>No Match<br>(i)</div></div></div>","null","FEEDBACK","","","","","","","","","","",""
"html-keyboard-response","29","148387","0.0-5.0-1.5","63ead665638c8546d8c3a962","bdp_wmem","Tue Mar 14 2023 21:43:47 GMT-0400 (Eastern Daylight Time)","594675","Match,No Match","","null","","","","","","<div class='trialBorder'><div class='vertical-center'><img src='img/fixation2_sml.jpg'</img></div></div>","null","FIX","","","","","","","","","","",""
"html-keyboard-response","30","152890","0.0-5.0-2.5","63ead665638c8546d8c3a962","bdp_wmem","Tue Mar 14 2023 21:43:47 GMT-0400 (Eastern Daylight Time)","594675","Match,No Match","","null","","","","","","<div class='trialBorder'><div class='vertical-center'><img style='vertical-align:center; align:center' src='img/fixation2_sml.jpg'></div><div class='arrayDiv3'><div class='tl'><img class='introPic' src='trustrating_stim/white_mw010.bmp'><br><font color='green'><strong>Share</strong></font></div><div class='tc'><img class='introPic' src='trustrating_stim/white_mw013.bmp'><br><font color='red'><strong>Keep</strong></font></div><div class='tr'><img class='introPic' src='trustrating_stim/white_mw003.bmp'><br><font color='red'><strong>Keep</strong></font></div></div></div>","null","ARRAY","3","trustrating_stim/white_mw010.bmp,trustrating_stim/white_mw013.bmp,trustrating_stim/white_mw003.bmp","1,0,0","noMatchOutcome","i","4500","","","","",""
"html-keyboard-response","31","156892","0.0-5.0-3.5","63ead665638c8546d8c3a962","bdp_wmem","Tue Mar 14 2023 21:43:47 GMT-0400 (Eastern Daylight Time)","594675","Match,No Match","","null","","","","","","<div class='trialBorder'><div class='vertical-center'><img src='img/fixation2_sml.jpg'</img></div></div>","null","DELAY","","","","","","","","","","",""
"html-keyboard-response","32","157931","0.0-5.0-4.5","63ead665638c8546d8c3a962","bdp_wmem","Tue Mar 14 2023 21:43:47 GMT-0400 (Eastern Daylight Time)","594675","Match,No Match","","1036","","","","","","<div class='trialBorder'><div class='targDiv'><div class='tc'><img class='introPic' src='trustrating_stim/white_mw003.bmp'><br><font color='green'><strong>Share</strong></font></div></div><div class='respDiv'><div class='respDivL'>Match<br>(e)</div><div class='respDivR'>No Match<br>(i)</div></div></div>","i","TARGET","3","trustrating_stim/white_mw010.bmp,trustrating_stim/white_mw013.bmp,trustrating_stim/white_mw003.bmp","1,0,0","noMatchOutcome","i","4500","trustrating_stim/white_mw003.bmp","green","Share","PRACTICE","1"
"html-keyboard-response","33","158432","0.0-5.0-5.5","63ead665638c8546d8c3a962","bdp_wmem","Tue Mar 14 2023 21:43:47 GMT-0400 (Eastern Daylight Time)","594675","Match,No Match","","null","","","","","","<div class='trialBorder'><div class='vertical-center'><img src='img/correct.jpg'></div><div class='respDiv'><div class='respDivL'>Match<br>(e)</div><div class='respDivR'><font style='color:orange'>No Match<br>(i)</font></div></div></div>","null","FEEDBACK","","","","","","","","","","",""
"instructions","34","164645","0.0-6.0","63ead665638c8546d8c3a962","bdp_wmem","Tue Mar 14 2023 21:43:47 GMT-0400 (Eastern Daylight Time)","594675","Match,No Match","[{""page_index"":0,""viewing_time"":6212}]","6212","","","","","","","","","","","","","","","","","","",""
"html-keyboard-response","35","165148","0.0-7.0-1.0","63ead665638c8546d8c3a962","bdp_wmem","Tue Mar 14 2023 21:43:47 GMT-0400 (Eastern Daylight Time)","594675","Match,No Match","","null","","","","","","<div class='trialBorder'><div class='vertical-center'><img src='img/fixation2_sml.jpg'</img></div></div>","null","FIX","","","","","","","","","","",""
"html-keyboard-response","36","166651","0.0-7.0-2.0","63ead665638c8546d8c3a962","bdp_wmem","Tue Mar 14 2023 21:43:47 GMT-0400 (Eastern Daylight Time)","594675","Match,No Match","","null","","","","","","<div class='trialBorder'><div class='vertical-center'><img style='vertical-align:center; align:center' src='img/fixation2_sml.jpg'></div><div class='arrayDiv1'><div class='tc'><img class='introPic' src='trustrating_stim/white_mw013.bmp'><br><font color='green'><strong>Share</strong></font></div></div></div>","null","ARRAY","1","trustrating_stim/white_mw013.bmp","1","Match","e","1500","","","","",""
"html-keyboard-response","37","170654","0.0-7.0-3.0","63ead665638c8546d8c3a962","bdp_wmem","Tue Mar 14 2023 21:43:47 GMT-0400 (Eastern Daylight Time)","594675","Match,No Match","","null","","","","","","<div class='trialBorder'><div class='vertical-center'><img src='img/fixation2_sml.jpg'</img></div></div>","null","DELAY","","","","","","","","","","",""
"html-keyboard-response","38","171622","0.0-7.0-4.0","63ead665638c8546d8c3a962","bdp_wmem","Tue Mar 14 2023 21:43:47 GMT-0400 (Eastern Daylight Time)","594675","Match,No Match","","965","","","","","","<div class='trialBorder'><div class='targDiv'><div class='tc'><img class='introPic' src='trustrating_stim/white_mw013.bmp'><br><font color='green'><strong>Share</strong></font></div></div><div class='respDiv'><div class='respDivL'>Match<br>(e)</div><div class='respDivR'>No Match<br>(i)</div></div></div>","e","TARGET","1","trustrating_stim/white_mw013.bmp","1","Match","e","1500","trustrating_stim/white_mw013.bmp","green","Share","REAL","1"
"html-keyboard-response","39","172125","0.0-7.0-5.0","63ead665638c8546d8c3a962","bdp_wmem","Tue Mar 14 2023 21:43:47 GMT-0400 (Eastern Daylight Time)","594675","Match,No Match","","null","","","","","","<div class='trialBorder'><div class='vertical-center'><img src='img/correct.jpg'></div><div class='respDiv'><div class='respDivL'><font style='color:orange'>Match<br>(e)</font></div><div class='respDivR'>No Match<br>(i)</div></div></div>","null","FEEDBACK","","","","","","","","","","",""
"html-keyboard-response","40","172627","0.0-7.0-1.1","63ead665638c8546d8c3a962","bdp_wmem","Tue Mar 14 2023 21:43:47 GMT-0400 (Eastern Daylight Time)","594675","Match,No Match","","null","","","","","","<div class='trialBorder'><div class='vertical-center'><img src='img/fixation2_sml.jpg'</img></div></div>","null","FIX","","","","","","","","","","",""
"html-keyboard-response","41","174130","0.0-7.0-2.1","63ead665638c8546d8c3a962","bdp_wmem","Tue Mar 14 2023 21:43:47 GMT-0400 (Eastern Daylight Time)","594675","Match,No Match","","null","","","","","","<div class='trialBorder'><div class='vertical-center'><img style='vertical-align:center; align:center' src='img/fixation2_sml.jpg'></div><div class='arrayDiv1'><div class='tc'><img class='introPic' src='trustrating_stim/white_mw085.bmp'><br><font color='green'><strong>Share</strong></font></div></div></div>","null","ARRAY","1","trustrating_stim/white_mw085.bmp","1","Match","e","1500","","","","",""
"html-keyboard-response","42","178132","0.0-7.0-3.1","63ead665638c8546d8c3a962","bdp_wmem","Tue Mar 14 2023 21:43:47 GMT-0400 (Eastern Daylight Time)","594675","Match,No Match","","null","","","","","","<div class='trialBorder'><div class='vertical-center'><img src='img/fixation2_sml.jpg'</img></div></div>","null","DELAY","","","","","","","","","","",""
"html-keyboard-response","43","178869","0.0-7.0-4.1","63ead665638c8546d8c3a962","bdp_wmem","Tue Mar 14 2023 21:43:47 GMT-0400 (Eastern Daylight Time)","594675","Match,No Match","","734","","","","","","<div class='trialBorder'><div class='targDiv'><div class='tc'><img class='introPic' src='trustrating_stim/white_mw085.bmp'><br><font color='green'><strong>Share</strong></font></div></div><div class='respDiv'><div class='respDivL'>Match<br>(e)</div><div class='respDivR'>No Match<br>(i)</div></div></div>","e","TARGET","1","trustrating_stim/white_mw085.bmp","1","Match","e","1500","trustrating_stim/white_mw085.bmp","green","Share","REAL","1"
"html-keyboard-response","44","179372","0.0-7.0-5.1","63ead665638c8546d8c3a962","bdp_wmem","Tue Mar 14 2023 21:43:47 GMT-0400 (Eastern Daylight Time)","594675","Match,No Match","","null","","","","","","<div class='trialBorder'><div class='vertical-center'><img src='img/correct.jpg'></div><div class='respDiv'><div class='respDivL'><font style='color:orange'>Match<br>(e)</font></div><div class='respDivR'>No Match<br>(i)</div></div></div>","null","FEEDBACK","","","","","","","","","","",""
"html-keyboard-response","45","179874","0.0-7.0-1.2","63ead665638c8546d8c3a962","bdp_wmem","Tue Mar 14 2023 21:43:47 GMT-0400 (Eastern Daylight Time)","594675","Match,No Match","","null","","","","","","<div class='trialBorder'><div class='vertical-center'><img src='img/fixation2_sml.jpg'</img></div></div>","null","FIX","","","","","","","","","","",""
"html-keyboard-response","46","181376","0.0-7.0-2.2","63ead665638c8546d8c3a962","bdp_wmem","Tue Mar 14 2023 21:43:47 GMT-0400 (Eastern Daylight Time)","594675","Match,No Match","","null","","","","","","<div class='trialBorder'><div class='vertical-center'><img style='vertical-align:center; align:center' src='img/fixation2_sml.jpg'></div><div class='arrayDiv1'><div class='tc'><img class='introPic' src='trustrating_stim/white_mw038.bmp'><br><font color='green'><strong>Share</strong></font></div></div></div>","null","ARRAY","1","trustrating_stim/white_mw038.bmp","1","noMatchFace","i","1500","","","","",""
"html-keyboard-response","47","185378","0.0-7.0-3.2","63ead665638c8546d8c3a962","bdp_wmem","Tue Mar 14 2023 21:43:47 GMT-0400 (Eastern Daylight Time)","594675","Match,No Match","","null","","","","","","<div class='trialBorder'><div class='vertical-center'><img src='img/fixation2_sml.jpg'</img></div></div>","null","DELAY","","","","","","","","","","",""
"html-keyboard-response","48","186048","0.0-7.0-4.2","63ead665638c8546d8c3a962","bdp_wmem","Tue Mar 14 2023 21:43:47 GMT-0400 (Eastern Daylight Time)","594675","Match,No Match","","667","","","","","","<div class='trialBorder'><div class='targDiv'><div class='tc'><img class='introPic' src='trustrating_stim/white_mw042.bmp'><br><font color='green'><strong>Share</strong></font></div></div><div class='respDiv'><div class='respDivL'>Match<br>(e)</div><div class='respDivR'>No Match<br>(i)</div></div></div>","i","TARGET","1","trustrating_stim/white_mw038.bmp","1","noMatchFace","i","1500","trustrating_stim/white_mw042.bmp","green","Share","REAL","1"
"html-keyboard-response","49","186550","0.0-7.0-5.2","63ead665638c8546d8c3a962","bdp_wmem","Tue Mar 14 2023 21:43:47 GMT-0400 (Eastern Daylight Time)","594675","Match,No Match","","null","","","","","","<div class='trialBorder'><div class='vertical-center'><img src='img/correct.jpg'></div><div class='respDiv'><div class='respDivL'>Match<br>(e)</div><div class='respDivR'><font style='color:orange'>No Match<br>(i)</font></div></div></div>","null","FEEDBACK","","","","","","","","","","",""
"html-keyboard-response","50","187052","0.0-7.0-1.3","63ead665638c8546d8c3a962","bdp_wmem","Tue Mar 14 2023 21:43:47 GMT-0400 (Eastern Daylight Time)","594675","Match,No Match","","null","","","","","","<div class='trialBorder'><div class='vertical-center'><img src='img/fixation2_sml.jpg'</img></div></div>","null","FIX","","","","","","","","","","",""
"html-keyboard-response","51","191556","0.0-7.0-2.3","63ead665638c8546d8c3a962","bdp_wmem","Tue Mar 14 2023 21:43:47 GMT-0400 (Eastern Daylight Time)","594675","Match,No Match","","null","","","","","","<div class='trialBorder'><div class='vertical-center'><img style='vertical-align:center; align:center' src='img/fixation2_sml.jpg'></div><div class='arrayDiv3'><div class='tl'><img class='introPic' src='trustrating_stim/white_mw038.bmp'><br><font color='red'><strong>Keep</strong></font></div><div class='tc'><img class='introPic' src='trustrating_stim/white_mw042.bmp'><br><font color='green'><strong>Share</strong></font></div><div class='tr'><img class='introPic' src='trustrating_stim/white_mw010.bmp'><br><font color='red'><strong>Keep</strong></font></div></div></div>","null","ARRAY","3","trustrating_stim/white_mw038.bmp,trustrating_stim/white_mw042.bmp,trustrating_stim/white_mw010.bmp","0,1,0","noMatchFace","i","4500","","","","",""
"html-keyboard-response","52","195558","0.0-7.0-3.3","63ead665638c8546d8c3a962","bdp_wmem","Tue Mar 14 2023 21:43:47 GMT-0400 (Eastern Daylight Time)","594675","Match,No Match","","null","","","","","","<div class='trialBorder'><div class='vertical-center'><img src='img/fixation2_sml.jpg'</img></div></div>","null","DELAY","","","","","","","","","","",""
"html-keyboard-response","53","197705","0.0-7.0-4.3","63ead665638c8546d8c3a962","bdp_wmem","Tue Mar 14 2023 21:43:47 GMT-0400 (Eastern Daylight Time)","594675","Match,No Match","","2143","","","","","","<div class='trialBorder'><div class='targDiv'><div class='tc'><img class='introPic' src='trustrating_stim/white_mw013.bmp'><br><font color='red'><strong>Keep</strong></font></div></div><div class='respDiv'><div class='respDivL'>Match<br>(e)</div><div class='respDivR'>No Match<br>(i)</div></div></div>","i","TARGET","3","trustrating_stim/white_mw038.bmp,trustrating_stim/white_mw042.bmp,trustrating_stim/white_mw010.bmp","0,1,0","noMatchFace","i","4500","trustrating_stim/white_mw013.bmp","red","Keep","REAL","1"
"html-keyboard-response","54","198208","0.0-7.0-5.3","63ead665638c8546d8c3a962","bdp_wmem","Tue Mar 14 2023 21:43:47 GMT-0400 (Eastern Daylight Time)","594675","Match,No Match","","null","","","","","","<div class='trialBorder'><div class='vertical-center'><img src='img/correct.jpg'></div><div class='respDiv'><div class='respDivL'>Match<br>(e)</div><div class='respDivR'><font style='color:orange'>No Match<br>(i)</font></div></div></div>","null","FEEDBACK","","","","","","","","","","",""
"html-keyboard-response","55","198710","0.0-7.0-1.4","63ead665638c8546d8c3a962","bdp_wmem","Tue Mar 14 2023 21:43:47 GMT-0400 (Eastern Daylight Time)","594675","Match,No Match","","null","","","","","","<div class='trialBorder'><div class='vertical-center'><img src='img/fixation2_sml.jpg'</img></div></div>","null","FIX","","","","","","","","","","",""
"html-keyboard-response","56","201713","0.0-7.0-2.4","63ead665638c8546d8c3a962","bdp_wmem","Tue Mar 14 2023 21:43:47 GMT-0400 (Eastern Daylight Time)","594675","Match,No Match","","null","","","","","","<div class='trialBorder'><div class='vertical-center'><img style='vertical-align:center; align:center' src='img/fixation2_sml.jpg'></div><div class='arrayDiv2'><div class='tl'><img class='introPic' src='trustrating_stim/white_mw040.bmp'><br><font color='red'><strong>Keep</strong></font></div><div class='tr'><img class='introPic' src='trustrating_stim/white_mw010.bmp'><br><font color='green'><strong>Share</strong></font></div></div></div>","null","ARRAY","2","trustrating_stim/white_mw040.bmp,trustrating_stim/white_mw010.bmp","0,1","Match","e","3000","","","","",""
"html-keyboard-response","57","205715","0.0-7.0-3.4","63ead665638c8546d8c3a962","bdp_wmem","Tue Mar 14 2023 21:43:47 GMT-0400 (Eastern Daylight Time)","594675","Match,No Match","","null","","","","","","<div class='trialBorder'><div class='vertical-center'><img src='img/fixation2_sml.jpg'</img></div></div>","null","DELAY","","","","","","","","","","",""
"html-keyboard-response","58","206956","0.0-7.0-4.4","63ead665638c8546d8c3a962","bdp_wmem","Tue Mar 14 2023 21:43:47 GMT-0400 (Eastern Daylight Time)","594675","Match,No Match","","1238","","","","","","<div class='trialBorder'><div class='targDiv'><div class='tc'><img class='introPic' src='trustrating_stim/white_mw040.bmp'><br><font color='red'><strong>Keep</strong></font></div></div><div class='respDiv'><div class='respDivL'>Match<br>(e)</div><div class='respDivR'>No Match<br>(i)</div></div></div>","e","TARGET","2","trustrating_stim/white_mw040.bmp,trustrating_stim/white_mw010.bmp","0,1","Match","e","3000","trustrating_stim/white_mw040.bmp","red","Keep","REAL","1"
"html-keyboard-response","59","207459","0.0-7.0-5.4","63ead665638c8546d8c3a962","bdp_wmem","Tue Mar 14 2023 21:43:47 GMT-0400 (Eastern Daylight Time)","594675","Match,No Match","","null","","","","","","<div class='trialBorder'><div class='vertical-center'><img src='img/correct.jpg'></div><div class='respDiv'><div class='respDivL'><font style='color:orange'>Match<br>(e)</font></div><div class='respDivR'>No Match<br>(i)</div></div></div>","null","FEEDBACK","","","","","","","","","","",""
"html-keyboard-response","60","207961","0.0-7.0-1.5","63ead665638c8546d8c3a962","bdp_wmem","Tue Mar 14 2023 21:43:47 GMT-0400 (Eastern Daylight Time)","594675","Match,No Match","","null","","","","","","<div class='trialBorder'><div class='vertical-center'><img src='img/fixation2_sml.jpg'</img></div></div>","null","FIX","","","","","","","","","","",""
"html-keyboard-response","61","210965","0.0-7.0-2.5","63ead665638c8546d8c3a962","bdp_wmem","Tue Mar 14 2023 21:43:47 GMT-0400 (Eastern Daylight Time)","594675","Match,No Match","","null","","","","","","<div class='trialBorder'><div class='vertical-center'><img style='vertical-align:center; align:center' src='img/fixation2_sml.jpg'></div><div class='arrayDiv2'><div class='tl'><img class='introPic' src='trustrating_stim/white_mw003.bmp'><br><font color='red'><strong>Keep</strong></font></div><div class='tr'><img class='introPic' src='trustrating_stim/white_mw040.bmp'><br><font color='green'><strong>Share</strong></font></div></div></div>","null","ARRAY","2","trustrating_stim/white_mw003.bmp,trustrating_stim/white_mw040.bmp","0,1","Match","e","3000","","","","",""
"html-keyboard-response","62","214966","0.0-7.0-3.5","63ead665638c8546d8c3a962","bdp_wmem","Tue Mar 14 2023 21:43:47 GMT-0400 (Eastern Daylight Time)","594675","Match,No Match","","null","","","","","","<div class='trialBorder'><div class='vertical-center'><img src='img/fixation2_sml.jpg'</img></div></div>","null","DELAY","","","","","","","","","","",""
"html-keyboard-response","63","216143","0.0-7.0-4.5","63ead665638c8546d8c3a962","bdp_wmem","Tue Mar 14 2023 21:43:47 GMT-0400 (Eastern Daylight Time)","594675","Match,No Match","","1174","","","","","","<div class='trialBorder'><div class='targDiv'><div class='tc'><img class='introPic' src='trustrating_stim/white_mw040.bmp'><br><font color='green'><strong>Share</strong></font></div></div><div class='respDiv'><div class='respDivL'>Match<br>(e)</div><div class='respDivR'>No Match<br>(i)</div></div></div>","i","TARGET","2","trustrating_stim/white_mw003.bmp,trustrating_stim/white_mw040.bmp","0,1","Match","e","3000","trustrating_stim/white_mw040.bmp","green","Share","REAL","0"
"html-keyboard-response","64","216646","0.0-7.0-5.5","63ead665638c8546d8c3a962","bdp_wmem","Tue Mar 14 2023 21:43:47 GMT-0400 (Eastern Daylight Time)","594675","Match,No Match","","null","","","","","","<div class='trialBorder'><div class='vertical-center'><img src='img/error.jpg'></div><div class='respDiv'><div class='respDivL'>Match<br>(e)</div><div class='respDivR'><font style='color:orange'>No Match<br>(i)</font></div></div></div>","null","FEEDBACK","","","","","","","","","","",""
"html-keyboard-response","65","217147","0.0-7.0-1.6","63ead665638c8546d8c3a962","bdp_wmem","Tue Mar 14 2023 21:43:47 GMT-0400 (Eastern Daylight Time)","594675","Match,No Match","","null","","","","","","<div class='trialBorder'><div class='vertical-center'><img src='img/fixation2_sml.jpg'</img></div></div>","null","FIX","","","","","","","","","","",""
"html-keyboard-response","66","220150","0.0-7.0-2.6","63ead665638c8546d8c3a962","bdp_wmem","Tue Mar 14 2023 21:43:47 GMT-0400 (Eastern Daylight Time)","594675","Match,No Match","","null","","","","","","<div class='trialBorder'><div class='vertical-center'><img style='vertical-align:center; align:center' src='img/fixation2_sml.jpg'></div><div class='arrayDiv2'><div class='tl'><img class='introPic' src='trustrating_stim/white_mw078.bmp'><br><font color='red'><strong>Keep</strong></font></div><div class='tr'><img class='introPic' src='trustrating_stim/white_mw038.bmp'><br><font color='green'><strong>Share</strong></font></div></div></div>","null","ARRAY","2","trustrating_stim/white_mw078.bmp,trustrating_stim/white_mw038.bmp","0,1","noMatchFace","i","3000","","","","",""
"html-keyboard-response","67","224151","0.0-7.0-3.6","63ead665638c8546d8c3a962","bdp_wmem","Tue Mar 14 2023 21:43:47 GMT-0400 (Eastern Daylight Time)","594675","Match,No Match","","null","","","","","","<div class='trialBorder'><div class='vertical-center'><img src='img/fixation2_sml.jpg'</img></div></div>","null","DELAY","","","","","","","","","","",""
"html-keyboard-response","68","225138","0.0-7.0-4.6","63ead665638c8546d8c3a962","bdp_wmem","Tue Mar 14 2023 21:43:47 GMT-0400 (Eastern Daylight Time)","594675","Match,No Match","","984","","","","","","<div class='trialBorder'><div class='targDiv'><div class='tc'><img class='introPic' src='trustrating_stim/white_mw070.bmp'><br><font color='green'><strong>Share</strong></font></div></div><div class='respDiv'><div class='respDivL'>Match<br>(e)</div><div class='respDivR'>No Match<br>(i)</div></div></div>","i","TARGET","2","trustrating_stim/white_mw078.bmp,trustrating_stim/white_mw038.bmp","0,1","noMatchFace","i","3000","trustrating_stim/white_mw070.bmp","green","Share","REAL","1"
"html-keyboard-response","69","225641","0.0-7.0-5.6","63ead665638c8546d8c3a962","bdp_wmem","Tue Mar 14 2023 21:43:47 GMT-0400 (Eastern Daylight Time)","594675","Match,No Match","","null","","","","","","<div class='trialBorder'><div class='vertical-center'><img src='img/correct.jpg'></div><div class='respDiv'><div class='respDivL'>Match<br>(e)</div><div class='respDivR'><font style='color:orange'>No Match<br>(i)</font></div></div></div>","null","FEEDBACK","","","","","","","","","","",""
"html-keyboard-response","70","226143","0.0-7.0-1.7","63ead665638c8546d8c3a962","bdp_wmem","Tue Mar 14 2023 21:43:47 GMT-0400 (Eastern Daylight Time)","594675","Match,No Match","","null","","","","","","<div class='trialBorder'><div class='vertical-center'><img src='img/fixation2_sml.jpg'</img></div></div>","null","FIX","","","","","","","","","","",""
"html-keyboard-response","71","227645","0.0-7.0-2.7","63ead665638c8546d8c3a962","bdp_wmem","Tue Mar 14 2023 21:43:47 GMT-0400 (Eastern Daylight Time)","594675","Match,No Match","","null","","","","","","<div class='trialBorder'><div class='vertical-center'><img style='vertical-align:center; align:center' src='img/fixation2_sml.jpg'></div><div class='arrayDiv1'><div class='tc'><img class='introPic' src='trustrating_stim/white_mw040.bmp'><br><font color='red'><strong>Keep</strong></font></div></div></div>","null","ARRAY","1","trustrating_stim/white_mw040.bmp","0","noMatchOutcome","i","1500","","","","",""
"html-keyboard-response","72","231648","0.0-7.0-3.7","63ead665638c8546d8c3a962","bdp_wmem","Tue Mar 14 2023 21:43:47 GMT-0400 (Eastern Daylight Time)","594675","Match,No Match","","null","","","","","","<div class='trialBorder'><div class='vertical-center'><img src='img/fixation2_sml.jpg'</img></div></div>","null","DELAY","","","","","","","","","","",""
"html-keyboard-response","73","232312","0.0-7.0-4.7","63ead665638c8546d8c3a962","bdp_wmem","Tue Mar 14 2023 21:43:47 GMT-0400 (Eastern Daylight Time)","594675","Match,No Match","","661","","","","","","<div class='trialBorder'><div class='targDiv'><div class='tc'><img class='introPic' src='trustrating_stim/white_mw040.bmp'><br><font color='green'><strong>Share</strong></font></div></div><div class='respDiv'><div class='respDivL'>Match<br>(e)</div><div class='respDivR'>No Match<br>(i)</div></div></div>","e","TARGET","1","trustrating_stim/white_mw040.bmp","0","noMatchOutcome","i","1500","trustrating_stim/white_mw040.bmp","green","Share","REAL","0"
"html-keyboard-response","74","232814","0.0-7.0-5.7","63ead665638c8546d8c3a962","bdp_wmem","Tue Mar 14 2023 21:43:47 GMT-0400 (Eastern Daylight Time)","594675","Match,No Match","","null","","","","","","<div class='trialBorder'><div class='vertical-center'><img src='img/error.jpg'></div><div class='respDiv'><div class='respDivL'><font style='color:orange'>Match<br>(e)</font></div><div class='respDivR'>No Match<br>(i)</div></div></div>","null","FEEDBACK","","","","","","","","","","",""
"html-keyboard-response","75","233315","0.0-7.0-1.8","63ead665638c8546d8c3a962","bdp_wmem","Tue Mar 14 2023 21:43:47 GMT-0400 (Eastern Daylight Time)","594675","Match,No Match","","null","","","","","","<div class='trialBorder'><div class='vertical-center'><img src='img/fixation2_sml.jpg'</img></div></div>","null","FIX","","","","","","","","","","",""
"html-keyboard-response","76","236319","0.0-7.0-2.8","63ead665638c8546d8c3a962","bdp_wmem","Tue Mar 14 2023 21:43:47 GMT-0400 (Eastern Daylight Time)","594675","Match,No Match","","null","","","","","","<div class='trialBorder'><div class='vertical-center'><img style='vertical-align:center; align:center' src='img/fixation2_sml.jpg'></div><div class='arrayDiv2'><div class='tl'><img class='introPic' src='trustrating_stim/white_mw091.bmp'><br><font color='green'><strong>Share</strong></font></div><div class='tr'><img class='introPic' src='trustrating_stim/white_mw078.bmp'><br><font color='red'><strong>Keep</strong></font></div></div></div>","null","ARRAY","2","trustrating_stim/white_mw091.bmp,trustrating_stim/white_mw078.bmp","1,0","noMatchOutcome","i","3000","","","","",""
"html-keyboard-response","77","240321","0.0-7.0-3.8","63ead665638c8546d8c3a962","bdp_wmem","Tue Mar 14 2023 21:43:47 GMT-0400 (Eastern Daylight Time)","594675","Match,No Match","","null","","","","","","<div class='trialBorder'><div class='vertical-center'><img src='img/fixation2_sml.jpg'</img></div></div>","null","DELAY","","","","","","","","","","",""
"html-keyboard-response","78","241299","0.0-7.0-4.8","63ead665638c8546d8c3a962","bdp_wmem","Tue Mar 14 2023 21:43:47 GMT-0400 (Eastern Daylight Time)","594675","Match,No Match","","976","","","","","","<div class='trialBorder'><div class='targDiv'><div class='tc'><img class='introPic' src='trustrating_stim/white_mw091.bmp'><br><font color='red'><strong>Keep</strong></font></div></div><div class='respDiv'><div class='respDivL'>Match<br>(e)</div><div class='respDivR'>No Match<br>(i)</div></div></div>","i","TARGET","2","trustrating_stim/white_mw091.bmp,trustrating_stim/white_mw078.bmp","1,0","noMatchOutcome","i","3000","trustrating_stim/white_mw091.bmp","red","Keep","REAL","1"
"html-keyboard-response","79","241801","0.0-7.0-5.8","63ead665638c8546d8c3a962","bdp_wmem","Tue Mar 14 2023 21:43:47 GMT-0400 (Eastern Daylight Time)","594675","Match,No Match","","null","","","","","","<div class='trialBorder'><div class='vertical-center'><img src='img/correct.jpg'></div><div class='respDiv'><div class='respDivL'>Match<br>(e)</div><div class='respDivR'><font style='color:orange'>No Match<br>(i)</font></div></div></div>","null","FEEDBACK","","","","","","","","","","",""
"html-keyboard-response","80","242304","0.0-7.0-1.9","63ead665638c8546d8c3a962","bdp_wmem","Tue Mar 14 2023 21:43:47 GMT-0400 (Eastern Daylight Time)","594675","Match,No Match","","null","","","","","","<div class='trialBorder'><div class='vertical-center'><img src='img/fixation2_sml.jpg'</img></div></div>","null","FIX","","","","","","","","","","",""
"html-keyboard-response","81","246807","0.0-7.0-2.9","63ead665638c8546d8c3a962","bdp_wmem","Tue Mar 14 2023 21:43:47 GMT-0400 (Eastern Daylight Time)","594675","Match,No Match","","null","","","","","","<div class='trialBorder'><div class='vertical-center'><img style='vertical-align:center; align:center' src='img/fixation2_sml.jpg'></div><div class='arrayDiv3'><div class='tl'><img class='introPic' src='trustrating_stim/white_mw042.bmp'><br><font color='red'><strong>Keep</strong></font></div><div class='tc'><img class='introPic' src='trustrating_stim/white_mw085.bmp'><br><font color='green'><strong>Share</strong></font></div><div class='tr'><img class='introPic' src='trustrating_stim/white_mw091.bmp'><br><font color='green'><strong>Share</strong></font></div></div></div>","null","ARRAY","3","trustrating_stim/white_mw042.bmp,trustrating_stim/white_mw085.bmp,trustrating_stim/white_mw091.bmp","0,1,1","Match","e","4500","","","","",""
"html-keyboard-response","82","250808","0.0-7.0-3.9","63ead665638c8546d8c3a962","bdp_wmem","Tue Mar 14 2023 21:43:47 GMT-0400 (Eastern Daylight Time)","594675","Match,No Match","","null","","","","","","<div class='trialBorder'><div class='vertical-center'><img src='img/fixation2_sml.jpg'</img></div></div>","null","DELAY","","","","","","","","","","",""
"html-keyboard-response","83","251583","0.0-7.0-4.9","63ead665638c8546d8c3a962","bdp_wmem","Tue Mar 14 2023 21:43:47 GMT-0400 (Eastern Daylight Time)","594675","Match,No Match","","772","","","","","","<div class='trialBorder'><div class='targDiv'><div class='tc'><img class='introPic' src='trustrating_stim/white_mw091.bmp'><br><font color='green'><strong>Share</strong></font></div></div><div class='respDiv'><div class='respDivL'>Match<br>(e)</div><div class='respDivR'>No Match<br>(i)</div></div></div>","i","TARGET","3","trustrating_stim/white_mw042.bmp,trustrating_stim/white_mw085.bmp,trustrating_stim/white_mw091.bmp","0,1,1","Match","e","4500","trustrating_stim/white_mw091.bmp","green","Share","REAL","0"
"html-keyboard-response","84","252086","0.0-7.0-5.9","63ead665638c8546d8c3a962","bdp_wmem","Tue Mar 14 2023 21:43:47 GMT-0400 (Eastern Daylight Time)","594675","Match,No Match","","null","","","","","","<div class='trialBorder'><div class='vertical-center'><img src='img/error.jpg'></div><div class='respDiv'><div class='respDivL'>Match<br>(e)</div><div class='respDivR'><font style='color:orange'>No Match<br>(i)</font></div></div></div>","null","FEEDBACK","","","","","","","","","","",""
"html-keyboard-response","85","252588","0.0-7.0-1.10","63ead665638c8546d8c3a962","bdp_wmem","Tue Mar 14 2023 21:43:47 GMT-0400 (Eastern Daylight Time)","594675","Match,No Match","","null","","","","","","<div class='trialBorder'><div class='vertical-center'><img src='img/fixation2_sml.jpg'</img></div></div>","null","FIX","","","","","","","","","","",""
"html-keyboard-response","86","254090","0.0-7.0-2.10","63ead665638c8546d8c3a962","bdp_wmem","Tue Mar 14 2023 21:43:47 GMT-0400 (Eastern Daylight Time)","594675","Match,No Match","","null","","","","","","<div class='trialBorder'><div class='vertical-center'><img style='vertical-align:center; align:center' src='img/fixation2_sml.jpg'></div><div class='arrayDiv1'><div class='tc'><img class='introPic' src='trustrating_stim/white_mw040.bmp'><br><font color='green'><strong>Share</strong></font></div></div></div>","null","ARRAY","1","trustrating_stim/white_mw040.bmp","1","noMatchFace","i","1500","","","","",""
"html-keyboard-response","87","258092","0.0-7.0-3.10","63ead665638c8546d8c3a962","bdp_wmem","Tue Mar 14 2023 21:43:47 GMT-0400 (Eastern Daylight Time)","594675","Match,No Match","","null","","","","","","<div class='trialBorder'><div class='vertical-center'><img src='img/fixation2_sml.jpg'</img></div></div>","null","DELAY","","","","","","","","","","",""
"html-keyboard-response","88","258897","0.0-7.0-4.10","63ead665638c8546d8c3a962","bdp_wmem","Tue Mar 14 2023 21:43:47 GMT-0400 (Eastern Daylight Time)","594675","Match,No Match","","803","","","","","","<div class='trialBorder'><div class='targDiv'><div class='tc'><img class='introPic' src='trustrating_stim/white_mw085.bmp'><br><font color='green'><strong>Share</strong></font></div></div><div class='respDiv'><div class='respDivL'>Match<br>(e)</div><div class='respDivR'>No Match<br>(i)</div></div></div>","i","TARGET","1","trustrating_stim/white_mw040.bmp","1","noMatchFace","i","1500","trustrating_stim/white_mw085.bmp","green","Share","REAL","1"
"html-keyboard-response","89","259399","0.0-7.0-5.10","63ead665638c8546d8c3a962","bdp_wmem","Tue Mar 14 2023 21:43:47 GMT-0400 (Eastern Daylight Time)","594675","Match,No Match","","null","","","","","","<div class='trialBorder'><div class='vertical-center'><img src='img/correct.jpg'></div><div class='respDiv'><div class='respDivL'>Match<br>(e)</div><div class='respDivR'><font style='color:orange'>No Match<br>(i)</font></div></div></div>","null","FEEDBACK","","","","","","","","","","",""
"html-keyboard-response","90","259901","0.0-7.0-1.11","63ead665638c8546d8c3a962","bdp_wmem","Tue Mar 14 2023 21:43:47 GMT-0400 (Eastern Daylight Time)","594675","Match,No Match","","null","","","","","","<div class='trialBorder'><div class='vertical-center'><img src='img/fixation2_sml.jpg'</img></div></div>","null","FIX","","","","","","","","","","",""
"html-keyboard-response","91","264405","0.0-7.0-2.11","63ead665638c8546d8c3a962","bdp_wmem","Tue Mar 14 2023 21:43:47 GMT-0400 (Eastern Daylight Time)","594675","Match,No Match","","null","","","","","","<div class='trialBorder'><div class='vertical-center'><img style='vertical-align:center; align:center' src='img/fixation2_sml.jpg'></div><div class='arrayDiv3'><div class='tl'><img class='introPic' src='trustrating_stim/white_mw012.bmp'><br><font color='red'><strong>Keep</strong></font></div><div class='tc'><img class='introPic' src='trustrating_stim/white_mw038.bmp'><br><font color='red'><strong>Keep</strong></font></div><div class='tr'><img class='introPic' src='trustrating_stim/white_mw013.bmp'><br><font color='green'><strong>Share</strong></font></div></div></div>","null","ARRAY","3","trustrating_stim/white_mw012.bmp,trustrating_stim/white_mw038.bmp,trustrating_stim/white_mw013.bmp","0,0,1","Match","e","4500","","","","",""
"html-keyboard-response","92","268407","0.0-7.0-3.11","63ead665638c8546d8c3a962","bdp_wmem","Tue Mar 14 2023 21:43:47 GMT-0400 (Eastern Daylight Time)","594675","Match,No Match","","null","","","","","","<div class='trialBorder'><div class='vertical-center'><img src='img/fixation2_sml.jpg'</img></div></div>","null","DELAY","","","","","","","","","","",""
"html-keyboard-response","93","269590","0.0-7.0-4.11","63ead665638c8546d8c3a962","bdp_wmem","Tue Mar 14 2023 21:43:47 GMT-0400 (Eastern Daylight Time)","594675","Match,No Match","","1181","","","","","","<div class='trialBorder'><div class='targDiv'><div class='tc'><img class='introPic' src='trustrating_stim/white_mw012.bmp'><br><font color='red'><strong>Keep</strong></font></div></div><div class='respDiv'><div class='respDivL'>Match<br>(e)</div><div class='respDivR'>No Match<br>(i)</div></div></div>","e","TARGET","3","trustrating_stim/white_mw012.bmp,trustrating_stim/white_mw038.bmp,trustrating_stim/white_mw013.bmp","0,0,1","Match","e","4500","trustrating_stim/white_mw012.bmp","red","Keep","REAL","1"
"html-keyboard-response","94","270094","0.0-7.0-5.11","63ead665638c8546d8c3a962","bdp_wmem","Tue Mar 14 2023 21:43:47 GMT-0400 (Eastern Daylight Time)","594675","Match,No Match","","null","","","","","","<div class='trialBorder'><div class='vertical-center'><img src='img/correct.jpg'></div><div class='respDiv'><div class='respDivL'><font style='color:orange'>Match<br>(e)</font></div><div class='respDivR'>No Match<br>(i)</div></div></div>","null","FEEDBACK","","","","","","","","","","",""
"html-keyboard-response","95","270595","0.0-7.0-1.12","63ead665638c8546d8c3a962","bdp_wmem","Tue Mar 14 2023 21:43:47 GMT-0400 (Eastern Daylight Time)","594675","Match,No Match","","null","","","","","","<div class='trialBorder'><div class='vertical-center'><img src='img/fixation2_sml.jpg'</img></div></div>","null","FIX","","","","","","","","","","",""
"html-keyboard-response","96","272099","0.0-7.0-2.12","63ead665638c8546d8c3a962","bdp_wmem","Tue Mar 14 2023 21:43:47 GMT-0400 (Eastern Daylight Time)","594675","Match,No Match","","null","","","","","","<div class='trialBorder'><div class='vertical-center'><img style='vertical-align:center; align:center' src='img/fixation2_sml.jpg'></div><div class='arrayDiv1'><div class='tc'><img class='introPic' src='trustrating_stim/white_mw013.bmp'><br><font color='red'><strong>Keep</strong></font></div></div></div>","null","ARRAY","1","trustrating_stim/white_mw013.bmp","0","Match","e","1500","","","","",""
"html-keyboard-response","97","276100","0.0-7.0-3.12","63ead665638c8546d8c3a962","bdp_wmem","Tue Mar 14 2023 21:43:47 GMT-0400 (Eastern Daylight Time)","594675","Match,No Match","","null","","","","","","<div class='trialBorder'><div class='vertical-center'><img src='img/fixation2_sml.jpg'</img></div></div>","null","DELAY","","","","","","","","","","",""
"html-keyboard-response","98","276942","0.0-7.0-4.12","63ead665638c8546d8c3a962","bdp_wmem","Tue Mar 14 2023 21:43:47 GMT-0400 (Eastern Daylight Time)","594675","Match,No Match","","838","","","","","","<div class='trialBorder'><div class='targDiv'><div class='tc'><img class='introPic' src='trustrating_stim/white_mw013.bmp'><br><font color='red'><strong>Keep</strong></font></div></div><div class='respDiv'><div class='respDivL'>Match<br>(e)</div><div class='respDivR'>No Match<br>(i)</div></div></div>","i","TARGET","1","trustrating_stim/white_mw013.bmp","0","Match","e","1500","trustrating_stim/white_mw013.bmp","red","Keep","REAL","0"
"html-keyboard-response","99","277444","0.0-7.0-5.12","63ead665638c8546d8c3a962","bdp_wmem","Tue Mar 14 2023 21:43:47 GMT-0400 (Eastern Daylight Time)","594675","Match,No Match","","null","","","","","","<div class='trialBorder'><div class='vertical-center'><img src='img/error.jpg'></div><div class='respDiv'><div class='respDivL'>Match<br>(e)</div><div class='respDivR'><font style='color:orange'>No Match<br>(i)</font></div></div></div>","null","FEEDBACK","","","","","","","","","","",""
"html-keyboard-response","100","277946","0.0-7.0-1.13","63ead665638c8546d8c3a962","bdp_wmem","Tue Mar 14 2023 21:43:47 GMT-0400 (Eastern Daylight Time)","594675","Match,No Match","","null","","","","","","<div class='trialBorder'><div class='vertical-center'><img src='img/fixation2_sml.jpg'</img></div></div>","null","FIX","","","","","","","","","","",""
"html-keyboard-response","101","280949","0.0-7.0-2.13","63ead665638c8546d8c3a962","bdp_wmem","Tue Mar 14 2023 21:43:47 GMT-0400 (Eastern Daylight Time)","594675","Match,No Match","","null","","","","","","<div class='trialBorder'><div class='vertical-center'><img style='vertical-align:center; align:center' src='img/fixation2_sml.jpg'></div><div class='arrayDiv2'><div class='tl'><img class='introPic' src='trustrating_stim/white_mw085.bmp'><br><font color='red'><strong>Keep</strong></font></div><div class='tr'><img class='introPic' src='trustrating_stim/white_mw010.bmp'><br><font color='green'><strong>Share</strong></font></div></div></div>","null","ARRAY","2","trustrating_stim/white_mw085.bmp,trustrating_stim/white_mw010.bmp","0,1","Match","e","3000","","","","",""
"html-keyboard-response","102","284952","0.0-7.0-3.13","63ead665638c8546d8c3a962","bdp_wmem","Tue Mar 14 2023 21:43:47 GMT-0400 (Eastern Daylight Time)","594675","Match,No Match","","null","","","","","","<div class='trialBorder'><div class='vertical-center'><img src='img/fixation2_sml.jpg'</img></div></div>","null","DELAY","","","","","","","","","","",""
"html-keyboard-response","103","285879","0.0-7.0-4.13","63ead665638c8546d8c3a962","bdp_wmem","Tue Mar 14 2023 21:43:47 GMT-0400 (Eastern Daylight Time)","594675","Match,No Match","","925","","","","","","<div class='trialBorder'><div class='targDiv'><div class='tc'><img class='introPic' src='trustrating_stim/white_mw010.bmp'><br><font color='green'><strong>Share</strong></font></div></div><div class='respDiv'><div class='respDivL'>Match<br>(e)</div><div class='respDivR'>No Match<br>(i)</div></div></div>","i","TARGET","2","trustrating_stim/white_mw085.bmp,trustrating_stim/white_mw010.bmp","0,1","Match","e","3000","trustrating_stim/white_mw010.bmp","green","Share","REAL","0"
"html-keyboard-response","104","286381","0.0-7.0-5.13","63ead665638c8546d8c3a962","bdp_wmem","Tue Mar 14 2023 21:43:47 GMT-0400 (Eastern Daylight Time)","594675","Match,No Match","","null","","","","","","<div class='trialBorder'><div class='vertical-center'><img src='img/error.jpg'></div><div class='respDiv'><div class='respDivL'>Match<br>(e)</div><div class='respDivR'><font style='color:orange'>No Match<br>(i)</font></div></div></div>","null","FEEDBACK","","","","","","","","","","",""
"html-keyboard-response","105","286883","0.0-7.0-1.14","63ead665638c8546d8c3a962","bdp_wmem","Tue Mar 14 2023 21:43:47 GMT-0400 (Eastern Daylight Time)","594675","Match,No Match","","null","","","","","","<div class='trialBorder'><div class='vertical-center'><img src='img/fixation2_sml.jpg'</img></div></div>","null","FIX","","","","","","","","","","",""
"html-keyboard-response","106","291386","0.0-7.0-2.14","63ead665638c8546d8c3a962","bdp_wmem","Tue Mar 14 2023 21:43:47 GMT-0400 (Eastern Daylight Time)","594675","Match,No Match","","null","","","","","","<div class='trialBorder'><div class='vertical-center'><img style='vertical-align:center; align:center' src='img/fixation2_sml.jpg'></div><div class='arrayDiv3'><div class='tl'><img class='introPic' src='trustrating_stim/white_mw013.bmp'><br><font color='red'><strong>Keep</strong></font></div><div class='tc'><img class='introPic' src='trustrating_stim/white_mw040.bmp'><br><font color='green'><strong>Share</strong></font></div><div class='tr'><img class='introPic' src='trustrating_stim/white_mw012.bmp'><br><font color='green'><strong>Share</strong></font></div></div></div>","null","ARRAY","3","trustrating_stim/white_mw013.bmp,trustrating_stim/white_mw040.bmp,trustrating_stim/white_mw012.bmp","0,1,1","Match","e","4500","","","","",""
"html-keyboard-response","107","295388","0.0-7.0-3.14","63ead665638c8546d8c3a962","bdp_wmem","Tue Mar 14 2023 21:43:47 GMT-0400 (Eastern Daylight Time)","594675","Match,No Match","","null","","","","","","<div class='trialBorder'><div class='vertical-center'><img src='img/fixation2_sml.jpg'</img></div></div>","null","DELAY","","","","","","","","","","",""
"html-keyboard-response","108","296259","0.0-7.0-4.14","63ead665638c8546d8c3a962","bdp_wmem","Tue Mar 14 2023 21:43:47 GMT-0400 (Eastern Daylight Time)","594675","Match,No Match","","869","","","","","","<div class='trialBorder'><div class='targDiv'><div class='tc'><img class='introPic' src='trustrating_stim/white_mw013.bmp'><br><font color='red'><strong>Keep</strong></font></div></div><div class='respDiv'><div class='respDivL'>Match<br>(e)</div><div class='respDivR'>No Match<br>(i)</div></div></div>","e","TARGET","3","trustrating_stim/white_mw013.bmp,trustrating_stim/white_mw040.bmp,trustrating_stim/white_mw012.bmp","0,1,1","Match","e","4500","trustrating_stim/white_mw013.bmp","red","Keep","REAL","1"
"html-keyboard-response","109","296760","0.0-7.0-5.14","63ead665638c8546d8c3a962","bdp_wmem","Tue Mar 14 2023 21:43:47 GMT-0400 (Eastern Daylight Time)","594675","Match,No Match","","null","","","","","","<div class='trialBorder'><div class='vertical-center'><img src='img/correct.jpg'></div><div class='respDiv'><div class='respDivL'><font style='color:orange'>Match<br>(e)</font></div><div class='respDivR'>No Match<br>(i)</div></div></div>","null","FEEDBACK","","","","","","","","","","",""
"html-keyboard-response","110","297263","0.0-7.0-1.15","63ead665638c8546d8c3a962","bdp_wmem","Tue Mar 14 2023 21:43:47 GMT-0400 (Eastern Daylight Time)","594675","Match,No Match","","null","","","","","","<div class='trialBorder'><div class='vertical-center'><img src='img/fixation2_sml.jpg'</img></div></div>","null","FIX","","","","","","","","","","",""
"html-keyboard-response","111","298765","0.0-7.0-2.15","63ead665638c8546d8c3a962","bdp_wmem","Tue Mar 14 2023 21:43:47 GMT-0400 (Eastern Daylight Time)","594675","Match,No Match","","null","","","","","","<div class='trialBorder'><div class='vertical-center'><img style='vertical-align:center; align:center' src='img/fixation2_sml.jpg'></div><div class='arrayDiv1'><div class='tc'><img class='introPic' src='trustrating_stim/white_mw038.bmp'><br><font color='green'><strong>Share</strong></font></div></div></div>","null","ARRAY","1","trustrating_stim/white_mw038.bmp","1","noMatchFace","i","1500","","","","",""
"html-keyboard-response","112","302767","0.0-7.0-3.15","63ead665638c8546d8c3a962","bdp_wmem","Tue Mar 14 2023 21:43:47 GMT-0400 (Eastern Daylight Time)","594675","Match,No Match","","null","","","","","","<div class='trialBorder'><div class='vertical-center'><img src='img/fixation2_sml.jpg'</img></div></div>","null","DELAY","","","","","","","","","","",""
"html-keyboard-response","113","303458","0.0-7.0-4.15","63ead665638c8546d8c3a962","bdp_wmem","Tue Mar 14 2023 21:43:47 GMT-0400 (Eastern Daylight Time)","594675","Match,No Match","","688","","","","","","<div class='trialBorder'><div class='targDiv'><div class='tc'><img class='introPic' src='trustrating_stim/white_mw091.bmp'><br><font color='green'><strong>Share</strong></font></div></div><div class='respDiv'><div class='respDivL'>Match<br>(e)</div><div class='respDivR'>No Match<br>(i)</div></div></div>","i","TARGET","1","trustrating_stim/white_mw038.bmp","1","noMatchFace","i","1500","trustrating_stim/white_mw091.bmp","green","Share","REAL","1"
"html-keyboard-response","114","303960","0.0-7.0-5.15","63ead665638c8546d8c3a962","bdp_wmem","Tue Mar 14 2023 21:43:47 GMT-0400 (Eastern Daylight Time)","594675","Match,No Match","","null","","","","","","<div class='trialBorder'><div class='vertical-center'><img src='img/correct.jpg'></div><div class='respDiv'><div class='respDivL'>Match<br>(e)</div><div class='respDivR'><font style='color:orange'>No Match<br>(i)</font></div></div></div>","null","FEEDBACK","","","","","","","","","","",""
"html-keyboard-response","115","304461","0.0-7.0-1.16","63ead665638c8546d8c3a962","bdp_wmem","Tue Mar 14 2023 21:43:47 GMT-0400 (Eastern Daylight Time)","594675","Match,No Match","","null","","","","","","<div class='trialBorder'><div class='vertical-center'><img src='img/fixation2_sml.jpg'</img></div></div>","null","FIX","","","","","","","","","","",""
"html-keyboard-response","116","308964","0.0-7.0-2.16","63ead665638c8546d8c3a962","bdp_wmem","Tue Mar 14 2023 21:43:47 GMT-0400 (Eastern Daylight Time)","594675","Match,No Match","","null","","","","","","<div class='trialBorder'><div class='vertical-center'><img style='vertical-align:center; align:center' src='img/fixation2_sml.jpg'></div><div class='arrayDiv3'><div class='tl'><img class='introPic' src='trustrating_stim/white_mw010.bmp'><br><font color='green'><strong>Share</strong></font></div><div class='tc'><img class='introPic' src='trustrating_stim/white_mw070.bmp'><br><font color='green'><strong>Share</strong></font></div><div class='tr'><img class='introPic' src='trustrating_stim/white_mw040.bmp'><br><font color='red'><strong>Keep</strong></font></div></div></div>","null","ARRAY","3","trustrating_stim/white_mw010.bmp,trustrating_stim/white_mw070.bmp,trustrating_stim/white_mw040.bmp","1,1,0","noMatchFace","i","4500","","","","",""
"html-keyboard-response","117","312966","0.0-7.0-3.16","63ead665638c8546d8c3a962","bdp_wmem","Tue Mar 14 2023 21:43:47 GMT-0400 (Eastern Daylight Time)","594675","Match,No Match","","null","","","","","","<div class='trialBorder'><div class='vertical-center'><img src='img/fixation2_sml.jpg'</img></div></div>","null","DELAY","","","","","","","","","","",""
"html-keyboard-response","118","313848","0.0-7.0-4.16","63ead665638c8546d8c3a962","bdp_wmem","Tue Mar 14 2023 21:43:47 GMT-0400 (Eastern Daylight Time)","594675","Match,No Match","","879","","","","","","<div class='trialBorder'><div class='targDiv'><div class='tc'><img class='introPic' src='trustrating_stim/white_mw085.bmp'><br><font color='red'><strong>Keep</strong></font></div></div><div class='respDiv'><div class='respDivL'>Match<br>(e)</div><div class='respDivR'>No Match<br>(i)</div></div></div>","i","TARGET","3","trustrating_stim/white_mw010.bmp,trustrating_stim/white_mw070.bmp,trustrating_stim/white_mw040.bmp","1,1,0","noMatchFace","i","4500","trustrating_stim/white_mw085.bmp","red","Keep","REAL","1"
"html-keyboard-response","119","314350","0.0-7.0-5.16","63ead665638c8546d8c3a962","bdp_wmem","Tue Mar 14 2023 21:43:47 GMT-0400 (Eastern Daylight Time)","594675","Match,No Match","","null","","","","","","<div class='trialBorder'><div class='vertical-center'><img src='img/correct.jpg'></div><div class='respDiv'><div class='respDivL'>Match<br>(e)</div><div class='respDivR'><font style='color:orange'>No Match<br>(i)</font></div></div></div>","null","FEEDBACK","","","","","","","","","","",""
"html-keyboard-response","120","314853","0.0-7.0-1.17","63ead665638c8546d8c3a962","bdp_wmem","Tue Mar 14 2023 21:43:47 GMT-0400 (Eastern Daylight Time)","594675","Match,No Match","","null","","","","","","<div class='trialBorder'><div class='vertical-center'><img src='img/fixation2_sml.jpg'</img></div></div>","null","FIX","","","","","","","","","","",""
"html-keyboard-response","121","316355","0.0-7.0-2.17","63ead665638c8546d8c3a962","bdp_wmem","Tue Mar 14 2023 21:43:47 GMT-0400 (Eastern Daylight Time)","594675","Match,No Match","","null","","","","","","<div class='trialBorder'><div class='vertical-center'><img style='vertical-align:center; align:center' src='img/fixation2_sml.jpg'></div><div class='arrayDiv1'><div class='tc'><img class='introPic' src='trustrating_stim/white_mw070.bmp'><br><font color='red'><strong>Keep</strong></font></div></div></div>","null","ARRAY","1","trustrating_stim/white_mw070.bmp","0","Match","e","1500","","","","",""
"html-keyboard-response","122","320357","0.0-7.0-3.17","63ead665638c8546d8c3a962","bdp_wmem","Tue Mar 14 2023 21:43:47 GMT-0400 (Eastern Daylight Time)","594675","Match,No Match","","null","","","","","","<div class='trialBorder'><div class='vertical-center'><img src='img/fixation2_sml.jpg'</img></div></div>","null","DELAY","","","","","","","","","","",""
"html-keyboard-response","123","321171","0.0-7.0-4.17","63ead665638c8546d8c3a962","bdp_wmem","Tue Mar 14 2023 21:43:47 GMT-0400 (Eastern Daylight Time)","594675","Match,No Match","","812","","","","","","<div class='trialBorder'><div class='targDiv'><div class='tc'><img class='introPic' src='trustrating_stim/white_mw070.bmp'><br><font color='red'><strong>Keep</strong></font></div></div><div class='respDiv'><div class='respDivL'>Match<br>(e)</div><div class='respDivR'>No Match<br>(i)</div></div></div>","e","TARGET","1","trustrating_stim/white_mw070.bmp","0","Match","e","1500","trustrating_stim/white_mw070.bmp","red","Keep","REAL","1"
"html-keyboard-response","124","321673","0.0-7.0-5.17","63ead665638c8546d8c3a962","bdp_wmem","Tue Mar 14 2023 21:43:47 GMT-0400 (Eastern Daylight Time)","594675","Match,No Match","","null","","","","","","<div class='trialBorder'><div class='vertical-center'><img src='img/correct.jpg'></div><div class='respDiv'><div class='respDivL'><font style='color:orange'>Match<br>(e)</font></div><div class='respDivR'>No Match<br>(i)</div></div></div>","null","FEEDBACK","","","","","","","","","","",""
"html-keyboard-response","125","322176","0.0-7.0-1.18","63ead665638c8546d8c3a962","bdp_wmem","Tue Mar 14 2023 21:43:47 GMT-0400 (Eastern Daylight Time)","594675","Match,No Match","","null","","","","","","<div class='trialBorder'><div class='vertical-center'><img src='img/fixation2_sml.jpg'</img></div></div>","null","FIX","","","","","","","","","","",""
"html-keyboard-response","126","325179","0.0-7.0-2.18","63ead665638c8546d8c3a962","bdp_wmem","Tue Mar 14 2023 21:43:47 GMT-0400 (Eastern Daylight Time)","594675","Match,No Match","","null","","","","","","<div class='trialBorder'><div class='vertical-center'><img style='vertical-align:center; align:center' src='img/fixation2_sml.jpg'></div><div class='arrayDiv2'><div class='tl'><img class='introPic' src='trustrating_stim/white_mw042.bmp'><br><font color='red'><strong>Keep</strong></font></div><div class='tr'><img class='introPic' src='trustrating_stim/white_mw003.bmp'><br><font color='green'><strong>Share</strong></font></div></div></div>","null","ARRAY","2","trustrating_stim/white_mw042.bmp,trustrating_stim/white_mw003.bmp","0,1","noMatchOutcome","i","3000","","","","",""
"html-keyboard-response","127","329180","0.0-7.0-3.18","63ead665638c8546d8c3a962","bdp_wmem","Tue Mar 14 2023 21:43:47 GMT-0400 (Eastern Daylight Time)","594675","Match,No Match","","null","","","","","","<div class='trialBorder'><div class='vertical-center'><img src='img/fixation2_sml.jpg'</img></div></div>","null","DELAY","","","","","","","","","","",""
"html-keyboard-response","128","330270","0.0-7.0-4.18","63ead665638c8546d8c3a962","bdp_wmem","Tue Mar 14 2023 21:43:47 GMT-0400 (Eastern Daylight Time)","594675","Match,No Match","","1087","","","","","","<div class='trialBorder'><div class='targDiv'><div class='tc'><img class='introPic' src='trustrating_stim/white_mw003.bmp'><br><font color='red'><strong>Keep</strong></font></div></div><div class='respDiv'><div class='respDivL'>Match<br>(e)</div><div class='respDivR'>No Match<br>(i)</div></div></div>","i","TARGET","2","trustrating_stim/white_mw042.bmp,trustrating_stim/white_mw003.bmp","0,1","noMatchOutcome","i","3000","trustrating_stim/white_mw003.bmp","red","Keep","REAL","1"
"html-keyboard-response","129","330773","0.0-7.0-5.18","63ead665638c8546d8c3a962","bdp_wmem","Tue Mar 14 2023 21:43:47 GMT-0400 (Eastern Daylight Time)","594675","Match,No Match","","null","","","","","","<div class='trialBorder'><div class='vertical-center'><img src='img/correct.jpg'></div><div class='respDiv'><div class='respDivL'>Match<br>(e)</div><div class='respDivR'><font style='color:orange'>No Match<br>(i)</font></div></div></div>","null","FEEDBACK","","","","","","","","","","",""
"html-keyboard-response","130","331274","0.0-7.0-1.19","63ead665638c8546d8c3a962","bdp_wmem","Tue Mar 14 2023 21:43:47 GMT-0400 (Eastern Daylight Time)","594675","Match,No Match","","null","","","","","","<div class='trialBorder'><div class='vertical-center'><img src='img/fixation2_sml.jpg'</img></div></div>","null","FIX","","","","","","","","","","",""
"html-keyboard-response","131","335778","0.0-7.0-2.19","63ead665638c8546d8c3a962","bdp_wmem","Tue Mar 14 2023 21:43:47 GMT-0400 (Eastern Daylight Time)","594675","Match,No Match","","null","","","","","","<div class='trialBorder'><div class='vertical-center'><img style='vertical-align:center; align:center' src='img/fixation2_sml.jpg'></div><div class='arrayDiv3'><div class='tl'><img class='introPic' src='trustrating_stim/white_mw038.bmp'><br><font color='green'><strong>Share</strong></font></div><div class='tc'><img class='introPic' src='trustrating_stim/white_mw040.bmp'><br><font color='green'><strong>Share</strong></font></div><div class='tr'><img class='introPic' src='trustrating_stim/white_mw070.bmp'><br><font color='red'><strong>Keep</strong></font></div></div></div>","null","ARRAY","3","trustrating_stim/white_mw038.bmp,trustrating_stim/white_mw040.bmp,trustrating_stim/white_mw070.bmp","1,1,0","Match","e","4500","","","","",""
"html-keyboard-response","132","339779","0.0-7.0-3.19","63ead665638c8546d8c3a962","bdp_wmem","Tue Mar 14 2023 21:43:47 GMT-0400 (Eastern Daylight Time)","594675","Match,No Match","","null","","","","","","<div class='trialBorder'><div class='vertical-center'><img src='img/fixation2_sml.jpg'</img></div></div>","null","DELAY","","","","","","","","","","",""
"html-keyboard-response","133","340725","0.0-7.0-4.19","63ead665638c8546d8c3a962","bdp_wmem","Tue Mar 14 2023 21:43:47 GMT-0400 (Eastern Daylight Time)","594675","Match,No Match","","942","","","","","","<div class='trialBorder'><div class='targDiv'><div class='tc'><img class='introPic' src='trustrating_stim/white_mw070.bmp'><br><font color='red'><strong>Keep</strong></font></div></div><div class='respDiv'><div class='respDivL'>Match<br>(e)</div><div class='respDivR'>No Match<br>(i)</div></div></div>","i","TARGET","3","trustrating_stim/white_mw038.bmp,trustrating_stim/white_mw040.bmp,trustrating_stim/white_mw070.bmp","1,1,0","Match","e","4500","trustrating_stim/white_mw070.bmp","red","Keep","REAL","0"
"html-keyboard-response","134","341228","0.0-7.0-5.19","63ead665638c8546d8c3a962","bdp_wmem","Tue Mar 14 2023 21:43:47 GMT-0400 (Eastern Daylight Time)","594675","Match,No Match","","null","","","","","","<div class='trialBorder'><div class='vertical-center'><img src='img/error.jpg'></div><div class='respDiv'><div class='respDivL'>Match<br>(e)</div><div class='respDivR'><font style='color:orange'>No Match<br>(i)</font></div></div></div>","null","FEEDBACK","","","","","","","","","","",""
"html-keyboard-response","135","341730","0.0-7.0-1.20","63ead665638c8546d8c3a962","bdp_wmem","Tue Mar 14 2023 21:43:47 GMT-0400 (Eastern Daylight Time)","594675","Match,No Match","","null","","","","","","<div class='trialBorder'><div class='vertical-center'><img src='img/fixation2_sml.jpg'</img></div></div>","null","FIX","","","","","","","","","","",""
"html-keyboard-response","136","344733","0.0-7.0-2.20","63ead665638c8546d8c3a962","bdp_wmem","Tue Mar 14 2023 21:43:47 GMT-0400 (Eastern Daylight Time)","594675","Match,No Match","","null","","","","","","<div class='trialBorder'><div class='vertical-center'><img style='vertical-align:center; align:center' src='img/fixation2_sml.jpg'></div><div class='arrayDiv2'><div class='tl'><img class='introPic' src='trustrating_stim/white_mw040.bmp'><br><font color='green'><strong>Share</strong></font></div><div class='tr'><img class='introPic' src='trustrating_stim/white_mw038.bmp'><br><font color='red'><strong>Keep</strong></font></div></div></div>","null","ARRAY","2","trustrating_stim/white_mw040.bmp,trustrating_stim/white_mw038.bmp","1,0","noMatchFace","i","3000","","","","",""
"html-keyboard-response","137","348736","0.0-7.0-3.20","63ead665638c8546d8c3a962","bdp_wmem","Tue Mar 14 2023 21:43:47 GMT-0400 (Eastern Daylight Time)","594675","Match,No Match","","null","","","","","","<div class='trialBorder'><div class='vertical-center'><img src='img/fixation2_sml.jpg'</img></div></div>","null","DELAY","","","","","","","","","","",""
"html-keyboard-response","138","349818","0.0-7.0-4.20","63ead665638c8546d8c3a962","bdp_wmem","Tue Mar 14 2023 21:43:47 GMT-0400 (Eastern Daylight Time)","594675","Match,No Match","","1081","","","","","","<div class='trialBorder'><div class='targDiv'><div class='tc'><img class='introPic' src='trustrating_stim/white_mw010.bmp'><br><font color='green'><strong>Share</strong></font></div></div><div class='respDiv'><div class='respDivL'>Match<br>(e)</div><div class='respDivR'>No Match<br>(i)</div></div></div>","i","TARGET","2","trustrating_stim/white_mw040.bmp,trustrating_stim/white_mw038.bmp","1,0","noMatchFace","i","3000","trustrating_stim/white_mw010.bmp","green","Share","REAL","1"
"html-keyboard-response","139","350320","0.0-7.0-5.20","63ead665638c8546d8c3a962","bdp_wmem","Tue Mar 14 2023 21:43:47 GMT-0400 (Eastern Daylight Time)","594675","Match,No Match","","null","","","","","","<div class='trialBorder'><div class='vertical-center'><img src='img/correct.jpg'></div><div class='respDiv'><div class='respDivL'>Match<br>(e)</div><div class='respDivR'><font style='color:orange'>No Match<br>(i)</font></div></div></div>","null","FEEDBACK","","","","","","","","","","",""
"html-keyboard-response","140","350822","0.0-7.0-1.21","63ead665638c8546d8c3a962","bdp_wmem","Tue Mar 14 2023 21:43:47 GMT-0400 (Eastern Daylight Time)","594675","Match,No Match","","null","","","","","","<div class='trialBorder'><div class='vertical-center'><img src='img/fixation2_sml.jpg'</img></div></div>","null","FIX","","","","","","","","","","",""
"html-keyboard-response","141","352324","0.0-7.0-2.21","63ead665638c8546d8c3a962","bdp_wmem","Tue Mar 14 2023 21:43:47 GMT-0400 (Eastern Daylight Time)","594675","Match,No Match","","null","","","","","","<div class='trialBorder'><div class='vertical-center'><img style='vertical-align:center; align:center' src='img/fixation2_sml.jpg'></div><div class='arrayDiv1'><div class='tc'><img class='introPic' src='trustrating_stim/white_mw085.bmp'><br><font color='red'><strong>Keep</strong></font></div></div></div>","null","ARRAY","1","trustrating_stim/white_mw085.bmp","0","noMatchFace","i","1500","","","","",""
"html-keyboard-response","142","356327","0.0-7.0-3.21","63ead665638c8546d8c3a962","bdp_wmem","Tue Mar 14 2023 21:43:47 GMT-0400 (Eastern Daylight Time)","594675","Match,No Match","","null","","","","","","<div class='trialBorder'><div class='vertical-center'><img src='img/fixation2_sml.jpg'</img></div></div>","null","DELAY","","","","","","","","","","",""
"html-keyboard-response","143","357167","0.0-7.0-4.21","63ead665638c8546d8c3a962","bdp_wmem","Tue Mar 14 2023 21:43:47 GMT-0400 (Eastern Daylight Time)","594675","Match,No Match","","837","","","","","","<div class='trialBorder'><div class='targDiv'><div class='tc'><img class='introPic' src='trustrating_stim/white_mw070.bmp'><br><font color='red'><strong>Keep</strong></font></div></div><div class='respDiv'><div class='respDivL'>Match<br>(e)</div><div class='respDivR'>No Match<br>(i)</div></div></div>","i","TARGET","1","trustrating_stim/white_mw085.bmp","0","noMatchFace","i","1500","trustrating_stim/white_mw070.bmp","red","Keep","REAL","1"
"html-keyboard-response","144","357669","0.0-7.0-5.21","63ead665638c8546d8c3a962","bdp_wmem","Tue Mar 14 2023 21:43:47 GMT-0400 (Eastern Daylight Time)","594675","Match,No Match","","null","","","","","","<div class='trialBorder'><div class='vertical-center'><img src='img/correct.jpg'></div><div class='respDiv'><div class='respDivL'>Match<br>(e)</div><div class='respDivR'><font style='color:orange'>No Match<br>(i)</font></div></div></div>","null","FEEDBACK","","","","","","","","","","",""
"html-keyboard-response","145","358172","0.0-7.0-1.22","63ead665638c8546d8c3a962","bdp_wmem","Tue Mar 14 2023 21:43:47 GMT-0400 (Eastern Daylight Time)","594675","Match,No Match","","null","","","","","","<div class='trialBorder'><div class='vertical-center'><img src='img/fixation2_sml.jpg'</img></div></div>","null","FIX","","","","","","","","","","",""
"html-keyboard-response","146","362675","0.0-7.0-2.22","63ead665638c8546d8c3a962","bdp_wmem","Tue Mar 14 2023 21:43:47 GMT-0400 (Eastern Daylight Time)","594675","Match,No Match","","null","","","","","","<div class='trialBorder'><div class='vertical-center'><img style='vertical-align:center; align:center' src='img/fixation2_sml.jpg'></div><div class='arrayDiv3'><div class='tl'><img class='introPic' src='trustrating_stim/white_mw070.bmp'><br><font color='green'><strong>Share</strong></font></div><div class='tc'><img class='introPic' src='trustrating_stim/white_mw003.bmp'><br><font color='red'><strong>Keep</strong></font></div><div class='tr'><img class='introPic' src='trustrating_stim/white_mw012.bmp'><br><font color='red'><strong>Keep</strong></font></div></div></div>","null","ARRAY","3","trustrating_stim/white_mw070.bmp,trustrating_stim/white_mw003.bmp,trustrating_stim/white_mw012.bmp","1,0,0","noMatchFace","i","4500","","","","",""
"html-keyboard-response","147","366678","0.0-7.0-3.22","63ead665638c8546d8c3a962","bdp_wmem","Tue Mar 14 2023 21:43:47 GMT-0400 (Eastern Daylight Time)","594675","Match,No Match","","null","","","","","","<div class='trialBorder'><div class='vertical-center'><img src='img/fixation2_sml.jpg'</img></div></div>","null","DELAY","","","","","","","","","","",""
"html-keyboard-response","148","367690","0.0-7.0-4.22","63ead665638c8546d8c3a962","bdp_wmem","Tue Mar 14 2023 21:43:47 GMT-0400 (Eastern Daylight Time)","594675","Match,No Match","","1009","","","","","","<div class='trialBorder'><div class='targDiv'><div class='tc'><img class='introPic' src='trustrating_stim/white_mw085.bmp'><br><font color='green'><strong>Share</strong></font></div></div><div class='respDiv'><div class='respDivL'>Match<br>(e)</div><div class='respDivR'>No Match<br>(i)</div></div></div>","i","TARGET","3","trustrating_stim/white_mw070.bmp,trustrating_stim/white_mw003.bmp,trustrating_stim/white_mw012.bmp","1,0,0","noMatchFace","i","4500","trustrating_stim/white_mw085.bmp","green","Share","REAL","1"
"html-keyboard-response","149","368191","0.0-7.0-5.22","63ead665638c8546d8c3a962","bdp_wmem","Tue Mar 14 2023 21:43:47 GMT-0400 (Eastern Daylight Time)","594675","Match,No Match","","null","","","","","","<div class='trialBorder'><div class='vertical-center'><img src='img/correct.jpg'></div><div class='respDiv'><div class='respDivL'>Match<br>(e)</div><div class='respDivR'><font style='color:orange'>No Match<br>(i)</font></div></div></div>","null","FEEDBACK","","","","","","","","","","",""
"html-keyboard-response","150","368694","0.0-7.0-1.23","63ead665638c8546d8c3a962","bdp_wmem","Tue Mar 14 2023 21:43:47 GMT-0400 (Eastern Daylight Time)","594675","Match,No Match","","null","","","","","","<div class='trialBorder'><div class='vertical-center'><img src='img/fixation2_sml.jpg'</img></div></div>","null","FIX","","","","","","","","","","",""
"html-keyboard-response","151","371697","0.0-7.0-2.23","63ead665638c8546d8c3a962","bdp_wmem","Tue Mar 14 2023 21:43:47 GMT-0400 (Eastern Daylight Time)","594675","Match,No Match","","null","","","","","","<div class='trialBorder'><div class='vertical-center'><img style='vertical-align:center; align:center' src='img/fixation2_sml.jpg'></div><div class='arrayDiv2'><div class='tl'><img class='introPic' src='trustrating_stim/white_mw010.bmp'><br><font color='green'><strong>Share</strong></font></div><div class='tr'><img class='introPic' src='trustrating_stim/white_mw013.bmp'><br><font color='red'><strong>Keep</strong></font></div></div></div>","null","ARRAY","2","trustrating_stim/white_mw010.bmp,trustrating_stim/white_mw013.bmp","1,0","noMatchOutcome","i","3000","","","","",""
"html-keyboard-response","152","375699","0.0-7.0-3.23","63ead665638c8546d8c3a962","bdp_wmem","Tue Mar 14 2023 21:43:47 GMT-0400 (Eastern Daylight Time)","594675","Match,No Match","","null","","","","","","<div class='trialBorder'><div class='vertical-center'><img src='img/fixation2_sml.jpg'</img></div></div>","null","DELAY","","","","","","","","","","",""
"html-keyboard-response","153","376556","0.0-7.0-4.23","63ead665638c8546d8c3a962","bdp_wmem","Tue Mar 14 2023 21:43:47 GMT-0400 (Eastern Daylight Time)","594675","Match,No Match","","854","","","","","","<div class='trialBorder'><div class='targDiv'><div class='tc'><img class='introPic' src='trustrating_stim/white_mw013.bmp'><br><font color='green'><strong>Share</strong></font></div></div><div class='respDiv'><div class='respDivL'>Match<br>(e)</div><div class='respDivR'>No Match<br>(i)</div></div></div>","i","TARGET","2","trustrating_stim/white_mw010.bmp,trustrating_stim/white_mw013.bmp","1,0","noMatchOutcome","i","3000","trustrating_stim/white_mw013.bmp","green","Share","REAL","1"
"html-keyboard-response","154","377058","0.0-7.0-5.23","63ead665638c8546d8c3a962","bdp_wmem","Tue Mar 14 2023 21:43:47 GMT-0400 (Eastern Daylight Time)","594675","Match,No Match","","null","","","","","","<div class='trialBorder'><div class='vertical-center'><img src='img/correct.jpg'></div><div class='respDiv'><div class='respDivL'>Match<br>(e)</div><div class='respDivR'><font style='color:orange'>No Match<br>(i)</font></div></div></div>","null","FEEDBACK","","","","","","","","","","",""
"html-keyboard-response","155","377559","0.0-7.0-1.24","63ead665638c8546d8c3a962","bdp_wmem","Tue Mar 14 2023 21:43:47 GMT-0400 (Eastern Daylight Time)","594675","Match,No Match","","null","","","","","","<div class='trialBorder'><div class='vertical-center'><img src='img/fixation2_sml.jpg'</img></div></div>","null","FIX","","","","","","","","","","",""
"html-keyboard-response","156","382062","0.0-7.0-2.24","63ead665638c8546d8c3a962","bdp_wmem","Tue Mar 14 2023 21:43:47 GMT-0400 (Eastern Daylight Time)","594675","Match,No Match","","null","","","","","","<div class='trialBorder'><div class='vertical-center'><img style='vertical-align:center; align:center' src='img/fixation2_sml.jpg'></div><div class='arrayDiv3'><div class='tl'><img class='introPic' src='trustrating_stim/white_mw038.bmp'><br><font color='green'><strong>Share</strong></font></div><div class='tc'><img class='introPic' src='trustrating_stim/white_mw091.bmp'><br><font color='red'><strong>Keep</strong></font></div><div class='tr'><img class='introPic' src='trustrating_stim/white_mw070.bmp'><br><font color='red'><strong>Keep</strong></font></div></div></div>","null","ARRAY","3","trustrating_stim/white_mw038.bmp,trustrating_stim/white_mw091.bmp,trustrating_stim/white_mw070.bmp","1,0,0","noMatchOutcome","i","4500","","","","",""
"html-keyboard-response","157","386064","0.0-7.0-3.24","63ead665638c8546d8c3a962","bdp_wmem","Tue Mar 14 2023 21:43:47 GMT-0400 (Eastern Daylight Time)","594675","Match,No Match","","null","","","","","","<div class='trialBorder'><div class='vertical-center'><img src='img/fixation2_sml.jpg'</img></div></div>","null","DELAY","","","","","","","","","","",""
"html-keyboard-response","158","387479","0.0-7.0-4.24","63ead665638c8546d8c3a962","bdp_wmem","Tue Mar 14 2023 21:43:47 GMT-0400 (Eastern Daylight Time)","594675","Match,No Match","","1413","","","","","","<div class='trialBorder'><div class='targDiv'><div class='tc'><img class='introPic' src='trustrating_stim/white_mw091.bmp'><br><font color='green'><strong>Share</strong></font></div></div><div class='respDiv'><div class='respDivL'>Match<br>(e)</div><div class='respDivR'>No Match<br>(i)</div></div></div>","i","TARGET","3","trustrating_stim/white_mw038.bmp,trustrating_stim/white_mw091.bmp,trustrating_stim/white_mw070.bmp","1,0,0","noMatchOutcome","i","4500","trustrating_stim/white_mw091.bmp","green","Share","REAL","1"
"html-keyboard-response","159","387981","0.0-7.0-5.24","63ead665638c8546d8c3a962","bdp_wmem","Tue Mar 14 2023 21:43:47 GMT-0400 (Eastern Daylight Time)","594675","Match,No Match","","null","","","","","","<div class='trialBorder'><div class='vertical-center'><img src='img/correct.jpg'></div><div class='respDiv'><div class='respDivL'>Match<br>(e)</div><div class='respDivR'><font style='color:orange'>No Match<br>(i)</font></div></div></div>","null","FEEDBACK","","","","","","","","","","",""
"html-keyboard-response","160","388484","0.0-7.0-1.25","63ead665638c8546d8c3a962","bdp_wmem","Tue Mar 14 2023 21:43:47 GMT-0400 (Eastern Daylight Time)","594675","Match,No Match","","null","","","","","","<div class='trialBorder'><div class='vertical-center'><img src='img/fixation2_sml.jpg'</img></div></div>","null","FIX","","","","","","","","","","",""
"html-keyboard-response","161","389986","0.0-7.0-2.25","63ead665638c8546d8c3a962","bdp_wmem","Tue Mar 14 2023 21:43:47 GMT-0400 (Eastern Daylight Time)","594675","Match,No Match","","null","","","","","","<div class='trialBorder'><div class='vertical-center'><img style='vertical-align:center; align:center' src='img/fixation2_sml.jpg'></div><div class='arrayDiv1'><div class='tc'><img class='introPic' src='trustrating_stim/white_mw040.bmp'><br><font color='red'><strong>Keep</strong></font></div></div></div>","null","ARRAY","1","trustrating_stim/white_mw040.bmp","0","Match","e","1500","","","","",""
"html-keyboard-response","162","393988","0.0-7.0-3.25","63ead665638c8546d8c3a962","bdp_wmem","Tue Mar 14 2023 21:43:47 GMT-0400 (Eastern Daylight Time)","594675","Match,No Match","","null","","","","","","<div class='trialBorder'><div class='vertical-center'><img src='img/fixation2_sml.jpg'</img></div></div>","null","DELAY","","","","","","","","","","",""
"html-keyboard-response","163","395318","0.0-7.0-4.25","63ead665638c8546d8c3a962","bdp_wmem","Tue Mar 14 2023 21:43:47 GMT-0400 (Eastern Daylight Time)","594675","Match,No Match","","1328","","","","","","<div class='trialBorder'><div class='targDiv'><div class='tc'><img class='introPic' src='trustrating_stim/white_mw040.bmp'><br><font color='red'><strong>Keep</strong></font></div></div><div class='respDiv'><div class='respDivL'>Match<br>(e)</div><div class='respDivR'>No Match<br>(i)</div></div></div>","e","TARGET","1","trustrating_stim/white_mw040.bmp","0","Match","e","1500","trustrating_stim/white_mw040.bmp","red","Keep","REAL","1"
"html-keyboard-response","164","395820","0.0-7.0-5.25","63ead665638c8546d8c3a962","bdp_wmem","Tue Mar 14 2023 21:43:47 GMT-0400 (Eastern Daylight Time)","594675","Match,No Match","","null","","","","","","<div class='trialBorder'><div class='vertical-center'><img src='img/correct.jpg'></div><div class='respDiv'><div class='respDivL'><font style='color:orange'>Match<br>(e)</font></div><div class='respDivR'>No Match<br>(i)</div></div></div>","null","FEEDBACK","","","","","","","","","","",""
"html-keyboard-response","165","396323","0.0-7.0-1.26","63ead665638c8546d8c3a962","bdp_wmem","Tue Mar 14 2023 21:43:47 GMT-0400 (Eastern Daylight Time)","594675","Match,No Match","","null","","","","","","<div class='trialBorder'><div class='vertical-center'><img src='img/fixation2_sml.jpg'</img></div></div>","null","FIX","","","","","","","","","","",""
"html-keyboard-response","166","399327","0.0-7.0-2.26","63ead665638c8546d8c3a962","bdp_wmem","Tue Mar 14 2023 21:43:47 GMT-0400 (Eastern Daylight Time)","594675","Match,No Match","","null","","","","","","<div class='trialBorder'><div class='vertical-center'><img style='vertical-align:center; align:center' src='img/fixation2_sml.jpg'></div><div class='arrayDiv2'><div class='tl'><img class='introPic' src='trustrating_stim/white_mw003.bmp'><br><font color='red'><strong>Keep</strong></font></div><div class='tr'><img class='introPic' src='trustrating_stim/white_mw092.bmp'><br><font color='green'><strong>Share</strong></font></div></div></div>","null","ARRAY","2","trustrating_stim/white_mw003.bmp,trustrating_stim/white_mw092.bmp","0,1","Match","e","3000","","","","",""
"html-keyboard-response","167","403329","0.0-7.0-3.26","63ead665638c8546d8c3a962","bdp_wmem","Tue Mar 14 2023 21:43:47 GMT-0400 (Eastern Daylight Time)","594675","Match,No Match","","null","","","","","","<div class='trialBorder'><div class='vertical-center'><img src='img/fixation2_sml.jpg'</img></div></div>","null","DELAY","","","","","","","","","","",""
"html-keyboard-response","168","404177","0.0-7.0-4.26","63ead665638c8546d8c3a962","bdp_wmem","Tue Mar 14 2023 21:43:47 GMT-0400 (Eastern Daylight Time)","594675","Match,No Match","","845","","","","","","<div class='trialBorder'><div class='targDiv'><div class='tc'><img class='introPic' src='trustrating_stim/white_mw092.bmp'><br><font color='green'><strong>Share</strong></font></div></div><div class='respDiv'><div class='respDivL'>Match<br>(e)</div><div class='respDivR'>No Match<br>(i)</div></div></div>","i","TARGET","2","trustrating_stim/white_mw003.bmp,trustrating_stim/white_mw092.bmp","0,1","Match","e","3000","trustrating_stim/white_mw092.bmp","green","Share","REAL","0"
"html-keyboard-response","169","404679","0.0-7.0-5.26","63ead665638c8546d8c3a962","bdp_wmem","Tue Mar 14 2023 21:43:47 GMT-0400 (Eastern Daylight Time)","594675","Match,No Match","","null","","","","","","<div class='trialBorder'><div class='vertical-center'><img src='img/error.jpg'></div><div class='respDiv'><div class='respDivL'>Match<br>(e)</div><div class='respDivR'><font style='color:orange'>No Match<br>(i)</font></div></div></div>","null","FEEDBACK","","","","","","","","","","",""
"html-keyboard-response","170","405182","0.0-7.0-1.27","63ead665638c8546d8c3a962","bdp_wmem","Tue Mar 14 2023 21:43:47 GMT-0400 (Eastern Daylight Time)","594675","Match,No Match","","null","","","","","","<div class='trialBorder'><div class='vertical-center'><img src='img/fixation2_sml.jpg'</img></div></div>","null","FIX","","","","","","","","","","",""
"html-keyboard-response","171","409685","0.0-7.0-2.27","63ead665638c8546d8c3a962","bdp_wmem","Tue Mar 14 2023 21:43:47 GMT-0400 (Eastern Daylight Time)","594675","Match,No Match","","null","","","","","","<div class='trialBorder'><div class='vertical-center'><img style='vertical-align:center; align:center' src='img/fixation2_sml.jpg'></div><div class='arrayDiv3'><div class='tl'><img class='introPic' src='trustrating_stim/white_mw003.bmp'><br><font color='red'><strong>Keep</strong></font></div><div class='tc'><img class='introPic' src='trustrating_stim/white_mw078.bmp'><br><font color='green'><strong>Share</strong></font></div><div class='tr'><img class='introPic' src='trustrating_stim/white_mw013.bmp'><br><font color='red'><strong>Keep</strong></font></div></div></div>","null","ARRAY","3","trustrating_stim/white_mw003.bmp,trustrating_stim/white_mw078.bmp,trustrating_stim/white_mw013.bmp","0,1,0","noMatchFace","i","4500","","","","",""
"html-keyboard-response","172","413687","0.0-7.0-3.27","63ead665638c8546d8c3a962","bdp_wmem","Tue Mar 14 2023 21:43:47 GMT-0400 (Eastern Daylight Time)","594675","Match,No Match","","null","","","","","","<div class='trialBorder'><div class='vertical-center'><img src='img/fixation2_sml.jpg'</img></div></div>","null","DELAY","","","","","","","","","","",""
"html-keyboard-response","173","414702","0.0-7.0-4.27","63ead665638c8546d8c3a962","bdp_wmem","Tue Mar 14 2023 21:43:47 GMT-0400 (Eastern Daylight Time)","594675","Match,No Match","","1012","","","","","","<div class='trialBorder'><div class='targDiv'><div class='tc'><img class='introPic' src='trustrating_stim/white_mw042.bmp'><br><font color='green'><strong>Share</strong></font></div></div><div class='respDiv'><div class='respDivL'>Match<br>(e)</div><div class='respDivR'>No Match<br>(i)</div></div></div>","i","TARGET","3","trustrating_stim/white_mw003.bmp,trustrating_stim/white_mw078.bmp,trustrating_stim/white_mw013.bmp","0,1,0","noMatchFace","i","4500","trustrating_stim/white_mw042.bmp","green","Share","REAL","1"
"html-keyboard-response","174","415204","0.0-7.0-5.27","63ead665638c8546d8c3a962","bdp_wmem","Tue Mar 14 2023 21:43:47 GMT-0400 (Eastern Daylight Time)","594675","Match,No Match","","null","","","","","","<div class='trialBorder'><div class='vertical-center'><img src='img/correct.jpg'></div><div class='respDiv'><div class='respDivL'>Match<br>(e)</div><div class='respDivR'><font style='color:orange'>No Match<br>(i)</font></div></div></div>","null","FEEDBACK","","","","","","","","","","",""
"html-keyboard-response","175","415706","0.0-7.0-1.28","63ead665638c8546d8c3a962","bdp_wmem","Tue Mar 14 2023 21:43:47 GMT-0400 (Eastern Daylight Time)","594675","Match,No Match","","null","","","","","","<div class='trialBorder'><div class='vertical-center'><img src='img/fixation2_sml.jpg'</img></div></div>","null","FIX","","","","","","","","","","",""
"html-keyboard-response","176","420209","0.0-7.0-2.28","63ead665638c8546d8c3a962","bdp_wmem","Tue Mar 14 2023 21:43:47 GMT-0400 (Eastern Daylight Time)","594675","Match,No Match","","null","","","","","","<div class='trialBorder'><div class='vertical-center'><img style='vertical-align:center; align:center' src='img/fixation2_sml.jpg'></div><div class='arrayDiv3'><div class='tl'><img class='introPic' src='trustrating_stim/white_mw012.bmp'><br><font color='green'><strong>Share</strong></font></div><div class='tc'><img class='introPic' src='trustrating_stim/white_mw091.bmp'><br><font color='red'><strong>Keep</strong></font></div><div class='tr'><img class='introPic' src='trustrating_stim/white_mw010.bmp'><br><font color='green'><strong>Share</strong></font></div></div></div>","null","ARRAY","3","trustrating_stim/white_mw012.bmp,trustrating_stim/white_mw091.bmp,trustrating_stim/white_mw010.bmp","1,0,1","noMatchOutcome","i","4500","","","","",""
"html-keyboard-response","177","424211","0.0-7.0-3.28","63ead665638c8546d8c3a962","bdp_wmem","Tue Mar 14 2023 21:43:47 GMT-0400 (Eastern Daylight Time)","594675","Match,No Match","","null","","","","","","<div class='trialBorder'><div class='vertical-center'><img src='img/fixation2_sml.jpg'</img></div></div>","null","DELAY","","","","","","","","","","",""
"html-keyboard-response","178","425399","0.0-7.0-4.28","63ead665638c8546d8c3a962","bdp_wmem","Tue Mar 14 2023 21:43:47 GMT-0400 (Eastern Daylight Time)","594675","Match,No Match","","1186","","","","","","<div class='trialBorder'><div class='targDiv'><div class='tc'><img class='introPic' src='trustrating_stim/white_mw091.bmp'><br><font color='green'><strong>Share</strong></font></div></div><div class='respDiv'><div class='respDivL'>Match<br>(e)</div><div class='respDivR'>No Match<br>(i)</div></div></div>","i","TARGET","3","trustrating_stim/white_mw012.bmp,trustrating_stim/white_mw091.bmp,trustrating_stim/white_mw010.bmp","1,0,1","noMatchOutcome","i","4500","trustrating_stim/white_mw091.bmp","green","Share","REAL","1"
"html-keyboard-response","179","425901","0.0-7.0-5.28","63ead665638c8546d8c3a962","bdp_wmem","Tue Mar 14 2023 21:43:47 GMT-0400 (Eastern Daylight Time)","594675","Match,No Match","","null","","","","","","<div class='trialBorder'><div class='vertical-center'><img src='img/correct.jpg'></div><div class='respDiv'><div class='respDivL'>Match<br>(e)</div><div class='respDivR'><font style='color:orange'>No Match<br>(i)</font></div></div></div>","null","FEEDBACK","","","","","","","","","","",""
"html-keyboard-response","180","426404","0.0-7.0-1.29","63ead665638c8546d8c3a962","bdp_wmem","Tue Mar 14 2023 21:43:47 GMT-0400 (Eastern Daylight Time)","594675","Match,No Match","","null","","","","","","<div class='trialBorder'><div class='vertical-center'><img src='img/fixation2_sml.jpg'</img></div></div>","null","FIX","","","","","","","","","","",""
"html-keyboard-response","181","430908","0.0-7.0-2.29","63ead665638c8546d8c3a962","bdp_wmem","Tue Mar 14 2023 21:43:47 GMT-0400 (Eastern Daylight Time)","594675","Match,No Match","","null","","","","","","<div class='trialBorder'><div class='vertical-center'><img style='vertical-align:center; align:center' src='img/fixation2_sml.jpg'></div><div class='arrayDiv3'><div class='tl'><img class='introPic' src='trustrating_stim/white_mw040.bmp'><br><font color='green'><strong>Share</strong></font></div><div class='tc'><img class='introPic' src='trustrating_stim/white_mw091.bmp'><br><font color='red'><strong>Keep</strong></font></div><div class='tr'><img class='introPic' src='trustrating_stim/white_mw078.bmp'><br><font color='red'><strong>Keep</strong></font></div></div></div>","null","ARRAY","3","trustrating_stim/white_mw040.bmp,trustrating_stim/white_mw091.bmp,trustrating_stim/white_mw078.bmp","1,0,0","Match","e","4500","","","","",""
"html-keyboard-response","182","434910","0.0-7.0-3.29","63ead665638c8546d8c3a962","bdp_wmem","Tue Mar 14 2023 21:43:47 GMT-0400 (Eastern Daylight Time)","594675","Match,No Match","","null","","","","","","<div class='trialBorder'><div class='vertical-center'><img src='img/fixation2_sml.jpg'</img></div></div>","null","DELAY","","","","","","","","","","",""
"html-keyboard-response","183","435983","0.0-7.0-4.29","63ead665638c8546d8c3a962","bdp_wmem","Tue Mar 14 2023 21:43:47 GMT-0400 (Eastern Daylight Time)","594675","Match,No Match","","1069","","","","","","<div class='trialBorder'><div class='targDiv'><div class='tc'><img class='introPic' src='trustrating_stim/white_mw078.bmp'><br><font color='red'><strong>Keep</strong></font></div></div><div class='respDiv'><div class='respDivL'>Match<br>(e)</div><div class='respDivR'>No Match<br>(i)</div></div></div>","i","TARGET","3","trustrating_stim/white_mw040.bmp,trustrating_stim/white_mw091.bmp,trustrating_stim/white_mw078.bmp","1,0,0","Match","e","4500","trustrating_stim/white_mw078.bmp","red","Keep","REAL","0"
"html-keyboard-response","184","436486","0.0-7.0-5.29","63ead665638c8546d8c3a962","bdp_wmem","Tue Mar 14 2023 21:43:47 GMT-0400 (Eastern Daylight Time)","594675","Match,No Match","","null","","","","","","<div class='trialBorder'><div class='vertical-center'><img src='img/error.jpg'></div><div class='respDiv'><div class='respDivL'>Match<br>(e)</div><div class='respDivR'><font style='color:orange'>No Match<br>(i)</font></div></div></div>","null","FEEDBACK","","","","","","","","","","",""
"html-keyboard-response","185","436987","0.0-7.0-1.30","63ead665638c8546d8c3a962","bdp_wmem","Tue Mar 14 2023 21:43:47 GMT-0400 (Eastern Daylight Time)","594675","Match,No Match","","null","","","","","","<div class='trialBorder'><div class='vertical-center'><img src='img/fixation2_sml.jpg'</img></div></div>","null","FIX","","","","","","","","","","",""
"html-keyboard-response","186","438489","0.0-7.0-2.30","63ead665638c8546d8c3a962","bdp_wmem","Tue Mar 14 2023 21:43:47 GMT-0400 (Eastern Daylight Time)","594675","Match,No Match","","null","","","","","","<div class='trialBorder'><div class='vertical-center'><img style='vertical-align:center; align:center' src='img/fixation2_sml.jpg'></div><div class='arrayDiv1'><div class='tc'><img class='introPic' src='trustrating_stim/white_mw085.bmp'><br><font color='green'><strong>Share</strong></font></div></div></div>","null","ARRAY","1","trustrating_stim/white_mw085.bmp","1","noMatchOutcome","i","1500","","","","",""
"html-keyboard-response","187","442491","0.0-7.0-3.30","63ead665638c8546d8c3a962","bdp_wmem","Tue Mar 14 2023 21:43:47 GMT-0400 (Eastern Daylight Time)","594675","Match,No Match","","null","","","","","","<div class='trialBorder'><div class='vertical-center'><img src='img/fixation2_sml.jpg'</img></div></div>","null","DELAY","","","","","","","","","","",""
