"event","trial","time","trialtype","subject_id","task","startTime","totalTime","labels","trial_type","trial_index","time_elapsed","internal_node_id","numBlurs","view_history","rt","success","stimulus","key_press","stimType","arraySize","arrayFaces","arrayOutcomes","matchType","corrResp","arrayDur","targFace","targCol","targOutcome","trialType","corr"
"focus","0","0","focusevent","5bb94dea3ea7ed00017cb109","bdp_wmem","Mon Mar 13 2023 00:18:46 GMT-0400 (Eastern Daylight Time)","1032411","Match,No Match","","","","","","","","","","","","","","","","","","","","","",""
"","","","","5bb94dea3ea7ed00017cb109","bdp_wmem","Mon Mar 13 2023 00:18:46 GMT-0400 (Eastern Daylight Time)","1032411","Match,No Match","pavlovia","0","2","0.0-0.0","","","","","","","","","","","","","","","","","",""
"blur","1","249055","blurevent","5bb94dea3ea7ed00017cb109","bdp_wmem","Mon Mar 13 2023 00:18:46 GMT-0400 (Eastern Daylight Time)","1032411","Match,No Match","","","","","1","","","","","","","","","","","","","","","","",""
"focus","1","345770","focusevent","5bb94dea3ea7ed00017cb109","bdp_wmem","Mon Mar 13 2023 00:18:46 GMT-0400 (Eastern Daylight Time)","1032411","Match,No Match","","","","","","","","","","","","","","","","","","","","","",""
"","","","","5bb94dea3ea7ed00017cb109","bdp_wmem","Mon Mar 13 2023 00:18:46 GMT-0400 (Eastern Daylight Time)","1032411","Match,No Match","instructions","1","347215","0.0-1.0","","[{""page_index"":0,""viewing_time"":347213}]","347213","","","","","","","","","","","","","","",""
"fullscreenexit","2","349021","fullscreenexit","5bb94dea3ea7ed00017cb109","bdp_wmem","Mon Mar 13 2023 00:18:46 GMT-0400 (Eastern Daylight Time)","1032411","Match,No Match","","","","","","","","","","","","","","","","","","","","","",""
"","","","","5bb94dea3ea7ed00017cb109","bdp_wmem","Mon Mar 13 2023 00:18:46 GMT-0400 (Eastern Daylight Time)","1032411","Match,No Match","fullscreen","2","349829","0.0-2.0","","","","true","","","","","","","","","","","","","",""
"","","","fullscreenfail","5bb94dea3ea7ed00017cb109","bdp_wmem","Mon Mar 13 2023 00:18:46 GMT-0400 (Eastern Daylight Time)","1032411","Match,No Match","image-keyboard-response","3","350285","0.0-3.0-0.0","","","456","","","32","","","","","","","","","","","",""
"","","","","5bb94dea3ea7ed00017cb109","bdp_wmem","Mon Mar 13 2023 00:18:46 GMT-0400 (Eastern Daylight Time)","1032411","Match,No Match","instructions","4","518790","0.0-4.0","","[{""page_index"":0,""viewing_time"":31217},{""page_index"":1,""viewing_time"":60075},{""page_index"":2,""viewing_time"":11773},{""page_index"":3,""viewing_time"":8224},{""page_index"":4,""viewing_time"":56962}]","168251","","","","","","","","","","","","","","",""
"","","","","5bb94dea3ea7ed00017cb109","bdp_wmem","Mon Mar 13 2023 00:18:46 GMT-0400 (Eastern Daylight Time)","1032411","Match,No Match","html-keyboard-response","5","519304","0.0-5.0-1.0","","","null","","<div class='trialBorder'><div class='vertical-center'><img src='img/fixation2_sml.jpg'</img></div></div>","null","FIX","","","","","","","","","","",""
"","","","","5bb94dea3ea7ed00017cb109","bdp_wmem","Mon Mar 13 2023 00:18:46 GMT-0400 (Eastern Daylight Time)","1032411","Match,No Match","html-keyboard-response","6","522310","0.0-5.0-2.0","","","null","","<div class='trialBorder'><div class='vertical-center'><img style='vertical-align:center; align:center' src='img/fixation2_sml.jpg'></div><div class='arrayDiv2'><div class='tl'><img class='introPic' src='trustrating_stim/white_mw070.bmp'><br><font color='red'><strong>Keep</strong></font></div><div class='tr'><img class='introPic' src='trustrating_stim/white_mw010.bmp'><br><font color='green'><strong>Share</strong></font></div></div></div>","null","ARRAY","2","trustrating_stim/white_mw070.bmp,trustrating_stim/white_mw010.bmp","0,1","Match","e","3000","","","","",""
"","","","","5bb94dea3ea7ed00017cb109","bdp_wmem","Mon Mar 13 2023 00:18:46 GMT-0400 (Eastern Daylight Time)","1032411","Match,No Match","html-keyboard-response","7","526317","0.0-5.0-3.0","","","null","","<div class='trialBorder'><div class='vertical-center'><img src='img/fixation2_sml.jpg'</img></div></div>","null","DELAY","","","","","","","","","","",""
"","","","","5bb94dea3ea7ed00017cb109","bdp_wmem","Mon Mar 13 2023 00:18:46 GMT-0400 (Eastern Daylight Time)","1032411","Match,No Match","html-keyboard-response","8","527968","0.0-5.0-4.0","","","1650","","<div class='trialBorder'><div class='targDiv'><div class='tc'><img class='introPic' src='trustrating_stim/white_mw010.bmp'><br><font color='green'><strong>Share</strong></font></div></div><div class='respDiv'><div class='respDivL'>Match<br>(e)</div><div class='respDivR'>No Match<br>(i)</div></div></div>","e","TARGET","2","trustrating_stim/white_mw070.bmp,trustrating_stim/white_mw010.bmp","0,1","Match","e","3000","trustrating_stim/white_mw010.bmp","green","Share","PRACTICE","1"
"","","","","5bb94dea3ea7ed00017cb109","bdp_wmem","Mon Mar 13 2023 00:18:46 GMT-0400 (Eastern Daylight Time)","1032411","Match,No Match","html-keyboard-response","9","528478","0.0-5.0-5.0","","","null","","<div class='trialBorder'><div class='vertical-center'><img src='img/correct.jpg'></div><div class='respDiv'><div class='respDivL'><font style='color:orange'>Match<br>(e)</font></div><div class='respDivR'>No Match<br>(i)</div></div></div>","null","FEEDBACK","","","","","","","","","","",""
"","","","","5bb94dea3ea7ed00017cb109","bdp_wmem","Mon Mar 13 2023 00:18:46 GMT-0400 (Eastern Daylight Time)","1032411","Match,No Match","html-keyboard-response","10","528986","0.0-5.0-1.1","","","null","","<div class='trialBorder'><div class='vertical-center'><img src='img/fixation2_sml.jpg'</img></div></div>","null","FIX","","","","","","","","","","",""
"","","","","5bb94dea3ea7ed00017cb109","bdp_wmem","Mon Mar 13 2023 00:18:46 GMT-0400 (Eastern Daylight Time)","1032411","Match,No Match","html-keyboard-response","11","530494","0.0-5.0-2.1","","","null","","<div class='trialBorder'><div class='vertical-center'><img style='vertical-align:center; align:center' src='img/fixation2_sml.jpg'></div><div class='arrayDiv1'><div class='tc'><img class='introPic' src='trustrating_stim/white_mw038.bmp'><br><font color='green'><strong>Share</strong></font></div></div></div>","null","ARRAY","1","trustrating_stim/white_mw038.bmp","1","noMatchFace","i","1500","","","","",""
"","","","","5bb94dea3ea7ed00017cb109","bdp_wmem","Mon Mar 13 2023 00:18:46 GMT-0400 (Eastern Daylight Time)","1032411","Match,No Match","html-keyboard-response","12","534499","0.0-5.0-3.1","","","null","","<div class='trialBorder'><div class='vertical-center'><img src='img/fixation2_sml.jpg'</img></div></div>","null","DELAY","","","","","","","","","","",""
"","","","","5bb94dea3ea7ed00017cb109","bdp_wmem","Mon Mar 13 2023 00:18:46 GMT-0400 (Eastern Daylight Time)","1032411","Match,No Match","html-keyboard-response","13","535244","0.0-5.0-4.1","","","745","","<div class='trialBorder'><div class='targDiv'><div class='tc'><img class='introPic' src='trustrating_stim/white_mw040.bmp'><br><font color='green'><strong>Share</strong></font></div></div><div class='respDiv'><div class='respDivL'>Match<br>(e)</div><div class='respDivR'>No Match<br>(i)</div></div></div>","i","TARGET","1","trustrating_stim/white_mw038.bmp","1","noMatchFace","i","1500","trustrating_stim/white_mw040.bmp","green","Share","PRACTICE","1"
"","","","","5bb94dea3ea7ed00017cb109","bdp_wmem","Mon Mar 13 2023 00:18:46 GMT-0400 (Eastern Daylight Time)","1032411","Match,No Match","html-keyboard-response","14","535747","0.0-5.0-5.1","","","null","","<div class='trialBorder'><div class='vertical-center'><img src='img/correct.jpg'></div><div class='respDiv'><div class='respDivL'>Match<br>(e)</div><div class='respDivR'><font style='color:orange'>No Match<br>(i)</font></div></div></div>","null","FEEDBACK","","","","","","","","","","",""
"","","","","5bb94dea3ea7ed00017cb109","bdp_wmem","Mon Mar 13 2023 00:18:46 GMT-0400 (Eastern Daylight Time)","1032411","Match,No Match","html-keyboard-response","15","536254","0.0-5.0-1.2","","","null","","<div class='trialBorder'><div class='vertical-center'><img src='img/fixation2_sml.jpg'</img></div></div>","null","FIX","","","","","","","","","","",""
"","","","","5bb94dea3ea7ed00017cb109","bdp_wmem","Mon Mar 13 2023 00:18:46 GMT-0400 (Eastern Daylight Time)","1032411","Match,No Match","html-keyboard-response","16","539261","0.0-5.0-2.2","","","null","","<div class='trialBorder'><div class='vertical-center'><img style='vertical-align:center; align:center' src='img/fixation2_sml.jpg'></div><div class='arrayDiv2'><div class='tl'><img class='introPic' src='trustrating_stim/white_mw010.bmp'><br><font color='red'><strong>Keep</strong></font></div><div class='tr'><img class='introPic' src='trustrating_stim/white_mw040.bmp'><br><font color='green'><strong>Share</strong></font></div></div></div>","null","ARRAY","2","trustrating_stim/white_mw010.bmp,trustrating_stim/white_mw040.bmp","0,1","noMatchFace","i","3000","","","","",""
"","","","","5bb94dea3ea7ed00017cb109","bdp_wmem","Mon Mar 13 2023 00:18:46 GMT-0400 (Eastern Daylight Time)","1032411","Match,No Match","html-keyboard-response","17","543265","0.0-5.0-3.2","","","null","","<div class='trialBorder'><div class='vertical-center'><img src='img/fixation2_sml.jpg'</img></div></div>","null","DELAY","","","","","","","","","","",""
"","","","","5bb94dea3ea7ed00017cb109","bdp_wmem","Mon Mar 13 2023 00:18:46 GMT-0400 (Eastern Daylight Time)","1032411","Match,No Match","html-keyboard-response","18","544134","0.0-5.0-4.2","","","868","","<div class='trialBorder'><div class='targDiv'><div class='tc'><img class='introPic' src='trustrating_stim/white_mw013.bmp'><br><font color='red'><strong>Keep</strong></font></div></div><div class='respDiv'><div class='respDivL'>Match<br>(e)</div><div class='respDivR'>No Match<br>(i)</div></div></div>","i","TARGET","2","trustrating_stim/white_mw010.bmp,trustrating_stim/white_mw040.bmp","0,1","noMatchFace","i","3000","trustrating_stim/white_mw013.bmp","red","Keep","PRACTICE","1"
"","","","","5bb94dea3ea7ed00017cb109","bdp_wmem","Mon Mar 13 2023 00:18:46 GMT-0400 (Eastern Daylight Time)","1032411","Match,No Match","html-keyboard-response","19","544636","0.0-5.0-5.2","","","null","","<div class='trialBorder'><div class='vertical-center'><img src='img/correct.jpg'></div><div class='respDiv'><div class='respDivL'>Match<br>(e)</div><div class='respDivR'><font style='color:orange'>No Match<br>(i)</font></div></div></div>","null","FEEDBACK","","","","","","","","","","",""
"","","","","5bb94dea3ea7ed00017cb109","bdp_wmem","Mon Mar 13 2023 00:18:46 GMT-0400 (Eastern Daylight Time)","1032411","Match,No Match","html-keyboard-response","20","545144","0.0-5.0-1.3","","","null","","<div class='trialBorder'><div class='vertical-center'><img src='img/fixation2_sml.jpg'</img></div></div>","null","FIX","","","","","","","","","","",""
"","","","","5bb94dea3ea7ed00017cb109","bdp_wmem","Mon Mar 13 2023 00:18:46 GMT-0400 (Eastern Daylight Time)","1032411","Match,No Match","html-keyboard-response","21","549647","0.0-5.0-2.3","","","null","","<div class='trialBorder'><div class='vertical-center'><img style='vertical-align:center; align:center' src='img/fixation2_sml.jpg'></div><div class='arrayDiv3'><div class='tl'><img class='introPic' src='trustrating_stim/white_mw070.bmp'><br><font color='red'><strong>Keep</strong></font></div><div class='tc'><img class='introPic' src='trustrating_stim/white_mw013.bmp'><br><font color='green'><strong>Share</strong></font></div><div class='tr'><img class='introPic' src='trustrating_stim/white_mw092.bmp'><br><font color='red'><strong>Keep</strong></font></div></div></div>","null","ARRAY","3","trustrating_stim/white_mw070.bmp,trustrating_stim/white_mw013.bmp,trustrating_stim/white_mw092.bmp","0,1,0","noMatchOutcome","i","4500","","","","",""
"","","","","5bb94dea3ea7ed00017cb109","bdp_wmem","Mon Mar 13 2023 00:18:46 GMT-0400 (Eastern Daylight Time)","1032411","Match,No Match","html-keyboard-response","22","553658","0.0-5.0-3.3","","","null","","<div class='trialBorder'><div class='vertical-center'><img src='img/fixation2_sml.jpg'</img></div></div>","null","DELAY","","","","","","","","","","",""
"","","","","5bb94dea3ea7ed00017cb109","bdp_wmem","Mon Mar 13 2023 00:18:46 GMT-0400 (Eastern Daylight Time)","1032411","Match,No Match","html-keyboard-response","23","554539","0.0-5.0-4.3","","","880","","<div class='trialBorder'><div class='targDiv'><div class='tc'><img class='introPic' src='trustrating_stim/white_mw092.bmp'><br><font color='green'><strong>Share</strong></font></div></div><div class='respDiv'><div class='respDivL'>Match<br>(e)</div><div class='respDivR'>No Match<br>(i)</div></div></div>","i","TARGET","3","trustrating_stim/white_mw070.bmp,trustrating_stim/white_mw013.bmp,trustrating_stim/white_mw092.bmp","0,1,0","noMatchOutcome","i","4500","trustrating_stim/white_mw092.bmp","green","Share","PRACTICE","1"
"","","","","5bb94dea3ea7ed00017cb109","bdp_wmem","Mon Mar 13 2023 00:18:46 GMT-0400 (Eastern Daylight Time)","1032411","Match,No Match","html-keyboard-response","24","555046","0.0-5.0-5.3","","","null","","<div class='trialBorder'><div class='vertical-center'><img src='img/correct.jpg'></div><div class='respDiv'><div class='respDivL'>Match<br>(e)</div><div class='respDivR'><font style='color:orange'>No Match<br>(i)</font></div></div></div>","null","FEEDBACK","","","","","","","","","","",""
"","","","","5bb94dea3ea7ed00017cb109","bdp_wmem","Mon Mar 13 2023 00:18:46 GMT-0400 (Eastern Daylight Time)","1032411","Match,No Match","html-keyboard-response","25","555557","0.0-5.0-1.4","","","null","","<div class='trialBorder'><div class='vertical-center'><img src='img/fixation2_sml.jpg'</img></div></div>","null","FIX","","","","","","","","","","",""
"","","","","5bb94dea3ea7ed00017cb109","bdp_wmem","Mon Mar 13 2023 00:18:46 GMT-0400 (Eastern Daylight Time)","1032411","Match,No Match","html-keyboard-response","26","557065","0.0-5.0-2.4","","","null","","<div class='trialBorder'><div class='vertical-center'><img style='vertical-align:center; align:center' src='img/fixation2_sml.jpg'></div><div class='arrayDiv1'><div class='tc'><img class='introPic' src='trustrating_stim/white_mw091.bmp'><br><font color='red'><strong>Keep</strong></font></div></div></div>","null","ARRAY","1","trustrating_stim/white_mw091.bmp","0","Match","e","1500","","","","",""
"","","","","5bb94dea3ea7ed00017cb109","bdp_wmem","Mon Mar 13 2023 00:18:46 GMT-0400 (Eastern Daylight Time)","1032411","Match,No Match","html-keyboard-response","27","561074","0.0-5.0-3.4","","","null","","<div class='trialBorder'><div class='vertical-center'><img src='img/fixation2_sml.jpg'</img></div></div>","null","DELAY","","","","","","","","","","",""
"","","","","5bb94dea3ea7ed00017cb109","bdp_wmem","Mon Mar 13 2023 00:18:46 GMT-0400 (Eastern Daylight Time)","1032411","Match,No Match","html-keyboard-response","28","561778","0.0-5.0-4.4","","","704","","<div class='trialBorder'><div class='targDiv'><div class='tc'><img class='introPic' src='trustrating_stim/white_mw091.bmp'><br><font color='red'><strong>Keep</strong></font></div></div><div class='respDiv'><div class='respDivL'>Match<br>(e)</div><div class='respDivR'>No Match<br>(i)</div></div></div>","e","TARGET","1","trustrating_stim/white_mw091.bmp","0","Match","e","1500","trustrating_stim/white_mw091.bmp","red","Keep","PRACTICE","1"
"","","","","5bb94dea3ea7ed00017cb109","bdp_wmem","Mon Mar 13 2023 00:18:46 GMT-0400 (Eastern Daylight Time)","1032411","Match,No Match","html-keyboard-response","29","562290","0.0-5.0-5.4","","","null","","<div class='trialBorder'><div class='vertical-center'><img src='img/correct.jpg'></div><div class='respDiv'><div class='respDivL'><font style='color:orange'>Match<br>(e)</font></div><div class='respDivR'>No Match<br>(i)</div></div></div>","null","FEEDBACK","","","","","","","","","","",""
"","","","","5bb94dea3ea7ed00017cb109","bdp_wmem","Mon Mar 13 2023 00:18:46 GMT-0400 (Eastern Daylight Time)","1032411","Match,No Match","html-keyboard-response","30","562798","0.0-5.0-1.5","","","null","","<div class='trialBorder'><div class='vertical-center'><img src='img/fixation2_sml.jpg'</img></div></div>","null","FIX","","","","","","","","","","",""
"","","","","5bb94dea3ea7ed00017cb109","bdp_wmem","Mon Mar 13 2023 00:18:46 GMT-0400 (Eastern Daylight Time)","1032411","Match,No Match","html-keyboard-response","31","567302","0.0-5.0-2.5","","","null","","<div class='trialBorder'><div class='vertical-center'><img style='vertical-align:center; align:center' src='img/fixation2_sml.jpg'></div><div class='arrayDiv3'><div class='tl'><img class='introPic' src='trustrating_stim/white_mw038.bmp'><br><font color='green'><strong>Share</strong></font></div><div class='tc'><img class='introPic' src='trustrating_stim/white_mw091.bmp'><br><font color='red'><strong>Keep</strong></font></div><div class='tr'><img class='introPic' src='trustrating_stim/white_mw010.bmp'><br><font color='green'><strong>Share</strong></font></div></div></div>","null","ARRAY","3","trustrating_stim/white_mw038.bmp,trustrating_stim/white_mw091.bmp,trustrating_stim/white_mw010.bmp","1,0,1","Match","e","4500","","","","",""
"","","","","5bb94dea3ea7ed00017cb109","bdp_wmem","Mon Mar 13 2023 00:18:46 GMT-0400 (Eastern Daylight Time)","1032411","Match,No Match","html-keyboard-response","32","571310","0.0-5.0-3.5","","","null","","<div class='trialBorder'><div class='vertical-center'><img src='img/fixation2_sml.jpg'</img></div></div>","null","DELAY","","","","","","","","","","",""
"","","","","5bb94dea3ea7ed00017cb109","bdp_wmem","Mon Mar 13 2023 00:18:46 GMT-0400 (Eastern Daylight Time)","1032411","Match,No Match","html-keyboard-response","33","572287","0.0-5.0-4.5","","","976","","<div class='trialBorder'><div class='targDiv'><div class='tc'><img class='introPic' src='trustrating_stim/white_mw038.bmp'><br><font color='green'><strong>Share</strong></font></div></div><div class='respDiv'><div class='respDivL'>Match<br>(e)</div><div class='respDivR'>No Match<br>(i)</div></div></div>","e","TARGET","3","trustrating_stim/white_mw038.bmp,trustrating_stim/white_mw091.bmp,trustrating_stim/white_mw010.bmp","1,0,1","Match","e","4500","trustrating_stim/white_mw038.bmp","green","Share","PRACTICE","1"
"","","","","5bb94dea3ea7ed00017cb109","bdp_wmem","Mon Mar 13 2023 00:18:46 GMT-0400 (Eastern Daylight Time)","1032411","Match,No Match","html-keyboard-response","34","572789","0.0-5.0-5.5","","","null","","<div class='trialBorder'><div class='vertical-center'><img src='img/correct.jpg'></div><div class='respDiv'><div class='respDivL'><font style='color:orange'>Match<br>(e)</font></div><div class='respDivR'>No Match<br>(i)</div></div></div>","null","FEEDBACK","","","","","","","","","","",""
"","","","","5bb94dea3ea7ed00017cb109","bdp_wmem","Mon Mar 13 2023 00:18:46 GMT-0400 (Eastern Daylight Time)","1032411","Match,No Match","instructions","35","598722","0.0-6.0","","[{""page_index"":0,""viewing_time"":25933}]","25933","","","","","","","","","","","","","","",""
"","","","","5bb94dea3ea7ed00017cb109","bdp_wmem","Mon Mar 13 2023 00:18:46 GMT-0400 (Eastern Daylight Time)","1032411","Match,No Match","html-keyboard-response","36","599236","0.0-7.0-1.0","","","null","","<div class='trialBorder'><div class='vertical-center'><img src='img/fixation2_sml.jpg'</img></div></div>","null","FIX","","","","","","","","","","",""
"","","","","5bb94dea3ea7ed00017cb109","bdp_wmem","Mon Mar 13 2023 00:18:46 GMT-0400 (Eastern Daylight Time)","1032411","Match,No Match","html-keyboard-response","37","602241","0.0-7.0-2.0","","","null","","<div class='trialBorder'><div class='vertical-center'><img style='vertical-align:center; align:center' src='img/fixation2_sml.jpg'></div><div class='arrayDiv2'><div class='tl'><img class='introPic' src='trustrating_stim/white_mw042.bmp'><br><font color='green'><strong>Share</strong></font></div><div class='tr'><img class='introPic' src='trustrating_stim/white_mw010.bmp'><br><font color='red'><strong>Keep</strong></font></div></div></div>","null","ARRAY","2","trustrating_stim/white_mw042.bmp,trustrating_stim/white_mw010.bmp","1,0","noMatchFace","i","3000","","","","",""
"","","","","5bb94dea3ea7ed00017cb109","bdp_wmem","Mon Mar 13 2023 00:18:46 GMT-0400 (Eastern Daylight Time)","1032411","Match,No Match","html-keyboard-response","38","606248","0.0-7.0-3.0","","","null","","<div class='trialBorder'><div class='vertical-center'><img src='img/fixation2_sml.jpg'</img></div></div>","null","DELAY","","","","","","","","","","",""
"","","","","5bb94dea3ea7ed00017cb109","bdp_wmem","Mon Mar 13 2023 00:18:46 GMT-0400 (Eastern Daylight Time)","1032411","Match,No Match","html-keyboard-response","39","607109","0.0-7.0-4.0","","","860","","<div class='trialBorder'><div class='targDiv'><div class='tc'><img class='introPic' src='trustrating_stim/white_mw038.bmp'><br><font color='red'><strong>Keep</strong></font></div></div><div class='respDiv'><div class='respDivL'>Match<br>(e)</div><div class='respDivR'>No Match<br>(i)</div></div></div>","i","TARGET","2","trustrating_stim/white_mw042.bmp,trustrating_stim/white_mw010.bmp","1,0","noMatchFace","i","3000","trustrating_stim/white_mw038.bmp","red","Keep","REAL","1"
"","","","","5bb94dea3ea7ed00017cb109","bdp_wmem","Mon Mar 13 2023 00:18:46 GMT-0400 (Eastern Daylight Time)","1032411","Match,No Match","html-keyboard-response","40","607621","0.0-7.0-5.0","","","null","","<div class='trialBorder'><div class='vertical-center'><img src='img/correct.jpg'></div><div class='respDiv'><div class='respDivL'>Match<br>(e)</div><div class='respDivR'><font style='color:orange'>No Match<br>(i)</font></div></div></div>","null","FEEDBACK","","","","","","","","","","",""
"","","","","5bb94dea3ea7ed00017cb109","bdp_wmem","Mon Mar 13 2023 00:18:46 GMT-0400 (Eastern Daylight Time)","1032411","Match,No Match","html-keyboard-response","41","608131","0.0-7.0-1.1","","","null","","<div class='trialBorder'><div class='vertical-center'><img src='img/fixation2_sml.jpg'</img></div></div>","null","FIX","","","","","","","","","","",""
"","","","","5bb94dea3ea7ed00017cb109","bdp_wmem","Mon Mar 13 2023 00:18:46 GMT-0400 (Eastern Daylight Time)","1032411","Match,No Match","html-keyboard-response","42","609641","0.0-7.0-2.1","","","null","","<div class='trialBorder'><div class='vertical-center'><img style='vertical-align:center; align:center' src='img/fixation2_sml.jpg'></div><div class='arrayDiv1'><div class='tc'><img class='introPic' src='trustrating_stim/white_mw003.bmp'><br><font color='red'><strong>Keep</strong></font></div></div></div>","null","ARRAY","1","trustrating_stim/white_mw003.bmp","0","Match","e","1500","","","","",""
"","","","","5bb94dea3ea7ed00017cb109","bdp_wmem","Mon Mar 13 2023 00:18:46 GMT-0400 (Eastern Daylight Time)","1032411","Match,No Match","html-keyboard-response","43","613651","0.0-7.0-3.1","","","null","","<div class='trialBorder'><div class='vertical-center'><img src='img/fixation2_sml.jpg'</img></div></div>","null","DELAY","","","","","","","","","","",""
"","","","","5bb94dea3ea7ed00017cb109","bdp_wmem","Mon Mar 13 2023 00:18:46 GMT-0400 (Eastern Daylight Time)","1032411","Match,No Match","html-keyboard-response","44","614295","0.0-7.0-4.1","","","644","","<div class='trialBorder'><div class='targDiv'><div class='tc'><img class='introPic' src='trustrating_stim/white_mw003.bmp'><br><font color='red'><strong>Keep</strong></font></div></div><div class='respDiv'><div class='respDivL'>Match<br>(e)</div><div class='respDivR'>No Match<br>(i)</div></div></div>","e","TARGET","1","trustrating_stim/white_mw003.bmp","0","Match","e","1500","trustrating_stim/white_mw003.bmp","red","Keep","REAL","1"
"","","","","5bb94dea3ea7ed00017cb109","bdp_wmem","Mon Mar 13 2023 00:18:46 GMT-0400 (Eastern Daylight Time)","1032411","Match,No Match","html-keyboard-response","45","614806","0.0-7.0-5.1","","","null","","<div class='trialBorder'><div class='vertical-center'><img src='img/correct.jpg'></div><div class='respDiv'><div class='respDivL'><font style='color:orange'>Match<br>(e)</font></div><div class='respDivR'>No Match<br>(i)</div></div></div>","null","FEEDBACK","","","","","","","","","","",""
"","","","","5bb94dea3ea7ed00017cb109","bdp_wmem","Mon Mar 13 2023 00:18:46 GMT-0400 (Eastern Daylight Time)","1032411","Match,No Match","html-keyboard-response","46","615317","0.0-7.0-1.2","","","null","","<div class='trialBorder'><div class='vertical-center'><img src='img/fixation2_sml.jpg'</img></div></div>","null","FIX","","","","","","","","","","",""
"","","","","5bb94dea3ea7ed00017cb109","bdp_wmem","Mon Mar 13 2023 00:18:46 GMT-0400 (Eastern Daylight Time)","1032411","Match,No Match","html-keyboard-response","47","616828","0.0-7.0-2.2","","","null","","<div class='trialBorder'><div class='vertical-center'><img style='vertical-align:center; align:center' src='img/fixation2_sml.jpg'></div><div class='arrayDiv1'><div class='tc'><img class='introPic' src='trustrating_stim/white_mw091.bmp'><br><font color='green'><strong>Share</strong></font></div></div></div>","null","ARRAY","1","trustrating_stim/white_mw091.bmp","1","noMatchFace","i","1500","","","","",""
"","","","","5bb94dea3ea7ed00017cb109","bdp_wmem","Mon Mar 13 2023 00:18:46 GMT-0400 (Eastern Daylight Time)","1032411","Match,No Match","html-keyboard-response","48","620835","0.0-7.0-3.2","","","null","","<div class='trialBorder'><div class='vertical-center'><img src='img/fixation2_sml.jpg'</img></div></div>","null","DELAY","","","","","","","","","","",""
"","","","","5bb94dea3ea7ed00017cb109","bdp_wmem","Mon Mar 13 2023 00:18:46 GMT-0400 (Eastern Daylight Time)","1032411","Match,No Match","html-keyboard-response","49","621400","0.0-7.0-4.2","","","565","","<div class='trialBorder'><div class='targDiv'><div class='tc'><img class='introPic' src='trustrating_stim/white_mw070.bmp'><br><font color='green'><strong>Share</strong></font></div></div><div class='respDiv'><div class='respDivL'>Match<br>(e)</div><div class='respDivR'>No Match<br>(i)</div></div></div>","i","TARGET","1","trustrating_stim/white_mw091.bmp","1","noMatchFace","i","1500","trustrating_stim/white_mw070.bmp","green","Share","REAL","1"
"","","","","5bb94dea3ea7ed00017cb109","bdp_wmem","Mon Mar 13 2023 00:18:46 GMT-0400 (Eastern Daylight Time)","1032411","Match,No Match","html-keyboard-response","50","621916","0.0-7.0-5.2","","","null","","<div class='trialBorder'><div class='vertical-center'><img src='img/correct.jpg'></div><div class='respDiv'><div class='respDivL'>Match<br>(e)</div><div class='respDivR'><font style='color:orange'>No Match<br>(i)</font></div></div></div>","null","FEEDBACK","","","","","","","","","","",""
"","","","","5bb94dea3ea7ed00017cb109","bdp_wmem","Mon Mar 13 2023 00:18:46 GMT-0400 (Eastern Daylight Time)","1032411","Match,No Match","html-keyboard-response","51","622423","0.0-7.0-1.3","","","null","","<div class='trialBorder'><div class='vertical-center'><img src='img/fixation2_sml.jpg'</img></div></div>","null","FIX","","","","","","","","","","",""
"","","","","5bb94dea3ea7ed00017cb109","bdp_wmem","Mon Mar 13 2023 00:18:46 GMT-0400 (Eastern Daylight Time)","1032411","Match,No Match","html-keyboard-response","52","626933","0.0-7.0-2.3","","","null","","<div class='trialBorder'><div class='vertical-center'><img style='vertical-align:center; align:center' src='img/fixation2_sml.jpg'></div><div class='arrayDiv3'><div class='tl'><img class='introPic' src='trustrating_stim/white_mw040.bmp'><br><font color='green'><strong>Share</strong></font></div><div class='tc'><img class='introPic' src='trustrating_stim/white_mw012.bmp'><br><font color='green'><strong>Share</strong></font></div><div class='tr'><img class='introPic' src='trustrating_stim/white_mw078.bmp'><br><font color='red'><strong>Keep</strong></font></div></div></div>","null","ARRAY","3","trustrating_stim/white_mw040.bmp,trustrating_stim/white_mw012.bmp,trustrating_stim/white_mw078.bmp","1,1,0","Match","e","4500","","","","",""
"","","","","5bb94dea3ea7ed00017cb109","bdp_wmem","Mon Mar 13 2023 00:18:46 GMT-0400 (Eastern Daylight Time)","1032411","Match,No Match","html-keyboard-response","53","630944","0.0-7.0-3.3","","","null","","<div class='trialBorder'><div class='vertical-center'><img src='img/fixation2_sml.jpg'</img></div></div>","null","DELAY","","","","","","","","","","",""
"","","","","5bb94dea3ea7ed00017cb109","bdp_wmem","Mon Mar 13 2023 00:18:46 GMT-0400 (Eastern Daylight Time)","1032411","Match,No Match","html-keyboard-response","54","631878","0.0-7.0-4.3","","","933","","<div class='trialBorder'><div class='targDiv'><div class='tc'><img class='introPic' src='trustrating_stim/white_mw078.bmp'><br><font color='red'><strong>Keep</strong></font></div></div><div class='respDiv'><div class='respDivL'>Match<br>(e)</div><div class='respDivR'>No Match<br>(i)</div></div></div>","e","TARGET","3","trustrating_stim/white_mw040.bmp,trustrating_stim/white_mw012.bmp,trustrating_stim/white_mw078.bmp","1,1,0","Match","e","4500","trustrating_stim/white_mw078.bmp","red","Keep","REAL","1"
"","","","","5bb94dea3ea7ed00017cb109","bdp_wmem","Mon Mar 13 2023 00:18:46 GMT-0400 (Eastern Daylight Time)","1032411","Match,No Match","html-keyboard-response","55","632379","0.0-7.0-5.3","","","null","","<div class='trialBorder'><div class='vertical-center'><img src='img/correct.jpg'></div><div class='respDiv'><div class='respDivL'><font style='color:orange'>Match<br>(e)</font></div><div class='respDivR'>No Match<br>(i)</div></div></div>","null","FEEDBACK","","","","","","","","","","",""
"","","","","5bb94dea3ea7ed00017cb109","bdp_wmem","Mon Mar 13 2023 00:18:46 GMT-0400 (Eastern Daylight Time)","1032411","Match,No Match","html-keyboard-response","56","632889","0.0-7.0-1.4","","","null","","<div class='trialBorder'><div class='vertical-center'><img src='img/fixation2_sml.jpg'</img></div></div>","null","FIX","","","","","","","","","","",""
"","","","","5bb94dea3ea7ed00017cb109","bdp_wmem","Mon Mar 13 2023 00:18:46 GMT-0400 (Eastern Daylight Time)","1032411","Match,No Match","html-keyboard-response","57","637391","0.0-7.0-2.4","","","null","","<div class='trialBorder'><div class='vertical-center'><img style='vertical-align:center; align:center' src='img/fixation2_sml.jpg'></div><div class='arrayDiv3'><div class='tl'><img class='introPic' src='trustrating_stim/white_mw085.bmp'><br><font color='green'><strong>Share</strong></font></div><div class='tc'><img class='introPic' src='trustrating_stim/white_mw078.bmp'><br><font color='red'><strong>Keep</strong></font></div><div class='tr'><img class='introPic' src='trustrating_stim/white_mw070.bmp'><br><font color='red'><strong>Keep</strong></font></div></div></div>","null","ARRAY","3","trustrating_stim/white_mw085.bmp,trustrating_stim/white_mw078.bmp,trustrating_stim/white_mw070.bmp","1,0,0","Match","e","4500","","","","",""
"","","","","5bb94dea3ea7ed00017cb109","bdp_wmem","Mon Mar 13 2023 00:18:46 GMT-0400 (Eastern Daylight Time)","1032411","Match,No Match","html-keyboard-response","58","641398","0.0-7.0-3.4","","","null","","<div class='trialBorder'><div class='vertical-center'><img src='img/fixation2_sml.jpg'</img></div></div>","null","DELAY","","","","","","","","","","",""
"","","","","5bb94dea3ea7ed00017cb109","bdp_wmem","Mon Mar 13 2023 00:18:46 GMT-0400 (Eastern Daylight Time)","1032411","Match,No Match","html-keyboard-response","59","642052","0.0-7.0-4.4","","","654","","<div class='trialBorder'><div class='targDiv'><div class='tc'><img class='introPic' src='trustrating_stim/white_mw085.bmp'><br><font color='green'><strong>Share</strong></font></div></div><div class='respDiv'><div class='respDivL'>Match<br>(e)</div><div class='respDivR'>No Match<br>(i)</div></div></div>","e","TARGET","3","trustrating_stim/white_mw085.bmp,trustrating_stim/white_mw078.bmp,trustrating_stim/white_mw070.bmp","1,0,0","Match","e","4500","trustrating_stim/white_mw085.bmp","green","Share","REAL","1"
"","","","","5bb94dea3ea7ed00017cb109","bdp_wmem","Mon Mar 13 2023 00:18:46 GMT-0400 (Eastern Daylight Time)","1032411","Match,No Match","html-keyboard-response","60","642553","0.0-7.0-5.4","","","null","","<div class='trialBorder'><div class='vertical-center'><img src='img/correct.jpg'></div><div class='respDiv'><div class='respDivL'><font style='color:orange'>Match<br>(e)</font></div><div class='respDivR'>No Match<br>(i)</div></div></div>","null","FEEDBACK","","","","","","","","","","",""
"","","","","5bb94dea3ea7ed00017cb109","bdp_wmem","Mon Mar 13 2023 00:18:46 GMT-0400 (Eastern Daylight Time)","1032411","Match,No Match","html-keyboard-response","61","643062","0.0-7.0-1.5","","","null","","<div class='trialBorder'><div class='vertical-center'><img src='img/fixation2_sml.jpg'</img></div></div>","null","FIX","","","","","","","","","","",""
"","","","","5bb94dea3ea7ed00017cb109","bdp_wmem","Mon Mar 13 2023 00:18:46 GMT-0400 (Eastern Daylight Time)","1032411","Match,No Match","html-keyboard-response","62","644573","0.0-7.0-2.5","","","null","","<div class='trialBorder'><div class='vertical-center'><img style='vertical-align:center; align:center' src='img/fixation2_sml.jpg'></div><div class='arrayDiv1'><div class='tc'><img class='introPic' src='trustrating_stim/white_mw091.bmp'><br><font color='green'><strong>Share</strong></font></div></div></div>","null","ARRAY","1","trustrating_stim/white_mw091.bmp","1","noMatchFace","i","1500","","","","",""
"","","","","5bb94dea3ea7ed00017cb109","bdp_wmem","Mon Mar 13 2023 00:18:46 GMT-0400 (Eastern Daylight Time)","1032411","Match,No Match","html-keyboard-response","63","648578","0.0-7.0-3.5","","","null","","<div class='trialBorder'><div class='vertical-center'><img src='img/fixation2_sml.jpg'</img></div></div>","null","DELAY","","","","","","","","","","",""
"","","","","5bb94dea3ea7ed00017cb109","bdp_wmem","Mon Mar 13 2023 00:18:46 GMT-0400 (Eastern Daylight Time)","1032411","Match,No Match","html-keyboard-response","64","649115","0.0-7.0-4.5","","","536","","<div class='trialBorder'><div class='targDiv'><div class='tc'><img class='introPic' src='trustrating_stim/white_mw078.bmp'><br><font color='green'><strong>Share</strong></font></div></div><div class='respDiv'><div class='respDivL'>Match<br>(e)</div><div class='respDivR'>No Match<br>(i)</div></div></div>","i","TARGET","1","trustrating_stim/white_mw091.bmp","1","noMatchFace","i","1500","trustrating_stim/white_mw078.bmp","green","Share","REAL","1"
"","","","","5bb94dea3ea7ed00017cb109","bdp_wmem","Mon Mar 13 2023 00:18:46 GMT-0400 (Eastern Daylight Time)","1032411","Match,No Match","html-keyboard-response","65","649627","0.0-7.0-5.5","","","null","","<div class='trialBorder'><div class='vertical-center'><img src='img/correct.jpg'></div><div class='respDiv'><div class='respDivL'>Match<br>(e)</div><div class='respDivR'><font style='color:orange'>No Match<br>(i)</font></div></div></div>","null","FEEDBACK","","","","","","","","","","",""
"","","","","5bb94dea3ea7ed00017cb109","bdp_wmem","Mon Mar 13 2023 00:18:46 GMT-0400 (Eastern Daylight Time)","1032411","Match,No Match","html-keyboard-response","66","650134","0.0-7.0-1.6","","","null","","<div class='trialBorder'><div class='vertical-center'><img src='img/fixation2_sml.jpg'</img></div></div>","null","FIX","","","","","","","","","","",""
"","","","","5bb94dea3ea7ed00017cb109","bdp_wmem","Mon Mar 13 2023 00:18:46 GMT-0400 (Eastern Daylight Time)","1032411","Match,No Match","html-keyboard-response","67","651646","0.0-7.0-2.6","","","null","","<div class='trialBorder'><div class='vertical-center'><img style='vertical-align:center; align:center' src='img/fixation2_sml.jpg'></div><div class='arrayDiv1'><div class='tc'><img class='introPic' src='trustrating_stim/white_mw040.bmp'><br><font color='green'><strong>Share</strong></font></div></div></div>","null","ARRAY","1","trustrating_stim/white_mw040.bmp","1","Match","e","1500","","","","",""
"","","","","5bb94dea3ea7ed00017cb109","bdp_wmem","Mon Mar 13 2023 00:18:46 GMT-0400 (Eastern Daylight Time)","1032411","Match,No Match","html-keyboard-response","68","655653","0.0-7.0-3.6","","","null","","<div class='trialBorder'><div class='vertical-center'><img src='img/fixation2_sml.jpg'</img></div></div>","null","DELAY","","","","","","","","","","",""
"","","","","5bb94dea3ea7ed00017cb109","bdp_wmem","Mon Mar 13 2023 00:18:46 GMT-0400 (Eastern Daylight Time)","1032411","Match,No Match","html-keyboard-response","69","656162","0.0-7.0-4.6","","","509","","<div class='trialBorder'><div class='targDiv'><div class='tc'><img class='introPic' src='trustrating_stim/white_mw040.bmp'><br><font color='green'><strong>Share</strong></font></div></div><div class='respDiv'><div class='respDivL'>Match<br>(e)</div><div class='respDivR'>No Match<br>(i)</div></div></div>","e","TARGET","1","trustrating_stim/white_mw040.bmp","1","Match","e","1500","trustrating_stim/white_mw040.bmp","green","Share","REAL","1"
"","","","","5bb94dea3ea7ed00017cb109","bdp_wmem","Mon Mar 13 2023 00:18:46 GMT-0400 (Eastern Daylight Time)","1032411","Match,No Match","html-keyboard-response","70","656671","0.0-7.0-5.6","","","null","","<div class='trialBorder'><div class='vertical-center'><img src='img/correct.jpg'></div><div class='respDiv'><div class='respDivL'><font style='color:orange'>Match<br>(e)</font></div><div class='respDivR'>No Match<br>(i)</div></div></div>","null","FEEDBACK","","","","","","","","","","",""
"","","","","5bb94dea3ea7ed00017cb109","bdp_wmem","Mon Mar 13 2023 00:18:46 GMT-0400 (Eastern Daylight Time)","1032411","Match,No Match","html-keyboard-response","71","657182","0.0-7.0-1.7","","","null","","<div class='trialBorder'><div class='vertical-center'><img src='img/fixation2_sml.jpg'</img></div></div>","null","FIX","","","","","","","","","","",""
"","","","","5bb94dea3ea7ed00017cb109","bdp_wmem","Mon Mar 13 2023 00:18:46 GMT-0400 (Eastern Daylight Time)","1032411","Match,No Match","html-keyboard-response","72","658691","0.0-7.0-2.7","","","null","","<div class='trialBorder'><div class='vertical-center'><img style='vertical-align:center; align:center' src='img/fixation2_sml.jpg'></div><div class='arrayDiv1'><div class='tc'><img class='introPic' src='trustrating_stim/white_mw042.bmp'><br><font color='red'><strong>Keep</strong></font></div></div></div>","null","ARRAY","1","trustrating_stim/white_mw042.bmp","0","noMatchOutcome","i","1500","","","","",""
"","","","","5bb94dea3ea7ed00017cb109","bdp_wmem","Mon Mar 13 2023 00:18:46 GMT-0400 (Eastern Daylight Time)","1032411","Match,No Match","html-keyboard-response","73","662697","0.0-7.0-3.7","","","null","","<div class='trialBorder'><div class='vertical-center'><img src='img/fixation2_sml.jpg'</img></div></div>","null","DELAY","","","","","","","","","","",""
"","","","","5bb94dea3ea7ed00017cb109","bdp_wmem","Mon Mar 13 2023 00:18:46 GMT-0400 (Eastern Daylight Time)","1032411","Match,No Match","html-keyboard-response","74","663376","0.0-7.0-4.7","","","679","","<div class='trialBorder'><div class='targDiv'><div class='tc'><img class='introPic' src='trustrating_stim/white_mw042.bmp'><br><font color='green'><strong>Share</strong></font></div></div><div class='respDiv'><div class='respDivL'>Match<br>(e)</div><div class='respDivR'>No Match<br>(i)</div></div></div>","e","TARGET","1","trustrating_stim/white_mw042.bmp","0","noMatchOutcome","i","1500","trustrating_stim/white_mw042.bmp","green","Share","REAL","0"
"","","","","5bb94dea3ea7ed00017cb109","bdp_wmem","Mon Mar 13 2023 00:18:46 GMT-0400 (Eastern Daylight Time)","1032411","Match,No Match","html-keyboard-response","75","663882","0.0-7.0-5.7","","","null","","<div class='trialBorder'><div class='vertical-center'><img src='img/error.jpg'></div><div class='respDiv'><div class='respDivL'><font style='color:orange'>Match<br>(e)</font></div><div class='respDivR'>No Match<br>(i)</div></div></div>","null","FEEDBACK","","","","","","","","","","",""
"","","","","5bb94dea3ea7ed00017cb109","bdp_wmem","Mon Mar 13 2023 00:18:46 GMT-0400 (Eastern Daylight Time)","1032411","Match,No Match","html-keyboard-response","76","664391","0.0-7.0-1.8","","","null","","<div class='trialBorder'><div class='vertical-center'><img src='img/fixation2_sml.jpg'</img></div></div>","null","FIX","","","","","","","","","","",""
"","","","","5bb94dea3ea7ed00017cb109","bdp_wmem","Mon Mar 13 2023 00:18:46 GMT-0400 (Eastern Daylight Time)","1032411","Match,No Match","html-keyboard-response","77","667399","0.0-7.0-2.8","","","null","","<div class='trialBorder'><div class='vertical-center'><img style='vertical-align:center; align:center' src='img/fixation2_sml.jpg'></div><div class='arrayDiv2'><div class='tl'><img class='introPic' src='trustrating_stim/white_mw091.bmp'><br><font color='red'><strong>Keep</strong></font></div><div class='tr'><img class='introPic' src='trustrating_stim/white_mw013.bmp'><br><font color='green'><strong>Share</strong></font></div></div></div>","null","ARRAY","2","trustrating_stim/white_mw091.bmp,trustrating_stim/white_mw013.bmp","0,1","Match","e","3000","","","","",""
"","","","","5bb94dea3ea7ed00017cb109","bdp_wmem","Mon Mar 13 2023 00:18:46 GMT-0400 (Eastern Daylight Time)","1032411","Match,No Match","html-keyboard-response","78","671402","0.0-7.0-3.8","","","null","","<div class='trialBorder'><div class='vertical-center'><img src='img/fixation2_sml.jpg'</img></div></div>","null","DELAY","","","","","","","","","","",""
"","","","","5bb94dea3ea7ed00017cb109","bdp_wmem","Mon Mar 13 2023 00:18:46 GMT-0400 (Eastern Daylight Time)","1032411","Match,No Match","html-keyboard-response","79","672028","0.0-7.0-4.8","","","626","","<div class='trialBorder'><div class='targDiv'><div class='tc'><img class='introPic' src='trustrating_stim/white_mw091.bmp'><br><font color='red'><strong>Keep</strong></font></div></div><div class='respDiv'><div class='respDivL'>Match<br>(e)</div><div class='respDivR'>No Match<br>(i)</div></div></div>","e","TARGET","2","trustrating_stim/white_mw091.bmp,trustrating_stim/white_mw013.bmp","0,1","Match","e","3000","trustrating_stim/white_mw091.bmp","red","Keep","REAL","1"
"","","","","5bb94dea3ea7ed00017cb109","bdp_wmem","Mon Mar 13 2023 00:18:46 GMT-0400 (Eastern Daylight Time)","1032411","Match,No Match","html-keyboard-response","80","672529","0.0-7.0-5.8","","","null","","<div class='trialBorder'><div class='vertical-center'><img src='img/correct.jpg'></div><div class='respDiv'><div class='respDivL'><font style='color:orange'>Match<br>(e)</font></div><div class='respDivR'>No Match<br>(i)</div></div></div>","null","FEEDBACK","","","","","","","","","","",""
"","","","","5bb94dea3ea7ed00017cb109","bdp_wmem","Mon Mar 13 2023 00:18:46 GMT-0400 (Eastern Daylight Time)","1032411","Match,No Match","html-keyboard-response","81","673035","0.0-7.0-1.9","","","null","","<div class='trialBorder'><div class='vertical-center'><img src='img/fixation2_sml.jpg'</img></div></div>","null","FIX","","","","","","","","","","",""
"","","","","5bb94dea3ea7ed00017cb109","bdp_wmem","Mon Mar 13 2023 00:18:46 GMT-0400 (Eastern Daylight Time)","1032411","Match,No Match","html-keyboard-response","82","677544","0.0-7.0-2.9","","","null","","<div class='trialBorder'><div class='vertical-center'><img style='vertical-align:center; align:center' src='img/fixation2_sml.jpg'></div><div class='arrayDiv3'><div class='tl'><img class='introPic' src='trustrating_stim/white_mw013.bmp'><br><font color='green'><strong>Share</strong></font></div><div class='tc'><img class='introPic' src='trustrating_stim/white_mw040.bmp'><br><font color='red'><strong>Keep</strong></font></div><div class='tr'><img class='introPic' src='trustrating_stim/white_mw003.bmp'><br><font color='green'><strong>Share</strong></font></div></div></div>","null","ARRAY","3","trustrating_stim/white_mw013.bmp,trustrating_stim/white_mw040.bmp,trustrating_stim/white_mw003.bmp","1,0,1","Match","e","4500","","","","",""
"","","","","5bb94dea3ea7ed00017cb109","bdp_wmem","Mon Mar 13 2023 00:18:46 GMT-0400 (Eastern Daylight Time)","1032411","Match,No Match","html-keyboard-response","83","681551","0.0-7.0-3.9","","","null","","<div class='trialBorder'><div class='vertical-center'><img src='img/fixation2_sml.jpg'</img></div></div>","null","DELAY","","","","","","","","","","",""
"","","","","5bb94dea3ea7ed00017cb109","bdp_wmem","Mon Mar 13 2023 00:18:46 GMT-0400 (Eastern Daylight Time)","1032411","Match,No Match","html-keyboard-response","84","682189","0.0-7.0-4.9","","","638","","<div class='trialBorder'><div class='targDiv'><div class='tc'><img class='introPic' src='trustrating_stim/white_mw013.bmp'><br><font color='green'><strong>Share</strong></font></div></div><div class='respDiv'><div class='respDivL'>Match<br>(e)</div><div class='respDivR'>No Match<br>(i)</div></div></div>","e","TARGET","3","trustrating_stim/white_mw013.bmp,trustrating_stim/white_mw040.bmp,trustrating_stim/white_mw003.bmp","1,0,1","Match","e","4500","trustrating_stim/white_mw013.bmp","green","Share","REAL","1"
"","","","","5bb94dea3ea7ed00017cb109","bdp_wmem","Mon Mar 13 2023 00:18:46 GMT-0400 (Eastern Daylight Time)","1032411","Match,No Match","html-keyboard-response","85","682694","0.0-7.0-5.9","","","null","","<div class='trialBorder'><div class='vertical-center'><img src='img/correct.jpg'></div><div class='respDiv'><div class='respDivL'><font style='color:orange'>Match<br>(e)</font></div><div class='respDivR'>No Match<br>(i)</div></div></div>","null","FEEDBACK","","","","","","","","","","",""
"","","","","5bb94dea3ea7ed00017cb109","bdp_wmem","Mon Mar 13 2023 00:18:46 GMT-0400 (Eastern Daylight Time)","1032411","Match,No Match","html-keyboard-response","86","683201","0.0-7.0-1.10","","","null","","<div class='trialBorder'><div class='vertical-center'><img src='img/fixation2_sml.jpg'</img></div></div>","null","FIX","","","","","","","","","","",""
"","","","","5bb94dea3ea7ed00017cb109","bdp_wmem","Mon Mar 13 2023 00:18:46 GMT-0400 (Eastern Daylight Time)","1032411","Match,No Match","html-keyboard-response","87","687714","0.0-7.0-2.10","","","null","","<div class='trialBorder'><div class='vertical-center'><img style='vertical-align:center; align:center' src='img/fixation2_sml.jpg'></div><div class='arrayDiv3'><div class='tl'><img class='introPic' src='trustrating_stim/white_mw078.bmp'><br><font color='red'><strong>Keep</strong></font></div><div class='tc'><img class='introPic' src='trustrating_stim/white_mw012.bmp'><br><font color='green'><strong>Share</strong></font></div><div class='tr'><img class='introPic' src='trustrating_stim/white_mw010.bmp'><br><font color='green'><strong>Share</strong></font></div></div></div>","null","ARRAY","3","trustrating_stim/white_mw078.bmp,trustrating_stim/white_mw012.bmp,trustrating_stim/white_mw010.bmp","0,1,1","Match","e","4500","","","","",""
"","","","","5bb94dea3ea7ed00017cb109","bdp_wmem","Mon Mar 13 2023 00:18:46 GMT-0400 (Eastern Daylight Time)","1032411","Match,No Match","html-keyboard-response","88","691720","0.0-7.0-3.10","","","null","","<div class='trialBorder'><div class='vertical-center'><img src='img/fixation2_sml.jpg'</img></div></div>","null","DELAY","","","","","","","","","","",""
"","","","","5bb94dea3ea7ed00017cb109","bdp_wmem","Mon Mar 13 2023 00:18:46 GMT-0400 (Eastern Daylight Time)","1032411","Match,No Match","html-keyboard-response","89","692918","0.0-7.0-4.10","","","1198","","<div class='trialBorder'><div class='targDiv'><div class='tc'><img class='introPic' src='trustrating_stim/white_mw010.bmp'><br><font color='green'><strong>Share</strong></font></div></div><div class='respDiv'><div class='respDivL'>Match<br>(e)</div><div class='respDivR'>No Match<br>(i)</div></div></div>","e","TARGET","3","trustrating_stim/white_mw078.bmp,trustrating_stim/white_mw012.bmp,trustrating_stim/white_mw010.bmp","0,1,1","Match","e","4500","trustrating_stim/white_mw010.bmp","green","Share","REAL","1"
"","","","","5bb94dea3ea7ed00017cb109","bdp_wmem","Mon Mar 13 2023 00:18:46 GMT-0400 (Eastern Daylight Time)","1032411","Match,No Match","html-keyboard-response","90","693432","0.0-7.0-5.10","","","null","","<div class='trialBorder'><div class='vertical-center'><img src='img/correct.jpg'></div><div class='respDiv'><div class='respDivL'><font style='color:orange'>Match<br>(e)</font></div><div class='respDivR'>No Match<br>(i)</div></div></div>","null","FEEDBACK","","","","","","","","","","",""
"","","","","5bb94dea3ea7ed00017cb109","bdp_wmem","Mon Mar 13 2023 00:18:46 GMT-0400 (Eastern Daylight Time)","1032411","Match,No Match","html-keyboard-response","91","693940","0.0-7.0-1.11","","","null","","<div class='trialBorder'><div class='vertical-center'><img src='img/fixation2_sml.jpg'</img></div></div>","null","FIX","","","","","","","","","","",""
"","","","","5bb94dea3ea7ed00017cb109","bdp_wmem","Mon Mar 13 2023 00:18:46 GMT-0400 (Eastern Daylight Time)","1032411","Match,No Match","html-keyboard-response","92","695452","0.0-7.0-2.11","","","null","","<div class='trialBorder'><div class='vertical-center'><img style='vertical-align:center; align:center' src='img/fixation2_sml.jpg'></div><div class='arrayDiv1'><div class='tc'><img class='introPic' src='trustrating_stim/white_mw013.bmp'><br><font color='green'><strong>Share</strong></font></div></div></div>","null","ARRAY","1","trustrating_stim/white_mw013.bmp","1","noMatchFace","i","1500","","","","",""
"","","","","5bb94dea3ea7ed00017cb109","bdp_wmem","Mon Mar 13 2023 00:18:46 GMT-0400 (Eastern Daylight Time)","1032411","Match,No Match","html-keyboard-response","93","699459","0.0-7.0-3.11","","","null","","<div class='trialBorder'><div class='vertical-center'><img src='img/fixation2_sml.jpg'</img></div></div>","null","DELAY","","","","","","","","","","",""
"","","","","5bb94dea3ea7ed00017cb109","bdp_wmem","Mon Mar 13 2023 00:18:46 GMT-0400 (Eastern Daylight Time)","1032411","Match,No Match","html-keyboard-response","94","700113","0.0-7.0-4.11","","","654","","<div class='trialBorder'><div class='targDiv'><div class='tc'><img class='introPic' src='trustrating_stim/white_mw010.bmp'><br><font color='green'><strong>Share</strong></font></div></div><div class='respDiv'><div class='respDivL'>Match<br>(e)</div><div class='respDivR'>No Match<br>(i)</div></div></div>","i","TARGET","1","trustrating_stim/white_mw013.bmp","1","noMatchFace","i","1500","trustrating_stim/white_mw010.bmp","green","Share","REAL","1"
"","","","","5bb94dea3ea7ed00017cb109","bdp_wmem","Mon Mar 13 2023 00:18:46 GMT-0400 (Eastern Daylight Time)","1032411","Match,No Match","html-keyboard-response","95","700615","0.0-7.0-5.11","","","null","","<div class='trialBorder'><div class='vertical-center'><img src='img/correct.jpg'></div><div class='respDiv'><div class='respDivL'>Match<br>(e)</div><div class='respDivR'><font style='color:orange'>No Match<br>(i)</font></div></div></div>","null","FEEDBACK","","","","","","","","","","",""
"","","","","5bb94dea3ea7ed00017cb109","bdp_wmem","Mon Mar 13 2023 00:18:46 GMT-0400 (Eastern Daylight Time)","1032411","Match,No Match","html-keyboard-response","96","701125","0.0-7.0-1.12","","","null","","<div class='trialBorder'><div class='vertical-center'><img src='img/fixation2_sml.jpg'</img></div></div>","null","FIX","","","","","","","","","","",""
"","","","","5bb94dea3ea7ed00017cb109","bdp_wmem","Mon Mar 13 2023 00:18:46 GMT-0400 (Eastern Daylight Time)","1032411","Match,No Match","html-keyboard-response","97","705629","0.0-7.0-2.12","","","null","","<div class='trialBorder'><div class='vertical-center'><img style='vertical-align:center; align:center' src='img/fixation2_sml.jpg'></div><div class='arrayDiv3'><div class='tl'><img class='introPic' src='trustrating_stim/white_mw003.bmp'><br><font color='green'><strong>Share</strong></font></div><div class='tc'><img class='introPic' src='trustrating_stim/white_mw092.bmp'><br><font color='red'><strong>Keep</strong></font></div><div class='tr'><img class='introPic' src='trustrating_stim/white_mw085.bmp'><br><font color='red'><strong>Keep</strong></font></div></div></div>","null","ARRAY","3","trustrating_stim/white_mw003.bmp,trustrating_stim/white_mw092.bmp,trustrating_stim/white_mw085.bmp","1,0,0","Match","e","4500","","","","",""
"","","","","5bb94dea3ea7ed00017cb109","bdp_wmem","Mon Mar 13 2023 00:18:46 GMT-0400 (Eastern Daylight Time)","1032411","Match,No Match","html-keyboard-response","98","709636","0.0-7.0-3.12","","","null","","<div class='trialBorder'><div class='vertical-center'><img src='img/fixation2_sml.jpg'</img></div></div>","null","DELAY","","","","","","","","","","",""
"","","","","5bb94dea3ea7ed00017cb109","bdp_wmem","Mon Mar 13 2023 00:18:46 GMT-0400 (Eastern Daylight Time)","1032411","Match,No Match","html-keyboard-response","99","710279","0.0-7.0-4.12","","","642","","<div class='trialBorder'><div class='targDiv'><div class='tc'><img class='introPic' src='trustrating_stim/white_mw092.bmp'><br><font color='red'><strong>Keep</strong></font></div></div><div class='respDiv'><div class='respDivL'>Match<br>(e)</div><div class='respDivR'>No Match<br>(i)</div></div></div>","i","TARGET","3","trustrating_stim/white_mw003.bmp,trustrating_stim/white_mw092.bmp,trustrating_stim/white_mw085.bmp","1,0,0","Match","e","4500","trustrating_stim/white_mw092.bmp","red","Keep","REAL","0"
"","","","","5bb94dea3ea7ed00017cb109","bdp_wmem","Mon Mar 13 2023 00:18:46 GMT-0400 (Eastern Daylight Time)","1032411","Match,No Match","html-keyboard-response","100","710794","0.0-7.0-5.12","","","null","","<div class='trialBorder'><div class='vertical-center'><img src='img/error.jpg'></div><div class='respDiv'><div class='respDivL'>Match<br>(e)</div><div class='respDivR'><font style='color:orange'>No Match<br>(i)</font></div></div></div>","null","FEEDBACK","","","","","","","","","","",""
"","","","","5bb94dea3ea7ed00017cb109","bdp_wmem","Mon Mar 13 2023 00:18:46 GMT-0400 (Eastern Daylight Time)","1032411","Match,No Match","html-keyboard-response","101","711303","0.0-7.0-1.13","","","null","","<div class='trialBorder'><div class='vertical-center'><img src='img/fixation2_sml.jpg'</img></div></div>","null","FIX","","","","","","","","","","",""
"","","","","5bb94dea3ea7ed00017cb109","bdp_wmem","Mon Mar 13 2023 00:18:46 GMT-0400 (Eastern Daylight Time)","1032411","Match,No Match","html-keyboard-response","102","714306","0.0-7.0-2.13","","","null","","<div class='trialBorder'><div class='vertical-center'><img style='vertical-align:center; align:center' src='img/fixation2_sml.jpg'></div><div class='arrayDiv2'><div class='tl'><img class='introPic' src='trustrating_stim/white_mw092.bmp'><br><font color='red'><strong>Keep</strong></font></div><div class='tr'><img class='introPic' src='trustrating_stim/white_mw078.bmp'><br><font color='green'><strong>Share</strong></font></div></div></div>","null","ARRAY","2","trustrating_stim/white_mw092.bmp,trustrating_stim/white_mw078.bmp","0,1","Match","e","3000","","","","",""
"","","","","5bb94dea3ea7ed00017cb109","bdp_wmem","Mon Mar 13 2023 00:18:46 GMT-0400 (Eastern Daylight Time)","1032411","Match,No Match","html-keyboard-response","103","718313","0.0-7.0-3.13","","","null","","<div class='trialBorder'><div class='vertical-center'><img src='img/fixation2_sml.jpg'</img></div></div>","null","DELAY","","","","","","","","","","",""
"","","","","5bb94dea3ea7ed00017cb109","bdp_wmem","Mon Mar 13 2023 00:18:46 GMT-0400 (Eastern Daylight Time)","1032411","Match,No Match","html-keyboard-response","104","718887","0.0-7.0-4.13","","","573","","<div class='trialBorder'><div class='targDiv'><div class='tc'><img class='introPic' src='trustrating_stim/white_mw078.bmp'><br><font color='green'><strong>Share</strong></font></div></div><div class='respDiv'><div class='respDivL'>Match<br>(e)</div><div class='respDivR'>No Match<br>(i)</div></div></div>","e","TARGET","2","trustrating_stim/white_mw092.bmp,trustrating_stim/white_mw078.bmp","0,1","Match","e","3000","trustrating_stim/white_mw078.bmp","green","Share","REAL","1"
"","","","","5bb94dea3ea7ed00017cb109","bdp_wmem","Mon Mar 13 2023 00:18:46 GMT-0400 (Eastern Daylight Time)","1032411","Match,No Match","html-keyboard-response","105","719391","0.0-7.0-5.13","","","null","","<div class='trialBorder'><div class='vertical-center'><img src='img/correct.jpg'></div><div class='respDiv'><div class='respDivL'><font style='color:orange'>Match<br>(e)</font></div><div class='respDivR'>No Match<br>(i)</div></div></div>","null","FEEDBACK","","","","","","","","","","",""
"","","","","5bb94dea3ea7ed00017cb109","bdp_wmem","Mon Mar 13 2023 00:18:46 GMT-0400 (Eastern Daylight Time)","1032411","Match,No Match","html-keyboard-response","106","719901","0.0-7.0-1.14","","","null","","<div class='trialBorder'><div class='vertical-center'><img src='img/fixation2_sml.jpg'</img></div></div>","null","FIX","","","","","","","","","","",""
"","","","","5bb94dea3ea7ed00017cb109","bdp_wmem","Mon Mar 13 2023 00:18:46 GMT-0400 (Eastern Daylight Time)","1032411","Match,No Match","html-keyboard-response","107","724416","0.0-7.0-2.14","","","null","","<div class='trialBorder'><div class='vertical-center'><img style='vertical-align:center; align:center' src='img/fixation2_sml.jpg'></div><div class='arrayDiv3'><div class='tl'><img class='introPic' src='trustrating_stim/white_mw012.bmp'><br><font color='green'><strong>Share</strong></font></div><div class='tc'><img class='introPic' src='trustrating_stim/white_mw040.bmp'><br><font color='red'><strong>Keep</strong></font></div><div class='tr'><img class='introPic' src='trustrating_stim/white_mw085.bmp'><br><font color='green'><strong>Share</strong></font></div></div></div>","null","ARRAY","3","trustrating_stim/white_mw012.bmp,trustrating_stim/white_mw040.bmp,trustrating_stim/white_mw085.bmp","1,0,1","Match","e","4500","","","","",""
"","","","","5bb94dea3ea7ed00017cb109","bdp_wmem","Mon Mar 13 2023 00:18:46 GMT-0400 (Eastern Daylight Time)","1032411","Match,No Match","html-keyboard-response","108","728426","0.0-7.0-3.14","","","null","","<div class='trialBorder'><div class='vertical-center'><img src='img/fixation2_sml.jpg'</img></div></div>","null","DELAY","","","","","","","","","","",""
"","","","","5bb94dea3ea7ed00017cb109","bdp_wmem","Mon Mar 13 2023 00:18:46 GMT-0400 (Eastern Daylight Time)","1032411","Match,No Match","html-keyboard-response","109","729130","0.0-7.0-4.14","","","704","","<div class='trialBorder'><div class='targDiv'><div class='tc'><img class='introPic' src='trustrating_stim/white_mw012.bmp'><br><font color='green'><strong>Share</strong></font></div></div><div class='respDiv'><div class='respDivL'>Match<br>(e)</div><div class='respDivR'>No Match<br>(i)</div></div></div>","e","TARGET","3","trustrating_stim/white_mw012.bmp,trustrating_stim/white_mw040.bmp,trustrating_stim/white_mw085.bmp","1,0,1","Match","e","4500","trustrating_stim/white_mw012.bmp","green","Share","REAL","1"
"","","","","5bb94dea3ea7ed00017cb109","bdp_wmem","Mon Mar 13 2023 00:18:46 GMT-0400 (Eastern Daylight Time)","1032411","Match,No Match","html-keyboard-response","110","729642","0.0-7.0-5.14","","","null","","<div class='trialBorder'><div class='vertical-center'><img src='img/correct.jpg'></div><div class='respDiv'><div class='respDivL'><font style='color:orange'>Match<br>(e)</font></div><div class='respDivR'>No Match<br>(i)</div></div></div>","null","FEEDBACK","","","","","","","","","","",""
"","","","","5bb94dea3ea7ed00017cb109","bdp_wmem","Mon Mar 13 2023 00:18:46 GMT-0400 (Eastern Daylight Time)","1032411","Match,No Match","html-keyboard-response","111","730152","0.0-7.0-1.15","","","null","","<div class='trialBorder'><div class='vertical-center'><img src='img/fixation2_sml.jpg'</img></div></div>","null","FIX","","","","","","","","","","",""
"","","","","5bb94dea3ea7ed00017cb109","bdp_wmem","Mon Mar 13 2023 00:18:46 GMT-0400 (Eastern Daylight Time)","1032411","Match,No Match","html-keyboard-response","112","734667","0.0-7.0-2.15","","","null","","<div class='trialBorder'><div class='vertical-center'><img style='vertical-align:center; align:center' src='img/fixation2_sml.jpg'></div><div class='arrayDiv3'><div class='tl'><img class='introPic' src='trustrating_stim/white_mw085.bmp'><br><font color='green'><strong>Share</strong></font></div><div class='tc'><img class='introPic' src='trustrating_stim/white_mw012.bmp'><br><font color='red'><strong>Keep</strong></font></div><div class='tr'><img class='introPic' src='trustrating_stim/white_mw038.bmp'><br><font color='red'><strong>Keep</strong></font></div></div></div>","null","ARRAY","3","trustrating_stim/white_mw085.bmp,trustrating_stim/white_mw012.bmp,trustrating_stim/white_mw038.bmp","1,0,0","Match","e","4500","","","","",""
"","","","","5bb94dea3ea7ed00017cb109","bdp_wmem","Mon Mar 13 2023 00:18:46 GMT-0400 (Eastern Daylight Time)","1032411","Match,No Match","html-keyboard-response","113","738675","0.0-7.0-3.15","","","null","","<div class='trialBorder'><div class='vertical-center'><img src='img/fixation2_sml.jpg'</img></div></div>","null","DELAY","","","","","","","","","","",""
"","","","","5bb94dea3ea7ed00017cb109","bdp_wmem","Mon Mar 13 2023 00:18:46 GMT-0400 (Eastern Daylight Time)","1032411","Match,No Match","html-keyboard-response","114","739267","0.0-7.0-4.15","","","591","","<div class='trialBorder'><div class='targDiv'><div class='tc'><img class='introPic' src='trustrating_stim/white_mw085.bmp'><br><font color='green'><strong>Share</strong></font></div></div><div class='respDiv'><div class='respDivL'>Match<br>(e)</div><div class='respDivR'>No Match<br>(i)</div></div></div>","e","TARGET","3","trustrating_stim/white_mw085.bmp,trustrating_stim/white_mw012.bmp,trustrating_stim/white_mw038.bmp","1,0,0","Match","e","4500","trustrating_stim/white_mw085.bmp","green","Share","REAL","1"
"","","","","5bb94dea3ea7ed00017cb109","bdp_wmem","Mon Mar 13 2023 00:18:46 GMT-0400 (Eastern Daylight Time)","1032411","Match,No Match","html-keyboard-response","115","739771","0.0-7.0-5.15","","","null","","<div class='trialBorder'><div class='vertical-center'><img src='img/correct.jpg'></div><div class='respDiv'><div class='respDivL'><font style='color:orange'>Match<br>(e)</font></div><div class='respDivR'>No Match<br>(i)</div></div></div>","null","FEEDBACK","","","","","","","","","","",""
"","","","","5bb94dea3ea7ed00017cb109","bdp_wmem","Mon Mar 13 2023 00:18:46 GMT-0400 (Eastern Daylight Time)","1032411","Match,No Match","html-keyboard-response","116","740278","0.0-7.0-1.16","","","null","","<div class='trialBorder'><div class='vertical-center'><img src='img/fixation2_sml.jpg'</img></div></div>","null","FIX","","","","","","","","","","",""
"","","","","5bb94dea3ea7ed00017cb109","bdp_wmem","Mon Mar 13 2023 00:18:46 GMT-0400 (Eastern Daylight Time)","1032411","Match,No Match","html-keyboard-response","117","743284","0.0-7.0-2.16","","","null","","<div class='trialBorder'><div class='vertical-center'><img style='vertical-align:center; align:center' src='img/fixation2_sml.jpg'></div><div class='arrayDiv2'><div class='tl'><img class='introPic' src='trustrating_stim/white_mw092.bmp'><br><font color='red'><strong>Keep</strong></font></div><div class='tr'><img class='introPic' src='trustrating_stim/white_mw013.bmp'><br><font color='green'><strong>Share</strong></font></div></div></div>","null","ARRAY","2","trustrating_stim/white_mw092.bmp,trustrating_stim/white_mw013.bmp","0,1","noMatchOutcome","i","3000","","","","",""
"","","","","5bb94dea3ea7ed00017cb109","bdp_wmem","Mon Mar 13 2023 00:18:46 GMT-0400 (Eastern Daylight Time)","1032411","Match,No Match","html-keyboard-response","118","747292","0.0-7.0-3.16","","","null","","<div class='trialBorder'><div class='vertical-center'><img src='img/fixation2_sml.jpg'</img></div></div>","null","DELAY","","","","","","","","","","",""
"","","","","5bb94dea3ea7ed00017cb109","bdp_wmem","Mon Mar 13 2023 00:18:46 GMT-0400 (Eastern Daylight Time)","1032411","Match,No Match","html-keyboard-response","119","748408","0.0-7.0-4.16","","","1116","","<div class='trialBorder'><div class='targDiv'><div class='tc'><img class='introPic' src='trustrating_stim/white_mw092.bmp'><br><font color='green'><strong>Share</strong></font></div></div><div class='respDiv'><div class='respDivL'>Match<br>(e)</div><div class='respDivR'>No Match<br>(i)</div></div></div>","e","TARGET","2","trustrating_stim/white_mw092.bmp,trustrating_stim/white_mw013.bmp","0,1","noMatchOutcome","i","3000","trustrating_stim/white_mw092.bmp","green","Share","REAL","0"
"","","","","5bb94dea3ea7ed00017cb109","bdp_wmem","Mon Mar 13 2023 00:18:46 GMT-0400 (Eastern Daylight Time)","1032411","Match,No Match","html-keyboard-response","120","748911","0.0-7.0-5.16","","","null","","<div class='trialBorder'><div class='vertical-center'><img src='img/error.jpg'></div><div class='respDiv'><div class='respDivL'><font style='color:orange'>Match<br>(e)</font></div><div class='respDivR'>No Match<br>(i)</div></div></div>","null","FEEDBACK","","","","","","","","","","",""
"","","","","5bb94dea3ea7ed00017cb109","bdp_wmem","Mon Mar 13 2023 00:18:46 GMT-0400 (Eastern Daylight Time)","1032411","Match,No Match","html-keyboard-response","121","749420","0.0-7.0-1.17","","","null","","<div class='trialBorder'><div class='vertical-center'><img src='img/fixation2_sml.jpg'</img></div></div>","null","FIX","","","","","","","","","","",""
"","","","","5bb94dea3ea7ed00017cb109","bdp_wmem","Mon Mar 13 2023 00:18:46 GMT-0400 (Eastern Daylight Time)","1032411","Match,No Match","html-keyboard-response","122","750928","0.0-7.0-2.17","","","null","","<div class='trialBorder'><div class='vertical-center'><img style='vertical-align:center; align:center' src='img/fixation2_sml.jpg'></div><div class='arrayDiv1'><div class='tc'><img class='introPic' src='trustrating_stim/white_mw013.bmp'><br><font color='red'><strong>Keep</strong></font></div></div></div>","null","ARRAY","1","trustrating_stim/white_mw013.bmp","0","noMatchOutcome","i","1500","","","","",""
"","","","","5bb94dea3ea7ed00017cb109","bdp_wmem","Mon Mar 13 2023 00:18:46 GMT-0400 (Eastern Daylight Time)","1032411","Match,No Match","html-keyboard-response","123","754936","0.0-7.0-3.17","","","null","","<div class='trialBorder'><div class='vertical-center'><img src='img/fixation2_sml.jpg'</img></div></div>","null","DELAY","","","","","","","","","","",""
"","","","","5bb94dea3ea7ed00017cb109","bdp_wmem","Mon Mar 13 2023 00:18:46 GMT-0400 (Eastern Daylight Time)","1032411","Match,No Match","html-keyboard-response","124","755557","0.0-7.0-4.17","","","620","","<div class='trialBorder'><div class='targDiv'><div class='tc'><img class='introPic' src='trustrating_stim/white_mw013.bmp'><br><font color='green'><strong>Share</strong></font></div></div><div class='respDiv'><div class='respDivL'>Match<br>(e)</div><div class='respDivR'>No Match<br>(i)</div></div></div>","i","TARGET","1","trustrating_stim/white_mw013.bmp","0","noMatchOutcome","i","1500","trustrating_stim/white_mw013.bmp","green","Share","REAL","1"
"","","","","5bb94dea3ea7ed00017cb109","bdp_wmem","Mon Mar 13 2023 00:18:46 GMT-0400 (Eastern Daylight Time)","1032411","Match,No Match","html-keyboard-response","125","756062","0.0-7.0-5.17","","","null","","<div class='trialBorder'><div class='vertical-center'><img src='img/correct.jpg'></div><div class='respDiv'><div class='respDivL'>Match<br>(e)</div><div class='respDivR'><font style='color:orange'>No Match<br>(i)</font></div></div></div>","null","FEEDBACK","","","","","","","","","","",""
"","","","","5bb94dea3ea7ed00017cb109","bdp_wmem","Mon Mar 13 2023 00:18:46 GMT-0400 (Eastern Daylight Time)","1032411","Match,No Match","html-keyboard-response","126","756571","0.0-7.0-1.18","","","null","","<div class='trialBorder'><div class='vertical-center'><img src='img/fixation2_sml.jpg'</img></div></div>","null","FIX","","","","","","","","","","",""
"","","","","5bb94dea3ea7ed00017cb109","bdp_wmem","Mon Mar 13 2023 00:18:46 GMT-0400 (Eastern Daylight Time)","1032411","Match,No Match","html-keyboard-response","127","759575","0.0-7.0-2.18","","","null","","<div class='trialBorder'><div class='vertical-center'><img style='vertical-align:center; align:center' src='img/fixation2_sml.jpg'></div><div class='arrayDiv2'><div class='tl'><img class='introPic' src='trustrating_stim/white_mw085.bmp'><br><font color='red'><strong>Keep</strong></font></div><div class='tr'><img class='introPic' src='trustrating_stim/white_mw070.bmp'><br><font color='green'><strong>Share</strong></font></div></div></div>","null","ARRAY","2","trustrating_stim/white_mw085.bmp,trustrating_stim/white_mw070.bmp","0,1","Match","e","3000","","","","",""
"","","","","5bb94dea3ea7ed00017cb109","bdp_wmem","Mon Mar 13 2023 00:18:46 GMT-0400 (Eastern Daylight Time)","1032411","Match,No Match","html-keyboard-response","128","763581","0.0-7.0-3.18","","","null","","<div class='trialBorder'><div class='vertical-center'><img src='img/fixation2_sml.jpg'</img></div></div>","null","DELAY","","","","","","","","","","",""
"","","","","5bb94dea3ea7ed00017cb109","bdp_wmem","Mon Mar 13 2023 00:18:46 GMT-0400 (Eastern Daylight Time)","1032411","Match,No Match","html-keyboard-response","129","764584","0.0-7.0-4.18","","","1002","","<div class='trialBorder'><div class='targDiv'><div class='tc'><img class='introPic' src='trustrating_stim/white_mw085.bmp'><br><font color='red'><strong>Keep</strong></font></div></div><div class='respDiv'><div class='respDivL'>Match<br>(e)</div><div class='respDivR'>No Match<br>(i)</div></div></div>","e","TARGET","2","trustrating_stim/white_mw085.bmp,trustrating_stim/white_mw070.bmp","0,1","Match","e","3000","trustrating_stim/white_mw085.bmp","red","Keep","REAL","1"
"","","","","5bb94dea3ea7ed00017cb109","bdp_wmem","Mon Mar 13 2023 00:18:46 GMT-0400 (Eastern Daylight Time)","1032411","Match,No Match","html-keyboard-response","130","765090","0.0-7.0-5.18","","","null","","<div class='trialBorder'><div class='vertical-center'><img src='img/correct.jpg'></div><div class='respDiv'><div class='respDivL'><font style='color:orange'>Match<br>(e)</font></div><div class='respDivR'>No Match<br>(i)</div></div></div>","null","FEEDBACK","","","","","","","","","","",""
"","","","","5bb94dea3ea7ed00017cb109","bdp_wmem","Mon Mar 13 2023 00:18:46 GMT-0400 (Eastern Daylight Time)","1032411","Match,No Match","html-keyboard-response","131","765599","0.0-7.0-1.19","","","null","","<div class='trialBorder'><div class='vertical-center'><img src='img/fixation2_sml.jpg'</img></div></div>","null","FIX","","","","","","","","","","",""
"","","","","5bb94dea3ea7ed00017cb109","bdp_wmem","Mon Mar 13 2023 00:18:46 GMT-0400 (Eastern Daylight Time)","1032411","Match,No Match","html-keyboard-response","132","768606","0.0-7.0-2.19","","","null","","<div class='trialBorder'><div class='vertical-center'><img style='vertical-align:center; align:center' src='img/fixation2_sml.jpg'></div><div class='arrayDiv2'><div class='tl'><img class='introPic' src='trustrating_stim/white_mw070.bmp'><br><font color='green'><strong>Share</strong></font></div><div class='tr'><img class='introPic' src='trustrating_stim/white_mw010.bmp'><br><font color='red'><strong>Keep</strong></font></div></div></div>","null","ARRAY","2","trustrating_stim/white_mw070.bmp,trustrating_stim/white_mw010.bmp","1,0","noMatchOutcome","i","3000","","","","",""
"","","","","5bb94dea3ea7ed00017cb109","bdp_wmem","Mon Mar 13 2023 00:18:46 GMT-0400 (Eastern Daylight Time)","1032411","Match,No Match","html-keyboard-response","133","772612","0.0-7.0-3.19","","","null","","<div class='trialBorder'><div class='vertical-center'><img src='img/fixation2_sml.jpg'</img></div></div>","null","DELAY","","","","","","","","","","",""
"","","","","5bb94dea3ea7ed00017cb109","bdp_wmem","Mon Mar 13 2023 00:18:46 GMT-0400 (Eastern Daylight Time)","1032411","Match,No Match","html-keyboard-response","134","773791","0.0-7.0-4.19","","","1179","","<div class='trialBorder'><div class='targDiv'><div class='tc'><img class='introPic' src='trustrating_stim/white_mw010.bmp'><br><font color='green'><strong>Share</strong></font></div></div><div class='respDiv'><div class='respDivL'>Match<br>(e)</div><div class='respDivR'>No Match<br>(i)</div></div></div>","i","TARGET","2","trustrating_stim/white_mw070.bmp,trustrating_stim/white_mw010.bmp","1,0","noMatchOutcome","i","3000","trustrating_stim/white_mw010.bmp","green","Share","REAL","1"
"","","","","5bb94dea3ea7ed00017cb109","bdp_wmem","Mon Mar 13 2023 00:18:46 GMT-0400 (Eastern Daylight Time)","1032411","Match,No Match","html-keyboard-response","135","774306","0.0-7.0-5.19","","","null","","<div class='trialBorder'><div class='vertical-center'><img src='img/correct.jpg'></div><div class='respDiv'><div class='respDivL'>Match<br>(e)</div><div class='respDivR'><font style='color:orange'>No Match<br>(i)</font></div></div></div>","null","FEEDBACK","","","","","","","","","","",""
"","","","","5bb94dea3ea7ed00017cb109","bdp_wmem","Mon Mar 13 2023 00:18:46 GMT-0400 (Eastern Daylight Time)","1032411","Match,No Match","html-keyboard-response","136","774813","0.0-7.0-1.20","","","null","","<div class='trialBorder'><div class='vertical-center'><img src='img/fixation2_sml.jpg'</img></div></div>","null","FIX","","","","","","","","","","",""
"","","","","5bb94dea3ea7ed00017cb109","bdp_wmem","Mon Mar 13 2023 00:18:46 GMT-0400 (Eastern Daylight Time)","1032411","Match,No Match","html-keyboard-response","137","776324","0.0-7.0-2.20","","","null","","<div class='trialBorder'><div class='vertical-center'><img style='vertical-align:center; align:center' src='img/fixation2_sml.jpg'></div><div class='arrayDiv1'><div class='tc'><img class='introPic' src='trustrating_stim/white_mw010.bmp'><br><font color='green'><strong>Share</strong></font></div></div></div>","null","ARRAY","1","trustrating_stim/white_mw010.bmp","1","noMatchFace","i","1500","","","","",""
"","","","","5bb94dea3ea7ed00017cb109","bdp_wmem","Mon Mar 13 2023 00:18:46 GMT-0400 (Eastern Daylight Time)","1032411","Match,No Match","html-keyboard-response","138","780334","0.0-7.0-3.20","","","null","","<div class='trialBorder'><div class='vertical-center'><img src='img/fixation2_sml.jpg'</img></div></div>","null","DELAY","","","","","","","","","","",""
"","","","","5bb94dea3ea7ed00017cb109","bdp_wmem","Mon Mar 13 2023 00:18:46 GMT-0400 (Eastern Daylight Time)","1032411","Match,No Match","html-keyboard-response","139","781158","0.0-7.0-4.20","","","824","","<div class='trialBorder'><div class='targDiv'><div class='tc'><img class='introPic' src='trustrating_stim/white_mw013.bmp'><br><font color='green'><strong>Share</strong></font></div></div><div class='respDiv'><div class='respDivL'>Match<br>(e)</div><div class='respDivR'>No Match<br>(i)</div></div></div>","i","TARGET","1","trustrating_stim/white_mw010.bmp","1","noMatchFace","i","1500","trustrating_stim/white_mw013.bmp","green","Share","REAL","1"
"","","","","5bb94dea3ea7ed00017cb109","bdp_wmem","Mon Mar 13 2023 00:18:46 GMT-0400 (Eastern Daylight Time)","1032411","Match,No Match","html-keyboard-response","140","781661","0.0-7.0-5.20","","","null","","<div class='trialBorder'><div class='vertical-center'><img src='img/correct.jpg'></div><div class='respDiv'><div class='respDivL'>Match<br>(e)</div><div class='respDivR'><font style='color:orange'>No Match<br>(i)</font></div></div></div>","null","FEEDBACK","","","","","","","","","","",""
"","","","","5bb94dea3ea7ed00017cb109","bdp_wmem","Mon Mar 13 2023 00:18:46 GMT-0400 (Eastern Daylight Time)","1032411","Match,No Match","html-keyboard-response","141","782169","0.0-7.0-1.21","","","null","","<div class='trialBorder'><div class='vertical-center'><img src='img/fixation2_sml.jpg'</img></div></div>","null","FIX","","","","","","","","","","",""
"","","","","5bb94dea3ea7ed00017cb109","bdp_wmem","Mon Mar 13 2023 00:18:46 GMT-0400 (Eastern Daylight Time)","1032411","Match,No Match","html-keyboard-response","142","785174","0.0-7.0-2.21","","","null","","<div class='trialBorder'><div class='vertical-center'><img style='vertical-align:center; align:center' src='img/fixation2_sml.jpg'></div><div class='arrayDiv2'><div class='tl'><img class='introPic' src='trustrating_stim/white_mw010.bmp'><br><font color='green'><strong>Share</strong></font></div><div class='tr'><img class='introPic' src='trustrating_stim/white_mw091.bmp'><br><font color='red'><strong>Keep</strong></font></div></div></div>","null","ARRAY","2","trustrating_stim/white_mw010.bmp,trustrating_stim/white_mw091.bmp","1,0","noMatchFace","i","3000","","","","",""
"","","","","5bb94dea3ea7ed00017cb109","bdp_wmem","Mon Mar 13 2023 00:18:46 GMT-0400 (Eastern Daylight Time)","1032411","Match,No Match","html-keyboard-response","143","789182","0.0-7.0-3.21","","","null","","<div class='trialBorder'><div class='vertical-center'><img src='img/fixation2_sml.jpg'</img></div></div>","null","DELAY","","","","","","","","","","",""
"","","","","5bb94dea3ea7ed00017cb109","bdp_wmem","Mon Mar 13 2023 00:18:46 GMT-0400 (Eastern Daylight Time)","1032411","Match,No Match","html-keyboard-response","144","789939","0.0-7.0-4.21","","","757","","<div class='trialBorder'><div class='targDiv'><div class='tc'><img class='introPic' src='trustrating_stim/white_mw013.bmp'><br><font color='green'><strong>Share</strong></font></div></div><div class='respDiv'><div class='respDivL'>Match<br>(e)</div><div class='respDivR'>No Match<br>(i)</div></div></div>","i","TARGET","2","trustrating_stim/white_mw010.bmp,trustrating_stim/white_mw091.bmp","1,0","noMatchFace","i","3000","trustrating_stim/white_mw013.bmp","green","Share","REAL","1"
"","","","","5bb94dea3ea7ed00017cb109","bdp_wmem","Mon Mar 13 2023 00:18:46 GMT-0400 (Eastern Daylight Time)","1032411","Match,No Match","html-keyboard-response","145","790446","0.0-7.0-5.21","","","null","","<div class='trialBorder'><div class='vertical-center'><img src='img/correct.jpg'></div><div class='respDiv'><div class='respDivL'>Match<br>(e)</div><div class='respDivR'><font style='color:orange'>No Match<br>(i)</font></div></div></div>","null","FEEDBACK","","","","","","","","","","",""
"","","","","5bb94dea3ea7ed00017cb109","bdp_wmem","Mon Mar 13 2023 00:18:46 GMT-0400 (Eastern Daylight Time)","1032411","Match,No Match","html-keyboard-response","146","790954","0.0-7.0-1.22","","","null","","<div class='trialBorder'><div class='vertical-center'><img src='img/fixation2_sml.jpg'</img></div></div>","null","FIX","","","","","","","","","","",""
"","","","","5bb94dea3ea7ed00017cb109","bdp_wmem","Mon Mar 13 2023 00:18:46 GMT-0400 (Eastern Daylight Time)","1032411","Match,No Match","html-keyboard-response","147","795456","0.0-7.0-2.22","","","null","","<div class='trialBorder'><div class='vertical-center'><img style='vertical-align:center; align:center' src='img/fixation2_sml.jpg'></div><div class='arrayDiv3'><div class='tl'><img class='introPic' src='trustrating_stim/white_mw010.bmp'><br><font color='green'><strong>Share</strong></font></div><div class='tc'><img class='introPic' src='trustrating_stim/white_mw012.bmp'><br><font color='red'><strong>Keep</strong></font></div><div class='tr'><img class='introPic' src='trustrating_stim/white_mw085.bmp'><br><font color='green'><strong>Share</strong></font></div></div></div>","null","ARRAY","3","trustrating_stim/white_mw010.bmp,trustrating_stim/white_mw012.bmp,trustrating_stim/white_mw085.bmp","1,0,1","noMatchFace","i","4500","","","","",""
"","","","","5bb94dea3ea7ed00017cb109","bdp_wmem","Mon Mar 13 2023 00:18:46 GMT-0400 (Eastern Daylight Time)","1032411","Match,No Match","html-keyboard-response","148","799463","0.0-7.0-3.22","","","null","","<div class='trialBorder'><div class='vertical-center'><img src='img/fixation2_sml.jpg'</img></div></div>","null","DELAY","","","","","","","","","","",""
"","","","","5bb94dea3ea7ed00017cb109","bdp_wmem","Mon Mar 13 2023 00:18:46 GMT-0400 (Eastern Daylight Time)","1032411","Match,No Match","html-keyboard-response","149","800627","0.0-7.0-4.22","","","1163","","<div class='trialBorder'><div class='targDiv'><div class='tc'><img class='introPic' src='trustrating_stim/white_mw070.bmp'><br><font color='red'><strong>Keep</strong></font></div></div><div class='respDiv'><div class='respDivL'>Match<br>(e)</div><div class='respDivR'>No Match<br>(i)</div></div></div>","i","TARGET","3","trustrating_stim/white_mw010.bmp,trustrating_stim/white_mw012.bmp,trustrating_stim/white_mw085.bmp","1,0,1","noMatchFace","i","4500","trustrating_stim/white_mw070.bmp","red","Keep","REAL","1"
"","","","","5bb94dea3ea7ed00017cb109","bdp_wmem","Mon Mar 13 2023 00:18:46 GMT-0400 (Eastern Daylight Time)","1032411","Match,No Match","html-keyboard-response","150","801128","0.0-7.0-5.22","","","null","","<div class='trialBorder'><div class='vertical-center'><img src='img/correct.jpg'></div><div class='respDiv'><div class='respDivL'>Match<br>(e)</div><div class='respDivR'><font style='color:orange'>No Match<br>(i)</font></div></div></div>","null","FEEDBACK","","","","","","","","","","",""
"","","","","5bb94dea3ea7ed00017cb109","bdp_wmem","Mon Mar 13 2023 00:18:46 GMT-0400 (Eastern Daylight Time)","1032411","Match,No Match","html-keyboard-response","151","801636","0.0-7.0-1.23","","","null","","<div class='trialBorder'><div class='vertical-center'><img src='img/fixation2_sml.jpg'</img></div></div>","null","FIX","","","","","","","","","","",""
"","","","","5bb94dea3ea7ed00017cb109","bdp_wmem","Mon Mar 13 2023 00:18:46 GMT-0400 (Eastern Daylight Time)","1032411","Match,No Match","html-keyboard-response","152","804639","0.0-7.0-2.23","","","null","","<div class='trialBorder'><div class='vertical-center'><img style='vertical-align:center; align:center' src='img/fixation2_sml.jpg'></div><div class='arrayDiv2'><div class='tl'><img class='introPic' src='trustrating_stim/white_mw012.bmp'><br><font color='green'><strong>Share</strong></font></div><div class='tr'><img class='introPic' src='trustrating_stim/white_mw085.bmp'><br><font color='red'><strong>Keep</strong></font></div></div></div>","null","ARRAY","2","trustrating_stim/white_mw012.bmp,trustrating_stim/white_mw085.bmp","1,0","noMatchOutcome","i","3000","","","","",""
"","","","","5bb94dea3ea7ed00017cb109","bdp_wmem","Mon Mar 13 2023 00:18:46 GMT-0400 (Eastern Daylight Time)","1032411","Match,No Match","html-keyboard-response","153","808646","0.0-7.0-3.23","","","null","","<div class='trialBorder'><div class='vertical-center'><img src='img/fixation2_sml.jpg'</img></div></div>","null","DELAY","","","","","","","","","","",""
"","","","","5bb94dea3ea7ed00017cb109","bdp_wmem","Mon Mar 13 2023 00:18:46 GMT-0400 (Eastern Daylight Time)","1032411","Match,No Match","html-keyboard-response","154","809709","0.0-7.0-4.23","","","1063","","<div class='trialBorder'><div class='targDiv'><div class='tc'><img class='introPic' src='trustrating_stim/white_mw012.bmp'><br><font color='red'><strong>Keep</strong></font></div></div><div class='respDiv'><div class='respDivL'>Match<br>(e)</div><div class='respDivR'>No Match<br>(i)</div></div></div>","i","TARGET","2","trustrating_stim/white_mw012.bmp,trustrating_stim/white_mw085.bmp","1,0","noMatchOutcome","i","3000","trustrating_stim/white_mw012.bmp","red","Keep","REAL","1"
"","","","","5bb94dea3ea7ed00017cb109","bdp_wmem","Mon Mar 13 2023 00:18:46 GMT-0400 (Eastern Daylight Time)","1032411","Match,No Match","html-keyboard-response","155","810223","0.0-7.0-5.23","","","null","","<div class='trialBorder'><div class='vertical-center'><img src='img/correct.jpg'></div><div class='respDiv'><div class='respDivL'>Match<br>(e)</div><div class='respDivR'><font style='color:orange'>No Match<br>(i)</font></div></div></div>","null","FEEDBACK","","","","","","","","","","",""
"","","","","5bb94dea3ea7ed00017cb109","bdp_wmem","Mon Mar 13 2023 00:18:46 GMT-0400 (Eastern Daylight Time)","1032411","Match,No Match","html-keyboard-response","156","810732","0.0-7.0-1.24","","","null","","<div class='trialBorder'><div class='vertical-center'><img src='img/fixation2_sml.jpg'</img></div></div>","null","FIX","","","","","","","","","","",""
"","","","","5bb94dea3ea7ed00017cb109","bdp_wmem","Mon Mar 13 2023 00:18:46 GMT-0400 (Eastern Daylight Time)","1032411","Match,No Match","html-keyboard-response","157","813739","0.0-7.0-2.24","","","null","","<div class='trialBorder'><div class='vertical-center'><img style='vertical-align:center; align:center' src='img/fixation2_sml.jpg'></div><div class='arrayDiv2'><div class='tl'><img class='introPic' src='trustrating_stim/white_mw012.bmp'><br><font color='red'><strong>Keep</strong></font></div><div class='tr'><img class='introPic' src='trustrating_stim/white_mw010.bmp'><br><font color='green'><strong>Share</strong></font></div></div></div>","null","ARRAY","2","trustrating_stim/white_mw012.bmp,trustrating_stim/white_mw010.bmp","0,1","Match","e","3000","","","","",""
"","","","","5bb94dea3ea7ed00017cb109","bdp_wmem","Mon Mar 13 2023 00:18:46 GMT-0400 (Eastern Daylight Time)","1032411","Match,No Match","html-keyboard-response","158","817744","0.0-7.0-3.24","","","null","","<div class='trialBorder'><div class='vertical-center'><img src='img/fixation2_sml.jpg'</img></div></div>","null","DELAY","","","","","","","","","","",""
"","","","","5bb94dea3ea7ed00017cb109","bdp_wmem","Mon Mar 13 2023 00:18:46 GMT-0400 (Eastern Daylight Time)","1032411","Match,No Match","html-keyboard-response","159","819038","0.0-7.0-4.24","","","1294","","<div class='trialBorder'><div class='targDiv'><div class='tc'><img class='introPic' src='trustrating_stim/white_mw012.bmp'><br><font color='red'><strong>Keep</strong></font></div></div><div class='respDiv'><div class='respDivL'>Match<br>(e)</div><div class='respDivR'>No Match<br>(i)</div></div></div>","e","TARGET","2","trustrating_stim/white_mw012.bmp,trustrating_stim/white_mw010.bmp","0,1","Match","e","3000","trustrating_stim/white_mw012.bmp","red","Keep","REAL","1"
"","","","","5bb94dea3ea7ed00017cb109","bdp_wmem","Mon Mar 13 2023 00:18:46 GMT-0400 (Eastern Daylight Time)","1032411","Match,No Match","html-keyboard-response","160","819546","0.0-7.0-5.24","","","null","","<div class='trialBorder'><div class='vertical-center'><img src='img/correct.jpg'></div><div class='respDiv'><div class='respDivL'><font style='color:orange'>Match<br>(e)</font></div><div class='respDivR'>No Match<br>(i)</div></div></div>","null","FEEDBACK","","","","","","","","","","",""
"","","","","5bb94dea3ea7ed00017cb109","bdp_wmem","Mon Mar 13 2023 00:18:46 GMT-0400 (Eastern Daylight Time)","1032411","Match,No Match","html-keyboard-response","161","820055","0.0-7.0-1.25","","","null","","<div class='trialBorder'><div class='vertical-center'><img src='img/fixation2_sml.jpg'</img></div></div>","null","FIX","","","","","","","","","","",""
"","","","","5bb94dea3ea7ed00017cb109","bdp_wmem","Mon Mar 13 2023 00:18:46 GMT-0400 (Eastern Daylight Time)","1032411","Match,No Match","html-keyboard-response","162","824570","0.0-7.0-2.25","","","null","","<div class='trialBorder'><div class='vertical-center'><img style='vertical-align:center; align:center' src='img/fixation2_sml.jpg'></div><div class='arrayDiv3'><div class='tl'><img class='introPic' src='trustrating_stim/white_mw092.bmp'><br><font color='red'><strong>Keep</strong></font></div><div class='tc'><img class='introPic' src='trustrating_stim/white_mw078.bmp'><br><font color='green'><strong>Share</strong></font></div><div class='tr'><img class='introPic' src='trustrating_stim/white_mw010.bmp'><br><font color='green'><strong>Share</strong></font></div></div></div>","null","ARRAY","3","trustrating_stim/white_mw092.bmp,trustrating_stim/white_mw078.bmp,trustrating_stim/white_mw010.bmp","0,1,1","noMatchOutcome","i","4500","","","","",""
"","","","","5bb94dea3ea7ed00017cb109","bdp_wmem","Mon Mar 13 2023 00:18:46 GMT-0400 (Eastern Daylight Time)","1032411","Match,No Match","html-keyboard-response","163","828577","0.0-7.0-3.25","","","null","","<div class='trialBorder'><div class='vertical-center'><img src='img/fixation2_sml.jpg'</img></div></div>","null","DELAY","","","","","","","","","","",""
"","","","","5bb94dea3ea7ed00017cb109","bdp_wmem","Mon Mar 13 2023 00:18:46 GMT-0400 (Eastern Daylight Time)","1032411","Match,No Match","html-keyboard-response","164","830920","0.0-7.0-4.25","","","2343","","<div class='trialBorder'><div class='targDiv'><div class='tc'><img class='introPic' src='trustrating_stim/white_mw078.bmp'><br><font color='red'><strong>Keep</strong></font></div></div><div class='respDiv'><div class='respDivL'>Match<br>(e)</div><div class='respDivR'>No Match<br>(i)</div></div></div>","i","TARGET","3","trustrating_stim/white_mw092.bmp,trustrating_stim/white_mw078.bmp,trustrating_stim/white_mw010.bmp","0,1,1","noMatchOutcome","i","4500","trustrating_stim/white_mw078.bmp","red","Keep","REAL","1"
"","","","","5bb94dea3ea7ed00017cb109","bdp_wmem","Mon Mar 13 2023 00:18:46 GMT-0400 (Eastern Daylight Time)","1032411","Match,No Match","html-keyboard-response","165","831427","0.0-7.0-5.25","","","null","","<div class='trialBorder'><div class='vertical-center'><img src='img/correct.jpg'></div><div class='respDiv'><div class='respDivL'>Match<br>(e)</div><div class='respDivR'><font style='color:orange'>No Match<br>(i)</font></div></div></div>","null","FEEDBACK","","","","","","","","","","",""
"","","","","5bb94dea3ea7ed00017cb109","bdp_wmem","Mon Mar 13 2023 00:18:46 GMT-0400 (Eastern Daylight Time)","1032411","Match,No Match","html-keyboard-response","166","831936","0.0-7.0-1.26","","","null","","<div class='trialBorder'><div class='vertical-center'><img src='img/fixation2_sml.jpg'</img></div></div>","null","FIX","","","","","","","","","","",""
"","","","","5bb94dea3ea7ed00017cb109","bdp_wmem","Mon Mar 13 2023 00:18:46 GMT-0400 (Eastern Daylight Time)","1032411","Match,No Match","html-keyboard-response","167","834941","0.0-7.0-2.26","","","null","","<div class='trialBorder'><div class='vertical-center'><img style='vertical-align:center; align:center' src='img/fixation2_sml.jpg'></div><div class='arrayDiv2'><div class='tl'><img class='introPic' src='trustrating_stim/white_mw042.bmp'><br><font color='red'><strong>Keep</strong></font></div><div class='tr'><img class='introPic' src='trustrating_stim/white_mw070.bmp'><br><font color='green'><strong>Share</strong></font></div></div></div>","null","ARRAY","2","trustrating_stim/white_mw042.bmp,trustrating_stim/white_mw070.bmp","0,1","noMatchFace","i","3000","","","","",""
"","","","","5bb94dea3ea7ed00017cb109","bdp_wmem","Mon Mar 13 2023 00:18:46 GMT-0400 (Eastern Daylight Time)","1032411","Match,No Match","html-keyboard-response","168","838947","0.0-7.0-3.26","","","null","","<div class='trialBorder'><div class='vertical-center'><img src='img/fixation2_sml.jpg'</img></div></div>","null","DELAY","","","","","","","","","","",""
"","","","","5bb94dea3ea7ed00017cb109","bdp_wmem","Mon Mar 13 2023 00:18:46 GMT-0400 (Eastern Daylight Time)","1032411","Match,No Match","html-keyboard-response","169","839854","0.0-7.0-4.26","","","907","","<div class='trialBorder'><div class='targDiv'><div class='tc'><img class='introPic' src='trustrating_stim/white_mw091.bmp'><br><font color='green'><strong>Share</strong></font></div></div><div class='respDiv'><div class='respDivL'>Match<br>(e)</div><div class='respDivR'>No Match<br>(i)</div></div></div>","i","TARGET","2","trustrating_stim/white_mw042.bmp,trustrating_stim/white_mw070.bmp","0,1","noMatchFace","i","3000","trustrating_stim/white_mw091.bmp","green","Share","REAL","1"
"","","","","5bb94dea3ea7ed00017cb109","bdp_wmem","Mon Mar 13 2023 00:18:46 GMT-0400 (Eastern Daylight Time)","1032411","Match,No Match","html-keyboard-response","170","840364","0.0-7.0-5.26","","","null","","<div class='trialBorder'><div class='vertical-center'><img src='img/correct.jpg'></div><div class='respDiv'><div class='respDivL'>Match<br>(e)</div><div class='respDivR'><font style='color:orange'>No Match<br>(i)</font></div></div></div>","null","FEEDBACK","","","","","","","","","","",""
"","","","","5bb94dea3ea7ed00017cb109","bdp_wmem","Mon Mar 13 2023 00:18:46 GMT-0400 (Eastern Daylight Time)","1032411","Match,No Match","html-keyboard-response","171","840873","0.0-7.0-1.27","","","null","","<div class='trialBorder'><div class='vertical-center'><img src='img/fixation2_sml.jpg'</img></div></div>","null","FIX","","","","","","","","","","",""
"","","","","5bb94dea3ea7ed00017cb109","bdp_wmem","Mon Mar 13 2023 00:18:46 GMT-0400 (Eastern Daylight Time)","1032411","Match,No Match","html-keyboard-response","172","842381","0.0-7.0-2.27","","","null","","<div class='trialBorder'><div class='vertical-center'><img style='vertical-align:center; align:center' src='img/fixation2_sml.jpg'></div><div class='arrayDiv1'><div class='tc'><img class='introPic' src='trustrating_stim/white_mw038.bmp'><br><font color='red'><strong>Keep</strong></font></div></div></div>","null","ARRAY","1","trustrating_stim/white_mw038.bmp","0","Match","e","1500","","","","",""
"","","","","5bb94dea3ea7ed00017cb109","bdp_wmem","Mon Mar 13 2023 00:18:46 GMT-0400 (Eastern Daylight Time)","1032411","Match,No Match","html-keyboard-response","173","846393","0.0-7.0-3.27","","","null","","<div class='trialBorder'><div class='vertical-center'><img src='img/fixation2_sml.jpg'</img></div></div>","null","DELAY","","","","","","","","","","",""
"","","","","5bb94dea3ea7ed00017cb109","bdp_wmem","Mon Mar 13 2023 00:18:46 GMT-0400 (Eastern Daylight Time)","1032411","Match,No Match","html-keyboard-response","174","847070","0.0-7.0-4.27","","","676","","<div class='trialBorder'><div class='targDiv'><div class='tc'><img class='introPic' src='trustrating_stim/white_mw038.bmp'><br><font color='red'><strong>Keep</strong></font></div></div><div class='respDiv'><div class='respDivL'>Match<br>(e)</div><div class='respDivR'>No Match<br>(i)</div></div></div>","e","TARGET","1","trustrating_stim/white_mw038.bmp","0","Match","e","1500","trustrating_stim/white_mw038.bmp","red","Keep","REAL","1"
"","","","","5bb94dea3ea7ed00017cb109","bdp_wmem","Mon Mar 13 2023 00:18:46 GMT-0400 (Eastern Daylight Time)","1032411","Match,No Match","html-keyboard-response","175","847579","0.0-7.0-5.27","","","null","","<div class='trialBorder'><div class='vertical-center'><img src='img/correct.jpg'></div><div class='respDiv'><div class='respDivL'><font style='color:orange'>Match<br>(e)</font></div><div class='respDivR'>No Match<br>(i)</div></div></div>","null","FEEDBACK","","","","","","","","","","",""
"","","","","5bb94dea3ea7ed00017cb109","bdp_wmem","Mon Mar 13 2023 00:18:46 GMT-0400 (Eastern Daylight Time)","1032411","Match,No Match","html-keyboard-response","176","848087","0.0-7.0-1.28","","","null","","<div class='trialBorder'><div class='vertical-center'><img src='img/fixation2_sml.jpg'</img></div></div>","null","FIX","","","","","","","","","","",""
"","","","","5bb94dea3ea7ed00017cb109","bdp_wmem","Mon Mar 13 2023 00:18:46 GMT-0400 (Eastern Daylight Time)","1032411","Match,No Match","html-keyboard-response","177","851092","0.0-7.0-2.28","","","null","","<div class='trialBorder'><div class='vertical-center'><img style='vertical-align:center; align:center' src='img/fixation2_sml.jpg'></div><div class='arrayDiv2'><div class='tl'><img class='introPic' src='trustrating_stim/white_mw085.bmp'><br><font color='green'><strong>Share</strong></font></div><div class='tr'><img class='introPic' src='trustrating_stim/white_mw012.bmp'><br><font color='red'><strong>Keep</strong></font></div></div></div>","null","ARRAY","2","trustrating_stim/white_mw085.bmp,trustrating_stim/white_mw012.bmp","1,0","Match","e","3000","","","","",""
"","","","","5bb94dea3ea7ed00017cb109","bdp_wmem","Mon Mar 13 2023 00:18:46 GMT-0400 (Eastern Daylight Time)","1032411","Match,No Match","html-keyboard-response","178","855096","0.0-7.0-3.28","","","null","","<div class='trialBorder'><div class='vertical-center'><img src='img/fixation2_sml.jpg'</img></div></div>","null","DELAY","","","","","","","","","","",""
"","","","","5bb94dea3ea7ed00017cb109","bdp_wmem","Mon Mar 13 2023 00:18:46 GMT-0400 (Eastern Daylight Time)","1032411","Match,No Match","html-keyboard-response","179","855900","0.0-7.0-4.28","","","804","","<div class='trialBorder'><div class='targDiv'><div class='tc'><img class='introPic' src='trustrating_stim/white_mw012.bmp'><br><font color='red'><strong>Keep</strong></font></div></div><div class='respDiv'><div class='respDivL'>Match<br>(e)</div><div class='respDivR'>No Match<br>(i)</div></div></div>","e","TARGET","2","trustrating_stim/white_mw085.bmp,trustrating_stim/white_mw012.bmp","1,0","Match","e","3000","trustrating_stim/white_mw012.bmp","red","Keep","REAL","1"
"","","","","5bb94dea3ea7ed00017cb109","bdp_wmem","Mon Mar 13 2023 00:18:46 GMT-0400 (Eastern Daylight Time)","1032411","Match,No Match","html-keyboard-response","180","856405","0.0-7.0-5.28","","","null","","<div class='trialBorder'><div class='vertical-center'><img src='img/correct.jpg'></div><div class='respDiv'><div class='respDivL'><font style='color:orange'>Match<br>(e)</font></div><div class='respDivR'>No Match<br>(i)</div></div></div>","null","FEEDBACK","","","","","","","","","","",""
"","","","","5bb94dea3ea7ed00017cb109","bdp_wmem","Mon Mar 13 2023 00:18:46 GMT-0400 (Eastern Daylight Time)","1032411","Match,No Match","html-keyboard-response","181","856912","0.0-7.0-1.29","","","null","","<div class='trialBorder'><div class='vertical-center'><img src='img/fixation2_sml.jpg'</img></div></div>","null","FIX","","","","","","","","","","",""
"","","","","5bb94dea3ea7ed00017cb109","bdp_wmem","Mon Mar 13 2023 00:18:46 GMT-0400 (Eastern Daylight Time)","1032411","Match,No Match","html-keyboard-response","182","861427","0.0-7.0-2.29","","","null","","<div class='trialBorder'><div class='vertical-center'><img style='vertical-align:center; align:center' src='img/fixation2_sml.jpg'></div><div class='arrayDiv3'><div class='tl'><img class='introPic' src='trustrating_stim/white_mw085.bmp'><br><font color='red'><strong>Keep</strong></font></div><div class='tc'><img class='introPic' src='trustrating_stim/white_mw012.bmp'><br><font color='green'><strong>Share</strong></font></div><div class='tr'><img class='introPic' src='trustrating_stim/white_mw078.bmp'><br><font color='green'><strong>Share</strong></font></div></div></div>","null","ARRAY","3","trustrating_stim/white_mw085.bmp,trustrating_stim/white_mw012.bmp,trustrating_stim/white_mw078.bmp","0,1,1","noMatchOutcome","i","4500","","","","",""
"","","","","5bb94dea3ea7ed00017cb109","bdp_wmem","Mon Mar 13 2023 00:18:46 GMT-0400 (Eastern Daylight Time)","1032411","Match,No Match","html-keyboard-response","183","865436","0.0-7.0-3.29","","","null","","<div class='trialBorder'><div class='vertical-center'><img src='img/fixation2_sml.jpg'</img></div></div>","null","DELAY","","","","","","","","","","",""
"","","","","5bb94dea3ea7ed00017cb109","bdp_wmem","Mon Mar 13 2023 00:18:46 GMT-0400 (Eastern Daylight Time)","1032411","Match,No Match","html-keyboard-response","184","866699","0.0-7.0-4.29","","","1262","","<div class='trialBorder'><div class='targDiv'><div class='tc'><img class='introPic' src='trustrating_stim/white_mw085.bmp'><br><font color='green'><strong>Share</strong></font></div></div><div class='respDiv'><div class='respDivL'>Match<br>(e)</div><div class='respDivR'>No Match<br>(i)</div></div></div>","i","TARGET","3","trustrating_stim/white_mw085.bmp,trustrating_stim/white_mw012.bmp,trustrating_stim/white_mw078.bmp","0,1,1","noMatchOutcome","i","4500","trustrating_stim/white_mw085.bmp","green","Share","REAL","1"
"","","","","5bb94dea3ea7ed00017cb109","bdp_wmem","Mon Mar 13 2023 00:18:46 GMT-0400 (Eastern Daylight Time)","1032411","Match,No Match","html-keyboard-response","185","867208","0.0-7.0-5.29","","","null","","<div class='trialBorder'><div class='vertical-center'><img src='img/correct.jpg'></div><div class='respDiv'><div class='respDivL'>Match<br>(e)</div><div class='respDivR'><font style='color:orange'>No Match<br>(i)</font></div></div></div>","null","FEEDBACK","","","","","","","","","","",""
