"trial_type","trial_index","time_elapsed","internal_node_id","subject_id","task","startTime","totalTime","labels","view_history","rt","event","trial","time","trialtype","success","stimulus","key_press","stimType","arraySize","arrayFaces","arrayOutcomes","matchType","corrResp","arrayDur","targFace","targCol","targOutcome","trialType","corr"
"pavlovia","0","3","0.0-0.0","5fb3d39a2ceaab00087faddb","bdp_wmem","Wed Mar 15 2023 14:28:20 GMT-0500 (Central Daylight Time)","594645","Match,No Match","","","","","","","","","","","","","","","","","","","","",""
"instructions","1","1943","0.0-1.0","5fb3d39a2ceaab00087faddb","bdp_wmem","Wed Mar 15 2023 14:28:20 GMT-0500 (Central Daylight Time)","594645","Match,No Match","[{""page_index"":0,""viewing_time"":1939}]","1939","","","","","","","","","","","","","","","","","","",""
"","","","","5fb3d39a2ceaab00087faddb","bdp_wmem","Wed Mar 15 2023 14:28:20 GMT-0500 (Central Daylight Time)","594645","Match,No Match","","","fullscreenenter","2","8260","fullscreenenter","","","","","","","","","","","","","","",""
"fullscreen","2","9246","0.0-2.0","5fb3d39a2ceaab00087faddb","bdp_wmem","Wed Mar 15 2023 14:28:20 GMT-0500 (Central Daylight Time)","594645","Match,No Match","","","","","","","true","","","","","","","","","","","","","",""
"instructions","3","82970","0.0-4.0","5fb3d39a2ceaab00087faddb","bdp_wmem","Wed Mar 15 2023 14:28:20 GMT-0500 (Central Daylight Time)","594645","Match,No Match","[{""page_index"":0,""viewing_time"":25276},{""page_index"":1,""viewing_time"":22943},{""page_index"":2,""viewing_time"":11658},{""page_index"":3,""viewing_time"":5700},{""page_index"":4,""viewing_time"":8145}]","73722","","","","","","","","","","","","","","","","","","",""
"html-keyboard-response","4","83474","0.0-5.0-1.0","5fb3d39a2ceaab00087faddb","bdp_wmem","Wed Mar 15 2023 14:28:20 GMT-0500 (Central Daylight Time)","594645","Match,No Match","","null","","","","","","<div class='trialBorder'><div class='vertical-center'><img src='img/fixation2_sml.jpg'</img></div></div>","null","FIX","","","","","","","","","","",""
"html-keyboard-response","5","87977","0.0-5.0-2.0","5fb3d39a2ceaab00087faddb","bdp_wmem","Wed Mar 15 2023 14:28:20 GMT-0500 (Central Daylight Time)","594645","Match,No Match","","null","","","","","","<div class='trialBorder'><div class='vertical-center'><img style='vertical-align:center; align:center' src='img/fixation2_sml.jpg'></div><div class='arrayDiv3'><div class='tl'><img class='introPic' src='trustrating_stim/white_mw010.bmp'><br><font color='green'><strong>Share</strong></font></div><div class='tc'><img class='introPic' src='trustrating_stim/white_mw092.bmp'><br><font color='red'><strong>Keep</strong></font></div><div class='tr'><img class='introPic' src='trustrating_stim/white_mw091.bmp'><br><font color='green'><strong>Share</strong></font></div></div></div>","null","ARRAY","3","trustrating_stim/white_mw010.bmp,trustrating_stim/white_mw092.bmp,trustrating_stim/white_mw091.bmp","1,0,1","noMatchOutcome","i","4500","","","","",""
"html-keyboard-response","6","91981","0.0-5.0-3.0","5fb3d39a2ceaab00087faddb","bdp_wmem","Wed Mar 15 2023 14:28:20 GMT-0500 (Central Daylight Time)","594645","Match,No Match","","null","","","","","","<div class='trialBorder'><div class='vertical-center'><img src='img/fixation2_sml.jpg'</img></div></div>","null","DELAY","","","","","","","","","","",""
"html-keyboard-response","7","94032","0.0-5.0-4.0","5fb3d39a2ceaab00087faddb","bdp_wmem","Wed Mar 15 2023 14:28:20 GMT-0500 (Central Daylight Time)","594645","Match,No Match","","2049","","","","","","<div class='trialBorder'><div class='targDiv'><div class='tc'><img class='introPic' src='trustrating_stim/white_mw010.bmp'><br><font color='red'><strong>Keep</strong></font></div></div><div class='respDiv'><div class='respDivL'>Match<br>(e)</div><div class='respDivR'>No Match<br>(i)</div></div></div>","i","TARGET","3","trustrating_stim/white_mw010.bmp,trustrating_stim/white_mw092.bmp,trustrating_stim/white_mw091.bmp","1,0,1","noMatchOutcome","i","4500","trustrating_stim/white_mw010.bmp","red","Keep","PRACTICE","1"
"html-keyboard-response","8","94534","0.0-5.0-5.0","5fb3d39a2ceaab00087faddb","bdp_wmem","Wed Mar 15 2023 14:28:20 GMT-0500 (Central Daylight Time)","594645","Match,No Match","","null","","","","","","<div class='trialBorder'><div class='vertical-center'><img src='img/correct.jpg'></div><div class='respDiv'><div class='respDivL'>Match<br>(e)</div><div class='respDivR'><font style='color:orange'>No Match<br>(i)</font></div></div></div>","null","FEEDBACK","","","","","","","","","","",""
"html-keyboard-response","9","95036","0.0-5.0-1.1","5fb3d39a2ceaab00087faddb","bdp_wmem","Wed Mar 15 2023 14:28:20 GMT-0500 (Central Daylight Time)","594645","Match,No Match","","null","","","","","","<div class='trialBorder'><div class='vertical-center'><img src='img/fixation2_sml.jpg'</img></div></div>","null","FIX","","","","","","","","","","",""
"html-keyboard-response","10","98038","0.0-5.0-2.1","5fb3d39a2ceaab00087faddb","bdp_wmem","Wed Mar 15 2023 14:28:20 GMT-0500 (Central Daylight Time)","594645","Match,No Match","","null","","","","","","<div class='trialBorder'><div class='vertical-center'><img style='vertical-align:center; align:center' src='img/fixation2_sml.jpg'></div><div class='arrayDiv2'><div class='tl'><img class='introPic' src='trustrating_stim/white_mw042.bmp'><br><font color='red'><strong>Keep</strong></font></div><div class='tr'><img class='introPic' src='trustrating_stim/white_mw078.bmp'><br><font color='green'><strong>Share</strong></font></div></div></div>","null","ARRAY","2","trustrating_stim/white_mw042.bmp,trustrating_stim/white_mw078.bmp","0,1","noMatchFace","i","3000","","","","",""
"html-keyboard-response","11","102040","0.0-5.0-3.1","5fb3d39a2ceaab00087faddb","bdp_wmem","Wed Mar 15 2023 14:28:20 GMT-0500 (Central Daylight Time)","594645","Match,No Match","","null","","","","","","<div class='trialBorder'><div class='vertical-center'><img src='img/fixation2_sml.jpg'</img></div></div>","null","DELAY","","","","","","","","","","",""
"html-keyboard-response","12","103323","0.0-5.0-4.1","5fb3d39a2ceaab00087faddb","bdp_wmem","Wed Mar 15 2023 14:28:20 GMT-0500 (Central Daylight Time)","594645","Match,No Match","","1283","","","","","","<div class='trialBorder'><div class='targDiv'><div class='tc'><img class='introPic' src='trustrating_stim/white_mw012.bmp'><br><font color='green'><strong>Share</strong></font></div></div><div class='respDiv'><div class='respDivL'>Match<br>(e)</div><div class='respDivR'>No Match<br>(i)</div></div></div>","i","TARGET","2","trustrating_stim/white_mw042.bmp,trustrating_stim/white_mw078.bmp","0,1","noMatchFace","i","3000","trustrating_stim/white_mw012.bmp","green","Share","PRACTICE","1"
"html-keyboard-response","13","103825","0.0-5.0-5.1","5fb3d39a2ceaab00087faddb","bdp_wmem","Wed Mar 15 2023 14:28:20 GMT-0500 (Central Daylight Time)","594645","Match,No Match","","null","","","","","","<div class='trialBorder'><div class='vertical-center'><img src='img/correct.jpg'></div><div class='respDiv'><div class='respDivL'>Match<br>(e)</div><div class='respDivR'><font style='color:orange'>No Match<br>(i)</font></div></div></div>","null","FEEDBACK","","","","","","","","","","",""
"html-keyboard-response","14","104326","0.0-5.0-1.2","5fb3d39a2ceaab00087faddb","bdp_wmem","Wed Mar 15 2023 14:28:20 GMT-0500 (Central Daylight Time)","594645","Match,No Match","","null","","","","","","<div class='trialBorder'><div class='vertical-center'><img src='img/fixation2_sml.jpg'</img></div></div>","null","FIX","","","","","","","","","","",""
"html-keyboard-response","15","108829","0.0-5.0-2.2","5fb3d39a2ceaab00087faddb","bdp_wmem","Wed Mar 15 2023 14:28:20 GMT-0500 (Central Daylight Time)","594645","Match,No Match","","null","","","","","","<div class='trialBorder'><div class='vertical-center'><img style='vertical-align:center; align:center' src='img/fixation2_sml.jpg'></div><div class='arrayDiv3'><div class='tl'><img class='introPic' src='trustrating_stim/white_mw038.bmp'><br><font color='green'><strong>Share</strong></font></div><div class='tc'><img class='introPic' src='trustrating_stim/white_mw010.bmp'><br><font color='red'><strong>Keep</strong></font></div><div class='tr'><img class='introPic' src='trustrating_stim/white_mw091.bmp'><br><font color='red'><strong>Keep</strong></font></div></div></div>","null","ARRAY","3","trustrating_stim/white_mw038.bmp,trustrating_stim/white_mw010.bmp,trustrating_stim/white_mw091.bmp","1,0,0","Match","e","4500","","","","",""
"html-keyboard-response","16","112831","0.0-5.0-3.2","5fb3d39a2ceaab00087faddb","bdp_wmem","Wed Mar 15 2023 14:28:20 GMT-0500 (Central Daylight Time)","594645","Match,No Match","","null","","","","","","<div class='trialBorder'><div class='vertical-center'><img src='img/fixation2_sml.jpg'</img></div></div>","null","DELAY","","","","","","","","","","",""
"html-keyboard-response","17","116237","0.0-5.0-4.2","5fb3d39a2ceaab00087faddb","bdp_wmem","Wed Mar 15 2023 14:28:20 GMT-0500 (Central Daylight Time)","594645","Match,No Match","","3402","","","","","","<div class='trialBorder'><div class='targDiv'><div class='tc'><img class='introPic' src='trustrating_stim/white_mw010.bmp'><br><font color='red'><strong>Keep</strong></font></div></div><div class='respDiv'><div class='respDivL'>Match<br>(e)</div><div class='respDivR'>No Match<br>(i)</div></div></div>","e","TARGET","3","trustrating_stim/white_mw038.bmp,trustrating_stim/white_mw010.bmp,trustrating_stim/white_mw091.bmp","1,0,0","Match","e","4500","trustrating_stim/white_mw010.bmp","red","Keep","PRACTICE","1"
"html-keyboard-response","18","116738","0.0-5.0-5.2","5fb3d39a2ceaab00087faddb","bdp_wmem","Wed Mar 15 2023 14:28:20 GMT-0500 (Central Daylight Time)","594645","Match,No Match","","null","","","","","","<div class='trialBorder'><div class='vertical-center'><img src='img/correct.jpg'></div><div class='respDiv'><div class='respDivL'><font style='color:orange'>Match<br>(e)</font></div><div class='respDivR'>No Match<br>(i)</div></div></div>","null","FEEDBACK","","","","","","","","","","",""
"html-keyboard-response","19","117241","0.0-5.0-1.3","5fb3d39a2ceaab00087faddb","bdp_wmem","Wed Mar 15 2023 14:28:20 GMT-0500 (Central Daylight Time)","594645","Match,No Match","","null","","","","","","<div class='trialBorder'><div class='vertical-center'><img src='img/fixation2_sml.jpg'</img></div></div>","null","FIX","","","","","","","","","","",""
"html-keyboard-response","20","118743","0.0-5.0-2.3","5fb3d39a2ceaab00087faddb","bdp_wmem","Wed Mar 15 2023 14:28:20 GMT-0500 (Central Daylight Time)","594645","Match,No Match","","null","","","","","","<div class='trialBorder'><div class='vertical-center'><img style='vertical-align:center; align:center' src='img/fixation2_sml.jpg'></div><div class='arrayDiv1'><div class='tc'><img class='introPic' src='trustrating_stim/white_mw091.bmp'><br><font color='green'><strong>Share</strong></font></div></div></div>","null","ARRAY","1","trustrating_stim/white_mw091.bmp","1","Match","e","1500","","","","",""
"html-keyboard-response","21","122744","0.0-5.0-3.3","5fb3d39a2ceaab00087faddb","bdp_wmem","Wed Mar 15 2023 14:28:20 GMT-0500 (Central Daylight Time)","594645","Match,No Match","","null","","","","","","<div class='trialBorder'><div class='vertical-center'><img src='img/fixation2_sml.jpg'</img></div></div>","null","DELAY","","","","","","","","","","",""
"html-keyboard-response","22","123702","0.0-5.0-4.3","5fb3d39a2ceaab00087faddb","bdp_wmem","Wed Mar 15 2023 14:28:20 GMT-0500 (Central Daylight Time)","594645","Match,No Match","","957","","","","","","<div class='trialBorder'><div class='targDiv'><div class='tc'><img class='introPic' src='trustrating_stim/white_mw091.bmp'><br><font color='green'><strong>Share</strong></font></div></div><div class='respDiv'><div class='respDivL'>Match<br>(e)</div><div class='respDivR'>No Match<br>(i)</div></div></div>","e","TARGET","1","trustrating_stim/white_mw091.bmp","1","Match","e","1500","trustrating_stim/white_mw091.bmp","green","Share","PRACTICE","1"
"html-keyboard-response","23","124203","0.0-5.0-5.3","5fb3d39a2ceaab00087faddb","bdp_wmem","Wed Mar 15 2023 14:28:20 GMT-0500 (Central Daylight Time)","594645","Match,No Match","","null","","","","","","<div class='trialBorder'><div class='vertical-center'><img src='img/correct.jpg'></div><div class='respDiv'><div class='respDivL'><font style='color:orange'>Match<br>(e)</font></div><div class='respDivR'>No Match<br>(i)</div></div></div>","null","FEEDBACK","","","","","","","","","","",""
"html-keyboard-response","24","124705","0.0-5.0-1.4","5fb3d39a2ceaab00087faddb","bdp_wmem","Wed Mar 15 2023 14:28:20 GMT-0500 (Central Daylight Time)","594645","Match,No Match","","null","","","","","","<div class='trialBorder'><div class='vertical-center'><img src='img/fixation2_sml.jpg'</img></div></div>","null","FIX","","","","","","","","","","",""
"html-keyboard-response","25","126207","0.0-5.0-2.4","5fb3d39a2ceaab00087faddb","bdp_wmem","Wed Mar 15 2023 14:28:20 GMT-0500 (Central Daylight Time)","594645","Match,No Match","","null","","","","","","<div class='trialBorder'><div class='vertical-center'><img style='vertical-align:center; align:center' src='img/fixation2_sml.jpg'></div><div class='arrayDiv1'><div class='tc'><img class='introPic' src='trustrating_stim/white_mw040.bmp'><br><font color='red'><strong>Keep</strong></font></div></div></div>","null","ARRAY","1","trustrating_stim/white_mw040.bmp","0","noMatchFace","i","1500","","","","",""
"html-keyboard-response","26","130209","0.0-5.0-3.4","5fb3d39a2ceaab00087faddb","bdp_wmem","Wed Mar 15 2023 14:28:20 GMT-0500 (Central Daylight Time)","594645","Match,No Match","","null","","","","","","<div class='trialBorder'><div class='vertical-center'><img src='img/fixation2_sml.jpg'</img></div></div>","null","DELAY","","","","","","","","","","",""
"html-keyboard-response","27","131591","0.0-5.0-4.4","5fb3d39a2ceaab00087faddb","bdp_wmem","Wed Mar 15 2023 14:28:20 GMT-0500 (Central Daylight Time)","594645","Match,No Match","","1382","","","","","","<div class='trialBorder'><div class='targDiv'><div class='tc'><img class='introPic' src='trustrating_stim/white_mw091.bmp'><br><font color='red'><strong>Keep</strong></font></div></div><div class='respDiv'><div class='respDivL'>Match<br>(e)</div><div class='respDivR'>No Match<br>(i)</div></div></div>","i","TARGET","1","trustrating_stim/white_mw040.bmp","0","noMatchFace","i","1500","trustrating_stim/white_mw091.bmp","red","Keep","PRACTICE","1"
"html-keyboard-response","28","132093","0.0-5.0-5.4","5fb3d39a2ceaab00087faddb","bdp_wmem","Wed Mar 15 2023 14:28:20 GMT-0500 (Central Daylight Time)","594645","Match,No Match","","null","","","","","","<div class='trialBorder'><div class='vertical-center'><img src='img/correct.jpg'></div><div class='respDiv'><div class='respDivL'>Match<br>(e)</div><div class='respDivR'><font style='color:orange'>No Match<br>(i)</font></div></div></div>","null","FEEDBACK","","","","","","","","","","",""
"html-keyboard-response","29","132595","0.0-5.0-1.5","5fb3d39a2ceaab00087faddb","bdp_wmem","Wed Mar 15 2023 14:28:20 GMT-0500 (Central Daylight Time)","594645","Match,No Match","","null","","","","","","<div class='trialBorder'><div class='vertical-center'><img src='img/fixation2_sml.jpg'</img></div></div>","null","FIX","","","","","","","","","","",""
"html-keyboard-response","30","135598","0.0-5.0-2.5","5fb3d39a2ceaab00087faddb","bdp_wmem","Wed Mar 15 2023 14:28:20 GMT-0500 (Central Daylight Time)","594645","Match,No Match","","null","","","","","","<div class='trialBorder'><div class='vertical-center'><img style='vertical-align:center; align:center' src='img/fixation2_sml.jpg'></div><div class='arrayDiv2'><div class='tl'><img class='introPic' src='trustrating_stim/white_mw091.bmp'><br><font color='green'><strong>Share</strong></font></div><div class='tr'><img class='introPic' src='trustrating_stim/white_mw040.bmp'><br><font color='red'><strong>Keep</strong></font></div></div></div>","null","ARRAY","2","trustrating_stim/white_mw091.bmp,trustrating_stim/white_mw040.bmp","1,0","Match","e","3000","","","","",""
"html-keyboard-response","31","139600","0.0-5.0-3.5","5fb3d39a2ceaab00087faddb","bdp_wmem","Wed Mar 15 2023 14:28:20 GMT-0500 (Central Daylight Time)","594645","Match,No Match","","null","","","","","","<div class='trialBorder'><div class='vertical-center'><img src='img/fixation2_sml.jpg'</img></div></div>","null","DELAY","","","","","","","","","","",""
"html-keyboard-response","32","140448","0.0-5.0-4.5","5fb3d39a2ceaab00087faddb","bdp_wmem","Wed Mar 15 2023 14:28:20 GMT-0500 (Central Daylight Time)","594645","Match,No Match","","846","","","","","","<div class='trialBorder'><div class='targDiv'><div class='tc'><img class='introPic' src='trustrating_stim/white_mw091.bmp'><br><font color='green'><strong>Share</strong></font></div></div><div class='respDiv'><div class='respDivL'>Match<br>(e)</div><div class='respDivR'>No Match<br>(i)</div></div></div>","e","TARGET","2","trustrating_stim/white_mw091.bmp,trustrating_stim/white_mw040.bmp","1,0","Match","e","3000","trustrating_stim/white_mw091.bmp","green","Share","PRACTICE","1"
"html-keyboard-response","33","140950","0.0-5.0-5.5","5fb3d39a2ceaab00087faddb","bdp_wmem","Wed Mar 15 2023 14:28:20 GMT-0500 (Central Daylight Time)","594645","Match,No Match","","null","","","","","","<div class='trialBorder'><div class='vertical-center'><img src='img/correct.jpg'></div><div class='respDiv'><div class='respDivL'><font style='color:orange'>Match<br>(e)</font></div><div class='respDivR'>No Match<br>(i)</div></div></div>","null","FEEDBACK","","","","","","","","","","",""
"instructions","34","144186","0.0-6.0","5fb3d39a2ceaab00087faddb","bdp_wmem","Wed Mar 15 2023 14:28:20 GMT-0500 (Central Daylight Time)","594645","Match,No Match","[{""page_index"":0,""viewing_time"":3236}]","3236","","","","","","","","","","","","","","","","","","",""
"html-keyboard-response","35","144689","0.0-7.0-1.0","5fb3d39a2ceaab00087faddb","bdp_wmem","Wed Mar 15 2023 14:28:20 GMT-0500 (Central Daylight Time)","594645","Match,No Match","","null","","","","","","<div class='trialBorder'><div class='vertical-center'><img src='img/fixation2_sml.jpg'</img></div></div>","null","FIX","","","","","","","","","","",""
"html-keyboard-response","36","147691","0.0-7.0-2.0","5fb3d39a2ceaab00087faddb","bdp_wmem","Wed Mar 15 2023 14:28:20 GMT-0500 (Central Daylight Time)","594645","Match,No Match","","null","","","","","","<div class='trialBorder'><div class='vertical-center'><img style='vertical-align:center; align:center' src='img/fixation2_sml.jpg'></div><div class='arrayDiv2'><div class='tl'><img class='introPic' src='trustrating_stim/white_mw013.bmp'><br><font color='red'><strong>Keep</strong></font></div><div class='tr'><img class='introPic' src='trustrating_stim/white_mw078.bmp'><br><font color='green'><strong>Share</strong></font></div></div></div>","null","ARRAY","2","trustrating_stim/white_mw013.bmp,trustrating_stim/white_mw078.bmp","0,1","Match","e","3000","","","","",""
"html-keyboard-response","37","151693","0.0-7.0-3.0","5fb3d39a2ceaab00087faddb","bdp_wmem","Wed Mar 15 2023 14:28:20 GMT-0500 (Central Daylight Time)","594645","Match,No Match","","null","","","","","","<div class='trialBorder'><div class='vertical-center'><img src='img/fixation2_sml.jpg'</img></div></div>","null","DELAY","","","","","","","","","","",""
"html-keyboard-response","38","152870","0.0-7.0-4.0","5fb3d39a2ceaab00087faddb","bdp_wmem","Wed Mar 15 2023 14:28:20 GMT-0500 (Central Daylight Time)","594645","Match,No Match","","1175","","","","","","<div class='trialBorder'><div class='targDiv'><div class='tc'><img class='introPic' src='trustrating_stim/white_mw013.bmp'><br><font color='red'><strong>Keep</strong></font></div></div><div class='respDiv'><div class='respDivL'>Match<br>(e)</div><div class='respDivR'>No Match<br>(i)</div></div></div>","e","TARGET","2","trustrating_stim/white_mw013.bmp,trustrating_stim/white_mw078.bmp","0,1","Match","e","3000","trustrating_stim/white_mw013.bmp","red","Keep","REAL","1"
"html-keyboard-response","39","153373","0.0-7.0-5.0","5fb3d39a2ceaab00087faddb","bdp_wmem","Wed Mar 15 2023 14:28:20 GMT-0500 (Central Daylight Time)","594645","Match,No Match","","null","","","","","","<div class='trialBorder'><div class='vertical-center'><img src='img/correct.jpg'></div><div class='respDiv'><div class='respDivL'><font style='color:orange'>Match<br>(e)</font></div><div class='respDivR'>No Match<br>(i)</div></div></div>","null","FEEDBACK","","","","","","","","","","",""
"html-keyboard-response","40","153874","0.0-7.0-1.1","5fb3d39a2ceaab00087faddb","bdp_wmem","Wed Mar 15 2023 14:28:20 GMT-0500 (Central Daylight Time)","594645","Match,No Match","","null","","","","","","<div class='trialBorder'><div class='vertical-center'><img src='img/fixation2_sml.jpg'</img></div></div>","null","FIX","","","","","","","","","","",""
"html-keyboard-response","41","156876","0.0-7.0-2.1","5fb3d39a2ceaab00087faddb","bdp_wmem","Wed Mar 15 2023 14:28:20 GMT-0500 (Central Daylight Time)","594645","Match,No Match","","null","","","","","","<div class='trialBorder'><div class='vertical-center'><img style='vertical-align:center; align:center' src='img/fixation2_sml.jpg'></div><div class='arrayDiv2'><div class='tl'><img class='introPic' src='trustrating_stim/white_mw038.bmp'><br><font color='green'><strong>Share</strong></font></div><div class='tr'><img class='introPic' src='trustrating_stim/white_mw003.bmp'><br><font color='red'><strong>Keep</strong></font></div></div></div>","null","ARRAY","2","trustrating_stim/white_mw038.bmp,trustrating_stim/white_mw003.bmp","1,0","noMatchFace","i","3000","","","","",""
"html-keyboard-response","42","160878","0.0-7.0-3.1","5fb3d39a2ceaab00087faddb","bdp_wmem","Wed Mar 15 2023 14:28:20 GMT-0500 (Central Daylight Time)","594645","Match,No Match","","null","","","","","","<div class='trialBorder'><div class='vertical-center'><img src='img/fixation2_sml.jpg'</img></div></div>","null","DELAY","","","","","","","","","","",""
"html-keyboard-response","43","162088","0.0-7.0-4.1","5fb3d39a2ceaab00087faddb","bdp_wmem","Wed Mar 15 2023 14:28:20 GMT-0500 (Central Daylight Time)","594645","Match,No Match","","1208","","","","","","<div class='trialBorder'><div class='targDiv'><div class='tc'><img class='introPic' src='trustrating_stim/white_mw091.bmp'><br><font color='red'><strong>Keep</strong></font></div></div><div class='respDiv'><div class='respDivL'>Match<br>(e)</div><div class='respDivR'>No Match<br>(i)</div></div></div>","i","TARGET","2","trustrating_stim/white_mw038.bmp,trustrating_stim/white_mw003.bmp","1,0","noMatchFace","i","3000","trustrating_stim/white_mw091.bmp","red","Keep","REAL","1"
"html-keyboard-response","44","162590","0.0-7.0-5.1","5fb3d39a2ceaab00087faddb","bdp_wmem","Wed Mar 15 2023 14:28:20 GMT-0500 (Central Daylight Time)","594645","Match,No Match","","null","","","","","","<div class='trialBorder'><div class='vertical-center'><img src='img/correct.jpg'></div><div class='respDiv'><div class='respDivL'>Match<br>(e)</div><div class='respDivR'><font style='color:orange'>No Match<br>(i)</font></div></div></div>","null","FEEDBACK","","","","","","","","","","",""
"html-keyboard-response","45","163091","0.0-7.0-1.2","5fb3d39a2ceaab00087faddb","bdp_wmem","Wed Mar 15 2023 14:28:20 GMT-0500 (Central Daylight Time)","594645","Match,No Match","","null","","","","","","<div class='trialBorder'><div class='vertical-center'><img src='img/fixation2_sml.jpg'</img></div></div>","null","FIX","","","","","","","","","","",""
"html-keyboard-response","46","166095","0.0-7.0-2.2","5fb3d39a2ceaab00087faddb","bdp_wmem","Wed Mar 15 2023 14:28:20 GMT-0500 (Central Daylight Time)","594645","Match,No Match","","null","","","","","","<div class='trialBorder'><div class='vertical-center'><img style='vertical-align:center; align:center' src='img/fixation2_sml.jpg'></div><div class='arrayDiv2'><div class='tl'><img class='introPic' src='trustrating_stim/white_mw003.bmp'><br><font color='green'><strong>Share</strong></font></div><div class='tr'><img class='introPic' src='trustrating_stim/white_mw092.bmp'><br><font color='red'><strong>Keep</strong></font></div></div></div>","null","ARRAY","2","trustrating_stim/white_mw003.bmp,trustrating_stim/white_mw092.bmp","1,0","noMatchOutcome","i","3000","","","","",""
"html-keyboard-response","47","170096","0.0-7.0-3.2","5fb3d39a2ceaab00087faddb","bdp_wmem","Wed Mar 15 2023 14:28:20 GMT-0500 (Central Daylight Time)","594645","Match,No Match","","null","","","","","","<div class='trialBorder'><div class='vertical-center'><img src='img/fixation2_sml.jpg'</img></div></div>","null","DELAY","","","","","","","","","","",""
"html-keyboard-response","48","173666","0.0-7.0-4.2","5fb3d39a2ceaab00087faddb","bdp_wmem","Wed Mar 15 2023 14:28:20 GMT-0500 (Central Daylight Time)","594645","Match,No Match","","3568","","","","","","<div class='trialBorder'><div class='targDiv'><div class='tc'><img class='introPic' src='trustrating_stim/white_mw003.bmp'><br><font color='red'><strong>Keep</strong></font></div></div><div class='respDiv'><div class='respDivL'>Match<br>(e)</div><div class='respDivR'>No Match<br>(i)</div></div></div>","i","TARGET","2","trustrating_stim/white_mw003.bmp,trustrating_stim/white_mw092.bmp","1,0","noMatchOutcome","i","3000","trustrating_stim/white_mw003.bmp","red","Keep","REAL","1"
"html-keyboard-response","49","174168","0.0-7.0-5.2","5fb3d39a2ceaab00087faddb","bdp_wmem","Wed Mar 15 2023 14:28:20 GMT-0500 (Central Daylight Time)","594645","Match,No Match","","null","","","","","","<div class='trialBorder'><div class='vertical-center'><img src='img/correct.jpg'></div><div class='respDiv'><div class='respDivL'>Match<br>(e)</div><div class='respDivR'><font style='color:orange'>No Match<br>(i)</font></div></div></div>","null","FEEDBACK","","","","","","","","","","",""
"html-keyboard-response","50","174670","0.0-7.0-1.3","5fb3d39a2ceaab00087faddb","bdp_wmem","Wed Mar 15 2023 14:28:20 GMT-0500 (Central Daylight Time)","594645","Match,No Match","","null","","","","","","<div class='trialBorder'><div class='vertical-center'><img src='img/fixation2_sml.jpg'</img></div></div>","null","FIX","","","","","","","","","","",""
"html-keyboard-response","51","179171","0.0-7.0-2.3","5fb3d39a2ceaab00087faddb","bdp_wmem","Wed Mar 15 2023 14:28:20 GMT-0500 (Central Daylight Time)","594645","Match,No Match","","null","","","","","","<div class='trialBorder'><div class='vertical-center'><img style='vertical-align:center; align:center' src='img/fixation2_sml.jpg'></div><div class='arrayDiv3'><div class='tl'><img class='introPic' src='trustrating_stim/white_mw012.bmp'><br><font color='green'><strong>Share</strong></font></div><div class='tc'><img class='introPic' src='trustrating_stim/white_mw070.bmp'><br><font color='red'><strong>Keep</strong></font></div><div class='tr'><img class='introPic' src='trustrating_stim/white_mw040.bmp'><br><font color='red'><strong>Keep</strong></font></div></div></div>","null","ARRAY","3","trustrating_stim/white_mw012.bmp,trustrating_stim/white_mw070.bmp,trustrating_stim/white_mw040.bmp","1,0,0","noMatchFace","i","4500","","","","",""
"html-keyboard-response","52","183173","0.0-7.0-3.3","5fb3d39a2ceaab00087faddb","bdp_wmem","Wed Mar 15 2023 14:28:20 GMT-0500 (Central Daylight Time)","594645","Match,No Match","","null","","","","","","<div class='trialBorder'><div class='vertical-center'><img src='img/fixation2_sml.jpg'</img></div></div>","null","DELAY","","","","","","","","","","",""
"html-keyboard-response","53","185279","0.0-7.0-4.3","5fb3d39a2ceaab00087faddb","bdp_wmem","Wed Mar 15 2023 14:28:20 GMT-0500 (Central Daylight Time)","594645","Match,No Match","","2106","","","","","","<div class='trialBorder'><div class='targDiv'><div class='tc'><img class='introPic' src='trustrating_stim/white_mw042.bmp'><br><font color='red'><strong>Keep</strong></font></div></div><div class='respDiv'><div class='respDivL'>Match<br>(e)</div><div class='respDivR'>No Match<br>(i)</div></div></div>","e","TARGET","3","trustrating_stim/white_mw012.bmp,trustrating_stim/white_mw070.bmp,trustrating_stim/white_mw040.bmp","1,0,0","noMatchFace","i","4500","trustrating_stim/white_mw042.bmp","red","Keep","REAL","0"
"html-keyboard-response","54","185783","0.0-7.0-5.3","5fb3d39a2ceaab00087faddb","bdp_wmem","Wed Mar 15 2023 14:28:20 GMT-0500 (Central Daylight Time)","594645","Match,No Match","","null","","","","","","<div class='trialBorder'><div class='vertical-center'><img src='img/error.jpg'></div><div class='respDiv'><div class='respDivL'><font style='color:orange'>Match<br>(e)</font></div><div class='respDivR'>No Match<br>(i)</div></div></div>","null","FEEDBACK","","","","","","","","","","",""
"html-keyboard-response","55","186285","0.0-7.0-1.4","5fb3d39a2ceaab00087faddb","bdp_wmem","Wed Mar 15 2023 14:28:20 GMT-0500 (Central Daylight Time)","594645","Match,No Match","","null","","","","","","<div class='trialBorder'><div class='vertical-center'><img src='img/fixation2_sml.jpg'</img></div></div>","null","FIX","","","","","","","","","","",""
"html-keyboard-response","56","189288","0.0-7.0-2.4","5fb3d39a2ceaab00087faddb","bdp_wmem","Wed Mar 15 2023 14:28:20 GMT-0500 (Central Daylight Time)","594645","Match,No Match","","null","","","","","","<div class='trialBorder'><div class='vertical-center'><img style='vertical-align:center; align:center' src='img/fixation2_sml.jpg'></div><div class='arrayDiv2'><div class='tl'><img class='introPic' src='trustrating_stim/white_mw092.bmp'><br><font color='green'><strong>Share</strong></font></div><div class='tr'><img class='introPic' src='trustrating_stim/white_mw040.bmp'><br><font color='red'><strong>Keep</strong></font></div></div></div>","null","ARRAY","2","trustrating_stim/white_mw092.bmp,trustrating_stim/white_mw040.bmp","1,0","Match","e","3000","","","","",""
"html-keyboard-response","57","193290","0.0-7.0-3.4","5fb3d39a2ceaab00087faddb","bdp_wmem","Wed Mar 15 2023 14:28:20 GMT-0500 (Central Daylight Time)","594645","Match,No Match","","null","","","","","","<div class='trialBorder'><div class='vertical-center'><img src='img/fixation2_sml.jpg'</img></div></div>","null","DELAY","","","","","","","","","","",""
"html-keyboard-response","58","194410","0.0-7.0-4.4","5fb3d39a2ceaab00087faddb","bdp_wmem","Wed Mar 15 2023 14:28:20 GMT-0500 (Central Daylight Time)","594645","Match,No Match","","1118","","","","","","<div class='trialBorder'><div class='targDiv'><div class='tc'><img class='introPic' src='trustrating_stim/white_mw040.bmp'><br><font color='red'><strong>Keep</strong></font></div></div><div class='respDiv'><div class='respDivL'>Match<br>(e)</div><div class='respDivR'>No Match<br>(i)</div></div></div>","e","TARGET","2","trustrating_stim/white_mw092.bmp,trustrating_stim/white_mw040.bmp","1,0","Match","e","3000","trustrating_stim/white_mw040.bmp","red","Keep","REAL","1"
"html-keyboard-response","59","194911","0.0-7.0-5.4","5fb3d39a2ceaab00087faddb","bdp_wmem","Wed Mar 15 2023 14:28:20 GMT-0500 (Central Daylight Time)","594645","Match,No Match","","null","","","","","","<div class='trialBorder'><div class='vertical-center'><img src='img/correct.jpg'></div><div class='respDiv'><div class='respDivL'><font style='color:orange'>Match<br>(e)</font></div><div class='respDivR'>No Match<br>(i)</div></div></div>","null","FEEDBACK","","","","","","","","","","",""
"html-keyboard-response","60","195413","0.0-7.0-1.5","5fb3d39a2ceaab00087faddb","bdp_wmem","Wed Mar 15 2023 14:28:20 GMT-0500 (Central Daylight Time)","594645","Match,No Match","","null","","","","","","<div class='trialBorder'><div class='vertical-center'><img src='img/fixation2_sml.jpg'</img></div></div>","null","FIX","","","","","","","","","","",""
"html-keyboard-response","61","199915","0.0-7.0-2.5","5fb3d39a2ceaab00087faddb","bdp_wmem","Wed Mar 15 2023 14:28:20 GMT-0500 (Central Daylight Time)","594645","Match,No Match","","null","","","","","","<div class='trialBorder'><div class='vertical-center'><img style='vertical-align:center; align:center' src='img/fixation2_sml.jpg'></div><div class='arrayDiv3'><div class='tl'><img class='introPic' src='trustrating_stim/white_mw091.bmp'><br><font color='green'><strong>Share</strong></font></div><div class='tc'><img class='introPic' src='trustrating_stim/white_mw010.bmp'><br><font color='red'><strong>Keep</strong></font></div><div class='tr'><img class='introPic' src='trustrating_stim/white_mw038.bmp'><br><font color='green'><strong>Share</strong></font></div></div></div>","null","ARRAY","3","trustrating_stim/white_mw091.bmp,trustrating_stim/white_mw010.bmp,trustrating_stim/white_mw038.bmp","1,0,1","Match","e","4500","","","","",""
"html-keyboard-response","62","203917","0.0-7.0-3.5","5fb3d39a2ceaab00087faddb","bdp_wmem","Wed Mar 15 2023 14:28:20 GMT-0500 (Central Daylight Time)","594645","Match,No Match","","null","","","","","","<div class='trialBorder'><div class='vertical-center'><img src='img/fixation2_sml.jpg'</img></div></div>","null","DELAY","","","","","","","","","","",""
"html-keyboard-response","63","205157","0.0-7.0-4.5","5fb3d39a2ceaab00087faddb","bdp_wmem","Wed Mar 15 2023 14:28:20 GMT-0500 (Central Daylight Time)","594645","Match,No Match","","1239","","","","","","<div class='trialBorder'><div class='targDiv'><div class='tc'><img class='introPic' src='trustrating_stim/white_mw010.bmp'><br><font color='red'><strong>Keep</strong></font></div></div><div class='respDiv'><div class='respDivL'>Match<br>(e)</div><div class='respDivR'>No Match<br>(i)</div></div></div>","e","TARGET","3","trustrating_stim/white_mw091.bmp,trustrating_stim/white_mw010.bmp,trustrating_stim/white_mw038.bmp","1,0,1","Match","e","4500","trustrating_stim/white_mw010.bmp","red","Keep","REAL","1"
"html-keyboard-response","64","205658","0.0-7.0-5.5","5fb3d39a2ceaab00087faddb","bdp_wmem","Wed Mar 15 2023 14:28:20 GMT-0500 (Central Daylight Time)","594645","Match,No Match","","null","","","","","","<div class='trialBorder'><div class='vertical-center'><img src='img/correct.jpg'></div><div class='respDiv'><div class='respDivL'><font style='color:orange'>Match<br>(e)</font></div><div class='respDivR'>No Match<br>(i)</div></div></div>","null","FEEDBACK","","","","","","","","","","",""
"html-keyboard-response","65","206160","0.0-7.0-1.6","5fb3d39a2ceaab00087faddb","bdp_wmem","Wed Mar 15 2023 14:28:20 GMT-0500 (Central Daylight Time)","594645","Match,No Match","","null","","","","","","<div class='trialBorder'><div class='vertical-center'><img src='img/fixation2_sml.jpg'</img></div></div>","null","FIX","","","","","","","","","","",""
"html-keyboard-response","66","209161","0.0-7.0-2.6","5fb3d39a2ceaab00087faddb","bdp_wmem","Wed Mar 15 2023 14:28:20 GMT-0500 (Central Daylight Time)","594645","Match,No Match","","null","","","","","","<div class='trialBorder'><div class='vertical-center'><img style='vertical-align:center; align:center' src='img/fixation2_sml.jpg'></div><div class='arrayDiv2'><div class='tl'><img class='introPic' src='trustrating_stim/white_mw091.bmp'><br><font color='red'><strong>Keep</strong></font></div><div class='tr'><img class='introPic' src='trustrating_stim/white_mw003.bmp'><br><font color='green'><strong>Share</strong></font></div></div></div>","null","ARRAY","2","trustrating_stim/white_mw091.bmp,trustrating_stim/white_mw003.bmp","0,1","noMatchFace","i","3000","","","","",""
"html-keyboard-response","67","213164","0.0-7.0-3.6","5fb3d39a2ceaab00087faddb","bdp_wmem","Wed Mar 15 2023 14:28:20 GMT-0500 (Central Daylight Time)","594645","Match,No Match","","null","","","","","","<div class='trialBorder'><div class='vertical-center'><img src='img/fixation2_sml.jpg'</img></div></div>","null","DELAY","","","","","","","","","","",""
"html-keyboard-response","68","214952","0.0-7.0-4.6","5fb3d39a2ceaab00087faddb","bdp_wmem","Wed Mar 15 2023 14:28:20 GMT-0500 (Central Daylight Time)","594645","Match,No Match","","1786","","","","","","<div class='trialBorder'><div class='targDiv'><div class='tc'><img class='introPic' src='trustrating_stim/white_mw010.bmp'><br><font color='green'><strong>Share</strong></font></div></div><div class='respDiv'><div class='respDivL'>Match<br>(e)</div><div class='respDivR'>No Match<br>(i)</div></div></div>","i","TARGET","2","trustrating_stim/white_mw091.bmp,trustrating_stim/white_mw003.bmp","0,1","noMatchFace","i","3000","trustrating_stim/white_mw010.bmp","green","Share","REAL","1"
"html-keyboard-response","69","215453","0.0-7.0-5.6","5fb3d39a2ceaab00087faddb","bdp_wmem","Wed Mar 15 2023 14:28:20 GMT-0500 (Central Daylight Time)","594645","Match,No Match","","null","","","","","","<div class='trialBorder'><div class='vertical-center'><img src='img/correct.jpg'></div><div class='respDiv'><div class='respDivL'>Match<br>(e)</div><div class='respDivR'><font style='color:orange'>No Match<br>(i)</font></div></div></div>","null","FEEDBACK","","","","","","","","","","",""
"html-keyboard-response","70","215954","0.0-7.0-1.7","5fb3d39a2ceaab00087faddb","bdp_wmem","Wed Mar 15 2023 14:28:20 GMT-0500 (Central Daylight Time)","594645","Match,No Match","","null","","","","","","<div class='trialBorder'><div class='vertical-center'><img src='img/fixation2_sml.jpg'</img></div></div>","null","FIX","","","","","","","","","","",""
"html-keyboard-response","71","220456","0.0-7.0-2.7","5fb3d39a2ceaab00087faddb","bdp_wmem","Wed Mar 15 2023 14:28:20 GMT-0500 (Central Daylight Time)","594645","Match,No Match","","null","","","","","","<div class='trialBorder'><div class='vertical-center'><img style='vertical-align:center; align:center' src='img/fixation2_sml.jpg'></div><div class='arrayDiv3'><div class='tl'><img class='introPic' src='trustrating_stim/white_mw040.bmp'><br><font color='red'><strong>Keep</strong></font></div><div class='tc'><img class='introPic' src='trustrating_stim/white_mw085.bmp'><br><font color='red'><strong>Keep</strong></font></div><div class='tr'><img class='introPic' src='trustrating_stim/white_mw003.bmp'><br><font color='green'><strong>Share</strong></font></div></div></div>","null","ARRAY","3","trustrating_stim/white_mw040.bmp,trustrating_stim/white_mw085.bmp,trustrating_stim/white_mw003.bmp","0,0,1","Match","e","4500","","","","",""
"html-keyboard-response","72","224458","0.0-7.0-3.7","5fb3d39a2ceaab00087faddb","bdp_wmem","Wed Mar 15 2023 14:28:20 GMT-0500 (Central Daylight Time)","594645","Match,No Match","","null","","","","","","<div class='trialBorder'><div class='vertical-center'><img src='img/fixation2_sml.jpg'</img></div></div>","null","DELAY","","","","","","","","","","",""
"html-keyboard-response","73","225731","0.0-7.0-4.7","5fb3d39a2ceaab00087faddb","bdp_wmem","Wed Mar 15 2023 14:28:20 GMT-0500 (Central Daylight Time)","594645","Match,No Match","","1270","","","","","","<div class='trialBorder'><div class='targDiv'><div class='tc'><img class='introPic' src='trustrating_stim/white_mw085.bmp'><br><font color='red'><strong>Keep</strong></font></div></div><div class='respDiv'><div class='respDivL'>Match<br>(e)</div><div class='respDivR'>No Match<br>(i)</div></div></div>","e","TARGET","3","trustrating_stim/white_mw040.bmp,trustrating_stim/white_mw085.bmp,trustrating_stim/white_mw003.bmp","0,0,1","Match","e","4500","trustrating_stim/white_mw085.bmp","red","Keep","REAL","1"
"html-keyboard-response","74","226234","0.0-7.0-5.7","5fb3d39a2ceaab00087faddb","bdp_wmem","Wed Mar 15 2023 14:28:20 GMT-0500 (Central Daylight Time)","594645","Match,No Match","","null","","","","","","<div class='trialBorder'><div class='vertical-center'><img src='img/correct.jpg'></div><div class='respDiv'><div class='respDivL'><font style='color:orange'>Match<br>(e)</font></div><div class='respDivR'>No Match<br>(i)</div></div></div>","null","FEEDBACK","","","","","","","","","","",""
"html-keyboard-response","75","226735","0.0-7.0-1.8","5fb3d39a2ceaab00087faddb","bdp_wmem","Wed Mar 15 2023 14:28:20 GMT-0500 (Central Daylight Time)","594645","Match,No Match","","null","","","","","","<div class='trialBorder'><div class='vertical-center'><img src='img/fixation2_sml.jpg'</img></div></div>","null","FIX","","","","","","","","","","",""
"html-keyboard-response","76","228238","0.0-7.0-2.8","5fb3d39a2ceaab00087faddb","bdp_wmem","Wed Mar 15 2023 14:28:20 GMT-0500 (Central Daylight Time)","594645","Match,No Match","","null","","","","","","<div class='trialBorder'><div class='vertical-center'><img style='vertical-align:center; align:center' src='img/fixation2_sml.jpg'></div><div class='arrayDiv1'><div class='tc'><img class='introPic' src='trustrating_stim/white_mw042.bmp'><br><font color='green'><strong>Share</strong></font></div></div></div>","null","ARRAY","1","trustrating_stim/white_mw042.bmp","1","Match","e","1500","","","","",""
"html-keyboard-response","77","232239","0.0-7.0-3.8","5fb3d39a2ceaab00087faddb","bdp_wmem","Wed Mar 15 2023 14:28:20 GMT-0500 (Central Daylight Time)","594645","Match,No Match","","null","","","","","","<div class='trialBorder'><div class='vertical-center'><img src='img/fixation2_sml.jpg'</img></div></div>","null","DELAY","","","","","","","","","","",""
"html-keyboard-response","78","233059","0.0-7.0-4.8","5fb3d39a2ceaab00087faddb","bdp_wmem","Wed Mar 15 2023 14:28:20 GMT-0500 (Central Daylight Time)","594645","Match,No Match","","819","","","","","","<div class='trialBorder'><div class='targDiv'><div class='tc'><img class='introPic' src='trustrating_stim/white_mw042.bmp'><br><font color='green'><strong>Share</strong></font></div></div><div class='respDiv'><div class='respDivL'>Match<br>(e)</div><div class='respDivR'>No Match<br>(i)</div></div></div>","e","TARGET","1","trustrating_stim/white_mw042.bmp","1","Match","e","1500","trustrating_stim/white_mw042.bmp","green","Share","REAL","1"
"html-keyboard-response","79","233561","0.0-7.0-5.8","5fb3d39a2ceaab00087faddb","bdp_wmem","Wed Mar 15 2023 14:28:20 GMT-0500 (Central Daylight Time)","594645","Match,No Match","","null","","","","","","<div class='trialBorder'><div class='vertical-center'><img src='img/correct.jpg'></div><div class='respDiv'><div class='respDivL'><font style='color:orange'>Match<br>(e)</font></div><div class='respDivR'>No Match<br>(i)</div></div></div>","null","FEEDBACK","","","","","","","","","","",""
"html-keyboard-response","80","234062","0.0-7.0-1.9","5fb3d39a2ceaab00087faddb","bdp_wmem","Wed Mar 15 2023 14:28:20 GMT-0500 (Central Daylight Time)","594645","Match,No Match","","null","","","","","","<div class='trialBorder'><div class='vertical-center'><img src='img/fixation2_sml.jpg'</img></div></div>","null","FIX","","","","","","","","","","",""
"html-keyboard-response","81","235565","0.0-7.0-2.9","5fb3d39a2ceaab00087faddb","bdp_wmem","Wed Mar 15 2023 14:28:20 GMT-0500 (Central Daylight Time)","594645","Match,No Match","","null","","","","","","<div class='trialBorder'><div class='vertical-center'><img style='vertical-align:center; align:center' src='img/fixation2_sml.jpg'></div><div class='arrayDiv1'><div class='tc'><img class='introPic' src='trustrating_stim/white_mw013.bmp'><br><font color='red'><strong>Keep</strong></font></div></div></div>","null","ARRAY","1","trustrating_stim/white_mw013.bmp","0","Match","e","1500","","","","",""
"html-keyboard-response","82","239567","0.0-7.0-3.9","5fb3d39a2ceaab00087faddb","bdp_wmem","Wed Mar 15 2023 14:28:20 GMT-0500 (Central Daylight Time)","594645","Match,No Match","","null","","","","","","<div class='trialBorder'><div class='vertical-center'><img src='img/fixation2_sml.jpg'</img></div></div>","null","DELAY","","","","","","","","","","",""
"html-keyboard-response","83","240727","0.0-7.0-4.9","5fb3d39a2ceaab00087faddb","bdp_wmem","Wed Mar 15 2023 14:28:20 GMT-0500 (Central Daylight Time)","594645","Match,No Match","","1157","","","","","","<div class='trialBorder'><div class='targDiv'><div class='tc'><img class='introPic' src='trustrating_stim/white_mw013.bmp'><br><font color='red'><strong>Keep</strong></font></div></div><div class='respDiv'><div class='respDivL'>Match<br>(e)</div><div class='respDivR'>No Match<br>(i)</div></div></div>","e","TARGET","1","trustrating_stim/white_mw013.bmp","0","Match","e","1500","trustrating_stim/white_mw013.bmp","red","Keep","REAL","1"
"html-keyboard-response","84","241229","0.0-7.0-5.9","5fb3d39a2ceaab00087faddb","bdp_wmem","Wed Mar 15 2023 14:28:20 GMT-0500 (Central Daylight Time)","594645","Match,No Match","","null","","","","","","<div class='trialBorder'><div class='vertical-center'><img src='img/correct.jpg'></div><div class='respDiv'><div class='respDivL'><font style='color:orange'>Match<br>(e)</font></div><div class='respDivR'>No Match<br>(i)</div></div></div>","null","FEEDBACK","","","","","","","","","","",""
"html-keyboard-response","85","241730","0.0-7.0-1.10","5fb3d39a2ceaab00087faddb","bdp_wmem","Wed Mar 15 2023 14:28:20 GMT-0500 (Central Daylight Time)","594645","Match,No Match","","null","","","","","","<div class='trialBorder'><div class='vertical-center'><img src='img/fixation2_sml.jpg'</img></div></div>","null","FIX","","","","","","","","","","",""
"html-keyboard-response","86","246231","0.0-7.0-2.10","5fb3d39a2ceaab00087faddb","bdp_wmem","Wed Mar 15 2023 14:28:20 GMT-0500 (Central Daylight Time)","594645","Match,No Match","","null","","","","","","<div class='trialBorder'><div class='vertical-center'><img style='vertical-align:center; align:center' src='img/fixation2_sml.jpg'></div><div class='arrayDiv3'><div class='tl'><img class='introPic' src='trustrating_stim/white_mw040.bmp'><br><font color='red'><strong>Keep</strong></font></div><div class='tc'><img class='introPic' src='trustrating_stim/white_mw013.bmp'><br><font color='green'><strong>Share</strong></font></div><div class='tr'><img class='introPic' src='trustrating_stim/white_mw038.bmp'><br><font color='green'><strong>Share</strong></font></div></div></div>","null","ARRAY","3","trustrating_stim/white_mw040.bmp,trustrating_stim/white_mw013.bmp,trustrating_stim/white_mw038.bmp","0,1,1","Match","e","4500","","","","",""
"html-keyboard-response","87","250233","0.0-7.0-3.10","5fb3d39a2ceaab00087faddb","bdp_wmem","Wed Mar 15 2023 14:28:20 GMT-0500 (Central Daylight Time)","594645","Match,No Match","","null","","","","","","<div class='trialBorder'><div class='vertical-center'><img src='img/fixation2_sml.jpg'</img></div></div>","null","DELAY","","","","","","","","","","",""
"html-keyboard-response","88","251975","0.0-7.0-4.10","5fb3d39a2ceaab00087faddb","bdp_wmem","Wed Mar 15 2023 14:28:20 GMT-0500 (Central Daylight Time)","594645","Match,No Match","","1739","","","","","","<div class='trialBorder'><div class='targDiv'><div class='tc'><img class='introPic' src='trustrating_stim/white_mw013.bmp'><br><font color='green'><strong>Share</strong></font></div></div><div class='respDiv'><div class='respDivL'>Match<br>(e)</div><div class='respDivR'>No Match<br>(i)</div></div></div>","i","TARGET","3","trustrating_stim/white_mw040.bmp,trustrating_stim/white_mw013.bmp,trustrating_stim/white_mw038.bmp","0,1,1","Match","e","4500","trustrating_stim/white_mw013.bmp","green","Share","REAL","0"
"html-keyboard-response","89","252476","0.0-7.0-5.10","5fb3d39a2ceaab00087faddb","bdp_wmem","Wed Mar 15 2023 14:28:20 GMT-0500 (Central Daylight Time)","594645","Match,No Match","","null","","","","","","<div class='trialBorder'><div class='vertical-center'><img src='img/error.jpg'></div><div class='respDiv'><div class='respDivL'>Match<br>(e)</div><div class='respDivR'><font style='color:orange'>No Match<br>(i)</font></div></div></div>","null","FEEDBACK","","","","","","","","","","",""
"html-keyboard-response","90","252978","0.0-7.0-1.11","5fb3d39a2ceaab00087faddb","bdp_wmem","Wed Mar 15 2023 14:28:20 GMT-0500 (Central Daylight Time)","594645","Match,No Match","","null","","","","","","<div class='trialBorder'><div class='vertical-center'><img src='img/fixation2_sml.jpg'</img></div></div>","null","FIX","","","","","","","","","","",""
"html-keyboard-response","91","257479","0.0-7.0-2.11","5fb3d39a2ceaab00087faddb","bdp_wmem","Wed Mar 15 2023 14:28:20 GMT-0500 (Central Daylight Time)","594645","Match,No Match","","null","","","","","","<div class='trialBorder'><div class='vertical-center'><img style='vertical-align:center; align:center' src='img/fixation2_sml.jpg'></div><div class='arrayDiv3'><div class='tl'><img class='introPic' src='trustrating_stim/white_mw091.bmp'><br><font color='green'><strong>Share</strong></font></div><div class='tc'><img class='introPic' src='trustrating_stim/white_mw038.bmp'><br><font color='red'><strong>Keep</strong></font></div><div class='tr'><img class='introPic' src='trustrating_stim/white_mw040.bmp'><br><font color='green'><strong>Share</strong></font></div></div></div>","null","ARRAY","3","trustrating_stim/white_mw091.bmp,trustrating_stim/white_mw038.bmp,trustrating_stim/white_mw040.bmp","1,0,1","noMatchFace","i","4500","","","","",""
"html-keyboard-response","92","261481","0.0-7.0-3.11","5fb3d39a2ceaab00087faddb","bdp_wmem","Wed Mar 15 2023 14:28:20 GMT-0500 (Central Daylight Time)","594645","Match,No Match","","null","","","","","","<div class='trialBorder'><div class='vertical-center'><img src='img/fixation2_sml.jpg'</img></div></div>","null","DELAY","","","","","","","","","","",""
"html-keyboard-response","93","262571","0.0-7.0-4.11","5fb3d39a2ceaab00087faddb","bdp_wmem","Wed Mar 15 2023 14:28:20 GMT-0500 (Central Daylight Time)","594645","Match,No Match","","1089","","","","","","<div class='trialBorder'><div class='targDiv'><div class='tc'><img class='introPic' src='trustrating_stim/white_mw012.bmp'><br><font color='red'><strong>Keep</strong></font></div></div><div class='respDiv'><div class='respDivL'>Match<br>(e)</div><div class='respDivR'>No Match<br>(i)</div></div></div>","i","TARGET","3","trustrating_stim/white_mw091.bmp,trustrating_stim/white_mw038.bmp,trustrating_stim/white_mw040.bmp","1,0,1","noMatchFace","i","4500","trustrating_stim/white_mw012.bmp","red","Keep","REAL","1"
"html-keyboard-response","94","263073","0.0-7.0-5.11","5fb3d39a2ceaab00087faddb","bdp_wmem","Wed Mar 15 2023 14:28:20 GMT-0500 (Central Daylight Time)","594645","Match,No Match","","null","","","","","","<div class='trialBorder'><div class='vertical-center'><img src='img/correct.jpg'></div><div class='respDiv'><div class='respDivL'>Match<br>(e)</div><div class='respDivR'><font style='color:orange'>No Match<br>(i)</font></div></div></div>","null","FEEDBACK","","","","","","","","","","",""
"html-keyboard-response","95","263575","0.0-7.0-1.12","5fb3d39a2ceaab00087faddb","bdp_wmem","Wed Mar 15 2023 14:28:20 GMT-0500 (Central Daylight Time)","594645","Match,No Match","","null","","","","","","<div class='trialBorder'><div class='vertical-center'><img src='img/fixation2_sml.jpg'</img></div></div>","null","FIX","","","","","","","","","","",""
"html-keyboard-response","96","268077","0.0-7.0-2.12","5fb3d39a2ceaab00087faddb","bdp_wmem","Wed Mar 15 2023 14:28:20 GMT-0500 (Central Daylight Time)","594645","Match,No Match","","null","","","","","","<div class='trialBorder'><div class='vertical-center'><img style='vertical-align:center; align:center' src='img/fixation2_sml.jpg'></div><div class='arrayDiv3'><div class='tl'><img class='introPic' src='trustrating_stim/white_mw038.bmp'><br><font color='green'><strong>Share</strong></font></div><div class='tc'><img class='introPic' src='trustrating_stim/white_mw040.bmp'><br><font color='red'><strong>Keep</strong></font></div><div class='tr'><img class='introPic' src='trustrating_stim/white_mw078.bmp'><br><font color='green'><strong>Share</strong></font></div></div></div>","null","ARRAY","3","trustrating_stim/white_mw038.bmp,trustrating_stim/white_mw040.bmp,trustrating_stim/white_mw078.bmp","1,0,1","noMatchOutcome","i","4500","","","","",""
"html-keyboard-response","97","272078","0.0-7.0-3.12","5fb3d39a2ceaab00087faddb","bdp_wmem","Wed Mar 15 2023 14:28:20 GMT-0500 (Central Daylight Time)","594645","Match,No Match","","null","","","","","","<div class='trialBorder'><div class='vertical-center'><img src='img/fixation2_sml.jpg'</img></div></div>","null","DELAY","","","","","","","","","","",""
"html-keyboard-response","98","273664","0.0-7.0-4.12","5fb3d39a2ceaab00087faddb","bdp_wmem","Wed Mar 15 2023 14:28:20 GMT-0500 (Central Daylight Time)","594645","Match,No Match","","1585","","","","","","<div class='trialBorder'><div class='targDiv'><div class='tc'><img class='introPic' src='trustrating_stim/white_mw038.bmp'><br><font color='red'><strong>Keep</strong></font></div></div><div class='respDiv'><div class='respDivL'>Match<br>(e)</div><div class='respDivR'>No Match<br>(i)</div></div></div>","i","TARGET","3","trustrating_stim/white_mw038.bmp,trustrating_stim/white_mw040.bmp,trustrating_stim/white_mw078.bmp","1,0,1","noMatchOutcome","i","4500","trustrating_stim/white_mw038.bmp","red","Keep","REAL","1"
"html-keyboard-response","99","274166","0.0-7.0-5.12","5fb3d39a2ceaab00087faddb","bdp_wmem","Wed Mar 15 2023 14:28:20 GMT-0500 (Central Daylight Time)","594645","Match,No Match","","null","","","","","","<div class='trialBorder'><div class='vertical-center'><img src='img/correct.jpg'></div><div class='respDiv'><div class='respDivL'>Match<br>(e)</div><div class='respDivR'><font style='color:orange'>No Match<br>(i)</font></div></div></div>","null","FEEDBACK","","","","","","","","","","",""
"html-keyboard-response","100","274668","0.0-7.0-1.13","5fb3d39a2ceaab00087faddb","bdp_wmem","Wed Mar 15 2023 14:28:20 GMT-0500 (Central Daylight Time)","594645","Match,No Match","","null","","","","","","<div class='trialBorder'><div class='vertical-center'><img src='img/fixation2_sml.jpg'</img></div></div>","null","FIX","","","","","","","","","","",""
"html-keyboard-response","101","277669","0.0-7.0-2.13","5fb3d39a2ceaab00087faddb","bdp_wmem","Wed Mar 15 2023 14:28:20 GMT-0500 (Central Daylight Time)","594645","Match,No Match","","null","","","","","","<div class='trialBorder'><div class='vertical-center'><img style='vertical-align:center; align:center' src='img/fixation2_sml.jpg'></div><div class='arrayDiv2'><div class='tl'><img class='introPic' src='trustrating_stim/white_mw070.bmp'><br><font color='green'><strong>Share</strong></font></div><div class='tr'><img class='introPic' src='trustrating_stim/white_mw040.bmp'><br><font color='red'><strong>Keep</strong></font></div></div></div>","null","ARRAY","2","trustrating_stim/white_mw070.bmp,trustrating_stim/white_mw040.bmp","1,0","noMatchOutcome","i","3000","","","","",""
"html-keyboard-response","102","281671","0.0-7.0-3.13","5fb3d39a2ceaab00087faddb","bdp_wmem","Wed Mar 15 2023 14:28:20 GMT-0500 (Central Daylight Time)","594645","Match,No Match","","null","","","","","","<div class='trialBorder'><div class='vertical-center'><img src='img/fixation2_sml.jpg'</img></div></div>","null","DELAY","","","","","","","","","","",""
"html-keyboard-response","103","283678","0.0-7.0-4.13","5fb3d39a2ceaab00087faddb","bdp_wmem","Wed Mar 15 2023 14:28:20 GMT-0500 (Central Daylight Time)","594645","Match,No Match","","2006","","","","","","<div class='trialBorder'><div class='targDiv'><div class='tc'><img class='introPic' src='trustrating_stim/white_mw040.bmp'><br><font color='green'><strong>Share</strong></font></div></div><div class='respDiv'><div class='respDivL'>Match<br>(e)</div><div class='respDivR'>No Match<br>(i)</div></div></div>","e","TARGET","2","trustrating_stim/white_mw070.bmp,trustrating_stim/white_mw040.bmp","1,0","noMatchOutcome","i","3000","trustrating_stim/white_mw040.bmp","green","Share","REAL","0"
"html-keyboard-response","104","284182","0.0-7.0-5.13","5fb3d39a2ceaab00087faddb","bdp_wmem","Wed Mar 15 2023 14:28:20 GMT-0500 (Central Daylight Time)","594645","Match,No Match","","null","","","","","","<div class='trialBorder'><div class='vertical-center'><img src='img/error.jpg'></div><div class='respDiv'><div class='respDivL'><font style='color:orange'>Match<br>(e)</font></div><div class='respDivR'>No Match<br>(i)</div></div></div>","null","FEEDBACK","","","","","","","","","","",""
"html-keyboard-response","105","284683","0.0-7.0-1.14","5fb3d39a2ceaab00087faddb","bdp_wmem","Wed Mar 15 2023 14:28:20 GMT-0500 (Central Daylight Time)","594645","Match,No Match","","null","","","","","","<div class='trialBorder'><div class='vertical-center'><img src='img/fixation2_sml.jpg'</img></div></div>","null","FIX","","","","","","","","","","",""
"html-keyboard-response","106","286186","0.0-7.0-2.14","5fb3d39a2ceaab00087faddb","bdp_wmem","Wed Mar 15 2023 14:28:20 GMT-0500 (Central Daylight Time)","594645","Match,No Match","","null","","","","","","<div class='trialBorder'><div class='vertical-center'><img style='vertical-align:center; align:center' src='img/fixation2_sml.jpg'></div><div class='arrayDiv1'><div class='tc'><img class='introPic' src='trustrating_stim/white_mw070.bmp'><br><font color='green'><strong>Share</strong></font></div></div></div>","null","ARRAY","1","trustrating_stim/white_mw070.bmp","1","noMatchFace","i","1500","","","","",""
"html-keyboard-response","107","290188","0.0-7.0-3.14","5fb3d39a2ceaab00087faddb","bdp_wmem","Wed Mar 15 2023 14:28:20 GMT-0500 (Central Daylight Time)","594645","Match,No Match","","null","","","","","","<div class='trialBorder'><div class='vertical-center'><img src='img/fixation2_sml.jpg'</img></div></div>","null","DELAY","","","","","","","","","","",""
"html-keyboard-response","108","291196","0.0-7.0-4.14","5fb3d39a2ceaab00087faddb","bdp_wmem","Wed Mar 15 2023 14:28:20 GMT-0500 (Central Daylight Time)","594645","Match,No Match","","1005","","","","","","<div class='trialBorder'><div class='targDiv'><div class='tc'><img class='introPic' src='trustrating_stim/white_mw040.bmp'><br><font color='green'><strong>Share</strong></font></div></div><div class='respDiv'><div class='respDivL'>Match<br>(e)</div><div class='respDivR'>No Match<br>(i)</div></div></div>","i","TARGET","1","trustrating_stim/white_mw070.bmp","1","noMatchFace","i","1500","trustrating_stim/white_mw040.bmp","green","Share","REAL","1"
"html-keyboard-response","109","291698","0.0-7.0-5.14","5fb3d39a2ceaab00087faddb","bdp_wmem","Wed Mar 15 2023 14:28:20 GMT-0500 (Central Daylight Time)","594645","Match,No Match","","null","","","","","","<div class='trialBorder'><div class='vertical-center'><img src='img/correct.jpg'></div><div class='respDiv'><div class='respDivL'>Match<br>(e)</div><div class='respDivR'><font style='color:orange'>No Match<br>(i)</font></div></div></div>","null","FEEDBACK","","","","","","","","","","",""
"html-keyboard-response","110","292199","0.0-7.0-1.15","5fb3d39a2ceaab00087faddb","bdp_wmem","Wed Mar 15 2023 14:28:20 GMT-0500 (Central Daylight Time)","594645","Match,No Match","","null","","","","","","<div class='trialBorder'><div class='vertical-center'><img src='img/fixation2_sml.jpg'</img></div></div>","null","FIX","","","","","","","","","","",""
"html-keyboard-response","111","296702","0.0-7.0-2.15","5fb3d39a2ceaab00087faddb","bdp_wmem","Wed Mar 15 2023 14:28:20 GMT-0500 (Central Daylight Time)","594645","Match,No Match","","null","","","","","","<div class='trialBorder'><div class='vertical-center'><img style='vertical-align:center; align:center' src='img/fixation2_sml.jpg'></div><div class='arrayDiv3'><div class='tl'><img class='introPic' src='trustrating_stim/white_mw010.bmp'><br><font color='red'><strong>Keep</strong></font></div><div class='tc'><img class='introPic' src='trustrating_stim/white_mw042.bmp'><br><font color='red'><strong>Keep</strong></font></div><div class='tr'><img class='introPic' src='trustrating_stim/white_mw003.bmp'><br><font color='green'><strong>Share</strong></font></div></div></div>","null","ARRAY","3","trustrating_stim/white_mw010.bmp,trustrating_stim/white_mw042.bmp,trustrating_stim/white_mw003.bmp","0,0,1","Match","e","4500","","","","",""
"html-keyboard-response","112","300704","0.0-7.0-3.15","5fb3d39a2ceaab00087faddb","bdp_wmem","Wed Mar 15 2023 14:28:20 GMT-0500 (Central Daylight Time)","594645","Match,No Match","","null","","","","","","<div class='trialBorder'><div class='vertical-center'><img src='img/fixation2_sml.jpg'</img></div></div>","null","DELAY","","","","","","","","","","",""
"html-keyboard-response","113","303412","0.0-7.0-4.15","5fb3d39a2ceaab00087faddb","bdp_wmem","Wed Mar 15 2023 14:28:20 GMT-0500 (Central Daylight Time)","594645","Match,No Match","","2707","","","","","","<div class='trialBorder'><div class='targDiv'><div class='tc'><img class='introPic' src='trustrating_stim/white_mw003.bmp'><br><font color='green'><strong>Share</strong></font></div></div><div class='respDiv'><div class='respDivL'>Match<br>(e)</div><div class='respDivR'>No Match<br>(i)</div></div></div>","e","TARGET","3","trustrating_stim/white_mw010.bmp,trustrating_stim/white_mw042.bmp,trustrating_stim/white_mw003.bmp","0,0,1","Match","e","4500","trustrating_stim/white_mw003.bmp","green","Share","REAL","1"
"html-keyboard-response","114","303914","0.0-7.0-5.15","5fb3d39a2ceaab00087faddb","bdp_wmem","Wed Mar 15 2023 14:28:20 GMT-0500 (Central Daylight Time)","594645","Match,No Match","","null","","","","","","<div class='trialBorder'><div class='vertical-center'><img src='img/correct.jpg'></div><div class='respDiv'><div class='respDivL'><font style='color:orange'>Match<br>(e)</font></div><div class='respDivR'>No Match<br>(i)</div></div></div>","null","FEEDBACK","","","","","","","","","","",""
"html-keyboard-response","115","304416","0.0-7.0-1.16","5fb3d39a2ceaab00087faddb","bdp_wmem","Wed Mar 15 2023 14:28:20 GMT-0500 (Central Daylight Time)","594645","Match,No Match","","null","","","","","","<div class='trialBorder'><div class='vertical-center'><img src='img/fixation2_sml.jpg'</img></div></div>","null","FIX","","","","","","","","","","",""
"html-keyboard-response","116","305920","0.0-7.0-2.16","5fb3d39a2ceaab00087faddb","bdp_wmem","Wed Mar 15 2023 14:28:20 GMT-0500 (Central Daylight Time)","594645","Match,No Match","","null","","","","","","<div class='trialBorder'><div class='vertical-center'><img style='vertical-align:center; align:center' src='img/fixation2_sml.jpg'></div><div class='arrayDiv1'><div class='tc'><img class='introPic' src='trustrating_stim/white_mw070.bmp'><br><font color='red'><strong>Keep</strong></font></div></div></div>","null","ARRAY","1","trustrating_stim/white_mw070.bmp","0","noMatchFace","i","1500","","","","",""
"html-keyboard-response","117","309922","0.0-7.0-3.16","5fb3d39a2ceaab00087faddb","bdp_wmem","Wed Mar 15 2023 14:28:20 GMT-0500 (Central Daylight Time)","594645","Match,No Match","","null","","","","","","<div class='trialBorder'><div class='vertical-center'><img src='img/fixation2_sml.jpg'</img></div></div>","null","DELAY","","","","","","","","","","",""
"html-keyboard-response","118","310877","0.0-7.0-4.16","5fb3d39a2ceaab00087faddb","bdp_wmem","Wed Mar 15 2023 14:28:20 GMT-0500 (Central Daylight Time)","594645","Match,No Match","","954","","","","","","<div class='trialBorder'><div class='targDiv'><div class='tc'><img class='introPic' src='trustrating_stim/white_mw012.bmp'><br><font color='red'><strong>Keep</strong></font></div></div><div class='respDiv'><div class='respDivL'>Match<br>(e)</div><div class='respDivR'>No Match<br>(i)</div></div></div>","i","TARGET","1","trustrating_stim/white_mw070.bmp","0","noMatchFace","i","1500","trustrating_stim/white_mw012.bmp","red","Keep","REAL","1"
"html-keyboard-response","119","311379","0.0-7.0-5.16","5fb3d39a2ceaab00087faddb","bdp_wmem","Wed Mar 15 2023 14:28:20 GMT-0500 (Central Daylight Time)","594645","Match,No Match","","null","","","","","","<div class='trialBorder'><div class='vertical-center'><img src='img/correct.jpg'></div><div class='respDiv'><div class='respDivL'>Match<br>(e)</div><div class='respDivR'><font style='color:orange'>No Match<br>(i)</font></div></div></div>","null","FEEDBACK","","","","","","","","","","",""
"html-keyboard-response","120","311881","0.0-7.0-1.17","5fb3d39a2ceaab00087faddb","bdp_wmem","Wed Mar 15 2023 14:28:20 GMT-0500 (Central Daylight Time)","594645","Match,No Match","","null","","","","","","<div class='trialBorder'><div class='vertical-center'><img src='img/fixation2_sml.jpg'</img></div></div>","null","FIX","","","","","","","","","","",""
"html-keyboard-response","121","314884","0.0-7.0-2.17","5fb3d39a2ceaab00087faddb","bdp_wmem","Wed Mar 15 2023 14:28:20 GMT-0500 (Central Daylight Time)","594645","Match,No Match","","null","","","","","","<div class='trialBorder'><div class='vertical-center'><img style='vertical-align:center; align:center' src='img/fixation2_sml.jpg'></div><div class='arrayDiv2'><div class='tl'><img class='introPic' src='trustrating_stim/white_mw078.bmp'><br><font color='green'><strong>Share</strong></font></div><div class='tr'><img class='introPic' src='trustrating_stim/white_mw013.bmp'><br><font color='red'><strong>Keep</strong></font></div></div></div>","null","ARRAY","2","trustrating_stim/white_mw078.bmp,trustrating_stim/white_mw013.bmp","1,0","Match","e","3000","","","","",""
"html-keyboard-response","122","318885","0.0-7.0-3.17","5fb3d39a2ceaab00087faddb","bdp_wmem","Wed Mar 15 2023 14:28:20 GMT-0500 (Central Daylight Time)","594645","Match,No Match","","null","","","","","","<div class='trialBorder'><div class='vertical-center'><img src='img/fixation2_sml.jpg'</img></div></div>","null","DELAY","","","","","","","","","","",""
"html-keyboard-response","123","319880","0.0-7.0-4.17","5fb3d39a2ceaab00087faddb","bdp_wmem","Wed Mar 15 2023 14:28:20 GMT-0500 (Central Daylight Time)","594645","Match,No Match","","994","","","","","","<div class='trialBorder'><div class='targDiv'><div class='tc'><img class='introPic' src='trustrating_stim/white_mw078.bmp'><br><font color='green'><strong>Share</strong></font></div></div><div class='respDiv'><div class='respDivL'>Match<br>(e)</div><div class='respDivR'>No Match<br>(i)</div></div></div>","e","TARGET","2","trustrating_stim/white_mw078.bmp,trustrating_stim/white_mw013.bmp","1,0","Match","e","3000","trustrating_stim/white_mw078.bmp","green","Share","REAL","1"
"html-keyboard-response","124","320382","0.0-7.0-5.17","5fb3d39a2ceaab00087faddb","bdp_wmem","Wed Mar 15 2023 14:28:20 GMT-0500 (Central Daylight Time)","594645","Match,No Match","","null","","","","","","<div class='trialBorder'><div class='vertical-center'><img src='img/correct.jpg'></div><div class='respDiv'><div class='respDivL'><font style='color:orange'>Match<br>(e)</font></div><div class='respDivR'>No Match<br>(i)</div></div></div>","null","FEEDBACK","","","","","","","","","","",""
"html-keyboard-response","125","320883","0.0-7.0-1.18","5fb3d39a2ceaab00087faddb","bdp_wmem","Wed Mar 15 2023 14:28:20 GMT-0500 (Central Daylight Time)","594645","Match,No Match","","null","","","","","","<div class='trialBorder'><div class='vertical-center'><img src='img/fixation2_sml.jpg'</img></div></div>","null","FIX","","","","","","","","","","",""
"html-keyboard-response","126","325384","0.0-7.0-2.18","5fb3d39a2ceaab00087faddb","bdp_wmem","Wed Mar 15 2023 14:28:20 GMT-0500 (Central Daylight Time)","594645","Match,No Match","","null","","","","","","<div class='trialBorder'><div class='vertical-center'><img style='vertical-align:center; align:center' src='img/fixation2_sml.jpg'></div><div class='arrayDiv3'><div class='tl'><img class='introPic' src='trustrating_stim/white_mw038.bmp'><br><font color='green'><strong>Share</strong></font></div><div class='tc'><img class='introPic' src='trustrating_stim/white_mw013.bmp'><br><font color='red'><strong>Keep</strong></font></div><div class='tr'><img class='introPic' src='trustrating_stim/white_mw070.bmp'><br><font color='green'><strong>Share</strong></font></div></div></div>","null","ARRAY","3","trustrating_stim/white_mw038.bmp,trustrating_stim/white_mw013.bmp,trustrating_stim/white_mw070.bmp","1,0,1","noMatchFace","i","4500","","","","",""
"html-keyboard-response","127","329387","0.0-7.0-3.18","5fb3d39a2ceaab00087faddb","bdp_wmem","Wed Mar 15 2023 14:28:20 GMT-0500 (Central Daylight Time)","594645","Match,No Match","","null","","","","","","<div class='trialBorder'><div class='vertical-center'><img src='img/fixation2_sml.jpg'</img></div></div>","null","DELAY","","","","","","","","","","",""
"html-keyboard-response","128","330564","0.0-7.0-4.18","5fb3d39a2ceaab00087faddb","bdp_wmem","Wed Mar 15 2023 14:28:20 GMT-0500 (Central Daylight Time)","594645","Match,No Match","","1174","","","","","","<div class='trialBorder'><div class='targDiv'><div class='tc'><img class='introPic' src='trustrating_stim/white_mw010.bmp'><br><font color='green'><strong>Share</strong></font></div></div><div class='respDiv'><div class='respDivL'>Match<br>(e)</div><div class='respDivR'>No Match<br>(i)</div></div></div>","i","TARGET","3","trustrating_stim/white_mw038.bmp,trustrating_stim/white_mw013.bmp,trustrating_stim/white_mw070.bmp","1,0,1","noMatchFace","i","4500","trustrating_stim/white_mw010.bmp","green","Share","REAL","1"
"html-keyboard-response","129","331065","0.0-7.0-5.18","5fb3d39a2ceaab00087faddb","bdp_wmem","Wed Mar 15 2023 14:28:20 GMT-0500 (Central Daylight Time)","594645","Match,No Match","","null","","","","","","<div class='trialBorder'><div class='vertical-center'><img src='img/correct.jpg'></div><div class='respDiv'><div class='respDivL'>Match<br>(e)</div><div class='respDivR'><font style='color:orange'>No Match<br>(i)</font></div></div></div>","null","FEEDBACK","","","","","","","","","","",""
"html-keyboard-response","130","331566","0.0-7.0-1.19","5fb3d39a2ceaab00087faddb","bdp_wmem","Wed Mar 15 2023 14:28:20 GMT-0500 (Central Daylight Time)","594645","Match,No Match","","null","","","","","","<div class='trialBorder'><div class='vertical-center'><img src='img/fixation2_sml.jpg'</img></div></div>","null","FIX","","","","","","","","","","",""
"html-keyboard-response","131","334569","0.0-7.0-2.19","5fb3d39a2ceaab00087faddb","bdp_wmem","Wed Mar 15 2023 14:28:20 GMT-0500 (Central Daylight Time)","594645","Match,No Match","","null","","","","","","<div class='trialBorder'><div class='vertical-center'><img style='vertical-align:center; align:center' src='img/fixation2_sml.jpg'></div><div class='arrayDiv2'><div class='tl'><img class='introPic' src='trustrating_stim/white_mw010.bmp'><br><font color='red'><strong>Keep</strong></font></div><div class='tr'><img class='introPic' src='trustrating_stim/white_mw085.bmp'><br><font color='green'><strong>Share</strong></font></div></div></div>","null","ARRAY","2","trustrating_stim/white_mw010.bmp,trustrating_stim/white_mw085.bmp","0,1","Match","e","3000","","","","",""
"html-keyboard-response","132","338571","0.0-7.0-3.19","5fb3d39a2ceaab00087faddb","bdp_wmem","Wed Mar 15 2023 14:28:20 GMT-0500 (Central Daylight Time)","594645","Match,No Match","","null","","","","","","<div class='trialBorder'><div class='vertical-center'><img src='img/fixation2_sml.jpg'</img></div></div>","null","DELAY","","","","","","","","","","",""
"html-keyboard-response","133","339922","0.0-7.0-4.19","5fb3d39a2ceaab00087faddb","bdp_wmem","Wed Mar 15 2023 14:28:20 GMT-0500 (Central Daylight Time)","594645","Match,No Match","","1351","","","","","","<div class='trialBorder'><div class='targDiv'><div class='tc'><img class='introPic' src='trustrating_stim/white_mw010.bmp'><br><font color='red'><strong>Keep</strong></font></div></div><div class='respDiv'><div class='respDivL'>Match<br>(e)</div><div class='respDivR'>No Match<br>(i)</div></div></div>","e","TARGET","2","trustrating_stim/white_mw010.bmp,trustrating_stim/white_mw085.bmp","0,1","Match","e","3000","trustrating_stim/white_mw010.bmp","red","Keep","REAL","1"
"html-keyboard-response","134","340423","0.0-7.0-5.19","5fb3d39a2ceaab00087faddb","bdp_wmem","Wed Mar 15 2023 14:28:20 GMT-0500 (Central Daylight Time)","594645","Match,No Match","","null","","","","","","<div class='trialBorder'><div class='vertical-center'><img src='img/correct.jpg'></div><div class='respDiv'><div class='respDivL'><font style='color:orange'>Match<br>(e)</font></div><div class='respDivR'>No Match<br>(i)</div></div></div>","null","FEEDBACK","","","","","","","","","","",""
"html-keyboard-response","135","340924","0.0-7.0-1.20","5fb3d39a2ceaab00087faddb","bdp_wmem","Wed Mar 15 2023 14:28:20 GMT-0500 (Central Daylight Time)","594645","Match,No Match","","null","","","","","","<div class='trialBorder'><div class='vertical-center'><img src='img/fixation2_sml.jpg'</img></div></div>","null","FIX","","","","","","","","","","",""
"html-keyboard-response","136","342425","0.0-7.0-2.20","5fb3d39a2ceaab00087faddb","bdp_wmem","Wed Mar 15 2023 14:28:20 GMT-0500 (Central Daylight Time)","594645","Match,No Match","","null","","","","","","<div class='trialBorder'><div class='vertical-center'><img style='vertical-align:center; align:center' src='img/fixation2_sml.jpg'></div><div class='arrayDiv1'><div class='tc'><img class='introPic' src='trustrating_stim/white_mw092.bmp'><br><font color='red'><strong>Keep</strong></font></div></div></div>","null","ARRAY","1","trustrating_stim/white_mw092.bmp","0","Match","e","1500","","","","",""
"html-keyboard-response","137","346428","0.0-7.0-3.20","5fb3d39a2ceaab00087faddb","bdp_wmem","Wed Mar 15 2023 14:28:20 GMT-0500 (Central Daylight Time)","594645","Match,No Match","","null","","","","","","<div class='trialBorder'><div class='vertical-center'><img src='img/fixation2_sml.jpg'</img></div></div>","null","DELAY","","","","","","","","","","",""
"html-keyboard-response","138","347563","0.0-7.0-4.20","5fb3d39a2ceaab00087faddb","bdp_wmem","Wed Mar 15 2023 14:28:20 GMT-0500 (Central Daylight Time)","594645","Match,No Match","","1134","","","","","","<div class='trialBorder'><div class='targDiv'><div class='tc'><img class='introPic' src='trustrating_stim/white_mw092.bmp'><br><font color='red'><strong>Keep</strong></font></div></div><div class='respDiv'><div class='respDivL'>Match<br>(e)</div><div class='respDivR'>No Match<br>(i)</div></div></div>","e","TARGET","1","trustrating_stim/white_mw092.bmp","0","Match","e","1500","trustrating_stim/white_mw092.bmp","red","Keep","REAL","1"
"html-keyboard-response","139","348063","0.0-7.0-5.20","5fb3d39a2ceaab00087faddb","bdp_wmem","Wed Mar 15 2023 14:28:20 GMT-0500 (Central Daylight Time)","594645","Match,No Match","","null","","","","","","<div class='trialBorder'><div class='vertical-center'><img src='img/correct.jpg'></div><div class='respDiv'><div class='respDivL'><font style='color:orange'>Match<br>(e)</font></div><div class='respDivR'>No Match<br>(i)</div></div></div>","null","FEEDBACK","","","","","","","","","","",""
"html-keyboard-response","140","348564","0.0-7.0-1.21","5fb3d39a2ceaab00087faddb","bdp_wmem","Wed Mar 15 2023 14:28:20 GMT-0500 (Central Daylight Time)","594645","Match,No Match","","null","","","","","","<div class='trialBorder'><div class='vertical-center'><img src='img/fixation2_sml.jpg'</img></div></div>","null","FIX","","","","","","","","","","",""
"html-keyboard-response","141","350066","0.0-7.0-2.21","5fb3d39a2ceaab00087faddb","bdp_wmem","Wed Mar 15 2023 14:28:20 GMT-0500 (Central Daylight Time)","594645","Match,No Match","","null","","","","","","<div class='trialBorder'><div class='vertical-center'><img style='vertical-align:center; align:center' src='img/fixation2_sml.jpg'></div><div class='arrayDiv1'><div class='tc'><img class='introPic' src='trustrating_stim/white_mw042.bmp'><br><font color='green'><strong>Share</strong></font></div></div></div>","null","ARRAY","1","trustrating_stim/white_mw042.bmp","1","noMatchFace","i","1500","","","","",""
"html-keyboard-response","142","354068","0.0-7.0-3.21","5fb3d39a2ceaab00087faddb","bdp_wmem","Wed Mar 15 2023 14:28:20 GMT-0500 (Central Daylight Time)","594645","Match,No Match","","null","","","","","","<div class='trialBorder'><div class='vertical-center'><img src='img/fixation2_sml.jpg'</img></div></div>","null","DELAY","","","","","","","","","","",""
"html-keyboard-response","143","355022","0.0-7.0-4.21","5fb3d39a2ceaab00087faddb","bdp_wmem","Wed Mar 15 2023 14:28:20 GMT-0500 (Central Daylight Time)","594645","Match,No Match","","952","","","","","","<div class='trialBorder'><div class='targDiv'><div class='tc'><img class='introPic' src='trustrating_stim/white_mw003.bmp'><br><font color='green'><strong>Share</strong></font></div></div><div class='respDiv'><div class='respDivL'>Match<br>(e)</div><div class='respDivR'>No Match<br>(i)</div></div></div>","i","TARGET","1","trustrating_stim/white_mw042.bmp","1","noMatchFace","i","1500","trustrating_stim/white_mw003.bmp","green","Share","REAL","1"
"html-keyboard-response","144","355524","0.0-7.0-5.21","5fb3d39a2ceaab00087faddb","bdp_wmem","Wed Mar 15 2023 14:28:20 GMT-0500 (Central Daylight Time)","594645","Match,No Match","","null","","","","","","<div class='trialBorder'><div class='vertical-center'><img src='img/correct.jpg'></div><div class='respDiv'><div class='respDivL'>Match<br>(e)</div><div class='respDivR'><font style='color:orange'>No Match<br>(i)</font></div></div></div>","null","FEEDBACK","","","","","","","","","","",""
"html-keyboard-response","145","356027","0.0-7.0-1.22","5fb3d39a2ceaab00087faddb","bdp_wmem","Wed Mar 15 2023 14:28:20 GMT-0500 (Central Daylight Time)","594645","Match,No Match","","null","","","","","","<div class='trialBorder'><div class='vertical-center'><img src='img/fixation2_sml.jpg'</img></div></div>","null","FIX","","","","","","","","","","",""
"html-keyboard-response","146","357528","0.0-7.0-2.22","5fb3d39a2ceaab00087faddb","bdp_wmem","Wed Mar 15 2023 14:28:20 GMT-0500 (Central Daylight Time)","594645","Match,No Match","","null","","","","","","<div class='trialBorder'><div class='vertical-center'><img style='vertical-align:center; align:center' src='img/fixation2_sml.jpg'></div><div class='arrayDiv1'><div class='tc'><img class='introPic' src='trustrating_stim/white_mw040.bmp'><br><font color='red'><strong>Keep</strong></font></div></div></div>","null","ARRAY","1","trustrating_stim/white_mw040.bmp","0","noMatchOutcome","i","1500","","","","",""
"html-keyboard-response","147","361530","0.0-7.0-3.22","5fb3d39a2ceaab00087faddb","bdp_wmem","Wed Mar 15 2023 14:28:20 GMT-0500 (Central Daylight Time)","594645","Match,No Match","","null","","","","","","<div class='trialBorder'><div class='vertical-center'><img src='img/fixation2_sml.jpg'</img></div></div>","null","DELAY","","","","","","","","","","",""
"html-keyboard-response","148","362673","0.0-7.0-4.22","5fb3d39a2ceaab00087faddb","bdp_wmem","Wed Mar 15 2023 14:28:20 GMT-0500 (Central Daylight Time)","594645","Match,No Match","","1142","","","","","","<div class='trialBorder'><div class='targDiv'><div class='tc'><img class='introPic' src='trustrating_stim/white_mw040.bmp'><br><font color='green'><strong>Share</strong></font></div></div><div class='respDiv'><div class='respDivL'>Match<br>(e)</div><div class='respDivR'>No Match<br>(i)</div></div></div>","i","TARGET","1","trustrating_stim/white_mw040.bmp","0","noMatchOutcome","i","1500","trustrating_stim/white_mw040.bmp","green","Share","REAL","1"
"html-keyboard-response","149","363174","0.0-7.0-5.22","5fb3d39a2ceaab00087faddb","bdp_wmem","Wed Mar 15 2023 14:28:20 GMT-0500 (Central Daylight Time)","594645","Match,No Match","","null","","","","","","<div class='trialBorder'><div class='vertical-center'><img src='img/correct.jpg'></div><div class='respDiv'><div class='respDivL'>Match<br>(e)</div><div class='respDivR'><font style='color:orange'>No Match<br>(i)</font></div></div></div>","null","FEEDBACK","","","","","","","","","","",""
"html-keyboard-response","150","363675","0.0-7.0-1.23","5fb3d39a2ceaab00087faddb","bdp_wmem","Wed Mar 15 2023 14:28:20 GMT-0500 (Central Daylight Time)","594645","Match,No Match","","null","","","","","","<div class='trialBorder'><div class='vertical-center'><img src='img/fixation2_sml.jpg'</img></div></div>","null","FIX","","","","","","","","","","",""
"html-keyboard-response","151","365178","0.0-7.0-2.23","5fb3d39a2ceaab00087faddb","bdp_wmem","Wed Mar 15 2023 14:28:20 GMT-0500 (Central Daylight Time)","594645","Match,No Match","","null","","","","","","<div class='trialBorder'><div class='vertical-center'><img style='vertical-align:center; align:center' src='img/fixation2_sml.jpg'></div><div class='arrayDiv1'><div class='tc'><img class='introPic' src='trustrating_stim/white_mw085.bmp'><br><font color='red'><strong>Keep</strong></font></div></div></div>","null","ARRAY","1","trustrating_stim/white_mw085.bmp","0","Match","e","1500","","","","",""
"html-keyboard-response","152","369181","0.0-7.0-3.23","5fb3d39a2ceaab00087faddb","bdp_wmem","Wed Mar 15 2023 14:28:20 GMT-0500 (Central Daylight Time)","594645","Match,No Match","","null","","","","","","<div class='trialBorder'><div class='vertical-center'><img src='img/fixation2_sml.jpg'</img></div></div>","null","DELAY","","","","","","","","","","",""
"html-keyboard-response","153","370058","0.0-7.0-4.23","5fb3d39a2ceaab00087faddb","bdp_wmem","Wed Mar 15 2023 14:28:20 GMT-0500 (Central Daylight Time)","594645","Match,No Match","","875","","","","","","<div class='trialBorder'><div class='targDiv'><div class='tc'><img class='introPic' src='trustrating_stim/white_mw085.bmp'><br><font color='red'><strong>Keep</strong></font></div></div><div class='respDiv'><div class='respDivL'>Match<br>(e)</div><div class='respDivR'>No Match<br>(i)</div></div></div>","e","TARGET","1","trustrating_stim/white_mw085.bmp","0","Match","e","1500","trustrating_stim/white_mw085.bmp","red","Keep","REAL","1"
"html-keyboard-response","154","370559","0.0-7.0-5.23","5fb3d39a2ceaab00087faddb","bdp_wmem","Wed Mar 15 2023 14:28:20 GMT-0500 (Central Daylight Time)","594645","Match,No Match","","null","","","","","","<div class='trialBorder'><div class='vertical-center'><img src='img/correct.jpg'></div><div class='respDiv'><div class='respDivL'><font style='color:orange'>Match<br>(e)</font></div><div class='respDivR'>No Match<br>(i)</div></div></div>","null","FEEDBACK","","","","","","","","","","",""
"html-keyboard-response","155","371061","0.0-7.0-1.24","5fb3d39a2ceaab00087faddb","bdp_wmem","Wed Mar 15 2023 14:28:20 GMT-0500 (Central Daylight Time)","594645","Match,No Match","","null","","","","","","<div class='trialBorder'><div class='vertical-center'><img src='img/fixation2_sml.jpg'</img></div></div>","null","FIX","","","","","","","","","","",""
"html-keyboard-response","156","374062","0.0-7.0-2.24","5fb3d39a2ceaab00087faddb","bdp_wmem","Wed Mar 15 2023 14:28:20 GMT-0500 (Central Daylight Time)","594645","Match,No Match","","null","","","","","","<div class='trialBorder'><div class='vertical-center'><img style='vertical-align:center; align:center' src='img/fixation2_sml.jpg'></div><div class='arrayDiv2'><div class='tl'><img class='introPic' src='trustrating_stim/white_mw042.bmp'><br><font color='green'><strong>Share</strong></font></div><div class='tr'><img class='introPic' src='trustrating_stim/white_mw085.bmp'><br><font color='red'><strong>Keep</strong></font></div></div></div>","null","ARRAY","2","trustrating_stim/white_mw042.bmp,trustrating_stim/white_mw085.bmp","1,0","noMatchFace","i","3000","","","","",""
"html-keyboard-response","157","378064","0.0-7.0-3.24","5fb3d39a2ceaab00087faddb","bdp_wmem","Wed Mar 15 2023 14:28:20 GMT-0500 (Central Daylight Time)","594645","Match,No Match","","null","","","","","","<div class='trialBorder'><div class='vertical-center'><img src='img/fixation2_sml.jpg'</img></div></div>","null","DELAY","","","","","","","","","","",""
"html-keyboard-response","158","379046","0.0-7.0-4.24","5fb3d39a2ceaab00087faddb","bdp_wmem","Wed Mar 15 2023 14:28:20 GMT-0500 (Central Daylight Time)","594645","Match,No Match","","982","","","","","","<div class='trialBorder'><div class='targDiv'><div class='tc'><img class='introPic' src='trustrating_stim/white_mw040.bmp'><br><font color='green'><strong>Share</strong></font></div></div><div class='respDiv'><div class='respDivL'>Match<br>(e)</div><div class='respDivR'>No Match<br>(i)</div></div></div>","e","TARGET","2","trustrating_stim/white_mw042.bmp,trustrating_stim/white_mw085.bmp","1,0","noMatchFace","i","3000","trustrating_stim/white_mw040.bmp","green","Share","REAL","0"
"html-keyboard-response","159","379547","0.0-7.0-5.24","5fb3d39a2ceaab00087faddb","bdp_wmem","Wed Mar 15 2023 14:28:20 GMT-0500 (Central Daylight Time)","594645","Match,No Match","","null","","","","","","<div class='trialBorder'><div class='vertical-center'><img src='img/error.jpg'></div><div class='respDiv'><div class='respDivL'><font style='color:orange'>Match<br>(e)</font></div><div class='respDivR'>No Match<br>(i)</div></div></div>","null","FEEDBACK","","","","","","","","","","",""
"html-keyboard-response","160","380049","0.0-7.0-1.25","5fb3d39a2ceaab00087faddb","bdp_wmem","Wed Mar 15 2023 14:28:20 GMT-0500 (Central Daylight Time)","594645","Match,No Match","","null","","","","","","<div class='trialBorder'><div class='vertical-center'><img src='img/fixation2_sml.jpg'</img></div></div>","null","FIX","","","","","","","","","","",""
"html-keyboard-response","161","381550","0.0-7.0-2.25","5fb3d39a2ceaab00087faddb","bdp_wmem","Wed Mar 15 2023 14:28:20 GMT-0500 (Central Daylight Time)","594645","Match,No Match","","null","","","","","","<div class='trialBorder'><div class='vertical-center'><img style='vertical-align:center; align:center' src='img/fixation2_sml.jpg'></div><div class='arrayDiv1'><div class='tc'><img class='introPic' src='trustrating_stim/white_mw012.bmp'><br><font color='red'><strong>Keep</strong></font></div></div></div>","null","ARRAY","1","trustrating_stim/white_mw012.bmp","0","Match","e","1500","","","","",""
"html-keyboard-response","162","385552","0.0-7.0-3.25","5fb3d39a2ceaab00087faddb","bdp_wmem","Wed Mar 15 2023 14:28:20 GMT-0500 (Central Daylight Time)","594645","Match,No Match","","null","","","","","","<div class='trialBorder'><div class='vertical-center'><img src='img/fixation2_sml.jpg'</img></div></div>","null","DELAY","","","","","","","","","","",""
"html-keyboard-response","163","386446","0.0-7.0-4.25","5fb3d39a2ceaab00087faddb","bdp_wmem","Wed Mar 15 2023 14:28:20 GMT-0500 (Central Daylight Time)","594645","Match,No Match","","891","","","","","","<div class='trialBorder'><div class='targDiv'><div class='tc'><img class='introPic' src='trustrating_stim/white_mw012.bmp'><br><font color='red'><strong>Keep</strong></font></div></div><div class='respDiv'><div class='respDivL'>Match<br>(e)</div><div class='respDivR'>No Match<br>(i)</div></div></div>","e","TARGET","1","trustrating_stim/white_mw012.bmp","0","Match","e","1500","trustrating_stim/white_mw012.bmp","red","Keep","REAL","1"
"html-keyboard-response","164","386947","0.0-7.0-5.25","5fb3d39a2ceaab00087faddb","bdp_wmem","Wed Mar 15 2023 14:28:20 GMT-0500 (Central Daylight Time)","594645","Match,No Match","","null","","","","","","<div class='trialBorder'><div class='vertical-center'><img src='img/correct.jpg'></div><div class='respDiv'><div class='respDivL'><font style='color:orange'>Match<br>(e)</font></div><div class='respDivR'>No Match<br>(i)</div></div></div>","null","FEEDBACK","","","","","","","","","","",""
"html-keyboard-response","165","387449","0.0-7.0-1.26","5fb3d39a2ceaab00087faddb","bdp_wmem","Wed Mar 15 2023 14:28:20 GMT-0500 (Central Daylight Time)","594645","Match,No Match","","null","","","","","","<div class='trialBorder'><div class='vertical-center'><img src='img/fixation2_sml.jpg'</img></div></div>","null","FIX","","","","","","","","","","",""
"html-keyboard-response","166","390451","0.0-7.0-2.26","5fb3d39a2ceaab00087faddb","bdp_wmem","Wed Mar 15 2023 14:28:20 GMT-0500 (Central Daylight Time)","594645","Match,No Match","","null","","","","","","<div class='trialBorder'><div class='vertical-center'><img style='vertical-align:center; align:center' src='img/fixation2_sml.jpg'></div><div class='arrayDiv2'><div class='tl'><img class='introPic' src='trustrating_stim/white_mw042.bmp'><br><font color='green'><strong>Share</strong></font></div><div class='tr'><img class='introPic' src='trustrating_stim/white_mw078.bmp'><br><font color='red'><strong>Keep</strong></font></div></div></div>","null","ARRAY","2","trustrating_stim/white_mw042.bmp,trustrating_stim/white_mw078.bmp","1,0","Match","e","3000","","","","",""
"html-keyboard-response","167","394454","0.0-7.0-3.26","5fb3d39a2ceaab00087faddb","bdp_wmem","Wed Mar 15 2023 14:28:20 GMT-0500 (Central Daylight Time)","594645","Match,No Match","","null","","","","","","<div class='trialBorder'><div class='vertical-center'><img src='img/fixation2_sml.jpg'</img></div></div>","null","DELAY","","","","","","","","","","",""
"html-keyboard-response","168","395577","0.0-7.0-4.26","5fb3d39a2ceaab00087faddb","bdp_wmem","Wed Mar 15 2023 14:28:20 GMT-0500 (Central Daylight Time)","594645","Match,No Match","","1122","","","","","","<div class='trialBorder'><div class='targDiv'><div class='tc'><img class='introPic' src='trustrating_stim/white_mw042.bmp'><br><font color='green'><strong>Share</strong></font></div></div><div class='respDiv'><div class='respDivL'>Match<br>(e)</div><div class='respDivR'>No Match<br>(i)</div></div></div>","e","TARGET","2","trustrating_stim/white_mw042.bmp,trustrating_stim/white_mw078.bmp","1,0","Match","e","3000","trustrating_stim/white_mw042.bmp","green","Share","REAL","1"
"html-keyboard-response","169","396079","0.0-7.0-5.26","5fb3d39a2ceaab00087faddb","bdp_wmem","Wed Mar 15 2023 14:28:20 GMT-0500 (Central Daylight Time)","594645","Match,No Match","","null","","","","","","<div class='trialBorder'><div class='vertical-center'><img src='img/correct.jpg'></div><div class='respDiv'><div class='respDivL'><font style='color:orange'>Match<br>(e)</font></div><div class='respDivR'>No Match<br>(i)</div></div></div>","null","FEEDBACK","","","","","","","","","","",""
"html-keyboard-response","170","396579","0.0-7.0-1.27","5fb3d39a2ceaab00087faddb","bdp_wmem","Wed Mar 15 2023 14:28:20 GMT-0500 (Central Daylight Time)","594645","Match,No Match","","null","","","","","","<div class='trialBorder'><div class='vertical-center'><img src='img/fixation2_sml.jpg'</img></div></div>","null","FIX","","","","","","","","","","",""
"html-keyboard-response","171","401081","0.0-7.0-2.27","5fb3d39a2ceaab00087faddb","bdp_wmem","Wed Mar 15 2023 14:28:20 GMT-0500 (Central Daylight Time)","594645","Match,No Match","","null","","","","","","<div class='trialBorder'><div class='vertical-center'><img style='vertical-align:center; align:center' src='img/fixation2_sml.jpg'></div><div class='arrayDiv3'><div class='tl'><img class='introPic' src='trustrating_stim/white_mw085.bmp'><br><font color='green'><strong>Share</strong></font></div><div class='tc'><img class='introPic' src='trustrating_stim/white_mw010.bmp'><br><font color='red'><strong>Keep</strong></font></div><div class='tr'><img class='introPic' src='trustrating_stim/white_mw040.bmp'><br><font color='green'><strong>Share</strong></font></div></div></div>","null","ARRAY","3","trustrating_stim/white_mw085.bmp,trustrating_stim/white_mw010.bmp,trustrating_stim/white_mw040.bmp","1,0,1","Match","e","4500","","","","",""
"html-keyboard-response","172","405083","0.0-7.0-3.27","5fb3d39a2ceaab00087faddb","bdp_wmem","Wed Mar 15 2023 14:28:20 GMT-0500 (Central Daylight Time)","594645","Match,No Match","","null","","","","","","<div class='trialBorder'><div class='vertical-center'><img src='img/fixation2_sml.jpg'</img></div></div>","null","DELAY","","","","","","","","","","",""
"html-keyboard-response","173","406227","0.0-7.0-4.27","5fb3d39a2ceaab00087faddb","bdp_wmem","Wed Mar 15 2023 14:28:20 GMT-0500 (Central Daylight Time)","594645","Match,No Match","","1142","","","","","","<div class='trialBorder'><div class='targDiv'><div class='tc'><img class='introPic' src='trustrating_stim/white_mw040.bmp'><br><font color='green'><strong>Share</strong></font></div></div><div class='respDiv'><div class='respDivL'>Match<br>(e)</div><div class='respDivR'>No Match<br>(i)</div></div></div>","e","TARGET","3","trustrating_stim/white_mw085.bmp,trustrating_stim/white_mw010.bmp,trustrating_stim/white_mw040.bmp","1,0,1","Match","e","4500","trustrating_stim/white_mw040.bmp","green","Share","REAL","1"
"html-keyboard-response","174","406728","0.0-7.0-5.27","5fb3d39a2ceaab00087faddb","bdp_wmem","Wed Mar 15 2023 14:28:20 GMT-0500 (Central Daylight Time)","594645","Match,No Match","","null","","","","","","<div class='trialBorder'><div class='vertical-center'><img src='img/correct.jpg'></div><div class='respDiv'><div class='respDivL'><font style='color:orange'>Match<br>(e)</font></div><div class='respDivR'>No Match<br>(i)</div></div></div>","null","FEEDBACK","","","","","","","","","","",""
"html-keyboard-response","175","407230","0.0-7.0-1.28","5fb3d39a2ceaab00087faddb","bdp_wmem","Wed Mar 15 2023 14:28:20 GMT-0500 (Central Daylight Time)","594645","Match,No Match","","null","","","","","","<div class='trialBorder'><div class='vertical-center'><img src='img/fixation2_sml.jpg'</img></div></div>","null","FIX","","","","","","","","","","",""
"html-keyboard-response","176","411732","0.0-7.0-2.28","5fb3d39a2ceaab00087faddb","bdp_wmem","Wed Mar 15 2023 14:28:20 GMT-0500 (Central Daylight Time)","594645","Match,No Match","","null","","","","","","<div class='trialBorder'><div class='vertical-center'><img style='vertical-align:center; align:center' src='img/fixation2_sml.jpg'></div><div class='arrayDiv3'><div class='tl'><img class='introPic' src='trustrating_stim/white_mw078.bmp'><br><font color='green'><strong>Share</strong></font></div><div class='tc'><img class='introPic' src='trustrating_stim/white_mw040.bmp'><br><font color='green'><strong>Share</strong></font></div><div class='tr'><img class='introPic' src='trustrating_stim/white_mw092.bmp'><br><font color='red'><strong>Keep</strong></font></div></div></div>","null","ARRAY","3","trustrating_stim/white_mw078.bmp,trustrating_stim/white_mw040.bmp,trustrating_stim/white_mw092.bmp","1,1,0","Match","e","4500","","","","",""
"html-keyboard-response","177","415733","0.0-7.0-3.28","5fb3d39a2ceaab00087faddb","bdp_wmem","Wed Mar 15 2023 14:28:20 GMT-0500 (Central Daylight Time)","594645","Match,No Match","","null","","","","","","<div class='trialBorder'><div class='vertical-center'><img src='img/fixation2_sml.jpg'</img></div></div>","null","DELAY","","","","","","","","","","",""
"html-keyboard-response","178","416704","0.0-7.0-4.28","5fb3d39a2ceaab00087faddb","bdp_wmem","Wed Mar 15 2023 14:28:20 GMT-0500 (Central Daylight Time)","594645","Match,No Match","","970","","","","","","<div class='trialBorder'><div class='targDiv'><div class='tc'><img class='introPic' src='trustrating_stim/white_mw092.bmp'><br><font color='red'><strong>Keep</strong></font></div></div><div class='respDiv'><div class='respDivL'>Match<br>(e)</div><div class='respDivR'>No Match<br>(i)</div></div></div>","e","TARGET","3","trustrating_stim/white_mw078.bmp,trustrating_stim/white_mw040.bmp,trustrating_stim/white_mw092.bmp","1,1,0","Match","e","4500","trustrating_stim/white_mw092.bmp","red","Keep","REAL","1"
"html-keyboard-response","179","417205","0.0-7.0-5.28","5fb3d39a2ceaab00087faddb","bdp_wmem","Wed Mar 15 2023 14:28:20 GMT-0500 (Central Daylight Time)","594645","Match,No Match","","null","","","","","","<div class='trialBorder'><div class='vertical-center'><img src='img/correct.jpg'></div><div class='respDiv'><div class='respDivL'><font style='color:orange'>Match<br>(e)</font></div><div class='respDivR'>No Match<br>(i)</div></div></div>","null","FEEDBACK","","","","","","","","","","",""
"html-keyboard-response","180","417706","0.0-7.0-1.29","5fb3d39a2ceaab00087faddb","bdp_wmem","Wed Mar 15 2023 14:28:20 GMT-0500 (Central Daylight Time)","594645","Match,No Match","","null","","","","","","<div class='trialBorder'><div class='vertical-center'><img src='img/fixation2_sml.jpg'</img></div></div>","null","FIX","","","","","","","","","","",""
"html-keyboard-response","181","419210","0.0-7.0-2.29","5fb3d39a2ceaab00087faddb","bdp_wmem","Wed Mar 15 2023 14:28:20 GMT-0500 (Central Daylight Time)","594645","Match,No Match","","null","","","","","","<div class='trialBorder'><div class='vertical-center'><img style='vertical-align:center; align:center' src='img/fixation2_sml.jpg'></div><div class='arrayDiv1'><div class='tc'><img class='introPic' src='trustrating_stim/white_mw003.bmp'><br><font color='green'><strong>Share</strong></font></div></div></div>","null","ARRAY","1","trustrating_stim/white_mw003.bmp","1","Match","e","1500","","","","",""
"html-keyboard-response","182","423212","0.0-7.0-3.29","5fb3d39a2ceaab00087faddb","bdp_wmem","Wed Mar 15 2023 14:28:20 GMT-0500 (Central Daylight Time)","594645","Match,No Match","","null","","","","","","<div class='trialBorder'><div class='vertical-center'><img src='img/fixation2_sml.jpg'</img></div></div>","null","DELAY","","","","","","","","","","",""
"html-keyboard-response","183","424483","0.0-7.0-4.29","5fb3d39a2ceaab00087faddb","bdp_wmem","Wed Mar 15 2023 14:28:20 GMT-0500 (Central Daylight Time)","594645","Match,No Match","","1269","","","","","","<div class='trialBorder'><div class='targDiv'><div class='tc'><img class='introPic' src='trustrating_stim/white_mw003.bmp'><br><font color='green'><strong>Share</strong></font></div></div><div class='respDiv'><div class='respDivL'>Match<br>(e)</div><div class='respDivR'>No Match<br>(i)</div></div></div>","i","TARGET","1","trustrating_stim/white_mw003.bmp","1","Match","e","1500","trustrating_stim/white_mw003.bmp","green","Share","REAL","0"
"html-keyboard-response","184","424985","0.0-7.0-5.29","5fb3d39a2ceaab00087faddb","bdp_wmem","Wed Mar 15 2023 14:28:20 GMT-0500 (Central Daylight Time)","594645","Match,No Match","","null","","","","","","<div class='trialBorder'><div class='vertical-center'><img src='img/error.jpg'></div><div class='respDiv'><div class='respDivL'>Match<br>(e)</div><div class='respDivR'><font style='color:orange'>No Match<br>(i)</font></div></div></div>","null","FEEDBACK","","","","","","","","","","",""
"html-keyboard-response","185","425487","0.0-7.0-1.30","5fb3d39a2ceaab00087faddb","bdp_wmem","Wed Mar 15 2023 14:28:20 GMT-0500 (Central Daylight Time)","594645","Match,No Match","","null","","","","","","<div class='trialBorder'><div class='vertical-center'><img src='img/fixation2_sml.jpg'</img></div></div>","null","FIX","","","","","","","","","","",""
"html-keyboard-response","186","426989","0.0-7.0-2.30","5fb3d39a2ceaab00087faddb","bdp_wmem","Wed Mar 15 2023 14:28:20 GMT-0500 (Central Daylight Time)","594645","Match,No Match","","null","","","","","","<div class='trialBorder'><div class='vertical-center'><img style='vertical-align:center; align:center' src='img/fixation2_sml.jpg'></div><div class='arrayDiv1'><div class='tc'><img class='introPic' src='trustrating_stim/white_mw078.bmp'><br><font color='green'><strong>Share</strong></font></div></div></div>","null","ARRAY","1","trustrating_stim/white_mw078.bmp","1","noMatchOutcome","i","1500","","","","",""
"html-keyboard-response","187","430990","0.0-7.0-3.30","5fb3d39a2ceaab00087faddb","bdp_wmem","Wed Mar 15 2023 14:28:20 GMT-0500 (Central Daylight Time)","594645","Match,No Match","","null","","","","","","<div class='trialBorder'><div class='vertical-center'><img src='img/fixation2_sml.jpg'</img></div></div>","null","DELAY","","","","","","","","","","",""
"html-keyboard-response","188","432382","0.0-7.0-4.30","5fb3d39a2ceaab00087faddb","bdp_wmem","Wed Mar 15 2023 14:28:20 GMT-0500 (Central Daylight Time)","594645","Match,No Match","","1391","","","","","","<div class='trialBorder'><div class='targDiv'><div class='tc'><img class='introPic' src='trustrating_stim/white_mw078.bmp'><br><font color='red'><strong>Keep</strong></font></div></div><div class='respDiv'><div class='respDivL'>Match<br>(e)</div><div class='respDivR'>No Match<br>(i)</div></div></div>","i","TARGET","1","trustrating_stim/white_mw078.bmp","1","noMatchOutcome","i","1500","trustrating_stim/white_mw078.bmp","red","Keep","REAL","1"
