"trial_type","trial_index","time_elapsed","internal_node_id","subject_id","task","startTime","totalTime","labels","view_history","rt","event","trial","time","trialtype","success","stimulus","key_press","stimType","arraySize","arrayFaces","arrayOutcomes","matchType","corrResp","arrayDur","targFace","targCol","targOutcome","trialType","corr"
"pavlovia","0","1","0.0-0.0","61509f0576598bbf74387211","bdp_wmem","Wed Mar 15 2023 21:40:44 GMT-0500 (Central Daylight Time)","677940","Match,No Match","","","","","","","","","","","","","","","","","","","","",""
"instructions","1","875","0.0-1.0","61509f0576598bbf74387211","bdp_wmem","Wed Mar 15 2023 21:40:44 GMT-0500 (Central Daylight Time)","677940","Match,No Match","[{""page_index"":0,""viewing_time"":873}]","873","","","","","","","","","","","","","","","","","","",""
"","","","","61509f0576598bbf74387211","bdp_wmem","Wed Mar 15 2023 21:40:44 GMT-0500 (Central Daylight Time)","677940","Match,No Match","","","fullscreenenter","2","2558","fullscreenenter","","","","","","","","","","","","","","",""
"fullscreen","2","3549","0.0-2.0","61509f0576598bbf74387211","bdp_wmem","Wed Mar 15 2023 21:40:44 GMT-0500 (Central Daylight Time)","677940","Match,No Match","","","","","","","true","","","","","","","","","","","","","",""
"instructions","3","181685","0.0-4.0","61509f0576598bbf74387211","bdp_wmem","Wed Mar 15 2023 21:40:44 GMT-0500 (Central Daylight Time)","677940","Match,No Match","[{""page_index"":0,""viewing_time"":35916},{""page_index"":1,""viewing_time"":113788},{""page_index"":2,""viewing_time"":9076},{""page_index"":3,""viewing_time"":2896},{""page_index"":4,""viewing_time"":16459}]","178135","","","","","","","","","","","","","","","","","","",""
"html-keyboard-response","4","182187","0.0-5.0-1.0","61509f0576598bbf74387211","bdp_wmem","Wed Mar 15 2023 21:40:44 GMT-0500 (Central Daylight Time)","677940","Match,No Match","","null","","","","","","<div class='trialBorder'><div class='vertical-center'><img src='img/fixation2_sml.jpg'</img></div></div>","null","FIX","","","","","","","","","","",""
"html-keyboard-response","5","183689","0.0-5.0-2.0","61509f0576598bbf74387211","bdp_wmem","Wed Mar 15 2023 21:40:44 GMT-0500 (Central Daylight Time)","677940","Match,No Match","","null","","","","","","<div class='trialBorder'><div class='vertical-center'><img style='vertical-align:center; align:center' src='img/fixation2_sml.jpg'></div><div class='arrayDiv1'><div class='tc'><img class='introPic' src='trustrating_stim/white_mw085.bmp'><br><font color='red'><strong>Keep</strong></font></div></div></div>","null","ARRAY","1","trustrating_stim/white_mw085.bmp","0","noMatchFace","i","1500","","","","",""
"html-keyboard-response","6","187691","0.0-5.0-3.0","61509f0576598bbf74387211","bdp_wmem","Wed Mar 15 2023 21:40:44 GMT-0500 (Central Daylight Time)","677940","Match,No Match","","null","","","","","","<div class='trialBorder'><div class='vertical-center'><img src='img/fixation2_sml.jpg'</img></div></div>","null","DELAY","","","","","","","","","","",""
"html-keyboard-response","7","189386","0.0-5.0-4.0","61509f0576598bbf74387211","bdp_wmem","Wed Mar 15 2023 21:40:44 GMT-0500 (Central Daylight Time)","677940","Match,No Match","","1694","","","","","","<div class='trialBorder'><div class='targDiv'><div class='tc'><img class='introPic' src='trustrating_stim/white_mw012.bmp'><br><font color='red'><strong>Keep</strong></font></div></div><div class='respDiv'><div class='respDivL'>Match<br>(e)</div><div class='respDivR'>No Match<br>(i)</div></div></div>","i","TARGET","1","trustrating_stim/white_mw085.bmp","0","noMatchFace","i","1500","trustrating_stim/white_mw012.bmp","red","Keep","PRACTICE","1"
"html-keyboard-response","8","189887","0.0-5.0-5.0","61509f0576598bbf74387211","bdp_wmem","Wed Mar 15 2023 21:40:44 GMT-0500 (Central Daylight Time)","677940","Match,No Match","","null","","","","","","<div class='trialBorder'><div class='vertical-center'><img src='img/correct.jpg'></div><div class='respDiv'><div class='respDivL'>Match<br>(e)</div><div class='respDivR'><font style='color:orange'>No Match<br>(i)</font></div></div></div>","null","FEEDBACK","","","","","","","","","","",""
"html-keyboard-response","9","190390","0.0-5.0-1.1","61509f0576598bbf74387211","bdp_wmem","Wed Mar 15 2023 21:40:44 GMT-0500 (Central Daylight Time)","677940","Match,No Match","","null","","","","","","<div class='trialBorder'><div class='vertical-center'><img src='img/fixation2_sml.jpg'</img></div></div>","null","FIX","","","","","","","","","","",""
"html-keyboard-response","10","194892","0.0-5.0-2.1","61509f0576598bbf74387211","bdp_wmem","Wed Mar 15 2023 21:40:44 GMT-0500 (Central Daylight Time)","677940","Match,No Match","","null","","","","","","<div class='trialBorder'><div class='vertical-center'><img style='vertical-align:center; align:center' src='img/fixation2_sml.jpg'></div><div class='arrayDiv3'><div class='tl'><img class='introPic' src='trustrating_stim/white_mw013.bmp'><br><font color='red'><strong>Keep</strong></font></div><div class='tc'><img class='introPic' src='trustrating_stim/white_mw042.bmp'><br><font color='red'><strong>Keep</strong></font></div><div class='tr'><img class='introPic' src='trustrating_stim/white_mw092.bmp'><br><font color='green'><strong>Share</strong></font></div></div></div>","null","ARRAY","3","trustrating_stim/white_mw013.bmp,trustrating_stim/white_mw042.bmp,trustrating_stim/white_mw092.bmp","0,0,1","noMatchOutcome","i","4500","","","","",""
"html-keyboard-response","11","198893","0.0-5.0-3.1","61509f0576598bbf74387211","bdp_wmem","Wed Mar 15 2023 21:40:44 GMT-0500 (Central Daylight Time)","677940","Match,No Match","","null","","","","","","<div class='trialBorder'><div class='vertical-center'><img src='img/fixation2_sml.jpg'</img></div></div>","null","DELAY","","","","","","","","","","",""
"html-keyboard-response","12","200819","0.0-5.0-4.1","61509f0576598bbf74387211","bdp_wmem","Wed Mar 15 2023 21:40:44 GMT-0500 (Central Daylight Time)","677940","Match,No Match","","1925","","","","","","<div class='trialBorder'><div class='targDiv'><div class='tc'><img class='introPic' src='trustrating_stim/white_mw092.bmp'><br><font color='red'><strong>Keep</strong></font></div></div><div class='respDiv'><div class='respDivL'>Match<br>(e)</div><div class='respDivR'>No Match<br>(i)</div></div></div>","i","TARGET","3","trustrating_stim/white_mw013.bmp,trustrating_stim/white_mw042.bmp,trustrating_stim/white_mw092.bmp","0,0,1","noMatchOutcome","i","4500","trustrating_stim/white_mw092.bmp","red","Keep","PRACTICE","1"
"html-keyboard-response","13","201320","0.0-5.0-5.1","61509f0576598bbf74387211","bdp_wmem","Wed Mar 15 2023 21:40:44 GMT-0500 (Central Daylight Time)","677940","Match,No Match","","null","","","","","","<div class='trialBorder'><div class='vertical-center'><img src='img/correct.jpg'></div><div class='respDiv'><div class='respDivL'>Match<br>(e)</div><div class='respDivR'><font style='color:orange'>No Match<br>(i)</font></div></div></div>","null","FEEDBACK","","","","","","","","","","",""
"html-keyboard-response","14","201822","0.0-5.0-1.2","61509f0576598bbf74387211","bdp_wmem","Wed Mar 15 2023 21:40:44 GMT-0500 (Central Daylight Time)","677940","Match,No Match","","null","","","","","","<div class='trialBorder'><div class='vertical-center'><img src='img/fixation2_sml.jpg'</img></div></div>","null","FIX","","","","","","","","","","",""
"html-keyboard-response","15","206324","0.0-5.0-2.2","61509f0576598bbf74387211","bdp_wmem","Wed Mar 15 2023 21:40:44 GMT-0500 (Central Daylight Time)","677940","Match,No Match","","null","","","","","","<div class='trialBorder'><div class='vertical-center'><img style='vertical-align:center; align:center' src='img/fixation2_sml.jpg'></div><div class='arrayDiv3'><div class='tl'><img class='introPic' src='trustrating_stim/white_mw078.bmp'><br><font color='green'><strong>Share</strong></font></div><div class='tc'><img class='introPic' src='trustrating_stim/white_mw040.bmp'><br><font color='red'><strong>Keep</strong></font></div><div class='tr'><img class='introPic' src='trustrating_stim/white_mw038.bmp'><br><font color='green'><strong>Share</strong></font></div></div></div>","null","ARRAY","3","trustrating_stim/white_mw078.bmp,trustrating_stim/white_mw040.bmp,trustrating_stim/white_mw038.bmp","1,0,1","Match","e","4500","","","","",""
"html-keyboard-response","16","210325","0.0-5.0-3.2","61509f0576598bbf74387211","bdp_wmem","Wed Mar 15 2023 21:40:44 GMT-0500 (Central Daylight Time)","677940","Match,No Match","","null","","","","","","<div class='trialBorder'><div class='vertical-center'><img src='img/fixation2_sml.jpg'</img></div></div>","null","DELAY","","","","","","","","","","",""
"html-keyboard-response","17","213463","0.0-5.0-4.2","61509f0576598bbf74387211","bdp_wmem","Wed Mar 15 2023 21:40:44 GMT-0500 (Central Daylight Time)","677940","Match,No Match","","3136","","","","","","<div class='trialBorder'><div class='targDiv'><div class='tc'><img class='introPic' src='trustrating_stim/white_mw040.bmp'><br><font color='red'><strong>Keep</strong></font></div></div><div class='respDiv'><div class='respDivL'>Match<br>(e)</div><div class='respDivR'>No Match<br>(i)</div></div></div>","e","TARGET","3","trustrating_stim/white_mw078.bmp,trustrating_stim/white_mw040.bmp,trustrating_stim/white_mw038.bmp","1,0,1","Match","e","4500","trustrating_stim/white_mw040.bmp","red","Keep","PRACTICE","1"
"html-keyboard-response","18","213964","0.0-5.0-5.2","61509f0576598bbf74387211","bdp_wmem","Wed Mar 15 2023 21:40:44 GMT-0500 (Central Daylight Time)","677940","Match,No Match","","null","","","","","","<div class='trialBorder'><div class='vertical-center'><img src='img/correct.jpg'></div><div class='respDiv'><div class='respDivL'><font style='color:orange'>Match<br>(e)</font></div><div class='respDivR'>No Match<br>(i)</div></div></div>","null","FEEDBACK","","","","","","","","","","",""
"html-keyboard-response","19","214465","0.0-5.0-1.3","61509f0576598bbf74387211","bdp_wmem","Wed Mar 15 2023 21:40:44 GMT-0500 (Central Daylight Time)","677940","Match,No Match","","null","","","","","","<div class='trialBorder'><div class='vertical-center'><img src='img/fixation2_sml.jpg'</img></div></div>","null","FIX","","","","","","","","","","",""
"html-keyboard-response","20","215967","0.0-5.0-2.3","61509f0576598bbf74387211","bdp_wmem","Wed Mar 15 2023 21:40:44 GMT-0500 (Central Daylight Time)","677940","Match,No Match","","null","","","","","","<div class='trialBorder'><div class='vertical-center'><img style='vertical-align:center; align:center' src='img/fixation2_sml.jpg'></div><div class='arrayDiv1'><div class='tc'><img class='introPic' src='trustrating_stim/white_mw042.bmp'><br><font color='red'><strong>Keep</strong></font></div></div></div>","null","ARRAY","1","trustrating_stim/white_mw042.bmp","0","Match","e","1500","","","","",""
"html-keyboard-response","21","219969","0.0-5.0-3.3","61509f0576598bbf74387211","bdp_wmem","Wed Mar 15 2023 21:40:44 GMT-0500 (Central Daylight Time)","677940","Match,No Match","","null","","","","","","<div class='trialBorder'><div class='vertical-center'><img src='img/fixation2_sml.jpg'</img></div></div>","null","DELAY","","","","","","","","","","",""
"html-keyboard-response","22","221605","0.0-5.0-4.3","61509f0576598bbf74387211","bdp_wmem","Wed Mar 15 2023 21:40:44 GMT-0500 (Central Daylight Time)","677940","Match,No Match","","1635","","","","","","<div class='trialBorder'><div class='targDiv'><div class='tc'><img class='introPic' src='trustrating_stim/white_mw042.bmp'><br><font color='red'><strong>Keep</strong></font></div></div><div class='respDiv'><div class='respDivL'>Match<br>(e)</div><div class='respDivR'>No Match<br>(i)</div></div></div>","e","TARGET","1","trustrating_stim/white_mw042.bmp","0","Match","e","1500","trustrating_stim/white_mw042.bmp","red","Keep","PRACTICE","1"
"html-keyboard-response","23","222106","0.0-5.0-5.3","61509f0576598bbf74387211","bdp_wmem","Wed Mar 15 2023 21:40:44 GMT-0500 (Central Daylight Time)","677940","Match,No Match","","null","","","","","","<div class='trialBorder'><div class='vertical-center'><img src='img/correct.jpg'></div><div class='respDiv'><div class='respDivL'><font style='color:orange'>Match<br>(e)</font></div><div class='respDivR'>No Match<br>(i)</div></div></div>","null","FEEDBACK","","","","","","","","","","",""
"html-keyboard-response","24","222607","0.0-5.0-1.4","61509f0576598bbf74387211","bdp_wmem","Wed Mar 15 2023 21:40:44 GMT-0500 (Central Daylight Time)","677940","Match,No Match","","null","","","","","","<div class='trialBorder'><div class='vertical-center'><img src='img/fixation2_sml.jpg'</img></div></div>","null","FIX","","","","","","","","","","",""
"html-keyboard-response","25","225609","0.0-5.0-2.4","61509f0576598bbf74387211","bdp_wmem","Wed Mar 15 2023 21:40:44 GMT-0500 (Central Daylight Time)","677940","Match,No Match","","null","","","","","","<div class='trialBorder'><div class='vertical-center'><img style='vertical-align:center; align:center' src='img/fixation2_sml.jpg'></div><div class='arrayDiv2'><div class='tl'><img class='introPic' src='trustrating_stim/white_mw010.bmp'><br><font color='green'><strong>Share</strong></font></div><div class='tr'><img class='introPic' src='trustrating_stim/white_mw042.bmp'><br><font color='red'><strong>Keep</strong></font></div></div></div>","null","ARRAY","2","trustrating_stim/white_mw010.bmp,trustrating_stim/white_mw042.bmp","1,0","noMatchOutcome","i","3000","","","","",""
"html-keyboard-response","26","229610","0.0-5.0-3.4","61509f0576598bbf74387211","bdp_wmem","Wed Mar 15 2023 21:40:44 GMT-0500 (Central Daylight Time)","677940","Match,No Match","","null","","","","","","<div class='trialBorder'><div class='vertical-center'><img src='img/fixation2_sml.jpg'</img></div></div>","null","DELAY","","","","","","","","","","",""
"html-keyboard-response","27","230899","0.0-5.0-4.4","61509f0576598bbf74387211","bdp_wmem","Wed Mar 15 2023 21:40:44 GMT-0500 (Central Daylight Time)","677940","Match,No Match","","1288","","","","","","<div class='trialBorder'><div class='targDiv'><div class='tc'><img class='introPic' src='trustrating_stim/white_mw042.bmp'><br><font color='green'><strong>Share</strong></font></div></div><div class='respDiv'><div class='respDivL'>Match<br>(e)</div><div class='respDivR'>No Match<br>(i)</div></div></div>","i","TARGET","2","trustrating_stim/white_mw010.bmp,trustrating_stim/white_mw042.bmp","1,0","noMatchOutcome","i","3000","trustrating_stim/white_mw042.bmp","green","Share","PRACTICE","1"
"html-keyboard-response","28","231401","0.0-5.0-5.4","61509f0576598bbf74387211","bdp_wmem","Wed Mar 15 2023 21:40:44 GMT-0500 (Central Daylight Time)","677940","Match,No Match","","null","","","","","","<div class='trialBorder'><div class='vertical-center'><img src='img/correct.jpg'></div><div class='respDiv'><div class='respDivL'>Match<br>(e)</div><div class='respDivR'><font style='color:orange'>No Match<br>(i)</font></div></div></div>","null","FEEDBACK","","","","","","","","","","",""
"html-keyboard-response","29","231902","0.0-5.0-1.5","61509f0576598bbf74387211","bdp_wmem","Wed Mar 15 2023 21:40:44 GMT-0500 (Central Daylight Time)","677940","Match,No Match","","null","","","","","","<div class='trialBorder'><div class='vertical-center'><img src='img/fixation2_sml.jpg'</img></div></div>","null","FIX","","","","","","","","","","",""
"html-keyboard-response","30","234904","0.0-5.0-2.5","61509f0576598bbf74387211","bdp_wmem","Wed Mar 15 2023 21:40:44 GMT-0500 (Central Daylight Time)","677940","Match,No Match","","null","","","","","","<div class='trialBorder'><div class='vertical-center'><img style='vertical-align:center; align:center' src='img/fixation2_sml.jpg'></div><div class='arrayDiv2'><div class='tl'><img class='introPic' src='trustrating_stim/white_mw003.bmp'><br><font color='red'><strong>Keep</strong></font></div><div class='tr'><img class='introPic' src='trustrating_stim/white_mw085.bmp'><br><font color='green'><strong>Share</strong></font></div></div></div>","null","ARRAY","2","trustrating_stim/white_mw003.bmp,trustrating_stim/white_mw085.bmp","0,1","Match","e","3000","","","","",""
"html-keyboard-response","31","238906","0.0-5.0-3.5","61509f0576598bbf74387211","bdp_wmem","Wed Mar 15 2023 21:40:44 GMT-0500 (Central Daylight Time)","677940","Match,No Match","","null","","","","","","<div class='trialBorder'><div class='vertical-center'><img src='img/fixation2_sml.jpg'</img></div></div>","null","DELAY","","","","","","","","","","",""
"html-keyboard-response","32","240361","0.0-5.0-4.5","61509f0576598bbf74387211","bdp_wmem","Wed Mar 15 2023 21:40:44 GMT-0500 (Central Daylight Time)","677940","Match,No Match","","1454","","","","","","<div class='trialBorder'><div class='targDiv'><div class='tc'><img class='introPic' src='trustrating_stim/white_mw003.bmp'><br><font color='red'><strong>Keep</strong></font></div></div><div class='respDiv'><div class='respDivL'>Match<br>(e)</div><div class='respDivR'>No Match<br>(i)</div></div></div>","e","TARGET","2","trustrating_stim/white_mw003.bmp,trustrating_stim/white_mw085.bmp","0,1","Match","e","3000","trustrating_stim/white_mw003.bmp","red","Keep","PRACTICE","1"
"html-keyboard-response","33","240863","0.0-5.0-5.5","61509f0576598bbf74387211","bdp_wmem","Wed Mar 15 2023 21:40:44 GMT-0500 (Central Daylight Time)","677940","Match,No Match","","null","","","","","","<div class='trialBorder'><div class='vertical-center'><img src='img/correct.jpg'></div><div class='respDiv'><div class='respDivL'><font style='color:orange'>Match<br>(e)</font></div><div class='respDivR'>No Match<br>(i)</div></div></div>","null","FEEDBACK","","","","","","","","","","",""
"instructions","34","244714","0.0-6.0","61509f0576598bbf74387211","bdp_wmem","Wed Mar 15 2023 21:40:44 GMT-0500 (Central Daylight Time)","677940","Match,No Match","[{""page_index"":0,""viewing_time"":3851}]","3851","","","","","","","","","","","","","","","","","","",""
"html-keyboard-response","35","245215","0.0-7.0-1.0","61509f0576598bbf74387211","bdp_wmem","Wed Mar 15 2023 21:40:44 GMT-0500 (Central Daylight Time)","677940","Match,No Match","","null","","","","","","<div class='trialBorder'><div class='vertical-center'><img src='img/fixation2_sml.jpg'</img></div></div>","null","FIX","","","","","","","","","","",""
"html-keyboard-response","36","248217","0.0-7.0-2.0","61509f0576598bbf74387211","bdp_wmem","Wed Mar 15 2023 21:40:44 GMT-0500 (Central Daylight Time)","677940","Match,No Match","","null","","","","","","<div class='trialBorder'><div class='vertical-center'><img style='vertical-align:center; align:center' src='img/fixation2_sml.jpg'></div><div class='arrayDiv2'><div class='tl'><img class='introPic' src='trustrating_stim/white_mw003.bmp'><br><font color='red'><strong>Keep</strong></font></div><div class='tr'><img class='introPic' src='trustrating_stim/white_mw091.bmp'><br><font color='green'><strong>Share</strong></font></div></div></div>","null","ARRAY","2","trustrating_stim/white_mw003.bmp,trustrating_stim/white_mw091.bmp","0,1","Match","e","3000","","","","",""
"html-keyboard-response","37","252218","0.0-7.0-3.0","61509f0576598bbf74387211","bdp_wmem","Wed Mar 15 2023 21:40:44 GMT-0500 (Central Daylight Time)","677940","Match,No Match","","null","","","","","","<div class='trialBorder'><div class='vertical-center'><img src='img/fixation2_sml.jpg'</img></div></div>","null","DELAY","","","","","","","","","","",""
"html-keyboard-response","38","253042","0.0-7.0-4.0","61509f0576598bbf74387211","bdp_wmem","Wed Mar 15 2023 21:40:44 GMT-0500 (Central Daylight Time)","677940","Match,No Match","","821","","","","","","<div class='trialBorder'><div class='targDiv'><div class='tc'><img class='introPic' src='trustrating_stim/white_mw091.bmp'><br><font color='green'><strong>Share</strong></font></div></div><div class='respDiv'><div class='respDivL'>Match<br>(e)</div><div class='respDivR'>No Match<br>(i)</div></div></div>","e","TARGET","2","trustrating_stim/white_mw003.bmp,trustrating_stim/white_mw091.bmp","0,1","Match","e","3000","trustrating_stim/white_mw091.bmp","green","Share","REAL","1"
"html-keyboard-response","39","253542","0.0-7.0-5.0","61509f0576598bbf74387211","bdp_wmem","Wed Mar 15 2023 21:40:44 GMT-0500 (Central Daylight Time)","677940","Match,No Match","","null","","","","","","<div class='trialBorder'><div class='vertical-center'><img src='img/correct.jpg'></div><div class='respDiv'><div class='respDivL'><font style='color:orange'>Match<br>(e)</font></div><div class='respDivR'>No Match<br>(i)</div></div></div>","null","FEEDBACK","","","","","","","","","","",""
"html-keyboard-response","40","254044","0.0-7.0-1.1","61509f0576598bbf74387211","bdp_wmem","Wed Mar 15 2023 21:40:44 GMT-0500 (Central Daylight Time)","677940","Match,No Match","","null","","","","","","<div class='trialBorder'><div class='vertical-center'><img src='img/fixation2_sml.jpg'</img></div></div>","null","FIX","","","","","","","","","","",""
"html-keyboard-response","41","258547","0.0-7.0-2.1","61509f0576598bbf74387211","bdp_wmem","Wed Mar 15 2023 21:40:44 GMT-0500 (Central Daylight Time)","677940","Match,No Match","","null","","","","","","<div class='trialBorder'><div class='vertical-center'><img style='vertical-align:center; align:center' src='img/fixation2_sml.jpg'></div><div class='arrayDiv3'><div class='tl'><img class='introPic' src='trustrating_stim/white_mw091.bmp'><br><font color='green'><strong>Share</strong></font></div><div class='tc'><img class='introPic' src='trustrating_stim/white_mw013.bmp'><br><font color='red'><strong>Keep</strong></font></div><div class='tr'><img class='introPic' src='trustrating_stim/white_mw040.bmp'><br><font color='red'><strong>Keep</strong></font></div></div></div>","null","ARRAY","3","trustrating_stim/white_mw091.bmp,trustrating_stim/white_mw013.bmp,trustrating_stim/white_mw040.bmp","1,0,0","Match","e","4500","","","","",""
"html-keyboard-response","42","262548","0.0-7.0-3.1","61509f0576598bbf74387211","bdp_wmem","Wed Mar 15 2023 21:40:44 GMT-0500 (Central Daylight Time)","677940","Match,No Match","","null","","","","","","<div class='trialBorder'><div class='vertical-center'><img src='img/fixation2_sml.jpg'</img></div></div>","null","DELAY","","","","","","","","","","",""
"html-keyboard-response","43","263810","0.0-7.0-4.1","61509f0576598bbf74387211","bdp_wmem","Wed Mar 15 2023 21:40:44 GMT-0500 (Central Daylight Time)","677940","Match,No Match","","1260","","","","","","<div class='trialBorder'><div class='targDiv'><div class='tc'><img class='introPic' src='trustrating_stim/white_mw040.bmp'><br><font color='red'><strong>Keep</strong></font></div></div><div class='respDiv'><div class='respDivL'>Match<br>(e)</div><div class='respDivR'>No Match<br>(i)</div></div></div>","e","TARGET","3","trustrating_stim/white_mw091.bmp,trustrating_stim/white_mw013.bmp,trustrating_stim/white_mw040.bmp","1,0,0","Match","e","4500","trustrating_stim/white_mw040.bmp","red","Keep","REAL","1"
"html-keyboard-response","44","264311","0.0-7.0-5.1","61509f0576598bbf74387211","bdp_wmem","Wed Mar 15 2023 21:40:44 GMT-0500 (Central Daylight Time)","677940","Match,No Match","","null","","","","","","<div class='trialBorder'><div class='vertical-center'><img src='img/correct.jpg'></div><div class='respDiv'><div class='respDivL'><font style='color:orange'>Match<br>(e)</font></div><div class='respDivR'>No Match<br>(i)</div></div></div>","null","FEEDBACK","","","","","","","","","","",""
"html-keyboard-response","45","264812","0.0-7.0-1.2","61509f0576598bbf74387211","bdp_wmem","Wed Mar 15 2023 21:40:44 GMT-0500 (Central Daylight Time)","677940","Match,No Match","","null","","","","","","<div class='trialBorder'><div class='vertical-center'><img src='img/fixation2_sml.jpg'</img></div></div>","null","FIX","","","","","","","","","","",""
"html-keyboard-response","46","267814","0.0-7.0-2.2","61509f0576598bbf74387211","bdp_wmem","Wed Mar 15 2023 21:40:44 GMT-0500 (Central Daylight Time)","677940","Match,No Match","","null","","","","","","<div class='trialBorder'><div class='vertical-center'><img style='vertical-align:center; align:center' src='img/fixation2_sml.jpg'></div><div class='arrayDiv2'><div class='tl'><img class='introPic' src='trustrating_stim/white_mw010.bmp'><br><font color='green'><strong>Share</strong></font></div><div class='tr'><img class='introPic' src='trustrating_stim/white_mw013.bmp'><br><font color='red'><strong>Keep</strong></font></div></div></div>","null","ARRAY","2","trustrating_stim/white_mw010.bmp,trustrating_stim/white_mw013.bmp","1,0","noMatchOutcome","i","3000","","","","",""
"html-keyboard-response","47","271816","0.0-7.0-3.2","61509f0576598bbf74387211","bdp_wmem","Wed Mar 15 2023 21:40:44 GMT-0500 (Central Daylight Time)","677940","Match,No Match","","null","","","","","","<div class='trialBorder'><div class='vertical-center'><img src='img/fixation2_sml.jpg'</img></div></div>","null","DELAY","","","","","","","","","","",""
"html-keyboard-response","48","272630","0.0-7.0-4.2","61509f0576598bbf74387211","bdp_wmem","Wed Mar 15 2023 21:40:44 GMT-0500 (Central Daylight Time)","677940","Match,No Match","","813","","","","","","<div class='trialBorder'><div class='targDiv'><div class='tc'><img class='introPic' src='trustrating_stim/white_mw010.bmp'><br><font color='red'><strong>Keep</strong></font></div></div><div class='respDiv'><div class='respDivL'>Match<br>(e)</div><div class='respDivR'>No Match<br>(i)</div></div></div>","i","TARGET","2","trustrating_stim/white_mw010.bmp,trustrating_stim/white_mw013.bmp","1,0","noMatchOutcome","i","3000","trustrating_stim/white_mw010.bmp","red","Keep","REAL","1"
"html-keyboard-response","49","273131","0.0-7.0-5.2","61509f0576598bbf74387211","bdp_wmem","Wed Mar 15 2023 21:40:44 GMT-0500 (Central Daylight Time)","677940","Match,No Match","","null","","","","","","<div class='trialBorder'><div class='vertical-center'><img src='img/correct.jpg'></div><div class='respDiv'><div class='respDivL'>Match<br>(e)</div><div class='respDivR'><font style='color:orange'>No Match<br>(i)</font></div></div></div>","null","FEEDBACK","","","","","","","","","","",""
"html-keyboard-response","50","273631","0.0-7.0-1.3","61509f0576598bbf74387211","bdp_wmem","Wed Mar 15 2023 21:40:44 GMT-0500 (Central Daylight Time)","677940","Match,No Match","","null","","","","","","<div class='trialBorder'><div class='vertical-center'><img src='img/fixation2_sml.jpg'</img></div></div>","null","FIX","","","","","","","","","","",""
"html-keyboard-response","51","276634","0.0-7.0-2.3","61509f0576598bbf74387211","bdp_wmem","Wed Mar 15 2023 21:40:44 GMT-0500 (Central Daylight Time)","677940","Match,No Match","","null","","","","","","<div class='trialBorder'><div class='vertical-center'><img style='vertical-align:center; align:center' src='img/fixation2_sml.jpg'></div><div class='arrayDiv2'><div class='tl'><img class='introPic' src='trustrating_stim/white_mw003.bmp'><br><font color='green'><strong>Share</strong></font></div><div class='tr'><img class='introPic' src='trustrating_stim/white_mw012.bmp'><br><font color='red'><strong>Keep</strong></font></div></div></div>","null","ARRAY","2","trustrating_stim/white_mw003.bmp,trustrating_stim/white_mw012.bmp","1,0","Match","e","3000","","","","",""
"html-keyboard-response","52","280635","0.0-7.0-3.3","61509f0576598bbf74387211","bdp_wmem","Wed Mar 15 2023 21:40:44 GMT-0500 (Central Daylight Time)","677940","Match,No Match","","null","","","","","","<div class='trialBorder'><div class='vertical-center'><img src='img/fixation2_sml.jpg'</img></div></div>","null","DELAY","","","","","","","","","","",""
"html-keyboard-response","53","281784","0.0-7.0-4.3","61509f0576598bbf74387211","bdp_wmem","Wed Mar 15 2023 21:40:44 GMT-0500 (Central Daylight Time)","677940","Match,No Match","","1148","","","","","","<div class='trialBorder'><div class='targDiv'><div class='tc'><img class='introPic' src='trustrating_stim/white_mw012.bmp'><br><font color='red'><strong>Keep</strong></font></div></div><div class='respDiv'><div class='respDivL'>Match<br>(e)</div><div class='respDivR'>No Match<br>(i)</div></div></div>","e","TARGET","2","trustrating_stim/white_mw003.bmp,trustrating_stim/white_mw012.bmp","1,0","Match","e","3000","trustrating_stim/white_mw012.bmp","red","Keep","REAL","1"
"html-keyboard-response","54","282284","0.0-7.0-5.3","61509f0576598bbf74387211","bdp_wmem","Wed Mar 15 2023 21:40:44 GMT-0500 (Central Daylight Time)","677940","Match,No Match","","null","","","","","","<div class='trialBorder'><div class='vertical-center'><img src='img/correct.jpg'></div><div class='respDiv'><div class='respDivL'><font style='color:orange'>Match<br>(e)</font></div><div class='respDivR'>No Match<br>(i)</div></div></div>","null","FEEDBACK","","","","","","","","","","",""
"html-keyboard-response","55","282786","0.0-7.0-1.4","61509f0576598bbf74387211","bdp_wmem","Wed Mar 15 2023 21:40:44 GMT-0500 (Central Daylight Time)","677940","Match,No Match","","null","","","","","","<div class='trialBorder'><div class='vertical-center'><img src='img/fixation2_sml.jpg'</img></div></div>","null","FIX","","","","","","","","","","",""
"html-keyboard-response","56","287289","0.0-7.0-2.4","61509f0576598bbf74387211","bdp_wmem","Wed Mar 15 2023 21:40:44 GMT-0500 (Central Daylight Time)","677940","Match,No Match","","null","","","","","","<div class='trialBorder'><div class='vertical-center'><img style='vertical-align:center; align:center' src='img/fixation2_sml.jpg'></div><div class='arrayDiv3'><div class='tl'><img class='introPic' src='trustrating_stim/white_mw091.bmp'><br><font color='green'><strong>Share</strong></font></div><div class='tc'><img class='introPic' src='trustrating_stim/white_mw003.bmp'><br><font color='red'><strong>Keep</strong></font></div><div class='tr'><img class='introPic' src='trustrating_stim/white_mw070.bmp'><br><font color='red'><strong>Keep</strong></font></div></div></div>","null","ARRAY","3","trustrating_stim/white_mw091.bmp,trustrating_stim/white_mw003.bmp,trustrating_stim/white_mw070.bmp","1,0,0","Match","e","4500","","","","",""
"html-keyboard-response","57","291290","0.0-7.0-3.4","61509f0576598bbf74387211","bdp_wmem","Wed Mar 15 2023 21:40:44 GMT-0500 (Central Daylight Time)","677940","Match,No Match","","null","","","","","","<div class='trialBorder'><div class='vertical-center'><img src='img/fixation2_sml.jpg'</img></div></div>","null","DELAY","","","","","","","","","","",""
"html-keyboard-response","58","292564","0.0-7.0-4.4","61509f0576598bbf74387211","bdp_wmem","Wed Mar 15 2023 21:40:44 GMT-0500 (Central Daylight Time)","677940","Match,No Match","","1271","","","","","","<div class='trialBorder'><div class='targDiv'><div class='tc'><img class='introPic' src='trustrating_stim/white_mw070.bmp'><br><font color='red'><strong>Keep</strong></font></div></div><div class='respDiv'><div class='respDivL'>Match<br>(e)</div><div class='respDivR'>No Match<br>(i)</div></div></div>","e","TARGET","3","trustrating_stim/white_mw091.bmp,trustrating_stim/white_mw003.bmp,trustrating_stim/white_mw070.bmp","1,0,0","Match","e","4500","trustrating_stim/white_mw070.bmp","red","Keep","REAL","1"
"html-keyboard-response","59","293064","0.0-7.0-5.4","61509f0576598bbf74387211","bdp_wmem","Wed Mar 15 2023 21:40:44 GMT-0500 (Central Daylight Time)","677940","Match,No Match","","null","","","","","","<div class='trialBorder'><div class='vertical-center'><img src='img/correct.jpg'></div><div class='respDiv'><div class='respDivL'><font style='color:orange'>Match<br>(e)</font></div><div class='respDivR'>No Match<br>(i)</div></div></div>","null","FEEDBACK","","","","","","","","","","",""
"html-keyboard-response","60","293566","0.0-7.0-1.5","61509f0576598bbf74387211","bdp_wmem","Wed Mar 15 2023 21:40:44 GMT-0500 (Central Daylight Time)","677940","Match,No Match","","null","","","","","","<div class='trialBorder'><div class='vertical-center'><img src='img/fixation2_sml.jpg'</img></div></div>","null","FIX","","","","","","","","","","",""
"html-keyboard-response","61","298068","0.0-7.0-2.5","61509f0576598bbf74387211","bdp_wmem","Wed Mar 15 2023 21:40:44 GMT-0500 (Central Daylight Time)","677940","Match,No Match","","null","","","","","","<div class='trialBorder'><div class='vertical-center'><img style='vertical-align:center; align:center' src='img/fixation2_sml.jpg'></div><div class='arrayDiv3'><div class='tl'><img class='introPic' src='trustrating_stim/white_mw013.bmp'><br><font color='red'><strong>Keep</strong></font></div><div class='tc'><img class='introPic' src='trustrating_stim/white_mw012.bmp'><br><font color='green'><strong>Share</strong></font></div><div class='tr'><img class='introPic' src='trustrating_stim/white_mw038.bmp'><br><font color='red'><strong>Keep</strong></font></div></div></div>","null","ARRAY","3","trustrating_stim/white_mw013.bmp,trustrating_stim/white_mw012.bmp,trustrating_stim/white_mw038.bmp","0,1,0","Match","e","4500","","","","",""
"html-keyboard-response","62","302069","0.0-7.0-3.5","61509f0576598bbf74387211","bdp_wmem","Wed Mar 15 2023 21:40:44 GMT-0500 (Central Daylight Time)","677940","Match,No Match","","null","","","","","","<div class='trialBorder'><div class='vertical-center'><img src='img/fixation2_sml.jpg'</img></div></div>","null","DELAY","","","","","","","","","","",""
"html-keyboard-response","63","302904","0.0-7.0-4.5","61509f0576598bbf74387211","bdp_wmem","Wed Mar 15 2023 21:40:44 GMT-0500 (Central Daylight Time)","677940","Match,No Match","","834","","","","","","<div class='trialBorder'><div class='targDiv'><div class='tc'><img class='introPic' src='trustrating_stim/white_mw013.bmp'><br><font color='red'><strong>Keep</strong></font></div></div><div class='respDiv'><div class='respDivL'>Match<br>(e)</div><div class='respDivR'>No Match<br>(i)</div></div></div>","e","TARGET","3","trustrating_stim/white_mw013.bmp,trustrating_stim/white_mw012.bmp,trustrating_stim/white_mw038.bmp","0,1,0","Match","e","4500","trustrating_stim/white_mw013.bmp","red","Keep","REAL","1"
"html-keyboard-response","64","303405","0.0-7.0-5.5","61509f0576598bbf74387211","bdp_wmem","Wed Mar 15 2023 21:40:44 GMT-0500 (Central Daylight Time)","677940","Match,No Match","","null","","","","","","<div class='trialBorder'><div class='vertical-center'><img src='img/correct.jpg'></div><div class='respDiv'><div class='respDivL'><font style='color:orange'>Match<br>(e)</font></div><div class='respDivR'>No Match<br>(i)</div></div></div>","null","FEEDBACK","","","","","","","","","","",""
"html-keyboard-response","65","303907","0.0-7.0-1.6","61509f0576598bbf74387211","bdp_wmem","Wed Mar 15 2023 21:40:44 GMT-0500 (Central Daylight Time)","677940","Match,No Match","","null","","","","","","<div class='trialBorder'><div class='vertical-center'><img src='img/fixation2_sml.jpg'</img></div></div>","null","FIX","","","","","","","","","","",""
"html-keyboard-response","66","308409","0.0-7.0-2.6","61509f0576598bbf74387211","bdp_wmem","Wed Mar 15 2023 21:40:44 GMT-0500 (Central Daylight Time)","677940","Match,No Match","","null","","","","","","<div class='trialBorder'><div class='vertical-center'><img style='vertical-align:center; align:center' src='img/fixation2_sml.jpg'></div><div class='arrayDiv3'><div class='tl'><img class='introPic' src='trustrating_stim/white_mw012.bmp'><br><font color='red'><strong>Keep</strong></font></div><div class='tc'><img class='introPic' src='trustrating_stim/white_mw042.bmp'><br><font color='green'><strong>Share</strong></font></div><div class='tr'><img class='introPic' src='trustrating_stim/white_mw040.bmp'><br><font color='red'><strong>Keep</strong></font></div></div></div>","null","ARRAY","3","trustrating_stim/white_mw012.bmp,trustrating_stim/white_mw042.bmp,trustrating_stim/white_mw040.bmp","0,1,0","noMatchOutcome","i","4500","","","","",""
"html-keyboard-response","67","312411","0.0-7.0-3.6","61509f0576598bbf74387211","bdp_wmem","Wed Mar 15 2023 21:40:44 GMT-0500 (Central Daylight Time)","677940","Match,No Match","","null","","","","","","<div class='trialBorder'><div class='vertical-center'><img src='img/fixation2_sml.jpg'</img></div></div>","null","DELAY","","","","","","","","","","",""
"html-keyboard-response","68","313981","0.0-7.0-4.6","61509f0576598bbf74387211","bdp_wmem","Wed Mar 15 2023 21:40:44 GMT-0500 (Central Daylight Time)","677940","Match,No Match","","1569","","","","","","<div class='trialBorder'><div class='targDiv'><div class='tc'><img class='introPic' src='trustrating_stim/white_mw042.bmp'><br><font color='red'><strong>Keep</strong></font></div></div><div class='respDiv'><div class='respDivL'>Match<br>(e)</div><div class='respDivR'>No Match<br>(i)</div></div></div>","i","TARGET","3","trustrating_stim/white_mw012.bmp,trustrating_stim/white_mw042.bmp,trustrating_stim/white_mw040.bmp","0,1,0","noMatchOutcome","i","4500","trustrating_stim/white_mw042.bmp","red","Keep","REAL","1"
"html-keyboard-response","69","314483","0.0-7.0-5.6","61509f0576598bbf74387211","bdp_wmem","Wed Mar 15 2023 21:40:44 GMT-0500 (Central Daylight Time)","677940","Match,No Match","","null","","","","","","<div class='trialBorder'><div class='vertical-center'><img src='img/correct.jpg'></div><div class='respDiv'><div class='respDivL'>Match<br>(e)</div><div class='respDivR'><font style='color:orange'>No Match<br>(i)</font></div></div></div>","null","FEEDBACK","","","","","","","","","","",""
"html-keyboard-response","70","314985","0.0-7.0-1.7","61509f0576598bbf74387211","bdp_wmem","Wed Mar 15 2023 21:40:44 GMT-0500 (Central Daylight Time)","677940","Match,No Match","","null","","","","","","<div class='trialBorder'><div class='vertical-center'><img src='img/fixation2_sml.jpg'</img></div></div>","null","FIX","","","","","","","","","","",""
"html-keyboard-response","71","319487","0.0-7.0-2.7","61509f0576598bbf74387211","bdp_wmem","Wed Mar 15 2023 21:40:44 GMT-0500 (Central Daylight Time)","677940","Match,No Match","","null","","","","","","<div class='trialBorder'><div class='vertical-center'><img style='vertical-align:center; align:center' src='img/fixation2_sml.jpg'></div><div class='arrayDiv3'><div class='tl'><img class='introPic' src='trustrating_stim/white_mw003.bmp'><br><font color='green'><strong>Share</strong></font></div><div class='tc'><img class='introPic' src='trustrating_stim/white_mw042.bmp'><br><font color='red'><strong>Keep</strong></font></div><div class='tr'><img class='introPic' src='trustrating_stim/white_mw013.bmp'><br><font color='red'><strong>Keep</strong></font></div></div></div>","null","ARRAY","3","trustrating_stim/white_mw003.bmp,trustrating_stim/white_mw042.bmp,trustrating_stim/white_mw013.bmp","1,0,0","noMatchFace","i","4500","","","","",""
"html-keyboard-response","72","323488","0.0-7.0-3.7","61509f0576598bbf74387211","bdp_wmem","Wed Mar 15 2023 21:40:44 GMT-0500 (Central Daylight Time)","677940","Match,No Match","","null","","","","","","<div class='trialBorder'><div class='vertical-center'><img src='img/fixation2_sml.jpg'</img></div></div>","null","DELAY","","","","","","","","","","",""
"html-keyboard-response","73","325380","0.0-7.0-4.7","61509f0576598bbf74387211","bdp_wmem","Wed Mar 15 2023 21:40:44 GMT-0500 (Central Daylight Time)","677940","Match,No Match","","1891","","","","","","<div class='trialBorder'><div class='targDiv'><div class='tc'><img class='introPic' src='trustrating_stim/white_mw085.bmp'><br><font color='red'><strong>Keep</strong></font></div></div><div class='respDiv'><div class='respDivL'>Match<br>(e)</div><div class='respDivR'>No Match<br>(i)</div></div></div>","i","TARGET","3","trustrating_stim/white_mw003.bmp,trustrating_stim/white_mw042.bmp,trustrating_stim/white_mw013.bmp","1,0,0","noMatchFace","i","4500","trustrating_stim/white_mw085.bmp","red","Keep","REAL","1"
"html-keyboard-response","74","325881","0.0-7.0-5.7","61509f0576598bbf74387211","bdp_wmem","Wed Mar 15 2023 21:40:44 GMT-0500 (Central Daylight Time)","677940","Match,No Match","","null","","","","","","<div class='trialBorder'><div class='vertical-center'><img src='img/correct.jpg'></div><div class='respDiv'><div class='respDivL'>Match<br>(e)</div><div class='respDivR'><font style='color:orange'>No Match<br>(i)</font></div></div></div>","null","FEEDBACK","","","","","","","","","","",""
"html-keyboard-response","75","326383","0.0-7.0-1.8","61509f0576598bbf74387211","bdp_wmem","Wed Mar 15 2023 21:40:44 GMT-0500 (Central Daylight Time)","677940","Match,No Match","","null","","","","","","<div class='trialBorder'><div class='vertical-center'><img src='img/fixation2_sml.jpg'</img></div></div>","null","FIX","","","","","","","","","","",""
"html-keyboard-response","76","327885","0.0-7.0-2.8","61509f0576598bbf74387211","bdp_wmem","Wed Mar 15 2023 21:40:44 GMT-0500 (Central Daylight Time)","677940","Match,No Match","","null","","","","","","<div class='trialBorder'><div class='vertical-center'><img style='vertical-align:center; align:center' src='img/fixation2_sml.jpg'></div><div class='arrayDiv1'><div class='tc'><img class='introPic' src='trustrating_stim/white_mw003.bmp'><br><font color='red'><strong>Keep</strong></font></div></div></div>","null","ARRAY","1","trustrating_stim/white_mw003.bmp","0","Match","e","1500","","","","",""
"html-keyboard-response","77","331886","0.0-7.0-3.8","61509f0576598bbf74387211","bdp_wmem","Wed Mar 15 2023 21:40:44 GMT-0500 (Central Daylight Time)","677940","Match,No Match","","null","","","","","","<div class='trialBorder'><div class='vertical-center'><img src='img/fixation2_sml.jpg'</img></div></div>","null","DELAY","","","","","","","","","","",""
"html-keyboard-response","78","332796","0.0-7.0-4.8","61509f0576598bbf74387211","bdp_wmem","Wed Mar 15 2023 21:40:44 GMT-0500 (Central Daylight Time)","677940","Match,No Match","","909","","","","","","<div class='trialBorder'><div class='targDiv'><div class='tc'><img class='introPic' src='trustrating_stim/white_mw003.bmp'><br><font color='red'><strong>Keep</strong></font></div></div><div class='respDiv'><div class='respDivL'>Match<br>(e)</div><div class='respDivR'>No Match<br>(i)</div></div></div>","e","TARGET","1","trustrating_stim/white_mw003.bmp","0","Match","e","1500","trustrating_stim/white_mw003.bmp","red","Keep","REAL","1"
"html-keyboard-response","79","333297","0.0-7.0-5.8","61509f0576598bbf74387211","bdp_wmem","Wed Mar 15 2023 21:40:44 GMT-0500 (Central Daylight Time)","677940","Match,No Match","","null","","","","","","<div class='trialBorder'><div class='vertical-center'><img src='img/correct.jpg'></div><div class='respDiv'><div class='respDivL'><font style='color:orange'>Match<br>(e)</font></div><div class='respDivR'>No Match<br>(i)</div></div></div>","null","FEEDBACK","","","","","","","","","","",""
"html-keyboard-response","80","333799","0.0-7.0-1.9","61509f0576598bbf74387211","bdp_wmem","Wed Mar 15 2023 21:40:44 GMT-0500 (Central Daylight Time)","677940","Match,No Match","","null","","","","","","<div class='trialBorder'><div class='vertical-center'><img src='img/fixation2_sml.jpg'</img></div></div>","null","FIX","","","","","","","","","","",""
"html-keyboard-response","81","335301","0.0-7.0-2.9","61509f0576598bbf74387211","bdp_wmem","Wed Mar 15 2023 21:40:44 GMT-0500 (Central Daylight Time)","677940","Match,No Match","","null","","","","","","<div class='trialBorder'><div class='vertical-center'><img style='vertical-align:center; align:center' src='img/fixation2_sml.jpg'></div><div class='arrayDiv1'><div class='tc'><img class='introPic' src='trustrating_stim/white_mw003.bmp'><br><font color='red'><strong>Keep</strong></font></div></div></div>","null","ARRAY","1","trustrating_stim/white_mw003.bmp","0","noMatchFace","i","1500","","","","",""
"html-keyboard-response","82","339302","0.0-7.0-3.9","61509f0576598bbf74387211","bdp_wmem","Wed Mar 15 2023 21:40:44 GMT-0500 (Central Daylight Time)","677940","Match,No Match","","null","","","","","","<div class='trialBorder'><div class='vertical-center'><img src='img/fixation2_sml.jpg'</img></div></div>","null","DELAY","","","","","","","","","","",""
"html-keyboard-response","83","339976","0.0-7.0-4.9","61509f0576598bbf74387211","bdp_wmem","Wed Mar 15 2023 21:40:44 GMT-0500 (Central Daylight Time)","677940","Match,No Match","","673","","","","","","<div class='trialBorder'><div class='targDiv'><div class='tc'><img class='introPic' src='trustrating_stim/white_mw010.bmp'><br><font color='red'><strong>Keep</strong></font></div></div><div class='respDiv'><div class='respDivL'>Match<br>(e)</div><div class='respDivR'>No Match<br>(i)</div></div></div>","i","TARGET","1","trustrating_stim/white_mw003.bmp","0","noMatchFace","i","1500","trustrating_stim/white_mw010.bmp","red","Keep","REAL","1"
"html-keyboard-response","84","340477","0.0-7.0-5.9","61509f0576598bbf74387211","bdp_wmem","Wed Mar 15 2023 21:40:44 GMT-0500 (Central Daylight Time)","677940","Match,No Match","","null","","","","","","<div class='trialBorder'><div class='vertical-center'><img src='img/correct.jpg'></div><div class='respDiv'><div class='respDivL'>Match<br>(e)</div><div class='respDivR'><font style='color:orange'>No Match<br>(i)</font></div></div></div>","null","FEEDBACK","","","","","","","","","","",""
"html-keyboard-response","85","340978","0.0-7.0-1.10","61509f0576598bbf74387211","bdp_wmem","Wed Mar 15 2023 21:40:44 GMT-0500 (Central Daylight Time)","677940","Match,No Match","","null","","","","","","<div class='trialBorder'><div class='vertical-center'><img src='img/fixation2_sml.jpg'</img></div></div>","null","FIX","","","","","","","","","","",""
"html-keyboard-response","86","343980","0.0-7.0-2.10","61509f0576598bbf74387211","bdp_wmem","Wed Mar 15 2023 21:40:44 GMT-0500 (Central Daylight Time)","677940","Match,No Match","","null","","","","","","<div class='trialBorder'><div class='vertical-center'><img style='vertical-align:center; align:center' src='img/fixation2_sml.jpg'></div><div class='arrayDiv2'><div class='tl'><img class='introPic' src='trustrating_stim/white_mw091.bmp'><br><font color='green'><strong>Share</strong></font></div><div class='tr'><img class='introPic' src='trustrating_stim/white_mw012.bmp'><br><font color='red'><strong>Keep</strong></font></div></div></div>","null","ARRAY","2","trustrating_stim/white_mw091.bmp,trustrating_stim/white_mw012.bmp","1,0","noMatchOutcome","i","3000","","","","",""
"html-keyboard-response","87","347982","0.0-7.0-3.10","61509f0576598bbf74387211","bdp_wmem","Wed Mar 15 2023 21:40:44 GMT-0500 (Central Daylight Time)","677940","Match,No Match","","null","","","","","","<div class='trialBorder'><div class='vertical-center'><img src='img/fixation2_sml.jpg'</img></div></div>","null","DELAY","","","","","","","","","","",""
"html-keyboard-response","88","348748","0.0-7.0-4.10","61509f0576598bbf74387211","bdp_wmem","Wed Mar 15 2023 21:40:44 GMT-0500 (Central Daylight Time)","677940","Match,No Match","","765","","","","","","<div class='trialBorder'><div class='targDiv'><div class='tc'><img class='introPic' src='trustrating_stim/white_mw091.bmp'><br><font color='red'><strong>Keep</strong></font></div></div><div class='respDiv'><div class='respDivL'>Match<br>(e)</div><div class='respDivR'>No Match<br>(i)</div></div></div>","i","TARGET","2","trustrating_stim/white_mw091.bmp,trustrating_stim/white_mw012.bmp","1,0","noMatchOutcome","i","3000","trustrating_stim/white_mw091.bmp","red","Keep","REAL","1"
"html-keyboard-response","89","349249","0.0-7.0-5.10","61509f0576598bbf74387211","bdp_wmem","Wed Mar 15 2023 21:40:44 GMT-0500 (Central Daylight Time)","677940","Match,No Match","","null","","","","","","<div class='trialBorder'><div class='vertical-center'><img src='img/correct.jpg'></div><div class='respDiv'><div class='respDivL'>Match<br>(e)</div><div class='respDivR'><font style='color:orange'>No Match<br>(i)</font></div></div></div>","null","FEEDBACK","","","","","","","","","","",""
"html-keyboard-response","90","349750","0.0-7.0-1.11","61509f0576598bbf74387211","bdp_wmem","Wed Mar 15 2023 21:40:44 GMT-0500 (Central Daylight Time)","677940","Match,No Match","","null","","","","","","<div class='trialBorder'><div class='vertical-center'><img src='img/fixation2_sml.jpg'</img></div></div>","null","FIX","","","","","","","","","","",""
"html-keyboard-response","91","354253","0.0-7.0-2.11","61509f0576598bbf74387211","bdp_wmem","Wed Mar 15 2023 21:40:44 GMT-0500 (Central Daylight Time)","677940","Match,No Match","","null","","","","","","<div class='trialBorder'><div class='vertical-center'><img style='vertical-align:center; align:center' src='img/fixation2_sml.jpg'></div><div class='arrayDiv3'><div class='tl'><img class='introPic' src='trustrating_stim/white_mw040.bmp'><br><font color='red'><strong>Keep</strong></font></div><div class='tc'><img class='introPic' src='trustrating_stim/white_mw038.bmp'><br><font color='green'><strong>Share</strong></font></div><div class='tr'><img class='introPic' src='trustrating_stim/white_mw091.bmp'><br><font color='red'><strong>Keep</strong></font></div></div></div>","null","ARRAY","3","trustrating_stim/white_mw040.bmp,trustrating_stim/white_mw038.bmp,trustrating_stim/white_mw091.bmp","0,1,0","Match","e","4500","","","","",""
"html-keyboard-response","92","358254","0.0-7.0-3.11","61509f0576598bbf74387211","bdp_wmem","Wed Mar 15 2023 21:40:44 GMT-0500 (Central Daylight Time)","677940","Match,No Match","","null","","","","","","<div class='trialBorder'><div class='vertical-center'><img src='img/fixation2_sml.jpg'</img></div></div>","null","DELAY","","","","","","","","","","",""
"html-keyboard-response","93","359713","0.0-7.0-4.11","61509f0576598bbf74387211","bdp_wmem","Wed Mar 15 2023 21:40:44 GMT-0500 (Central Daylight Time)","677940","Match,No Match","","1457","","","","","","<div class='trialBorder'><div class='targDiv'><div class='tc'><img class='introPic' src='trustrating_stim/white_mw038.bmp'><br><font color='green'><strong>Share</strong></font></div></div><div class='respDiv'><div class='respDivL'>Match<br>(e)</div><div class='respDivR'>No Match<br>(i)</div></div></div>","e","TARGET","3","trustrating_stim/white_mw040.bmp,trustrating_stim/white_mw038.bmp,trustrating_stim/white_mw091.bmp","0,1,0","Match","e","4500","trustrating_stim/white_mw038.bmp","green","Share","REAL","1"
"html-keyboard-response","94","360215","0.0-7.0-5.11","61509f0576598bbf74387211","bdp_wmem","Wed Mar 15 2023 21:40:44 GMT-0500 (Central Daylight Time)","677940","Match,No Match","","null","","","","","","<div class='trialBorder'><div class='vertical-center'><img src='img/correct.jpg'></div><div class='respDiv'><div class='respDivL'><font style='color:orange'>Match<br>(e)</font></div><div class='respDivR'>No Match<br>(i)</div></div></div>","null","FEEDBACK","","","","","","","","","","",""
"html-keyboard-response","95","360717","0.0-7.0-1.12","61509f0576598bbf74387211","bdp_wmem","Wed Mar 15 2023 21:40:44 GMT-0500 (Central Daylight Time)","677940","Match,No Match","","null","","","","","","<div class='trialBorder'><div class='vertical-center'><img src='img/fixation2_sml.jpg'</img></div></div>","null","FIX","","","","","","","","","","",""
"html-keyboard-response","96","365219","0.0-7.0-2.12","61509f0576598bbf74387211","bdp_wmem","Wed Mar 15 2023 21:40:44 GMT-0500 (Central Daylight Time)","677940","Match,No Match","","null","","","","","","<div class='trialBorder'><div class='vertical-center'><img style='vertical-align:center; align:center' src='img/fixation2_sml.jpg'></div><div class='arrayDiv3'><div class='tl'><img class='introPic' src='trustrating_stim/white_mw078.bmp'><br><font color='green'><strong>Share</strong></font></div><div class='tc'><img class='introPic' src='trustrating_stim/white_mw038.bmp'><br><font color='red'><strong>Keep</strong></font></div><div class='tr'><img class='introPic' src='trustrating_stim/white_mw042.bmp'><br><font color='green'><strong>Share</strong></font></div></div></div>","null","ARRAY","3","trustrating_stim/white_mw078.bmp,trustrating_stim/white_mw038.bmp,trustrating_stim/white_mw042.bmp","1,0,1","noMatchOutcome","i","4500","","","","",""
"html-keyboard-response","97","369221","0.0-7.0-3.12","61509f0576598bbf74387211","bdp_wmem","Wed Mar 15 2023 21:40:44 GMT-0500 (Central Daylight Time)","677940","Match,No Match","","null","","","","","","<div class='trialBorder'><div class='vertical-center'><img src='img/fixation2_sml.jpg'</img></div></div>","null","DELAY","","","","","","","","","","",""
"html-keyboard-response","98","369948","0.0-7.0-4.12","61509f0576598bbf74387211","bdp_wmem","Wed Mar 15 2023 21:40:44 GMT-0500 (Central Daylight Time)","677940","Match,No Match","","726","","","","","","<div class='trialBorder'><div class='targDiv'><div class='tc'><img class='introPic' src='trustrating_stim/white_mw038.bmp'><br><font color='green'><strong>Share</strong></font></div></div><div class='respDiv'><div class='respDivL'>Match<br>(e)</div><div class='respDivR'>No Match<br>(i)</div></div></div>","i","TARGET","3","trustrating_stim/white_mw078.bmp,trustrating_stim/white_mw038.bmp,trustrating_stim/white_mw042.bmp","1,0,1","noMatchOutcome","i","4500","trustrating_stim/white_mw038.bmp","green","Share","REAL","1"
"html-keyboard-response","99","370449","0.0-7.0-5.12","61509f0576598bbf74387211","bdp_wmem","Wed Mar 15 2023 21:40:44 GMT-0500 (Central Daylight Time)","677940","Match,No Match","","null","","","","","","<div class='trialBorder'><div class='vertical-center'><img src='img/correct.jpg'></div><div class='respDiv'><div class='respDivL'>Match<br>(e)</div><div class='respDivR'><font style='color:orange'>No Match<br>(i)</font></div></div></div>","null","FEEDBACK","","","","","","","","","","",""
"html-keyboard-response","100","370951","0.0-7.0-1.13","61509f0576598bbf74387211","bdp_wmem","Wed Mar 15 2023 21:40:44 GMT-0500 (Central Daylight Time)","677940","Match,No Match","","null","","","","","","<div class='trialBorder'><div class='vertical-center'><img src='img/fixation2_sml.jpg'</img></div></div>","null","FIX","","","","","","","","","","",""
"html-keyboard-response","101","373953","0.0-7.0-2.13","61509f0576598bbf74387211","bdp_wmem","Wed Mar 15 2023 21:40:44 GMT-0500 (Central Daylight Time)","677940","Match,No Match","","null","","","","","","<div class='trialBorder'><div class='vertical-center'><img style='vertical-align:center; align:center' src='img/fixation2_sml.jpg'></div><div class='arrayDiv2'><div class='tl'><img class='introPic' src='trustrating_stim/white_mw013.bmp'><br><font color='green'><strong>Share</strong></font></div><div class='tr'><img class='introPic' src='trustrating_stim/white_mw040.bmp'><br><font color='red'><strong>Keep</strong></font></div></div></div>","null","ARRAY","2","trustrating_stim/white_mw013.bmp,trustrating_stim/white_mw040.bmp","1,0","Match","e","3000","","","","",""
"html-keyboard-response","102","377955","0.0-7.0-3.13","61509f0576598bbf74387211","bdp_wmem","Wed Mar 15 2023 21:40:44 GMT-0500 (Central Daylight Time)","677940","Match,No Match","","null","","","","","","<div class='trialBorder'><div class='vertical-center'><img src='img/fixation2_sml.jpg'</img></div></div>","null","DELAY","","","","","","","","","","",""
"html-keyboard-response","103","378612","0.0-7.0-4.13","61509f0576598bbf74387211","bdp_wmem","Wed Mar 15 2023 21:40:44 GMT-0500 (Central Daylight Time)","677940","Match,No Match","","655","","","","","","<div class='trialBorder'><div class='targDiv'><div class='tc'><img class='introPic' src='trustrating_stim/white_mw013.bmp'><br><font color='green'><strong>Share</strong></font></div></div><div class='respDiv'><div class='respDivL'>Match<br>(e)</div><div class='respDivR'>No Match<br>(i)</div></div></div>","e","TARGET","2","trustrating_stim/white_mw013.bmp,trustrating_stim/white_mw040.bmp","1,0","Match","e","3000","trustrating_stim/white_mw013.bmp","green","Share","REAL","1"
"html-keyboard-response","104","379113","0.0-7.0-5.13","61509f0576598bbf74387211","bdp_wmem","Wed Mar 15 2023 21:40:44 GMT-0500 (Central Daylight Time)","677940","Match,No Match","","null","","","","","","<div class='trialBorder'><div class='vertical-center'><img src='img/correct.jpg'></div><div class='respDiv'><div class='respDivL'><font style='color:orange'>Match<br>(e)</font></div><div class='respDivR'>No Match<br>(i)</div></div></div>","null","FEEDBACK","","","","","","","","","","",""
"html-keyboard-response","105","379615","0.0-7.0-1.14","61509f0576598bbf74387211","bdp_wmem","Wed Mar 15 2023 21:40:44 GMT-0500 (Central Daylight Time)","677940","Match,No Match","","null","","","","","","<div class='trialBorder'><div class='vertical-center'><img src='img/fixation2_sml.jpg'</img></div></div>","null","FIX","","","","","","","","","","",""
"html-keyboard-response","106","381116","0.0-7.0-2.14","61509f0576598bbf74387211","bdp_wmem","Wed Mar 15 2023 21:40:44 GMT-0500 (Central Daylight Time)","677940","Match,No Match","","null","","","","","","<div class='trialBorder'><div class='vertical-center'><img style='vertical-align:center; align:center' src='img/fixation2_sml.jpg'></div><div class='arrayDiv1'><div class='tc'><img class='introPic' src='trustrating_stim/white_mw085.bmp'><br><font color='green'><strong>Share</strong></font></div></div></div>","null","ARRAY","1","trustrating_stim/white_mw085.bmp","1","noMatchOutcome","i","1500","","","","",""
"html-keyboard-response","107","385119","0.0-7.0-3.14","61509f0576598bbf74387211","bdp_wmem","Wed Mar 15 2023 21:40:44 GMT-0500 (Central Daylight Time)","677940","Match,No Match","","null","","","","","","<div class='trialBorder'><div class='vertical-center'><img src='img/fixation2_sml.jpg'</img></div></div>","null","DELAY","","","","","","","","","","",""
"html-keyboard-response","108","386460","0.0-7.0-4.14","61509f0576598bbf74387211","bdp_wmem","Wed Mar 15 2023 21:40:44 GMT-0500 (Central Daylight Time)","677940","Match,No Match","","1340","","","","","","<div class='trialBorder'><div class='targDiv'><div class='tc'><img class='introPic' src='trustrating_stim/white_mw085.bmp'><br><font color='red'><strong>Keep</strong></font></div></div><div class='respDiv'><div class='respDivL'>Match<br>(e)</div><div class='respDivR'>No Match<br>(i)</div></div></div>","i","TARGET","1","trustrating_stim/white_mw085.bmp","1","noMatchOutcome","i","1500","trustrating_stim/white_mw085.bmp","red","Keep","REAL","1"
"html-keyboard-response","109","386960","0.0-7.0-5.14","61509f0576598bbf74387211","bdp_wmem","Wed Mar 15 2023 21:40:44 GMT-0500 (Central Daylight Time)","677940","Match,No Match","","null","","","","","","<div class='trialBorder'><div class='vertical-center'><img src='img/correct.jpg'></div><div class='respDiv'><div class='respDivL'>Match<br>(e)</div><div class='respDivR'><font style='color:orange'>No Match<br>(i)</font></div></div></div>","null","FEEDBACK","","","","","","","","","","",""
"html-keyboard-response","110","387462","0.0-7.0-1.15","61509f0576598bbf74387211","bdp_wmem","Wed Mar 15 2023 21:40:44 GMT-0500 (Central Daylight Time)","677940","Match,No Match","","null","","","","","","<div class='trialBorder'><div class='vertical-center'><img src='img/fixation2_sml.jpg'</img></div></div>","null","FIX","","","","","","","","","","",""
"html-keyboard-response","111","388963","0.0-7.0-2.15","61509f0576598bbf74387211","bdp_wmem","Wed Mar 15 2023 21:40:44 GMT-0500 (Central Daylight Time)","677940","Match,No Match","","null","","","","","","<div class='trialBorder'><div class='vertical-center'><img style='vertical-align:center; align:center' src='img/fixation2_sml.jpg'></div><div class='arrayDiv1'><div class='tc'><img class='introPic' src='trustrating_stim/white_mw012.bmp'><br><font color='green'><strong>Share</strong></font></div></div></div>","null","ARRAY","1","trustrating_stim/white_mw012.bmp","1","Match","e","1500","","","","",""
"html-keyboard-response","112","392965","0.0-7.0-3.15","61509f0576598bbf74387211","bdp_wmem","Wed Mar 15 2023 21:40:44 GMT-0500 (Central Daylight Time)","677940","Match,No Match","","null","","","","","","<div class='trialBorder'><div class='vertical-center'><img src='img/fixation2_sml.jpg'</img></div></div>","null","DELAY","","","","","","","","","","",""
"html-keyboard-response","113","393678","0.0-7.0-4.15","61509f0576598bbf74387211","bdp_wmem","Wed Mar 15 2023 21:40:44 GMT-0500 (Central Daylight Time)","677940","Match,No Match","","712","","","","","","<div class='trialBorder'><div class='targDiv'><div class='tc'><img class='introPic' src='trustrating_stim/white_mw012.bmp'><br><font color='green'><strong>Share</strong></font></div></div><div class='respDiv'><div class='respDivL'>Match<br>(e)</div><div class='respDivR'>No Match<br>(i)</div></div></div>","e","TARGET","1","trustrating_stim/white_mw012.bmp","1","Match","e","1500","trustrating_stim/white_mw012.bmp","green","Share","REAL","1"
"html-keyboard-response","114","394179","0.0-7.0-5.15","61509f0576598bbf74387211","bdp_wmem","Wed Mar 15 2023 21:40:44 GMT-0500 (Central Daylight Time)","677940","Match,No Match","","null","","","","","","<div class='trialBorder'><div class='vertical-center'><img src='img/correct.jpg'></div><div class='respDiv'><div class='respDivL'><font style='color:orange'>Match<br>(e)</font></div><div class='respDivR'>No Match<br>(i)</div></div></div>","null","FEEDBACK","","","","","","","","","","",""
"html-keyboard-response","115","394680","0.0-7.0-1.16","61509f0576598bbf74387211","bdp_wmem","Wed Mar 15 2023 21:40:44 GMT-0500 (Central Daylight Time)","677940","Match,No Match","","null","","","","","","<div class='trialBorder'><div class='vertical-center'><img src='img/fixation2_sml.jpg'</img></div></div>","null","FIX","","","","","","","","","","",""
"html-keyboard-response","116","396181","0.0-7.0-2.16","61509f0576598bbf74387211","bdp_wmem","Wed Mar 15 2023 21:40:44 GMT-0500 (Central Daylight Time)","677940","Match,No Match","","null","","","","","","<div class='trialBorder'><div class='vertical-center'><img style='vertical-align:center; align:center' src='img/fixation2_sml.jpg'></div><div class='arrayDiv1'><div class='tc'><img class='introPic' src='trustrating_stim/white_mw042.bmp'><br><font color='green'><strong>Share</strong></font></div></div></div>","null","ARRAY","1","trustrating_stim/white_mw042.bmp","1","Match","e","1500","","","","",""
"html-keyboard-response","117","400183","0.0-7.0-3.16","61509f0576598bbf74387211","bdp_wmem","Wed Mar 15 2023 21:40:44 GMT-0500 (Central Daylight Time)","677940","Match,No Match","","null","","","","","","<div class='trialBorder'><div class='vertical-center'><img src='img/fixation2_sml.jpg'</img></div></div>","null","DELAY","","","","","","","","","","",""
"html-keyboard-response","118","400876","0.0-7.0-4.16","61509f0576598bbf74387211","bdp_wmem","Wed Mar 15 2023 21:40:44 GMT-0500 (Central Daylight Time)","677940","Match,No Match","","692","","","","","","<div class='trialBorder'><div class='targDiv'><div class='tc'><img class='introPic' src='trustrating_stim/white_mw042.bmp'><br><font color='green'><strong>Share</strong></font></div></div><div class='respDiv'><div class='respDivL'>Match<br>(e)</div><div class='respDivR'>No Match<br>(i)</div></div></div>","e","TARGET","1","trustrating_stim/white_mw042.bmp","1","Match","e","1500","trustrating_stim/white_mw042.bmp","green","Share","REAL","1"
"html-keyboard-response","119","401377","0.0-7.0-5.16","61509f0576598bbf74387211","bdp_wmem","Wed Mar 15 2023 21:40:44 GMT-0500 (Central Daylight Time)","677940","Match,No Match","","null","","","","","","<div class='trialBorder'><div class='vertical-center'><img src='img/correct.jpg'></div><div class='respDiv'><div class='respDivL'><font style='color:orange'>Match<br>(e)</font></div><div class='respDivR'>No Match<br>(i)</div></div></div>","null","FEEDBACK","","","","","","","","","","",""
"html-keyboard-response","120","401879","0.0-7.0-1.17","61509f0576598bbf74387211","bdp_wmem","Wed Mar 15 2023 21:40:44 GMT-0500 (Central Daylight Time)","677940","Match,No Match","","null","","","","","","<div class='trialBorder'><div class='vertical-center'><img src='img/fixation2_sml.jpg'</img></div></div>","null","FIX","","","","","","","","","","",""
"html-keyboard-response","121","404881","0.0-7.0-2.17","61509f0576598bbf74387211","bdp_wmem","Wed Mar 15 2023 21:40:44 GMT-0500 (Central Daylight Time)","677940","Match,No Match","","null","","","","","","<div class='trialBorder'><div class='vertical-center'><img style='vertical-align:center; align:center' src='img/fixation2_sml.jpg'></div><div class='arrayDiv2'><div class='tl'><img class='introPic' src='trustrating_stim/white_mw013.bmp'><br><font color='green'><strong>Share</strong></font></div><div class='tr'><img class='introPic' src='trustrating_stim/white_mw078.bmp'><br><font color='red'><strong>Keep</strong></font></div></div></div>","null","ARRAY","2","trustrating_stim/white_mw013.bmp,trustrating_stim/white_mw078.bmp","1,0","noMatchFace","i","3000","","","","",""
"html-keyboard-response","122","408883","0.0-7.0-3.17","61509f0576598bbf74387211","bdp_wmem","Wed Mar 15 2023 21:40:44 GMT-0500 (Central Daylight Time)","677940","Match,No Match","","null","","","","","","<div class='trialBorder'><div class='vertical-center'><img src='img/fixation2_sml.jpg'</img></div></div>","null","DELAY","","","","","","","","","","",""
"html-keyboard-response","123","410215","0.0-7.0-4.17","61509f0576598bbf74387211","bdp_wmem","Wed Mar 15 2023 21:40:44 GMT-0500 (Central Daylight Time)","677940","Match,No Match","","1332","","","","","","<div class='trialBorder'><div class='targDiv'><div class='tc'><img class='introPic' src='trustrating_stim/white_mw012.bmp'><br><font color='green'><strong>Share</strong></font></div></div><div class='respDiv'><div class='respDivL'>Match<br>(e)</div><div class='respDivR'>No Match<br>(i)</div></div></div>","i","TARGET","2","trustrating_stim/white_mw013.bmp,trustrating_stim/white_mw078.bmp","1,0","noMatchFace","i","3000","trustrating_stim/white_mw012.bmp","green","Share","REAL","1"
"html-keyboard-response","124","410717","0.0-7.0-5.17","61509f0576598bbf74387211","bdp_wmem","Wed Mar 15 2023 21:40:44 GMT-0500 (Central Daylight Time)","677940","Match,No Match","","null","","","","","","<div class='trialBorder'><div class='vertical-center'><img src='img/correct.jpg'></div><div class='respDiv'><div class='respDivL'>Match<br>(e)</div><div class='respDivR'><font style='color:orange'>No Match<br>(i)</font></div></div></div>","null","FEEDBACK","","","","","","","","","","",""
"html-keyboard-response","125","411218","0.0-7.0-1.18","61509f0576598bbf74387211","bdp_wmem","Wed Mar 15 2023 21:40:44 GMT-0500 (Central Daylight Time)","677940","Match,No Match","","null","","","","","","<div class='trialBorder'><div class='vertical-center'><img src='img/fixation2_sml.jpg'</img></div></div>","null","FIX","","","","","","","","","","",""
"html-keyboard-response","126","415720","0.0-7.0-2.18","61509f0576598bbf74387211","bdp_wmem","Wed Mar 15 2023 21:40:44 GMT-0500 (Central Daylight Time)","677940","Match,No Match","","null","","","","","","<div class='trialBorder'><div class='vertical-center'><img style='vertical-align:center; align:center' src='img/fixation2_sml.jpg'></div><div class='arrayDiv3'><div class='tl'><img class='introPic' src='trustrating_stim/white_mw038.bmp'><br><font color='red'><strong>Keep</strong></font></div><div class='tc'><img class='introPic' src='trustrating_stim/white_mw013.bmp'><br><font color='green'><strong>Share</strong></font></div><div class='tr'><img class='introPic' src='trustrating_stim/white_mw040.bmp'><br><font color='green'><strong>Share</strong></font></div></div></div>","null","ARRAY","3","trustrating_stim/white_mw038.bmp,trustrating_stim/white_mw013.bmp,trustrating_stim/white_mw040.bmp","0,1,1","noMatchOutcome","i","4500","","","","",""
"html-keyboard-response","127","419722","0.0-7.0-3.18","61509f0576598bbf74387211","bdp_wmem","Wed Mar 15 2023 21:40:44 GMT-0500 (Central Daylight Time)","677940","Match,No Match","","null","","","","","","<div class='trialBorder'><div class='vertical-center'><img src='img/fixation2_sml.jpg'</img></div></div>","null","DELAY","","","","","","","","","","",""
"html-keyboard-response","128","420668","0.0-7.0-4.18","61509f0576598bbf74387211","bdp_wmem","Wed Mar 15 2023 21:40:44 GMT-0500 (Central Daylight Time)","677940","Match,No Match","","945","","","","","","<div class='trialBorder'><div class='targDiv'><div class='tc'><img class='introPic' src='trustrating_stim/white_mw013.bmp'><br><font color='red'><strong>Keep</strong></font></div></div><div class='respDiv'><div class='respDivL'>Match<br>(e)</div><div class='respDivR'>No Match<br>(i)</div></div></div>","i","TARGET","3","trustrating_stim/white_mw038.bmp,trustrating_stim/white_mw013.bmp,trustrating_stim/white_mw040.bmp","0,1,1","noMatchOutcome","i","4500","trustrating_stim/white_mw013.bmp","red","Keep","REAL","1"
"html-keyboard-response","129","421169","0.0-7.0-5.18","61509f0576598bbf74387211","bdp_wmem","Wed Mar 15 2023 21:40:44 GMT-0500 (Central Daylight Time)","677940","Match,No Match","","null","","","","","","<div class='trialBorder'><div class='vertical-center'><img src='img/correct.jpg'></div><div class='respDiv'><div class='respDivL'>Match<br>(e)</div><div class='respDivR'><font style='color:orange'>No Match<br>(i)</font></div></div></div>","null","FEEDBACK","","","","","","","","","","",""
"html-keyboard-response","130","421670","0.0-7.0-1.19","61509f0576598bbf74387211","bdp_wmem","Wed Mar 15 2023 21:40:44 GMT-0500 (Central Daylight Time)","677940","Match,No Match","","null","","","","","","<div class='trialBorder'><div class='vertical-center'><img src='img/fixation2_sml.jpg'</img></div></div>","null","FIX","","","","","","","","","","",""
"html-keyboard-response","131","426171","0.0-7.0-2.19","61509f0576598bbf74387211","bdp_wmem","Wed Mar 15 2023 21:40:44 GMT-0500 (Central Daylight Time)","677940","Match,No Match","","null","","","","","","<div class='trialBorder'><div class='vertical-center'><img style='vertical-align:center; align:center' src='img/fixation2_sml.jpg'></div><div class='arrayDiv3'><div class='tl'><img class='introPic' src='trustrating_stim/white_mw040.bmp'><br><font color='red'><strong>Keep</strong></font></div><div class='tc'><img class='introPic' src='trustrating_stim/white_mw012.bmp'><br><font color='green'><strong>Share</strong></font></div><div class='tr'><img class='introPic' src='trustrating_stim/white_mw070.bmp'><br><font color='red'><strong>Keep</strong></font></div></div></div>","null","ARRAY","3","trustrating_stim/white_mw040.bmp,trustrating_stim/white_mw012.bmp,trustrating_stim/white_mw070.bmp","0,1,0","Match","e","4500","","","","",""
"html-keyboard-response","132","430173","0.0-7.0-3.19","61509f0576598bbf74387211","bdp_wmem","Wed Mar 15 2023 21:40:44 GMT-0500 (Central Daylight Time)","677940","Match,No Match","","null","","","","","","<div class='trialBorder'><div class='vertical-center'><img src='img/fixation2_sml.jpg'</img></div></div>","null","DELAY","","","","","","","","","","",""
"html-keyboard-response","133","431375","0.0-7.0-4.19","61509f0576598bbf74387211","bdp_wmem","Wed Mar 15 2023 21:40:44 GMT-0500 (Central Daylight Time)","677940","Match,No Match","","1201","","","","","","<div class='trialBorder'><div class='targDiv'><div class='tc'><img class='introPic' src='trustrating_stim/white_mw070.bmp'><br><font color='red'><strong>Keep</strong></font></div></div><div class='respDiv'><div class='respDivL'>Match<br>(e)</div><div class='respDivR'>No Match<br>(i)</div></div></div>","e","TARGET","3","trustrating_stim/white_mw040.bmp,trustrating_stim/white_mw012.bmp,trustrating_stim/white_mw070.bmp","0,1,0","Match","e","4500","trustrating_stim/white_mw070.bmp","red","Keep","REAL","1"
"html-keyboard-response","134","431877","0.0-7.0-5.19","61509f0576598bbf74387211","bdp_wmem","Wed Mar 15 2023 21:40:44 GMT-0500 (Central Daylight Time)","677940","Match,No Match","","null","","","","","","<div class='trialBorder'><div class='vertical-center'><img src='img/correct.jpg'></div><div class='respDiv'><div class='respDivL'><font style='color:orange'>Match<br>(e)</font></div><div class='respDivR'>No Match<br>(i)</div></div></div>","null","FEEDBACK","","","","","","","","","","",""
"html-keyboard-response","135","432379","0.0-7.0-1.20","61509f0576598bbf74387211","bdp_wmem","Wed Mar 15 2023 21:40:44 GMT-0500 (Central Daylight Time)","677940","Match,No Match","","null","","","","","","<div class='trialBorder'><div class='vertical-center'><img src='img/fixation2_sml.jpg'</img></div></div>","null","FIX","","","","","","","","","","",""
"html-keyboard-response","136","435381","0.0-7.0-2.20","61509f0576598bbf74387211","bdp_wmem","Wed Mar 15 2023 21:40:44 GMT-0500 (Central Daylight Time)","677940","Match,No Match","","null","","","","","","<div class='trialBorder'><div class='vertical-center'><img style='vertical-align:center; align:center' src='img/fixation2_sml.jpg'></div><div class='arrayDiv2'><div class='tl'><img class='introPic' src='trustrating_stim/white_mw085.bmp'><br><font color='green'><strong>Share</strong></font></div><div class='tr'><img class='introPic' src='trustrating_stim/white_mw013.bmp'><br><font color='red'><strong>Keep</strong></font></div></div></div>","null","ARRAY","2","trustrating_stim/white_mw085.bmp,trustrating_stim/white_mw013.bmp","1,0","Match","e","3000","","","","",""
"html-keyboard-response","137","439383","0.0-7.0-3.20","61509f0576598bbf74387211","bdp_wmem","Wed Mar 15 2023 21:40:44 GMT-0500 (Central Daylight Time)","677940","Match,No Match","","null","","","","","","<div class='trialBorder'><div class='vertical-center'><img src='img/fixation2_sml.jpg'</img></div></div>","null","DELAY","","","","","","","","","","",""
"html-keyboard-response","138","439990","0.0-7.0-4.20","61509f0576598bbf74387211","bdp_wmem","Wed Mar 15 2023 21:40:44 GMT-0500 (Central Daylight Time)","677940","Match,No Match","","605","","","","","","<div class='trialBorder'><div class='targDiv'><div class='tc'><img class='introPic' src='trustrating_stim/white_mw085.bmp'><br><font color='green'><strong>Share</strong></font></div></div><div class='respDiv'><div class='respDivL'>Match<br>(e)</div><div class='respDivR'>No Match<br>(i)</div></div></div>","e","TARGET","2","trustrating_stim/white_mw085.bmp,trustrating_stim/white_mw013.bmp","1,0","Match","e","3000","trustrating_stim/white_mw085.bmp","green","Share","REAL","1"
"html-keyboard-response","139","440491","0.0-7.0-5.20","61509f0576598bbf74387211","bdp_wmem","Wed Mar 15 2023 21:40:44 GMT-0500 (Central Daylight Time)","677940","Match,No Match","","null","","","","","","<div class='trialBorder'><div class='vertical-center'><img src='img/correct.jpg'></div><div class='respDiv'><div class='respDivL'><font style='color:orange'>Match<br>(e)</font></div><div class='respDivR'>No Match<br>(i)</div></div></div>","null","FEEDBACK","","","","","","","","","","",""
"html-keyboard-response","140","440992","0.0-7.0-1.21","61509f0576598bbf74387211","bdp_wmem","Wed Mar 15 2023 21:40:44 GMT-0500 (Central Daylight Time)","677940","Match,No Match","","null","","","","","","<div class='trialBorder'><div class='vertical-center'><img src='img/fixation2_sml.jpg'</img></div></div>","null","FIX","","","","","","","","","","",""
"html-keyboard-response","141","442493","0.0-7.0-2.21","61509f0576598bbf74387211","bdp_wmem","Wed Mar 15 2023 21:40:44 GMT-0500 (Central Daylight Time)","677940","Match,No Match","","null","","","","","","<div class='trialBorder'><div class='vertical-center'><img style='vertical-align:center; align:center' src='img/fixation2_sml.jpg'></div><div class='arrayDiv1'><div class='tc'><img class='introPic' src='trustrating_stim/white_mw070.bmp'><br><font color='green'><strong>Share</strong></font></div></div></div>","null","ARRAY","1","trustrating_stim/white_mw070.bmp","1","noMatchFace","i","1500","","","","",""
"html-keyboard-response","142","446495","0.0-7.0-3.21","61509f0576598bbf74387211","bdp_wmem","Wed Mar 15 2023 21:40:44 GMT-0500 (Central Daylight Time)","677940","Match,No Match","","null","","","","","","<div class='trialBorder'><div class='vertical-center'><img src='img/fixation2_sml.jpg'</img></div></div>","null","DELAY","","","","","","","","","","",""
"html-keyboard-response","143","447147","0.0-7.0-4.21","61509f0576598bbf74387211","bdp_wmem","Wed Mar 15 2023 21:40:44 GMT-0500 (Central Daylight Time)","677940","Match,No Match","","651","","","","","","<div class='trialBorder'><div class='targDiv'><div class='tc'><img class='introPic' src='trustrating_stim/white_mw092.bmp'><br><font color='green'><strong>Share</strong></font></div></div><div class='respDiv'><div class='respDivL'>Match<br>(e)</div><div class='respDivR'>No Match<br>(i)</div></div></div>","i","TARGET","1","trustrating_stim/white_mw070.bmp","1","noMatchFace","i","1500","trustrating_stim/white_mw092.bmp","green","Share","REAL","1"
"html-keyboard-response","144","447649","0.0-7.0-5.21","61509f0576598bbf74387211","bdp_wmem","Wed Mar 15 2023 21:40:44 GMT-0500 (Central Daylight Time)","677940","Match,No Match","","null","","","","","","<div class='trialBorder'><div class='vertical-center'><img src='img/correct.jpg'></div><div class='respDiv'><div class='respDivL'>Match<br>(e)</div><div class='respDivR'><font style='color:orange'>No Match<br>(i)</font></div></div></div>","null","FEEDBACK","","","","","","","","","","",""
"html-keyboard-response","145","448150","0.0-7.0-1.22","61509f0576598bbf74387211","bdp_wmem","Wed Mar 15 2023 21:40:44 GMT-0500 (Central Daylight Time)","677940","Match,No Match","","null","","","","","","<div class='trialBorder'><div class='vertical-center'><img src='img/fixation2_sml.jpg'</img></div></div>","null","FIX","","","","","","","","","","",""
"html-keyboard-response","146","452651","0.0-7.0-2.22","61509f0576598bbf74387211","bdp_wmem","Wed Mar 15 2023 21:40:44 GMT-0500 (Central Daylight Time)","677940","Match,No Match","","null","","","","","","<div class='trialBorder'><div class='vertical-center'><img style='vertical-align:center; align:center' src='img/fixation2_sml.jpg'></div><div class='arrayDiv3'><div class='tl'><img class='introPic' src='trustrating_stim/white_mw003.bmp'><br><font color='red'><strong>Keep</strong></font></div><div class='tc'><img class='introPic' src='trustrating_stim/white_mw085.bmp'><br><font color='green'><strong>Share</strong></font></div><div class='tr'><img class='introPic' src='trustrating_stim/white_mw040.bmp'><br><font color='green'><strong>Share</strong></font></div></div></div>","null","ARRAY","3","trustrating_stim/white_mw003.bmp,trustrating_stim/white_mw085.bmp,trustrating_stim/white_mw040.bmp","0,1,1","Match","e","4500","","","","",""
"html-keyboard-response","147","456653","0.0-7.0-3.22","61509f0576598bbf74387211","bdp_wmem","Wed Mar 15 2023 21:40:44 GMT-0500 (Central Daylight Time)","677940","Match,No Match","","null","","","","","","<div class='trialBorder'><div class='vertical-center'><img src='img/fixation2_sml.jpg'</img></div></div>","null","DELAY","","","","","","","","","","",""
"html-keyboard-response","148","457740","0.0-7.0-4.22","61509f0576598bbf74387211","bdp_wmem","Wed Mar 15 2023 21:40:44 GMT-0500 (Central Daylight Time)","677940","Match,No Match","","1086","","","","","","<div class='trialBorder'><div class='targDiv'><div class='tc'><img class='introPic' src='trustrating_stim/white_mw040.bmp'><br><font color='green'><strong>Share</strong></font></div></div><div class='respDiv'><div class='respDivL'>Match<br>(e)</div><div class='respDivR'>No Match<br>(i)</div></div></div>","i","TARGET","3","trustrating_stim/white_mw003.bmp,trustrating_stim/white_mw085.bmp,trustrating_stim/white_mw040.bmp","0,1,1","Match","e","4500","trustrating_stim/white_mw040.bmp","green","Share","REAL","0"
"html-keyboard-response","149","458241","0.0-7.0-5.22","61509f0576598bbf74387211","bdp_wmem","Wed Mar 15 2023 21:40:44 GMT-0500 (Central Daylight Time)","677940","Match,No Match","","null","","","","","","<div class='trialBorder'><div class='vertical-center'><img src='img/error.jpg'></div><div class='respDiv'><div class='respDivL'>Match<br>(e)</div><div class='respDivR'><font style='color:orange'>No Match<br>(i)</font></div></div></div>","null","FEEDBACK","","","","","","","","","","",""
"html-keyboard-response","150","458742","0.0-7.0-1.23","61509f0576598bbf74387211","bdp_wmem","Wed Mar 15 2023 21:40:44 GMT-0500 (Central Daylight Time)","677940","Match,No Match","","null","","","","","","<div class='trialBorder'><div class='vertical-center'><img src='img/fixation2_sml.jpg'</img></div></div>","null","FIX","","","","","","","","","","",""
"html-keyboard-response","151","460244","0.0-7.0-2.23","61509f0576598bbf74387211","bdp_wmem","Wed Mar 15 2023 21:40:44 GMT-0500 (Central Daylight Time)","677940","Match,No Match","","null","","","","","","<div class='trialBorder'><div class='vertical-center'><img style='vertical-align:center; align:center' src='img/fixation2_sml.jpg'></div><div class='arrayDiv1'><div class='tc'><img class='introPic' src='trustrating_stim/white_mw003.bmp'><br><font color='green'><strong>Share</strong></font></div></div></div>","null","ARRAY","1","trustrating_stim/white_mw003.bmp","1","noMatchOutcome","i","1500","","","","",""
"html-keyboard-response","152","464245","0.0-7.0-3.23","61509f0576598bbf74387211","bdp_wmem","Wed Mar 15 2023 21:40:44 GMT-0500 (Central Daylight Time)","677940","Match,No Match","","null","","","","","","<div class='trialBorder'><div class='vertical-center'><img src='img/fixation2_sml.jpg'</img></div></div>","null","DELAY","","","","","","","","","","",""
"html-keyboard-response","153","464735","0.0-7.0-4.23","61509f0576598bbf74387211","bdp_wmem","Wed Mar 15 2023 21:40:44 GMT-0500 (Central Daylight Time)","677940","Match,No Match","","489","","","","","","<div class='trialBorder'><div class='targDiv'><div class='tc'><img class='introPic' src='trustrating_stim/white_mw003.bmp'><br><font color='red'><strong>Keep</strong></font></div></div><div class='respDiv'><div class='respDivL'>Match<br>(e)</div><div class='respDivR'>No Match<br>(i)</div></div></div>","e","TARGET","1","trustrating_stim/white_mw003.bmp","1","noMatchOutcome","i","1500","trustrating_stim/white_mw003.bmp","red","Keep","REAL","0"
"html-keyboard-response","154","465236","0.0-7.0-5.23","61509f0576598bbf74387211","bdp_wmem","Wed Mar 15 2023 21:40:44 GMT-0500 (Central Daylight Time)","677940","Match,No Match","","null","","","","","","<div class='trialBorder'><div class='vertical-center'><img src='img/error.jpg'></div><div class='respDiv'><div class='respDivL'><font style='color:orange'>Match<br>(e)</font></div><div class='respDivR'>No Match<br>(i)</div></div></div>","null","FEEDBACK","","","","","","","","","","",""
"html-keyboard-response","155","465738","0.0-7.0-1.24","61509f0576598bbf74387211","bdp_wmem","Wed Mar 15 2023 21:40:44 GMT-0500 (Central Daylight Time)","677940","Match,No Match","","null","","","","","","<div class='trialBorder'><div class='vertical-center'><img src='img/fixation2_sml.jpg'</img></div></div>","null","FIX","","","","","","","","","","",""
"html-keyboard-response","156","468740","0.0-7.0-2.24","61509f0576598bbf74387211","bdp_wmem","Wed Mar 15 2023 21:40:44 GMT-0500 (Central Daylight Time)","677940","Match,No Match","","null","","","","","","<div class='trialBorder'><div class='vertical-center'><img style='vertical-align:center; align:center' src='img/fixation2_sml.jpg'></div><div class='arrayDiv2'><div class='tl'><img class='introPic' src='trustrating_stim/white_mw092.bmp'><br><font color='red'><strong>Keep</strong></font></div><div class='tr'><img class='introPic' src='trustrating_stim/white_mw085.bmp'><br><font color='green'><strong>Share</strong></font></div></div></div>","null","ARRAY","2","trustrating_stim/white_mw092.bmp,trustrating_stim/white_mw085.bmp","0,1","Match","e","3000","","","","",""
"html-keyboard-response","157","472742","0.0-7.0-3.24","61509f0576598bbf74387211","bdp_wmem","Wed Mar 15 2023 21:40:44 GMT-0500 (Central Daylight Time)","677940","Match,No Match","","null","","","","","","<div class='trialBorder'><div class='vertical-center'><img src='img/fixation2_sml.jpg'</img></div></div>","null","DELAY","","","","","","","","","","",""
"html-keyboard-response","158","473996","0.0-7.0-4.24","61509f0576598bbf74387211","bdp_wmem","Wed Mar 15 2023 21:40:44 GMT-0500 (Central Daylight Time)","677940","Match,No Match","","1252","","","","","","<div class='trialBorder'><div class='targDiv'><div class='tc'><img class='introPic' src='trustrating_stim/white_mw092.bmp'><br><font color='red'><strong>Keep</strong></font></div></div><div class='respDiv'><div class='respDivL'>Match<br>(e)</div><div class='respDivR'>No Match<br>(i)</div></div></div>","e","TARGET","2","trustrating_stim/white_mw092.bmp,trustrating_stim/white_mw085.bmp","0,1","Match","e","3000","trustrating_stim/white_mw092.bmp","red","Keep","REAL","1"
"html-keyboard-response","159","474496","0.0-7.0-5.24","61509f0576598bbf74387211","bdp_wmem","Wed Mar 15 2023 21:40:44 GMT-0500 (Central Daylight Time)","677940","Match,No Match","","null","","","","","","<div class='trialBorder'><div class='vertical-center'><img src='img/correct.jpg'></div><div class='respDiv'><div class='respDivL'><font style='color:orange'>Match<br>(e)</font></div><div class='respDivR'>No Match<br>(i)</div></div></div>","null","FEEDBACK","","","","","","","","","","",""
"html-keyboard-response","160","474997","0.0-7.0-1.25","61509f0576598bbf74387211","bdp_wmem","Wed Mar 15 2023 21:40:44 GMT-0500 (Central Daylight Time)","677940","Match,No Match","","null","","","","","","<div class='trialBorder'><div class='vertical-center'><img src='img/fixation2_sml.jpg'</img></div></div>","null","FIX","","","","","","","","","","",""
"html-keyboard-response","161","479499","0.0-7.0-2.25","61509f0576598bbf74387211","bdp_wmem","Wed Mar 15 2023 21:40:44 GMT-0500 (Central Daylight Time)","677940","Match,No Match","","null","","","","","","<div class='trialBorder'><div class='vertical-center'><img style='vertical-align:center; align:center' src='img/fixation2_sml.jpg'></div><div class='arrayDiv3'><div class='tl'><img class='introPic' src='trustrating_stim/white_mw092.bmp'><br><font color='red'><strong>Keep</strong></font></div><div class='tc'><img class='introPic' src='trustrating_stim/white_mw078.bmp'><br><font color='green'><strong>Share</strong></font></div><div class='tr'><img class='introPic' src='trustrating_stim/white_mw070.bmp'><br><font color='green'><strong>Share</strong></font></div></div></div>","null","ARRAY","3","trustrating_stim/white_mw092.bmp,trustrating_stim/white_mw078.bmp,trustrating_stim/white_mw070.bmp","0,1,1","noMatchOutcome","i","4500","","","","",""
"html-keyboard-response","162","483501","0.0-7.0-3.25","61509f0576598bbf74387211","bdp_wmem","Wed Mar 15 2023 21:40:44 GMT-0500 (Central Daylight Time)","677940","Match,No Match","","null","","","","","","<div class='trialBorder'><div class='vertical-center'><img src='img/fixation2_sml.jpg'</img></div></div>","null","DELAY","","","","","","","","","","",""
"html-keyboard-response","163","485054","0.0-7.0-4.25","61509f0576598bbf74387211","bdp_wmem","Wed Mar 15 2023 21:40:44 GMT-0500 (Central Daylight Time)","677940","Match,No Match","","1552","","","","","","<div class='trialBorder'><div class='targDiv'><div class='tc'><img class='introPic' src='trustrating_stim/white_mw078.bmp'><br><font color='red'><strong>Keep</strong></font></div></div><div class='respDiv'><div class='respDivL'>Match<br>(e)</div><div class='respDivR'>No Match<br>(i)</div></div></div>","e","TARGET","3","trustrating_stim/white_mw092.bmp,trustrating_stim/white_mw078.bmp,trustrating_stim/white_mw070.bmp","0,1,1","noMatchOutcome","i","4500","trustrating_stim/white_mw078.bmp","red","Keep","REAL","0"
"html-keyboard-response","164","485555","0.0-7.0-5.25","61509f0576598bbf74387211","bdp_wmem","Wed Mar 15 2023 21:40:44 GMT-0500 (Central Daylight Time)","677940","Match,No Match","","null","","","","","","<div class='trialBorder'><div class='vertical-center'><img src='img/error.jpg'></div><div class='respDiv'><div class='respDivL'><font style='color:orange'>Match<br>(e)</font></div><div class='respDivR'>No Match<br>(i)</div></div></div>","null","FEEDBACK","","","","","","","","","","",""
"html-keyboard-response","165","486057","0.0-7.0-1.26","61509f0576598bbf74387211","bdp_wmem","Wed Mar 15 2023 21:40:44 GMT-0500 (Central Daylight Time)","677940","Match,No Match","","null","","","","","","<div class='trialBorder'><div class='vertical-center'><img src='img/fixation2_sml.jpg'</img></div></div>","null","FIX","","","","","","","","","","",""
"html-keyboard-response","166","487558","0.0-7.0-2.26","61509f0576598bbf74387211","bdp_wmem","Wed Mar 15 2023 21:40:44 GMT-0500 (Central Daylight Time)","677940","Match,No Match","","null","","","","","","<div class='trialBorder'><div class='vertical-center'><img style='vertical-align:center; align:center' src='img/fixation2_sml.jpg'></div><div class='arrayDiv1'><div class='tc'><img class='introPic' src='trustrating_stim/white_mw003.bmp'><br><font color='red'><strong>Keep</strong></font></div></div></div>","null","ARRAY","1","trustrating_stim/white_mw003.bmp","0","Match","e","1500","","","","",""
"html-keyboard-response","167","491561","0.0-7.0-3.26","61509f0576598bbf74387211","bdp_wmem","Wed Mar 15 2023 21:40:44 GMT-0500 (Central Daylight Time)","677940","Match,No Match","","null","","","","","","<div class='trialBorder'><div class='vertical-center'><img src='img/fixation2_sml.jpg'</img></div></div>","null","DELAY","","","","","","","","","","",""
"html-keyboard-response","168","492497","0.0-7.0-4.26","61509f0576598bbf74387211","bdp_wmem","Wed Mar 15 2023 21:40:44 GMT-0500 (Central Daylight Time)","677940","Match,No Match","","935","","","","","","<div class='trialBorder'><div class='targDiv'><div class='tc'><img class='introPic' src='trustrating_stim/white_mw003.bmp'><br><font color='red'><strong>Keep</strong></font></div></div><div class='respDiv'><div class='respDivL'>Match<br>(e)</div><div class='respDivR'>No Match<br>(i)</div></div></div>","e","TARGET","1","trustrating_stim/white_mw003.bmp","0","Match","e","1500","trustrating_stim/white_mw003.bmp","red","Keep","REAL","1"
"html-keyboard-response","169","492998","0.0-7.0-5.26","61509f0576598bbf74387211","bdp_wmem","Wed Mar 15 2023 21:40:44 GMT-0500 (Central Daylight Time)","677940","Match,No Match","","null","","","","","","<div class='trialBorder'><div class='vertical-center'><img src='img/correct.jpg'></div><div class='respDiv'><div class='respDivL'><font style='color:orange'>Match<br>(e)</font></div><div class='respDivR'>No Match<br>(i)</div></div></div>","null","FEEDBACK","","","","","","","","","","",""
"html-keyboard-response","170","493500","0.0-7.0-1.27","61509f0576598bbf74387211","bdp_wmem","Wed Mar 15 2023 21:40:44 GMT-0500 (Central Daylight Time)","677940","Match,No Match","","null","","","","","","<div class='trialBorder'><div class='vertical-center'><img src='img/fixation2_sml.jpg'</img></div></div>","null","FIX","","","","","","","","","","",""
"html-keyboard-response","171","495001","0.0-7.0-2.27","61509f0576598bbf74387211","bdp_wmem","Wed Mar 15 2023 21:40:44 GMT-0500 (Central Daylight Time)","677940","Match,No Match","","null","","","","","","<div class='trialBorder'><div class='vertical-center'><img style='vertical-align:center; align:center' src='img/fixation2_sml.jpg'></div><div class='arrayDiv1'><div class='tc'><img class='introPic' src='trustrating_stim/white_mw085.bmp'><br><font color='red'><strong>Keep</strong></font></div></div></div>","null","ARRAY","1","trustrating_stim/white_mw085.bmp","0","noMatchFace","i","1500","","","","",""
"html-keyboard-response","172","499002","0.0-7.0-3.27","61509f0576598bbf74387211","bdp_wmem","Wed Mar 15 2023 21:40:44 GMT-0500 (Central Daylight Time)","677940","Match,No Match","","null","","","","","","<div class='trialBorder'><div class='vertical-center'><img src='img/fixation2_sml.jpg'</img></div></div>","null","DELAY","","","","","","","","","","",""
"html-keyboard-response","173","499846","0.0-7.0-4.27","61509f0576598bbf74387211","bdp_wmem","Wed Mar 15 2023 21:40:44 GMT-0500 (Central Daylight Time)","677940","Match,No Match","","842","","","","","","<div class='trialBorder'><div class='targDiv'><div class='tc'><img class='introPic' src='trustrating_stim/white_mw010.bmp'><br><font color='red'><strong>Keep</strong></font></div></div><div class='respDiv'><div class='respDivL'>Match<br>(e)</div><div class='respDivR'>No Match<br>(i)</div></div></div>","i","TARGET","1","trustrating_stim/white_mw085.bmp","0","noMatchFace","i","1500","trustrating_stim/white_mw010.bmp","red","Keep","REAL","1"
"html-keyboard-response","174","500348","0.0-7.0-5.27","61509f0576598bbf74387211","bdp_wmem","Wed Mar 15 2023 21:40:44 GMT-0500 (Central Daylight Time)","677940","Match,No Match","","null","","","","","","<div class='trialBorder'><div class='vertical-center'><img src='img/correct.jpg'></div><div class='respDiv'><div class='respDivL'>Match<br>(e)</div><div class='respDivR'><font style='color:orange'>No Match<br>(i)</font></div></div></div>","null","FEEDBACK","","","","","","","","","","",""
"html-keyboard-response","175","500849","0.0-7.0-1.28","61509f0576598bbf74387211","bdp_wmem","Wed Mar 15 2023 21:40:44 GMT-0500 (Central Daylight Time)","677940","Match,No Match","","null","","","","","","<div class='trialBorder'><div class='vertical-center'><img src='img/fixation2_sml.jpg'</img></div></div>","null","FIX","","","","","","","","","","",""
"html-keyboard-response","176","503851","0.0-7.0-2.28","61509f0576598bbf74387211","bdp_wmem","Wed Mar 15 2023 21:40:44 GMT-0500 (Central Daylight Time)","677940","Match,No Match","","null","","","","","","<div class='trialBorder'><div class='vertical-center'><img style='vertical-align:center; align:center' src='img/fixation2_sml.jpg'></div><div class='arrayDiv2'><div class='tl'><img class='introPic' src='trustrating_stim/white_mw042.bmp'><br><font color='red'><strong>Keep</strong></font></div><div class='tr'><img class='introPic' src='trustrating_stim/white_mw092.bmp'><br><font color='green'><strong>Share</strong></font></div></div></div>","null","ARRAY","2","trustrating_stim/white_mw042.bmp,trustrating_stim/white_mw092.bmp","0,1","Match","e","3000","","","","",""
"html-keyboard-response","177","507853","0.0-7.0-3.28","61509f0576598bbf74387211","bdp_wmem","Wed Mar 15 2023 21:40:44 GMT-0500 (Central Daylight Time)","677940","Match,No Match","","null","","","","","","<div class='trialBorder'><div class='vertical-center'><img src='img/fixation2_sml.jpg'</img></div></div>","null","DELAY","","","","","","","","","","",""
"html-keyboard-response","178","508389","0.0-7.0-4.28","61509f0576598bbf74387211","bdp_wmem","Wed Mar 15 2023 21:40:44 GMT-0500 (Central Daylight Time)","677940","Match,No Match","","535","","","","","","<div class='trialBorder'><div class='targDiv'><div class='tc'><img class='introPic' src='trustrating_stim/white_mw042.bmp'><br><font color='red'><strong>Keep</strong></font></div></div><div class='respDiv'><div class='respDivL'>Match<br>(e)</div><div class='respDivR'>No Match<br>(i)</div></div></div>","e","TARGET","2","trustrating_stim/white_mw042.bmp,trustrating_stim/white_mw092.bmp","0,1","Match","e","3000","trustrating_stim/white_mw042.bmp","red","Keep","REAL","1"
"html-keyboard-response","179","508890","0.0-7.0-5.28","61509f0576598bbf74387211","bdp_wmem","Wed Mar 15 2023 21:40:44 GMT-0500 (Central Daylight Time)","677940","Match,No Match","","null","","","","","","<div class='trialBorder'><div class='vertical-center'><img src='img/correct.jpg'></div><div class='respDiv'><div class='respDivL'><font style='color:orange'>Match<br>(e)</font></div><div class='respDivR'>No Match<br>(i)</div></div></div>","null","FEEDBACK","","","","","","","","","","",""
"html-keyboard-response","180","509392","0.0-7.0-1.29","61509f0576598bbf74387211","bdp_wmem","Wed Mar 15 2023 21:40:44 GMT-0500 (Central Daylight Time)","677940","Match,No Match","","null","","","","","","<div class='trialBorder'><div class='vertical-center'><img src='img/fixation2_sml.jpg'</img></div></div>","null","FIX","","","","","","","","","","",""
"html-keyboard-response","181","512394","0.0-7.0-2.29","61509f0576598bbf74387211","bdp_wmem","Wed Mar 15 2023 21:40:44 GMT-0500 (Central Daylight Time)","677940","Match,No Match","","null","","","","","","<div class='trialBorder'><div class='vertical-center'><img style='vertical-align:center; align:center' src='img/fixation2_sml.jpg'></div><div class='arrayDiv2'><div class='tl'><img class='introPic' src='trustrating_stim/white_mw012.bmp'><br><font color='red'><strong>Keep</strong></font></div><div class='tr'><img class='introPic' src='trustrating_stim/white_mw040.bmp'><br><font color='green'><strong>Share</strong></font></div></div></div>","null","ARRAY","2","trustrating_stim/white_mw012.bmp,trustrating_stim/white_mw040.bmp","0,1","noMatchFace","i","3000","","","","",""
"html-keyboard-response","182","516396","0.0-7.0-3.29","61509f0576598bbf74387211","bdp_wmem","Wed Mar 15 2023 21:40:44 GMT-0500 (Central Daylight Time)","677940","Match,No Match","","null","","","","","","<div class='trialBorder'><div class='vertical-center'><img src='img/fixation2_sml.jpg'</img></div></div>","null","DELAY","","","","","","","","","","",""
"html-keyboard-response","183","517262","0.0-7.0-4.29","61509f0576598bbf74387211","bdp_wmem","Wed Mar 15 2023 21:40:44 GMT-0500 (Central Daylight Time)","677940","Match,No Match","","864","","","","","","<div class='trialBorder'><div class='targDiv'><div class='tc'><img class='introPic' src='trustrating_stim/white_mw042.bmp'><br><font color='green'><strong>Share</strong></font></div></div><div class='respDiv'><div class='respDivL'>Match<br>(e)</div><div class='respDivR'>No Match<br>(i)</div></div></div>","e","TARGET","2","trustrating_stim/white_mw012.bmp,trustrating_stim/white_mw040.bmp","0,1","noMatchFace","i","3000","trustrating_stim/white_mw042.bmp","green","Share","REAL","0"
"html-keyboard-response","184","517763","0.0-7.0-5.29","61509f0576598bbf74387211","bdp_wmem","Wed Mar 15 2023 21:40:44 GMT-0500 (Central Daylight Time)","677940","Match,No Match","","null","","","","","","<div class='trialBorder'><div class='vertical-center'><img src='img/error.jpg'></div><div class='respDiv'><div class='respDivL'><font style='color:orange'>Match<br>(e)</font></div><div class='respDivR'>No Match<br>(i)</div></div></div>","null","FEEDBACK","","","","","","","","","","",""
"html-keyboard-response","185","518265","0.0-7.0-1.30","61509f0576598bbf74387211","bdp_wmem","Wed Mar 15 2023 21:40:44 GMT-0500 (Central Daylight Time)","677940","Match,No Match","","null","","","","","","<div class='trialBorder'><div class='vertical-center'><img src='img/fixation2_sml.jpg'</img></div></div>","null","FIX","","","","","","","","","","",""
"html-keyboard-response","186","521266","0.0-7.0-2.30","61509f0576598bbf74387211","bdp_wmem","Wed Mar 15 2023 21:40:44 GMT-0500 (Central Daylight Time)","677940","Match,No Match","","null","","","","","","<div class='trialBorder'><div class='vertical-center'><img style='vertical-align:center; align:center' src='img/fixation2_sml.jpg'></div><div class='arrayDiv2'><div class='tl'><img class='introPic' src='trustrating_stim/white_mw012.bmp'><br><font color='red'><strong>Keep</strong></font></div><div class='tr'><img class='introPic' src='trustrating_stim/white_mw085.bmp'><br><font color='green'><strong>Share</strong></font></div></div></div>","null","ARRAY","2","trustrating_stim/white_mw012.bmp,trustrating_stim/white_mw085.bmp","0,1","noMatchFace","i","3000","","","","",""
"html-keyboard-response","187","525268","0.0-7.0-3.30","61509f0576598bbf74387211","bdp_wmem","Wed Mar 15 2023 21:40:44 GMT-0500 (Central Daylight Time)","677940","Match,No Match","","null","","","","","","<div class='trialBorder'><div class='vertical-center'><img src='img/fixation2_sml.jpg'</img></div></div>","null","DELAY","","","","","","","","","","",""
