"event","trial","time","trialtype","subject_id","task","startTime","totalTime","labels","trial_type","trial_index","time_elapsed","internal_node_id","view_history","rt","success","stimulus","key_press","stimType","arraySize","arrayFaces","arrayOutcomes","matchType","corrResp","arrayDur","targFace","targCol","targOutcome","trialType","corr"
"focus","0","0","focusevent","63fe39cd075bd5283fad495d","bdp_wmem","Tue Mar 14 2023 19:00:19 GMT-0500 (Central Daylight Time)","588507","Match,No Match","","","","","","","","","","","","","","","","","","","","",""
"","","","","63fe39cd075bd5283fad495d","bdp_wmem","Tue Mar 14 2023 19:00:19 GMT-0500 (Central Daylight Time)","588507","Match,No Match","pavlovia","0","1","0.0-0.0","","","","","","","","","","","","","","","","",""
"","","","","63fe39cd075bd5283fad495d","bdp_wmem","Tue Mar 14 2023 19:00:19 GMT-0500 (Central Daylight Time)","588507","Match,No Match","instructions","1","2508","0.0-1.0","[{""page_index"":0,""viewing_time"":2507}]","2507","","","","","","","","","","","","","","",""
"fullscreenexit","2","5655","fullscreenexit","63fe39cd075bd5283fad495d","bdp_wmem","Tue Mar 14 2023 19:00:19 GMT-0500 (Central Daylight Time)","588507","Match,No Match","","","","","","","","","","","","","","","","","","","","",""
"","","","","63fe39cd075bd5283fad495d","bdp_wmem","Tue Mar 14 2023 19:00:19 GMT-0500 (Central Daylight Time)","588507","Match,No Match","fullscreen","2","6449","0.0-2.0","","","true","","","","","","","","","","","","","",""
"","","","fullscreenfail","63fe39cd075bd5283fad495d","bdp_wmem","Tue Mar 14 2023 19:00:19 GMT-0500 (Central Daylight Time)","588507","Match,No Match","image-keyboard-response","3","7408","0.0-3.0-0.0","","957","","","32","","","","","","","","","","","",""
"","","","","63fe39cd075bd5283fad495d","bdp_wmem","Tue Mar 14 2023 19:00:19 GMT-0500 (Central Daylight Time)","588507","Match,No Match","instructions","4","86159","0.0-4.0","[{""page_index"":0,""viewing_time"":25693},{""page_index"":1,""viewing_time"":34437},{""page_index"":2,""viewing_time"":9049},{""page_index"":3,""viewing_time"":5236},{""page_index"":4,""viewing_time"":4079}]","78494","","","","","","","","","","","","","","",""
"","","","","63fe39cd075bd5283fad495d","bdp_wmem","Tue Mar 14 2023 19:00:19 GMT-0500 (Central Daylight Time)","588507","Match,No Match","html-keyboard-response","5","86663","0.0-5.0-1.0","","null","","<div class='trialBorder'><div class='vertical-center'><img src='img/fixation2_sml.jpg'</img></div></div>","null","FIX","","","","","","","","","","",""
"","","","","63fe39cd075bd5283fad495d","bdp_wmem","Tue Mar 14 2023 19:00:19 GMT-0500 (Central Daylight Time)","588507","Match,No Match","html-keyboard-response","6","88171","0.0-5.0-2.0","","null","","<div class='trialBorder'><div class='vertical-center'><img style='vertical-align:center; align:center' src='img/fixation2_sml.jpg'></div><div class='arrayDiv1'><div class='tc'><img class='introPic' src='trustrating_stim/white_mw012.bmp'><br><font color='green'><strong>Share</strong></font></div></div></div>","null","ARRAY","1","trustrating_stim/white_mw012.bmp","1","Match","e","1500","","","","",""
"","","","","63fe39cd075bd5283fad495d","bdp_wmem","Tue Mar 14 2023 19:00:19 GMT-0500 (Central Daylight Time)","588507","Match,No Match","html-keyboard-response","7","92187","0.0-5.0-3.0","","null","","<div class='trialBorder'><div class='vertical-center'><img src='img/fixation2_sml.jpg'</img></div></div>","null","DELAY","","","","","","","","","","",""
"","","","","63fe39cd075bd5283fad495d","bdp_wmem","Tue Mar 14 2023 19:00:19 GMT-0500 (Central Daylight Time)","588507","Match,No Match","html-keyboard-response","8","93305","0.0-5.0-4.0","","1118","","<div class='trialBorder'><div class='targDiv'><div class='tc'><img class='introPic' src='trustrating_stim/white_mw012.bmp'><br><font color='green'><strong>Share</strong></font></div></div><div class='respDiv'><div class='respDivL'>Match<br>(e)</div><div class='respDivR'>No Match<br>(i)</div></div></div>","e","TARGET","1","trustrating_stim/white_mw012.bmp","1","Match","e","1500","trustrating_stim/white_mw012.bmp","green","Share","PRACTICE","1"
"","","","","63fe39cd075bd5283fad495d","bdp_wmem","Tue Mar 14 2023 19:00:19 GMT-0500 (Central Daylight Time)","588507","Match,No Match","html-keyboard-response","9","93816","0.0-5.0-5.0","","null","","<div class='trialBorder'><div class='vertical-center'><img src='img/correct.jpg'></div><div class='respDiv'><div class='respDivL'><font style='color:orange'>Match<br>(e)</font></div><div class='respDivR'>No Match<br>(i)</div></div></div>","null","FEEDBACK","","","","","","","","","","",""
"","","","","63fe39cd075bd5283fad495d","bdp_wmem","Tue Mar 14 2023 19:00:19 GMT-0500 (Central Daylight Time)","588507","Match,No Match","html-keyboard-response","10","94321","0.0-5.0-1.1","","null","","<div class='trialBorder'><div class='vertical-center'><img src='img/fixation2_sml.jpg'</img></div></div>","null","FIX","","","","","","","","","","",""
"","","","","63fe39cd075bd5283fad495d","bdp_wmem","Tue Mar 14 2023 19:00:19 GMT-0500 (Central Daylight Time)","588507","Match,No Match","html-keyboard-response","11","97328","0.0-5.0-2.1","","null","","<div class='trialBorder'><div class='vertical-center'><img style='vertical-align:center; align:center' src='img/fixation2_sml.jpg'></div><div class='arrayDiv2'><div class='tl'><img class='introPic' src='trustrating_stim/white_mw092.bmp'><br><font color='red'><strong>Keep</strong></font></div><div class='tr'><img class='introPic' src='trustrating_stim/white_mw070.bmp'><br><font color='green'><strong>Share</strong></font></div></div></div>","null","ARRAY","2","trustrating_stim/white_mw092.bmp,trustrating_stim/white_mw070.bmp","0,1","Match","e","3000","","","","",""
"","","","","63fe39cd075bd5283fad495d","bdp_wmem","Tue Mar 14 2023 19:00:19 GMT-0500 (Central Daylight Time)","588507","Match,No Match","html-keyboard-response","12","101332","0.0-5.0-3.1","","null","","<div class='trialBorder'><div class='vertical-center'><img src='img/fixation2_sml.jpg'</img></div></div>","null","DELAY","","","","","","","","","","",""
"","","","","63fe39cd075bd5283fad495d","bdp_wmem","Tue Mar 14 2023 19:00:19 GMT-0500 (Central Daylight Time)","588507","Match,No Match","html-keyboard-response","13","103354","0.0-5.0-4.1","","2020","","<div class='trialBorder'><div class='targDiv'><div class='tc'><img class='introPic' src='trustrating_stim/white_mw070.bmp'><br><font color='green'><strong>Share</strong></font></div></div><div class='respDiv'><div class='respDivL'>Match<br>(e)</div><div class='respDivR'>No Match<br>(i)</div></div></div>","e","TARGET","2","trustrating_stim/white_mw092.bmp,trustrating_stim/white_mw070.bmp","0,1","Match","e","3000","trustrating_stim/white_mw070.bmp","green","Share","PRACTICE","1"
"","","","","63fe39cd075bd5283fad495d","bdp_wmem","Tue Mar 14 2023 19:00:19 GMT-0500 (Central Daylight Time)","588507","Match,No Match","html-keyboard-response","14","103856","0.0-5.0-5.1","","null","","<div class='trialBorder'><div class='vertical-center'><img src='img/correct.jpg'></div><div class='respDiv'><div class='respDivL'><font style='color:orange'>Match<br>(e)</font></div><div class='respDivR'>No Match<br>(i)</div></div></div>","null","FEEDBACK","","","","","","","","","","",""
"","","","","63fe39cd075bd5283fad495d","bdp_wmem","Tue Mar 14 2023 19:00:19 GMT-0500 (Central Daylight Time)","588507","Match,No Match","html-keyboard-response","15","104363","0.0-5.0-1.2","","null","","<div class='trialBorder'><div class='vertical-center'><img src='img/fixation2_sml.jpg'</img></div></div>","null","FIX","","","","","","","","","","",""
"","","","","63fe39cd075bd5283fad495d","bdp_wmem","Tue Mar 14 2023 19:00:19 GMT-0500 (Central Daylight Time)","588507","Match,No Match","html-keyboard-response","16","107377","0.0-5.0-2.2","","null","","<div class='trialBorder'><div class='vertical-center'><img style='vertical-align:center; align:center' src='img/fixation2_sml.jpg'></div><div class='arrayDiv2'><div class='tl'><img class='introPic' src='trustrating_stim/white_mw003.bmp'><br><font color='green'><strong>Share</strong></font></div><div class='tr'><img class='introPic' src='trustrating_stim/white_mw091.bmp'><br><font color='red'><strong>Keep</strong></font></div></div></div>","null","ARRAY","2","trustrating_stim/white_mw003.bmp,trustrating_stim/white_mw091.bmp","1,0","noMatchOutcome","i","3000","","","","",""
"","","","","63fe39cd075bd5283fad495d","bdp_wmem","Tue Mar 14 2023 19:00:19 GMT-0500 (Central Daylight Time)","588507","Match,No Match","html-keyboard-response","17","111384","0.0-5.0-3.2","","null","","<div class='trialBorder'><div class='vertical-center'><img src='img/fixation2_sml.jpg'</img></div></div>","null","DELAY","","","","","","","","","","",""
"","","","","63fe39cd075bd5283fad495d","bdp_wmem","Tue Mar 14 2023 19:00:19 GMT-0500 (Central Daylight Time)","588507","Match,No Match","html-keyboard-response","18","112372","0.0-5.0-4.2","","987","","<div class='trialBorder'><div class='targDiv'><div class='tc'><img class='introPic' src='trustrating_stim/white_mw091.bmp'><br><font color='green'><strong>Share</strong></font></div></div><div class='respDiv'><div class='respDivL'>Match<br>(e)</div><div class='respDivR'>No Match<br>(i)</div></div></div>","i","TARGET","2","trustrating_stim/white_mw003.bmp,trustrating_stim/white_mw091.bmp","1,0","noMatchOutcome","i","3000","trustrating_stim/white_mw091.bmp","green","Share","PRACTICE","1"
"","","","","63fe39cd075bd5283fad495d","bdp_wmem","Tue Mar 14 2023 19:00:19 GMT-0500 (Central Daylight Time)","588507","Match,No Match","html-keyboard-response","19","112887","0.0-5.0-5.2","","null","","<div class='trialBorder'><div class='vertical-center'><img src='img/correct.jpg'></div><div class='respDiv'><div class='respDivL'>Match<br>(e)</div><div class='respDivR'><font style='color:orange'>No Match<br>(i)</font></div></div></div>","null","FEEDBACK","","","","","","","","","","",""
"","","","","63fe39cd075bd5283fad495d","bdp_wmem","Tue Mar 14 2023 19:00:19 GMT-0500 (Central Daylight Time)","588507","Match,No Match","html-keyboard-response","20","113393","0.0-5.0-1.3","","null","","<div class='trialBorder'><div class='vertical-center'><img src='img/fixation2_sml.jpg'</img></div></div>","null","FIX","","","","","","","","","","",""
"","","","","63fe39cd075bd5283fad495d","bdp_wmem","Tue Mar 14 2023 19:00:19 GMT-0500 (Central Daylight Time)","588507","Match,No Match","html-keyboard-response","21","117906","0.0-5.0-2.3","","null","","<div class='trialBorder'><div class='vertical-center'><img style='vertical-align:center; align:center' src='img/fixation2_sml.jpg'></div><div class='arrayDiv3'><div class='tl'><img class='introPic' src='trustrating_stim/white_mw038.bmp'><br><font color='red'><strong>Keep</strong></font></div><div class='tc'><img class='introPic' src='trustrating_stim/white_mw092.bmp'><br><font color='red'><strong>Keep</strong></font></div><div class='tr'><img class='introPic' src='trustrating_stim/white_mw003.bmp'><br><font color='green'><strong>Share</strong></font></div></div></div>","null","ARRAY","3","trustrating_stim/white_mw038.bmp,trustrating_stim/white_mw092.bmp,trustrating_stim/white_mw003.bmp","0,0,1","Match","e","4500","","","","",""
"","","","","63fe39cd075bd5283fad495d","bdp_wmem","Tue Mar 14 2023 19:00:19 GMT-0500 (Central Daylight Time)","588507","Match,No Match","html-keyboard-response","22","121910","0.0-5.0-3.3","","null","","<div class='trialBorder'><div class='vertical-center'><img src='img/fixation2_sml.jpg'</img></div></div>","null","DELAY","","","","","","","","","","",""
"","","","","63fe39cd075bd5283fad495d","bdp_wmem","Tue Mar 14 2023 19:00:19 GMT-0500 (Central Daylight Time)","588507","Match,No Match","html-keyboard-response","23","123329","0.0-5.0-4.3","","1419","","<div class='trialBorder'><div class='targDiv'><div class='tc'><img class='introPic' src='trustrating_stim/white_mw003.bmp'><br><font color='green'><strong>Share</strong></font></div></div><div class='respDiv'><div class='respDivL'>Match<br>(e)</div><div class='respDivR'>No Match<br>(i)</div></div></div>","i","TARGET","3","trustrating_stim/white_mw038.bmp,trustrating_stim/white_mw092.bmp,trustrating_stim/white_mw003.bmp","0,0,1","Match","e","4500","trustrating_stim/white_mw003.bmp","green","Share","PRACTICE","0"
"","","","","63fe39cd075bd5283fad495d","bdp_wmem","Tue Mar 14 2023 19:00:19 GMT-0500 (Central Daylight Time)","588507","Match,No Match","html-keyboard-response","24","123834","0.0-5.0-5.3","","null","","<div class='trialBorder'><div class='vertical-center'><img src='img/error.jpg'></div><div class='respDiv'><div class='respDivL'>Match<br>(e)</div><div class='respDivR'><font style='color:orange'>No Match<br>(i)</font></div></div></div>","null","FEEDBACK","","","","","","","","","","",""
"","","","","63fe39cd075bd5283fad495d","bdp_wmem","Tue Mar 14 2023 19:00:19 GMT-0500 (Central Daylight Time)","588507","Match,No Match","html-keyboard-response","25","124342","0.0-5.0-1.4","","null","","<div class='trialBorder'><div class='vertical-center'><img src='img/fixation2_sml.jpg'</img></div></div>","null","FIX","","","","","","","","","","",""
"","","","","63fe39cd075bd5283fad495d","bdp_wmem","Tue Mar 14 2023 19:00:19 GMT-0500 (Central Daylight Time)","588507","Match,No Match","html-keyboard-response","26","128846","0.0-5.0-2.4","","null","","<div class='trialBorder'><div class='vertical-center'><img style='vertical-align:center; align:center' src='img/fixation2_sml.jpg'></div><div class='arrayDiv3'><div class='tl'><img class='introPic' src='trustrating_stim/white_mw003.bmp'><br><font color='red'><strong>Keep</strong></font></div><div class='tc'><img class='introPic' src='trustrating_stim/white_mw078.bmp'><br><font color='green'><strong>Share</strong></font></div><div class='tr'><img class='introPic' src='trustrating_stim/white_mw085.bmp'><br><font color='green'><strong>Share</strong></font></div></div></div>","null","ARRAY","3","trustrating_stim/white_mw003.bmp,trustrating_stim/white_mw078.bmp,trustrating_stim/white_mw085.bmp","0,1,1","noMatchOutcome","i","4500","","","","",""
"","","","","63fe39cd075bd5283fad495d","bdp_wmem","Tue Mar 14 2023 19:00:19 GMT-0500 (Central Daylight Time)","588507","Match,No Match","html-keyboard-response","27","132854","0.0-5.0-3.4","","null","","<div class='trialBorder'><div class='vertical-center'><img src='img/fixation2_sml.jpg'</img></div></div>","null","DELAY","","","","","","","","","","",""
"","","","","63fe39cd075bd5283fad495d","bdp_wmem","Tue Mar 14 2023 19:00:19 GMT-0500 (Central Daylight Time)","588507","Match,No Match","html-keyboard-response","28","134271","0.0-5.0-4.4","","1417","","<div class='trialBorder'><div class='targDiv'><div class='tc'><img class='introPic' src='trustrating_stim/white_mw003.bmp'><br><font color='green'><strong>Share</strong></font></div></div><div class='respDiv'><div class='respDivL'>Match<br>(e)</div><div class='respDivR'>No Match<br>(i)</div></div></div>","i","TARGET","3","trustrating_stim/white_mw003.bmp,trustrating_stim/white_mw078.bmp,trustrating_stim/white_mw085.bmp","0,1,1","noMatchOutcome","i","4500","trustrating_stim/white_mw003.bmp","green","Share","PRACTICE","1"
"","","","","63fe39cd075bd5283fad495d","bdp_wmem","Tue Mar 14 2023 19:00:19 GMT-0500 (Central Daylight Time)","588507","Match,No Match","html-keyboard-response","29","134778","0.0-5.0-5.4","","null","","<div class='trialBorder'><div class='vertical-center'><img src='img/correct.jpg'></div><div class='respDiv'><div class='respDivL'>Match<br>(e)</div><div class='respDivR'><font style='color:orange'>No Match<br>(i)</font></div></div></div>","null","FEEDBACK","","","","","","","","","","",""
"","","","","63fe39cd075bd5283fad495d","bdp_wmem","Tue Mar 14 2023 19:00:19 GMT-0500 (Central Daylight Time)","588507","Match,No Match","html-keyboard-response","30","135283","0.0-5.0-1.5","","null","","<div class='trialBorder'><div class='vertical-center'><img src='img/fixation2_sml.jpg'</img></div></div>","null","FIX","","","","","","","","","","",""
"","","","","63fe39cd075bd5283fad495d","bdp_wmem","Tue Mar 14 2023 19:00:19 GMT-0500 (Central Daylight Time)","588507","Match,No Match","html-keyboard-response","31","136785","0.0-5.0-2.5","","null","","<div class='trialBorder'><div class='vertical-center'><img style='vertical-align:center; align:center' src='img/fixation2_sml.jpg'></div><div class='arrayDiv1'><div class='tc'><img class='introPic' src='trustrating_stim/white_mw003.bmp'><br><font color='green'><strong>Share</strong></font></div></div></div>","null","ARRAY","1","trustrating_stim/white_mw003.bmp","1","noMatchFace","i","1500","","","","",""
"","","","","63fe39cd075bd5283fad495d","bdp_wmem","Tue Mar 14 2023 19:00:19 GMT-0500 (Central Daylight Time)","588507","Match,No Match","html-keyboard-response","32","140790","0.0-5.0-3.5","","null","","<div class='trialBorder'><div class='vertical-center'><img src='img/fixation2_sml.jpg'</img></div></div>","null","DELAY","","","","","","","","","","",""
"","","","","63fe39cd075bd5283fad495d","bdp_wmem","Tue Mar 14 2023 19:00:19 GMT-0500 (Central Daylight Time)","588507","Match,No Match","html-keyboard-response","33","142076","0.0-5.0-4.5","","1285","","<div class='trialBorder'><div class='targDiv'><div class='tc'><img class='introPic' src='trustrating_stim/white_mw042.bmp'><br><font color='green'><strong>Share</strong></font></div></div><div class='respDiv'><div class='respDivL'>Match<br>(e)</div><div class='respDivR'>No Match<br>(i)</div></div></div>","i","TARGET","1","trustrating_stim/white_mw003.bmp","1","noMatchFace","i","1500","trustrating_stim/white_mw042.bmp","green","Share","PRACTICE","1"
"","","","","63fe39cd075bd5283fad495d","bdp_wmem","Tue Mar 14 2023 19:00:19 GMT-0500 (Central Daylight Time)","588507","Match,No Match","html-keyboard-response","34","142578","0.0-5.0-5.5","","null","","<div class='trialBorder'><div class='vertical-center'><img src='img/correct.jpg'></div><div class='respDiv'><div class='respDivL'>Match<br>(e)</div><div class='respDivR'><font style='color:orange'>No Match<br>(i)</font></div></div></div>","null","FEEDBACK","","","","","","","","","","",""
"","","","","63fe39cd075bd5283fad495d","bdp_wmem","Tue Mar 14 2023 19:00:19 GMT-0500 (Central Daylight Time)","588507","Match,No Match","instructions","35","147425","0.0-6.0","[{""page_index"":0,""viewing_time"":4847}]","4847","","","","","","","","","","","","","","",""
"","","","","63fe39cd075bd5283fad495d","bdp_wmem","Tue Mar 14 2023 19:00:19 GMT-0500 (Central Daylight Time)","588507","Match,No Match","html-keyboard-response","36","147935","0.0-7.0-1.0","","null","","<div class='trialBorder'><div class='vertical-center'><img src='img/fixation2_sml.jpg'</img></div></div>","null","FIX","","","","","","","","","","",""
"","","","","63fe39cd075bd5283fad495d","bdp_wmem","Tue Mar 14 2023 19:00:19 GMT-0500 (Central Daylight Time)","588507","Match,No Match","html-keyboard-response","37","150944","0.0-7.0-2.0","","null","","<div class='trialBorder'><div class='vertical-center'><img style='vertical-align:center; align:center' src='img/fixation2_sml.jpg'></div><div class='arrayDiv2'><div class='tl'><img class='introPic' src='trustrating_stim/white_mw040.bmp'><br><font color='green'><strong>Share</strong></font></div><div class='tr'><img class='introPic' src='trustrating_stim/white_mw091.bmp'><br><font color='red'><strong>Keep</strong></font></div></div></div>","null","ARRAY","2","trustrating_stim/white_mw040.bmp,trustrating_stim/white_mw091.bmp","1,0","noMatchOutcome","i","3000","","","","",""
"","","","","63fe39cd075bd5283fad495d","bdp_wmem","Tue Mar 14 2023 19:00:19 GMT-0500 (Central Daylight Time)","588507","Match,No Match","html-keyboard-response","38","154957","0.0-7.0-3.0","","null","","<div class='trialBorder'><div class='vertical-center'><img src='img/fixation2_sml.jpg'</img></div></div>","null","DELAY","","","","","","","","","","",""
"","","","","63fe39cd075bd5283fad495d","bdp_wmem","Tue Mar 14 2023 19:00:19 GMT-0500 (Central Daylight Time)","588507","Match,No Match","html-keyboard-response","39","156017","0.0-7.0-4.0","","1059","","<div class='trialBorder'><div class='targDiv'><div class='tc'><img class='introPic' src='trustrating_stim/white_mw040.bmp'><br><font color='red'><strong>Keep</strong></font></div></div><div class='respDiv'><div class='respDivL'>Match<br>(e)</div><div class='respDivR'>No Match<br>(i)</div></div></div>","i","TARGET","2","trustrating_stim/white_mw040.bmp,trustrating_stim/white_mw091.bmp","1,0","noMatchOutcome","i","3000","trustrating_stim/white_mw040.bmp","red","Keep","REAL","1"
"","","","","63fe39cd075bd5283fad495d","bdp_wmem","Tue Mar 14 2023 19:00:19 GMT-0500 (Central Daylight Time)","588507","Match,No Match","html-keyboard-response","40","156523","0.0-7.0-5.0","","null","","<div class='trialBorder'><div class='vertical-center'><img src='img/correct.jpg'></div><div class='respDiv'><div class='respDivL'>Match<br>(e)</div><div class='respDivR'><font style='color:orange'>No Match<br>(i)</font></div></div></div>","null","FEEDBACK","","","","","","","","","","",""
"","","","","63fe39cd075bd5283fad495d","bdp_wmem","Tue Mar 14 2023 19:00:19 GMT-0500 (Central Daylight Time)","588507","Match,No Match","html-keyboard-response","41","157033","0.0-7.0-1.1","","null","","<div class='trialBorder'><div class='vertical-center'><img src='img/fixation2_sml.jpg'</img></div></div>","null","FIX","","","","","","","","","","",""
"","","","","63fe39cd075bd5283fad495d","bdp_wmem","Tue Mar 14 2023 19:00:19 GMT-0500 (Central Daylight Time)","588507","Match,No Match","html-keyboard-response","42","158548","0.0-7.0-2.1","","null","","<div class='trialBorder'><div class='vertical-center'><img style='vertical-align:center; align:center' src='img/fixation2_sml.jpg'></div><div class='arrayDiv1'><div class='tc'><img class='introPic' src='trustrating_stim/white_mw091.bmp'><br><font color='red'><strong>Keep</strong></font></div></div></div>","null","ARRAY","1","trustrating_stim/white_mw091.bmp","0","Match","e","1500","","","","",""
"","","","","63fe39cd075bd5283fad495d","bdp_wmem","Tue Mar 14 2023 19:00:19 GMT-0500 (Central Daylight Time)","588507","Match,No Match","html-keyboard-response","43","162557","0.0-7.0-3.1","","null","","<div class='trialBorder'><div class='vertical-center'><img src='img/fixation2_sml.jpg'</img></div></div>","null","DELAY","","","","","","","","","","",""
"","","","","63fe39cd075bd5283fad495d","bdp_wmem","Tue Mar 14 2023 19:00:19 GMT-0500 (Central Daylight Time)","588507","Match,No Match","html-keyboard-response","44","163224","0.0-7.0-4.1","","667","","<div class='trialBorder'><div class='targDiv'><div class='tc'><img class='introPic' src='trustrating_stim/white_mw091.bmp'><br><font color='red'><strong>Keep</strong></font></div></div><div class='respDiv'><div class='respDivL'>Match<br>(e)</div><div class='respDivR'>No Match<br>(i)</div></div></div>","e","TARGET","1","trustrating_stim/white_mw091.bmp","0","Match","e","1500","trustrating_stim/white_mw091.bmp","red","Keep","REAL","1"
"","","","","63fe39cd075bd5283fad495d","bdp_wmem","Tue Mar 14 2023 19:00:19 GMT-0500 (Central Daylight Time)","588507","Match,No Match","html-keyboard-response","45","163736","0.0-7.0-5.1","","null","","<div class='trialBorder'><div class='vertical-center'><img src='img/correct.jpg'></div><div class='respDiv'><div class='respDivL'><font style='color:orange'>Match<br>(e)</font></div><div class='respDivR'>No Match<br>(i)</div></div></div>","null","FEEDBACK","","","","","","","","","","",""
"","","","","63fe39cd075bd5283fad495d","bdp_wmem","Tue Mar 14 2023 19:00:19 GMT-0500 (Central Daylight Time)","588507","Match,No Match","html-keyboard-response","46","164250","0.0-7.0-1.2","","null","","<div class='trialBorder'><div class='vertical-center'><img src='img/fixation2_sml.jpg'</img></div></div>","null","FIX","","","","","","","","","","",""
"","","","","63fe39cd075bd5283fad495d","bdp_wmem","Tue Mar 14 2023 19:00:19 GMT-0500 (Central Daylight Time)","588507","Match,No Match","html-keyboard-response","47","165757","0.0-7.0-2.2","","null","","<div class='trialBorder'><div class='vertical-center'><img style='vertical-align:center; align:center' src='img/fixation2_sml.jpg'></div><div class='arrayDiv1'><div class='tc'><img class='introPic' src='trustrating_stim/white_mw091.bmp'><br><font color='green'><strong>Share</strong></font></div></div></div>","null","ARRAY","1","trustrating_stim/white_mw091.bmp","1","noMatchFace","i","1500","","","","",""
"","","","","63fe39cd075bd5283fad495d","bdp_wmem","Tue Mar 14 2023 19:00:19 GMT-0500 (Central Daylight Time)","588507","Match,No Match","html-keyboard-response","48","169766","0.0-7.0-3.2","","null","","<div class='trialBorder'><div class='vertical-center'><img src='img/fixation2_sml.jpg'</img></div></div>","null","DELAY","","","","","","","","","","",""
"","","","","63fe39cd075bd5283fad495d","bdp_wmem","Tue Mar 14 2023 19:00:19 GMT-0500 (Central Daylight Time)","588507","Match,No Match","html-keyboard-response","49","170476","0.0-7.0-4.2","","710","","<div class='trialBorder'><div class='targDiv'><div class='tc'><img class='introPic' src='trustrating_stim/white_mw042.bmp'><br><font color='green'><strong>Share</strong></font></div></div><div class='respDiv'><div class='respDivL'>Match<br>(e)</div><div class='respDivR'>No Match<br>(i)</div></div></div>","i","TARGET","1","trustrating_stim/white_mw091.bmp","1","noMatchFace","i","1500","trustrating_stim/white_mw042.bmp","green","Share","REAL","1"
"","","","","63fe39cd075bd5283fad495d","bdp_wmem","Tue Mar 14 2023 19:00:19 GMT-0500 (Central Daylight Time)","588507","Match,No Match","html-keyboard-response","50","170979","0.0-7.0-5.2","","null","","<div class='trialBorder'><div class='vertical-center'><img src='img/correct.jpg'></div><div class='respDiv'><div class='respDivL'>Match<br>(e)</div><div class='respDivR'><font style='color:orange'>No Match<br>(i)</font></div></div></div>","null","FEEDBACK","","","","","","","","","","",""
"","","","","63fe39cd075bd5283fad495d","bdp_wmem","Tue Mar 14 2023 19:00:19 GMT-0500 (Central Daylight Time)","588507","Match,No Match","html-keyboard-response","51","171487","0.0-7.0-1.3","","null","","<div class='trialBorder'><div class='vertical-center'><img src='img/fixation2_sml.jpg'</img></div></div>","null","FIX","","","","","","","","","","",""
"","","","","63fe39cd075bd5283fad495d","bdp_wmem","Tue Mar 14 2023 19:00:19 GMT-0500 (Central Daylight Time)","588507","Match,No Match","html-keyboard-response","52","172992","0.0-7.0-2.3","","null","","<div class='trialBorder'><div class='vertical-center'><img style='vertical-align:center; align:center' src='img/fixation2_sml.jpg'></div><div class='arrayDiv1'><div class='tc'><img class='introPic' src='trustrating_stim/white_mw038.bmp'><br><font color='green'><strong>Share</strong></font></div></div></div>","null","ARRAY","1","trustrating_stim/white_mw038.bmp","1","Match","e","1500","","","","",""
"","","","","63fe39cd075bd5283fad495d","bdp_wmem","Tue Mar 14 2023 19:00:19 GMT-0500 (Central Daylight Time)","588507","Match,No Match","html-keyboard-response","53","176995","0.0-7.0-3.3","","null","","<div class='trialBorder'><div class='vertical-center'><img src='img/fixation2_sml.jpg'</img></div></div>","null","DELAY","","","","","","","","","","",""
"","","","","63fe39cd075bd5283fad495d","bdp_wmem","Tue Mar 14 2023 19:00:19 GMT-0500 (Central Daylight Time)","588507","Match,No Match","html-keyboard-response","54","177547","0.0-7.0-4.3","","552","","<div class='trialBorder'><div class='targDiv'><div class='tc'><img class='introPic' src='trustrating_stim/white_mw038.bmp'><br><font color='green'><strong>Share</strong></font></div></div><div class='respDiv'><div class='respDivL'>Match<br>(e)</div><div class='respDivR'>No Match<br>(i)</div></div></div>","e","TARGET","1","trustrating_stim/white_mw038.bmp","1","Match","e","1500","trustrating_stim/white_mw038.bmp","green","Share","REAL","1"
"","","","","63fe39cd075bd5283fad495d","bdp_wmem","Tue Mar 14 2023 19:00:19 GMT-0500 (Central Daylight Time)","588507","Match,No Match","html-keyboard-response","55","178055","0.0-7.0-5.3","","null","","<div class='trialBorder'><div class='vertical-center'><img src='img/correct.jpg'></div><div class='respDiv'><div class='respDivL'><font style='color:orange'>Match<br>(e)</font></div><div class='respDivR'>No Match<br>(i)</div></div></div>","null","FEEDBACK","","","","","","","","","","",""
"","","","","63fe39cd075bd5283fad495d","bdp_wmem","Tue Mar 14 2023 19:00:19 GMT-0500 (Central Daylight Time)","588507","Match,No Match","html-keyboard-response","56","178556","0.0-7.0-1.4","","null","","<div class='trialBorder'><div class='vertical-center'><img src='img/fixation2_sml.jpg'</img></div></div>","null","FIX","","","","","","","","","","",""
"","","","","63fe39cd075bd5283fad495d","bdp_wmem","Tue Mar 14 2023 19:00:19 GMT-0500 (Central Daylight Time)","588507","Match,No Match","html-keyboard-response","57","181562","0.0-7.0-2.4","","null","","<div class='trialBorder'><div class='vertical-center'><img style='vertical-align:center; align:center' src='img/fixation2_sml.jpg'></div><div class='arrayDiv2'><div class='tl'><img class='introPic' src='trustrating_stim/white_mw003.bmp'><br><font color='green'><strong>Share</strong></font></div><div class='tr'><img class='introPic' src='trustrating_stim/white_mw012.bmp'><br><font color='red'><strong>Keep</strong></font></div></div></div>","null","ARRAY","2","trustrating_stim/white_mw003.bmp,trustrating_stim/white_mw012.bmp","1,0","Match","e","3000","","","","",""
"","","","","63fe39cd075bd5283fad495d","bdp_wmem","Tue Mar 14 2023 19:00:19 GMT-0500 (Central Daylight Time)","588507","Match,No Match","html-keyboard-response","58","185569","0.0-7.0-3.4","","null","","<div class='trialBorder'><div class='vertical-center'><img src='img/fixation2_sml.jpg'</img></div></div>","null","DELAY","","","","","","","","","","",""
"","","","","63fe39cd075bd5283fad495d","bdp_wmem","Tue Mar 14 2023 19:00:19 GMT-0500 (Central Daylight Time)","588507","Match,No Match","html-keyboard-response","59","186473","0.0-7.0-4.4","","903","","<div class='trialBorder'><div class='targDiv'><div class='tc'><img class='introPic' src='trustrating_stim/white_mw003.bmp'><br><font color='green'><strong>Share</strong></font></div></div><div class='respDiv'><div class='respDivL'>Match<br>(e)</div><div class='respDivR'>No Match<br>(i)</div></div></div>","i","TARGET","2","trustrating_stim/white_mw003.bmp,trustrating_stim/white_mw012.bmp","1,0","Match","e","3000","trustrating_stim/white_mw003.bmp","green","Share","REAL","0"
"","","","","63fe39cd075bd5283fad495d","bdp_wmem","Tue Mar 14 2023 19:00:19 GMT-0500 (Central Daylight Time)","588507","Match,No Match","html-keyboard-response","60","186975","0.0-7.0-5.4","","null","","<div class='trialBorder'><div class='vertical-center'><img src='img/error.jpg'></div><div class='respDiv'><div class='respDivL'>Match<br>(e)</div><div class='respDivR'><font style='color:orange'>No Match<br>(i)</font></div></div></div>","null","FEEDBACK","","","","","","","","","","",""
"","","","","63fe39cd075bd5283fad495d","bdp_wmem","Tue Mar 14 2023 19:00:19 GMT-0500 (Central Daylight Time)","588507","Match,No Match","html-keyboard-response","61","187488","0.0-7.0-1.5","","null","","<div class='trialBorder'><div class='vertical-center'><img src='img/fixation2_sml.jpg'</img></div></div>","null","FIX","","","","","","","","","","",""
"","","","","63fe39cd075bd5283fad495d","bdp_wmem","Tue Mar 14 2023 19:00:19 GMT-0500 (Central Daylight Time)","588507","Match,No Match","html-keyboard-response","62","192000","0.0-7.0-2.5","","null","","<div class='trialBorder'><div class='vertical-center'><img style='vertical-align:center; align:center' src='img/fixation2_sml.jpg'></div><div class='arrayDiv3'><div class='tl'><img class='introPic' src='trustrating_stim/white_mw040.bmp'><br><font color='red'><strong>Keep</strong></font></div><div class='tc'><img class='introPic' src='trustrating_stim/white_mw078.bmp'><br><font color='green'><strong>Share</strong></font></div><div class='tr'><img class='introPic' src='trustrating_stim/white_mw012.bmp'><br><font color='green'><strong>Share</strong></font></div></div></div>","null","ARRAY","3","trustrating_stim/white_mw040.bmp,trustrating_stim/white_mw078.bmp,trustrating_stim/white_mw012.bmp","0,1,1","Match","e","4500","","","","",""
"","","","","63fe39cd075bd5283fad495d","bdp_wmem","Tue Mar 14 2023 19:00:19 GMT-0500 (Central Daylight Time)","588507","Match,No Match","html-keyboard-response","63","196006","0.0-7.0-3.5","","null","","<div class='trialBorder'><div class='vertical-center'><img src='img/fixation2_sml.jpg'</img></div></div>","null","DELAY","","","","","","","","","","",""
"","","","","63fe39cd075bd5283fad495d","bdp_wmem","Tue Mar 14 2023 19:00:19 GMT-0500 (Central Daylight Time)","588507","Match,No Match","html-keyboard-response","64","197168","0.0-7.0-4.5","","1160","","<div class='trialBorder'><div class='targDiv'><div class='tc'><img class='introPic' src='trustrating_stim/white_mw040.bmp'><br><font color='red'><strong>Keep</strong></font></div></div><div class='respDiv'><div class='respDivL'>Match<br>(e)</div><div class='respDivR'>No Match<br>(i)</div></div></div>","e","TARGET","3","trustrating_stim/white_mw040.bmp,trustrating_stim/white_mw078.bmp,trustrating_stim/white_mw012.bmp","0,1,1","Match","e","4500","trustrating_stim/white_mw040.bmp","red","Keep","REAL","1"
"","","","","63fe39cd075bd5283fad495d","bdp_wmem","Tue Mar 14 2023 19:00:19 GMT-0500 (Central Daylight Time)","588507","Match,No Match","html-keyboard-response","65","197670","0.0-7.0-5.5","","null","","<div class='trialBorder'><div class='vertical-center'><img src='img/correct.jpg'></div><div class='respDiv'><div class='respDivL'><font style='color:orange'>Match<br>(e)</font></div><div class='respDivR'>No Match<br>(i)</div></div></div>","null","FEEDBACK","","","","","","","","","","",""
"","","","","63fe39cd075bd5283fad495d","bdp_wmem","Tue Mar 14 2023 19:00:19 GMT-0500 (Central Daylight Time)","588507","Match,No Match","html-keyboard-response","66","198177","0.0-7.0-1.6","","null","","<div class='trialBorder'><div class='vertical-center'><img src='img/fixation2_sml.jpg'</img></div></div>","null","FIX","","","","","","","","","","",""
"","","","","63fe39cd075bd5283fad495d","bdp_wmem","Tue Mar 14 2023 19:00:19 GMT-0500 (Central Daylight Time)","588507","Match,No Match","html-keyboard-response","67","201178","0.0-7.0-2.6","","null","","<div class='trialBorder'><div class='vertical-center'><img style='vertical-align:center; align:center' src='img/fixation2_sml.jpg'></div><div class='arrayDiv2'><div class='tl'><img class='introPic' src='trustrating_stim/white_mw042.bmp'><br><font color='red'><strong>Keep</strong></font></div><div class='tr'><img class='introPic' src='trustrating_stim/white_mw012.bmp'><br><font color='green'><strong>Share</strong></font></div></div></div>","null","ARRAY","2","trustrating_stim/white_mw042.bmp,trustrating_stim/white_mw012.bmp","0,1","Match","e","3000","","","","",""
"","","","","63fe39cd075bd5283fad495d","bdp_wmem","Tue Mar 14 2023 19:00:19 GMT-0500 (Central Daylight Time)","588507","Match,No Match","html-keyboard-response","68","205181","0.0-7.0-3.6","","null","","<div class='trialBorder'><div class='vertical-center'><img src='img/fixation2_sml.jpg'</img></div></div>","null","DELAY","","","","","","","","","","",""
"","","","","63fe39cd075bd5283fad495d","bdp_wmem","Tue Mar 14 2023 19:00:19 GMT-0500 (Central Daylight Time)","588507","Match,No Match","html-keyboard-response","69","205957","0.0-7.0-4.6","","776","","<div class='trialBorder'><div class='targDiv'><div class='tc'><img class='introPic' src='trustrating_stim/white_mw012.bmp'><br><font color='green'><strong>Share</strong></font></div></div><div class='respDiv'><div class='respDivL'>Match<br>(e)</div><div class='respDivR'>No Match<br>(i)</div></div></div>","i","TARGET","2","trustrating_stim/white_mw042.bmp,trustrating_stim/white_mw012.bmp","0,1","Match","e","3000","trustrating_stim/white_mw012.bmp","green","Share","REAL","0"
"","","","","63fe39cd075bd5283fad495d","bdp_wmem","Tue Mar 14 2023 19:00:19 GMT-0500 (Central Daylight Time)","588507","Match,No Match","html-keyboard-response","70","206459","0.0-7.0-5.6","","null","","<div class='trialBorder'><div class='vertical-center'><img src='img/error.jpg'></div><div class='respDiv'><div class='respDivL'>Match<br>(e)</div><div class='respDivR'><font style='color:orange'>No Match<br>(i)</font></div></div></div>","null","FEEDBACK","","","","","","","","","","",""
"","","","","63fe39cd075bd5283fad495d","bdp_wmem","Tue Mar 14 2023 19:00:19 GMT-0500 (Central Daylight Time)","588507","Match,No Match","html-keyboard-response","71","206959","0.0-7.0-1.7","","null","","<div class='trialBorder'><div class='vertical-center'><img src='img/fixation2_sml.jpg'</img></div></div>","null","FIX","","","","","","","","","","",""
"","","","","63fe39cd075bd5283fad495d","bdp_wmem","Tue Mar 14 2023 19:00:19 GMT-0500 (Central Daylight Time)","588507","Match,No Match","html-keyboard-response","72","209970","0.0-7.0-2.7","","null","","<div class='trialBorder'><div class='vertical-center'><img style='vertical-align:center; align:center' src='img/fixation2_sml.jpg'></div><div class='arrayDiv2'><div class='tl'><img class='introPic' src='trustrating_stim/white_mw092.bmp'><br><font color='red'><strong>Keep</strong></font></div><div class='tr'><img class='introPic' src='trustrating_stim/white_mw070.bmp'><br><font color='green'><strong>Share</strong></font></div></div></div>","null","ARRAY","2","trustrating_stim/white_mw092.bmp,trustrating_stim/white_mw070.bmp","0,1","noMatchFace","i","3000","","","","",""
"","","","","63fe39cd075bd5283fad495d","bdp_wmem","Tue Mar 14 2023 19:00:19 GMT-0500 (Central Daylight Time)","588507","Match,No Match","html-keyboard-response","73","213980","0.0-7.0-3.7","","null","","<div class='trialBorder'><div class='vertical-center'><img src='img/fixation2_sml.jpg'</img></div></div>","null","DELAY","","","","","","","","","","",""
"","","","","63fe39cd075bd5283fad495d","bdp_wmem","Tue Mar 14 2023 19:00:19 GMT-0500 (Central Daylight Time)","588507","Match,No Match","html-keyboard-response","74","215190","0.0-7.0-4.7","","1210","","<div class='trialBorder'><div class='targDiv'><div class='tc'><img class='introPic' src='trustrating_stim/white_mw038.bmp'><br><font color='green'><strong>Share</strong></font></div></div><div class='respDiv'><div class='respDivL'>Match<br>(e)</div><div class='respDivR'>No Match<br>(i)</div></div></div>","i","TARGET","2","trustrating_stim/white_mw092.bmp,trustrating_stim/white_mw070.bmp","0,1","noMatchFace","i","3000","trustrating_stim/white_mw038.bmp","green","Share","REAL","1"
"","","","","63fe39cd075bd5283fad495d","bdp_wmem","Tue Mar 14 2023 19:00:19 GMT-0500 (Central Daylight Time)","588507","Match,No Match","html-keyboard-response","75","215700","0.0-7.0-5.7","","null","","<div class='trialBorder'><div class='vertical-center'><img src='img/correct.jpg'></div><div class='respDiv'><div class='respDivL'>Match<br>(e)</div><div class='respDivR'><font style='color:orange'>No Match<br>(i)</font></div></div></div>","null","FEEDBACK","","","","","","","","","","",""
"","","","","63fe39cd075bd5283fad495d","bdp_wmem","Tue Mar 14 2023 19:00:19 GMT-0500 (Central Daylight Time)","588507","Match,No Match","html-keyboard-response","76","216209","0.0-7.0-1.8","","null","","<div class='trialBorder'><div class='vertical-center'><img src='img/fixation2_sml.jpg'</img></div></div>","null","FIX","","","","","","","","","","",""
"","","","","63fe39cd075bd5283fad495d","bdp_wmem","Tue Mar 14 2023 19:00:19 GMT-0500 (Central Daylight Time)","588507","Match,No Match","html-keyboard-response","77","219220","0.0-7.0-2.8","","null","","<div class='trialBorder'><div class='vertical-center'><img style='vertical-align:center; align:center' src='img/fixation2_sml.jpg'></div><div class='arrayDiv2'><div class='tl'><img class='introPic' src='trustrating_stim/white_mw092.bmp'><br><font color='green'><strong>Share</strong></font></div><div class='tr'><img class='introPic' src='trustrating_stim/white_mw003.bmp'><br><font color='red'><strong>Keep</strong></font></div></div></div>","null","ARRAY","2","trustrating_stim/white_mw092.bmp,trustrating_stim/white_mw003.bmp","1,0","Match","e","3000","","","","",""
"","","","","63fe39cd075bd5283fad495d","bdp_wmem","Tue Mar 14 2023 19:00:19 GMT-0500 (Central Daylight Time)","588507","Match,No Match","html-keyboard-response","78","223232","0.0-7.0-3.8","","null","","<div class='trialBorder'><div class='vertical-center'><img src='img/fixation2_sml.jpg'</img></div></div>","null","DELAY","","","","","","","","","","",""
"","","","","63fe39cd075bd5283fad495d","bdp_wmem","Tue Mar 14 2023 19:00:19 GMT-0500 (Central Daylight Time)","588507","Match,No Match","html-keyboard-response","79","224355","0.0-7.0-4.8","","1121","","<div class='trialBorder'><div class='targDiv'><div class='tc'><img class='introPic' src='trustrating_stim/white_mw003.bmp'><br><font color='red'><strong>Keep</strong></font></div></div><div class='respDiv'><div class='respDivL'>Match<br>(e)</div><div class='respDivR'>No Match<br>(i)</div></div></div>","e","TARGET","2","trustrating_stim/white_mw092.bmp,trustrating_stim/white_mw003.bmp","1,0","Match","e","3000","trustrating_stim/white_mw003.bmp","red","Keep","REAL","1"
"","","","","63fe39cd075bd5283fad495d","bdp_wmem","Tue Mar 14 2023 19:00:19 GMT-0500 (Central Daylight Time)","588507","Match,No Match","html-keyboard-response","80","224859","0.0-7.0-5.8","","null","","<div class='trialBorder'><div class='vertical-center'><img src='img/correct.jpg'></div><div class='respDiv'><div class='respDivL'><font style='color:orange'>Match<br>(e)</font></div><div class='respDivR'>No Match<br>(i)</div></div></div>","null","FEEDBACK","","","","","","","","","","",""
"","","","","63fe39cd075bd5283fad495d","bdp_wmem","Tue Mar 14 2023 19:00:19 GMT-0500 (Central Daylight Time)","588507","Match,No Match","html-keyboard-response","81","225362","0.0-7.0-1.9","","null","","<div class='trialBorder'><div class='vertical-center'><img src='img/fixation2_sml.jpg'</img></div></div>","null","FIX","","","","","","","","","","",""
"","","","","63fe39cd075bd5283fad495d","bdp_wmem","Tue Mar 14 2023 19:00:19 GMT-0500 (Central Daylight Time)","588507","Match,No Match","html-keyboard-response","82","228369","0.0-7.0-2.9","","null","","<div class='trialBorder'><div class='vertical-center'><img style='vertical-align:center; align:center' src='img/fixation2_sml.jpg'></div><div class='arrayDiv2'><div class='tl'><img class='introPic' src='trustrating_stim/white_mw091.bmp'><br><font color='green'><strong>Share</strong></font></div><div class='tr'><img class='introPic' src='trustrating_stim/white_mw092.bmp'><br><font color='red'><strong>Keep</strong></font></div></div></div>","null","ARRAY","2","trustrating_stim/white_mw091.bmp,trustrating_stim/white_mw092.bmp","1,0","noMatchFace","i","3000","","","","",""
"","","","","63fe39cd075bd5283fad495d","bdp_wmem","Tue Mar 14 2023 19:00:19 GMT-0500 (Central Daylight Time)","588507","Match,No Match","html-keyboard-response","83","232377","0.0-7.0-3.9","","null","","<div class='trialBorder'><div class='vertical-center'><img src='img/fixation2_sml.jpg'</img></div></div>","null","DELAY","","","","","","","","","","",""
"","","","","63fe39cd075bd5283fad495d","bdp_wmem","Tue Mar 14 2023 19:00:19 GMT-0500 (Central Daylight Time)","588507","Match,No Match","html-keyboard-response","84","233512","0.0-7.0-4.9","","1135","","<div class='trialBorder'><div class='targDiv'><div class='tc'><img class='introPic' src='trustrating_stim/white_mw003.bmp'><br><font color='green'><strong>Share</strong></font></div></div><div class='respDiv'><div class='respDivL'>Match<br>(e)</div><div class='respDivR'>No Match<br>(i)</div></div></div>","i","TARGET","2","trustrating_stim/white_mw091.bmp,trustrating_stim/white_mw092.bmp","1,0","noMatchFace","i","3000","trustrating_stim/white_mw003.bmp","green","Share","REAL","1"
"","","","","63fe39cd075bd5283fad495d","bdp_wmem","Tue Mar 14 2023 19:00:19 GMT-0500 (Central Daylight Time)","588507","Match,No Match","html-keyboard-response","85","234024","0.0-7.0-5.9","","null","","<div class='trialBorder'><div class='vertical-center'><img src='img/correct.jpg'></div><div class='respDiv'><div class='respDivL'>Match<br>(e)</div><div class='respDivR'><font style='color:orange'>No Match<br>(i)</font></div></div></div>","null","FEEDBACK","","","","","","","","","","",""
"","","","","63fe39cd075bd5283fad495d","bdp_wmem","Tue Mar 14 2023 19:00:19 GMT-0500 (Central Daylight Time)","588507","Match,No Match","html-keyboard-response","86","234536","0.0-7.0-1.10","","null","","<div class='trialBorder'><div class='vertical-center'><img src='img/fixation2_sml.jpg'</img></div></div>","null","FIX","","","","","","","","","","",""
"","","","","63fe39cd075bd5283fad495d","bdp_wmem","Tue Mar 14 2023 19:00:19 GMT-0500 (Central Daylight Time)","588507","Match,No Match","html-keyboard-response","87","237549","0.0-7.0-2.10","","null","","<div class='trialBorder'><div class='vertical-center'><img style='vertical-align:center; align:center' src='img/fixation2_sml.jpg'></div><div class='arrayDiv2'><div class='tl'><img class='introPic' src='trustrating_stim/white_mw078.bmp'><br><font color='red'><strong>Keep</strong></font></div><div class='tr'><img class='introPic' src='trustrating_stim/white_mw091.bmp'><br><font color='green'><strong>Share</strong></font></div></div></div>","null","ARRAY","2","trustrating_stim/white_mw078.bmp,trustrating_stim/white_mw091.bmp","0,1","noMatchOutcome","i","3000","","","","",""
"","","","","63fe39cd075bd5283fad495d","bdp_wmem","Tue Mar 14 2023 19:00:19 GMT-0500 (Central Daylight Time)","588507","Match,No Match","html-keyboard-response","88","241558","0.0-7.0-3.10","","null","","<div class='trialBorder'><div class='vertical-center'><img src='img/fixation2_sml.jpg'</img></div></div>","null","DELAY","","","","","","","","","","",""
"","","","","63fe39cd075bd5283fad495d","bdp_wmem","Tue Mar 14 2023 19:00:19 GMT-0500 (Central Daylight Time)","588507","Match,No Match","html-keyboard-response","89","243100","0.0-7.0-4.10","","1541","","<div class='trialBorder'><div class='targDiv'><div class='tc'><img class='introPic' src='trustrating_stim/white_mw078.bmp'><br><font color='green'><strong>Share</strong></font></div></div><div class='respDiv'><div class='respDivL'>Match<br>(e)</div><div class='respDivR'>No Match<br>(i)</div></div></div>","i","TARGET","2","trustrating_stim/white_mw078.bmp,trustrating_stim/white_mw091.bmp","0,1","noMatchOutcome","i","3000","trustrating_stim/white_mw078.bmp","green","Share","REAL","1"
"","","","","63fe39cd075bd5283fad495d","bdp_wmem","Tue Mar 14 2023 19:00:19 GMT-0500 (Central Daylight Time)","588507","Match,No Match","html-keyboard-response","90","243600","0.0-7.0-5.10","","null","","<div class='trialBorder'><div class='vertical-center'><img src='img/correct.jpg'></div><div class='respDiv'><div class='respDivL'>Match<br>(e)</div><div class='respDivR'><font style='color:orange'>No Match<br>(i)</font></div></div></div>","null","FEEDBACK","","","","","","","","","","",""
"","","","","63fe39cd075bd5283fad495d","bdp_wmem","Tue Mar 14 2023 19:00:19 GMT-0500 (Central Daylight Time)","588507","Match,No Match","html-keyboard-response","91","244111","0.0-7.0-1.11","","null","","<div class='trialBorder'><div class='vertical-center'><img src='img/fixation2_sml.jpg'</img></div></div>","null","FIX","","","","","","","","","","",""
"","","","","63fe39cd075bd5283fad495d","bdp_wmem","Tue Mar 14 2023 19:00:19 GMT-0500 (Central Daylight Time)","588507","Match,No Match","html-keyboard-response","92","245620","0.0-7.0-2.11","","null","","<div class='trialBorder'><div class='vertical-center'><img style='vertical-align:center; align:center' src='img/fixation2_sml.jpg'></div><div class='arrayDiv1'><div class='tc'><img class='introPic' src='trustrating_stim/white_mw040.bmp'><br><font color='green'><strong>Share</strong></font></div></div></div>","null","ARRAY","1","trustrating_stim/white_mw040.bmp","1","noMatchFace","i","1500","","","","",""
"","","","","63fe39cd075bd5283fad495d","bdp_wmem","Tue Mar 14 2023 19:00:19 GMT-0500 (Central Daylight Time)","588507","Match,No Match","html-keyboard-response","93","249621","0.0-7.0-3.11","","null","","<div class='trialBorder'><div class='vertical-center'><img src='img/fixation2_sml.jpg'</img></div></div>","null","DELAY","","","","","","","","","","",""
"","","","","63fe39cd075bd5283fad495d","bdp_wmem","Tue Mar 14 2023 19:00:19 GMT-0500 (Central Daylight Time)","588507","Match,No Match","html-keyboard-response","94","250294","0.0-7.0-4.11","","672","","<div class='trialBorder'><div class='targDiv'><div class='tc'><img class='introPic' src='trustrating_stim/white_mw038.bmp'><br><font color='green'><strong>Share</strong></font></div></div><div class='respDiv'><div class='respDivL'>Match<br>(e)</div><div class='respDivR'>No Match<br>(i)</div></div></div>","i","TARGET","1","trustrating_stim/white_mw040.bmp","1","noMatchFace","i","1500","trustrating_stim/white_mw038.bmp","green","Share","REAL","1"
"","","","","63fe39cd075bd5283fad495d","bdp_wmem","Tue Mar 14 2023 19:00:19 GMT-0500 (Central Daylight Time)","588507","Match,No Match","html-keyboard-response","95","250799","0.0-7.0-5.11","","null","","<div class='trialBorder'><div class='vertical-center'><img src='img/correct.jpg'></div><div class='respDiv'><div class='respDivL'>Match<br>(e)</div><div class='respDivR'><font style='color:orange'>No Match<br>(i)</font></div></div></div>","null","FEEDBACK","","","","","","","","","","",""
"","","","","63fe39cd075bd5283fad495d","bdp_wmem","Tue Mar 14 2023 19:00:19 GMT-0500 (Central Daylight Time)","588507","Match,No Match","html-keyboard-response","96","251300","0.0-7.0-1.12","","null","","<div class='trialBorder'><div class='vertical-center'><img src='img/fixation2_sml.jpg'</img></div></div>","null","FIX","","","","","","","","","","",""
"","","","","63fe39cd075bd5283fad495d","bdp_wmem","Tue Mar 14 2023 19:00:19 GMT-0500 (Central Daylight Time)","588507","Match,No Match","html-keyboard-response","97","255807","0.0-7.0-2.12","","null","","<div class='trialBorder'><div class='vertical-center'><img style='vertical-align:center; align:center' src='img/fixation2_sml.jpg'></div><div class='arrayDiv3'><div class='tl'><img class='introPic' src='trustrating_stim/white_mw092.bmp'><br><font color='green'><strong>Share</strong></font></div><div class='tc'><img class='introPic' src='trustrating_stim/white_mw042.bmp'><br><font color='green'><strong>Share</strong></font></div><div class='tr'><img class='introPic' src='trustrating_stim/white_mw040.bmp'><br><font color='red'><strong>Keep</strong></font></div></div></div>","null","ARRAY","3","trustrating_stim/white_mw092.bmp,trustrating_stim/white_mw042.bmp,trustrating_stim/white_mw040.bmp","1,1,0","noMatchOutcome","i","4500","","","","",""
"","","","","63fe39cd075bd5283fad495d","bdp_wmem","Tue Mar 14 2023 19:00:19 GMT-0500 (Central Daylight Time)","588507","Match,No Match","html-keyboard-response","98","259815","0.0-7.0-3.12","","null","","<div class='trialBorder'><div class='vertical-center'><img src='img/fixation2_sml.jpg'</img></div></div>","null","DELAY","","","","","","","","","","",""
"","","","","63fe39cd075bd5283fad495d","bdp_wmem","Tue Mar 14 2023 19:00:19 GMT-0500 (Central Daylight Time)","588507","Match,No Match","html-keyboard-response","99","261278","0.0-7.0-4.12","","1461","","<div class='trialBorder'><div class='targDiv'><div class='tc'><img class='introPic' src='trustrating_stim/white_mw042.bmp'><br><font color='red'><strong>Keep</strong></font></div></div><div class='respDiv'><div class='respDivL'>Match<br>(e)</div><div class='respDivR'>No Match<br>(i)</div></div></div>","i","TARGET","3","trustrating_stim/white_mw092.bmp,trustrating_stim/white_mw042.bmp,trustrating_stim/white_mw040.bmp","1,1,0","noMatchOutcome","i","4500","trustrating_stim/white_mw042.bmp","red","Keep","REAL","1"
"","","","","63fe39cd075bd5283fad495d","bdp_wmem","Tue Mar 14 2023 19:00:19 GMT-0500 (Central Daylight Time)","588507","Match,No Match","html-keyboard-response","100","261781","0.0-7.0-5.12","","null","","<div class='trialBorder'><div class='vertical-center'><img src='img/correct.jpg'></div><div class='respDiv'><div class='respDivL'>Match<br>(e)</div><div class='respDivR'><font style='color:orange'>No Match<br>(i)</font></div></div></div>","null","FEEDBACK","","","","","","","","","","",""
"","","","","63fe39cd075bd5283fad495d","bdp_wmem","Tue Mar 14 2023 19:00:19 GMT-0500 (Central Daylight Time)","588507","Match,No Match","html-keyboard-response","101","262294","0.0-7.0-1.13","","null","","<div class='trialBorder'><div class='vertical-center'><img src='img/fixation2_sml.jpg'</img></div></div>","null","FIX","","","","","","","","","","",""
"","","","","63fe39cd075bd5283fad495d","bdp_wmem","Tue Mar 14 2023 19:00:19 GMT-0500 (Central Daylight Time)","588507","Match,No Match","html-keyboard-response","102","266796","0.0-7.0-2.13","","null","","<div class='trialBorder'><div class='vertical-center'><img style='vertical-align:center; align:center' src='img/fixation2_sml.jpg'></div><div class='arrayDiv3'><div class='tl'><img class='introPic' src='trustrating_stim/white_mw003.bmp'><br><font color='red'><strong>Keep</strong></font></div><div class='tc'><img class='introPic' src='trustrating_stim/white_mw012.bmp'><br><font color='green'><strong>Share</strong></font></div><div class='tr'><img class='introPic' src='trustrating_stim/white_mw040.bmp'><br><font color='red'><strong>Keep</strong></font></div></div></div>","null","ARRAY","3","trustrating_stim/white_mw003.bmp,trustrating_stim/white_mw012.bmp,trustrating_stim/white_mw040.bmp","0,1,0","noMatchFace","i","4500","","","","",""
"","","","","63fe39cd075bd5283fad495d","bdp_wmem","Tue Mar 14 2023 19:00:19 GMT-0500 (Central Daylight Time)","588507","Match,No Match","html-keyboard-response","103","270803","0.0-7.0-3.13","","null","","<div class='trialBorder'><div class='vertical-center'><img src='img/fixation2_sml.jpg'</img></div></div>","null","DELAY","","","","","","","","","","",""
"","","","","63fe39cd075bd5283fad495d","bdp_wmem","Tue Mar 14 2023 19:00:19 GMT-0500 (Central Daylight Time)","588507","Match,No Match","html-keyboard-response","104","272391","0.0-7.0-4.13","","1588","","<div class='trialBorder'><div class='targDiv'><div class='tc'><img class='introPic' src='trustrating_stim/white_mw085.bmp'><br><font color='green'><strong>Share</strong></font></div></div><div class='respDiv'><div class='respDivL'>Match<br>(e)</div><div class='respDivR'>No Match<br>(i)</div></div></div>","i","TARGET","3","trustrating_stim/white_mw003.bmp,trustrating_stim/white_mw012.bmp,trustrating_stim/white_mw040.bmp","0,1,0","noMatchFace","i","4500","trustrating_stim/white_mw085.bmp","green","Share","REAL","1"
"","","","","63fe39cd075bd5283fad495d","bdp_wmem","Tue Mar 14 2023 19:00:19 GMT-0500 (Central Daylight Time)","588507","Match,No Match","html-keyboard-response","105","272893","0.0-7.0-5.13","","null","","<div class='trialBorder'><div class='vertical-center'><img src='img/correct.jpg'></div><div class='respDiv'><div class='respDivL'>Match<br>(e)</div><div class='respDivR'><font style='color:orange'>No Match<br>(i)</font></div></div></div>","null","FEEDBACK","","","","","","","","","","",""
"","","","","63fe39cd075bd5283fad495d","bdp_wmem","Tue Mar 14 2023 19:00:19 GMT-0500 (Central Daylight Time)","588507","Match,No Match","html-keyboard-response","106","273407","0.0-7.0-1.14","","null","","<div class='trialBorder'><div class='vertical-center'><img src='img/fixation2_sml.jpg'</img></div></div>","null","FIX","","","","","","","","","","",""
"","","","","63fe39cd075bd5283fad495d","bdp_wmem","Tue Mar 14 2023 19:00:19 GMT-0500 (Central Daylight Time)","588507","Match,No Match","html-keyboard-response","107","274912","0.0-7.0-2.14","","null","","<div class='trialBorder'><div class='vertical-center'><img style='vertical-align:center; align:center' src='img/fixation2_sml.jpg'></div><div class='arrayDiv1'><div class='tc'><img class='introPic' src='trustrating_stim/white_mw013.bmp'><br><font color='red'><strong>Keep</strong></font></div></div></div>","null","ARRAY","1","trustrating_stim/white_mw013.bmp","0","Match","e","1500","","","","",""
"","","","","63fe39cd075bd5283fad495d","bdp_wmem","Tue Mar 14 2023 19:00:19 GMT-0500 (Central Daylight Time)","588507","Match,No Match","html-keyboard-response","108","278915","0.0-7.0-3.14","","null","","<div class='trialBorder'><div class='vertical-center'><img src='img/fixation2_sml.jpg'</img></div></div>","null","DELAY","","","","","","","","","","",""
"","","","","63fe39cd075bd5283fad495d","bdp_wmem","Tue Mar 14 2023 19:00:19 GMT-0500 (Central Daylight Time)","588507","Match,No Match","html-keyboard-response","109","279837","0.0-7.0-4.14","","922","","<div class='trialBorder'><div class='targDiv'><div class='tc'><img class='introPic' src='trustrating_stim/white_mw013.bmp'><br><font color='red'><strong>Keep</strong></font></div></div><div class='respDiv'><div class='respDivL'>Match<br>(e)</div><div class='respDivR'>No Match<br>(i)</div></div></div>","e","TARGET","1","trustrating_stim/white_mw013.bmp","0","Match","e","1500","trustrating_stim/white_mw013.bmp","red","Keep","REAL","1"
"","","","","63fe39cd075bd5283fad495d","bdp_wmem","Tue Mar 14 2023 19:00:19 GMT-0500 (Central Daylight Time)","588507","Match,No Match","html-keyboard-response","110","280340","0.0-7.0-5.14","","null","","<div class='trialBorder'><div class='vertical-center'><img src='img/correct.jpg'></div><div class='respDiv'><div class='respDivL'><font style='color:orange'>Match<br>(e)</font></div><div class='respDivR'>No Match<br>(i)</div></div></div>","null","FEEDBACK","","","","","","","","","","",""
"","","","","63fe39cd075bd5283fad495d","bdp_wmem","Tue Mar 14 2023 19:00:19 GMT-0500 (Central Daylight Time)","588507","Match,No Match","html-keyboard-response","111","280853","0.0-7.0-1.15","","null","","<div class='trialBorder'><div class='vertical-center'><img src='img/fixation2_sml.jpg'</img></div></div>","null","FIX","","","","","","","","","","",""
"","","","","63fe39cd075bd5283fad495d","bdp_wmem","Tue Mar 14 2023 19:00:19 GMT-0500 (Central Daylight Time)","588507","Match,No Match","html-keyboard-response","112","285364","0.0-7.0-2.15","","null","","<div class='trialBorder'><div class='vertical-center'><img style='vertical-align:center; align:center' src='img/fixation2_sml.jpg'></div><div class='arrayDiv3'><div class='tl'><img class='introPic' src='trustrating_stim/white_mw038.bmp'><br><font color='green'><strong>Share</strong></font></div><div class='tc'><img class='introPic' src='trustrating_stim/white_mw092.bmp'><br><font color='red'><strong>Keep</strong></font></div><div class='tr'><img class='introPic' src='trustrating_stim/white_mw085.bmp'><br><font color='red'><strong>Keep</strong></font></div></div></div>","null","ARRAY","3","trustrating_stim/white_mw038.bmp,trustrating_stim/white_mw092.bmp,trustrating_stim/white_mw085.bmp","1,0,0","Match","e","4500","","","","",""
"","","","","63fe39cd075bd5283fad495d","bdp_wmem","Tue Mar 14 2023 19:00:19 GMT-0500 (Central Daylight Time)","588507","Match,No Match","html-keyboard-response","113","289377","0.0-7.0-3.15","","null","","<div class='trialBorder'><div class='vertical-center'><img src='img/fixation2_sml.jpg'</img></div></div>","null","DELAY","","","","","","","","","","",""
"","","","","63fe39cd075bd5283fad495d","bdp_wmem","Tue Mar 14 2023 19:00:19 GMT-0500 (Central Daylight Time)","588507","Match,No Match","html-keyboard-response","114","291085","0.0-7.0-4.15","","1708","","<div class='trialBorder'><div class='targDiv'><div class='tc'><img class='introPic' src='trustrating_stim/white_mw092.bmp'><br><font color='red'><strong>Keep</strong></font></div></div><div class='respDiv'><div class='respDivL'>Match<br>(e)</div><div class='respDivR'>No Match<br>(i)</div></div></div>","e","TARGET","3","trustrating_stim/white_mw038.bmp,trustrating_stim/white_mw092.bmp,trustrating_stim/white_mw085.bmp","1,0,0","Match","e","4500","trustrating_stim/white_mw092.bmp","red","Keep","REAL","1"
"","","","","63fe39cd075bd5283fad495d","bdp_wmem","Tue Mar 14 2023 19:00:19 GMT-0500 (Central Daylight Time)","588507","Match,No Match","html-keyboard-response","115","291586","0.0-7.0-5.15","","null","","<div class='trialBorder'><div class='vertical-center'><img src='img/correct.jpg'></div><div class='respDiv'><div class='respDivL'><font style='color:orange'>Match<br>(e)</font></div><div class='respDivR'>No Match<br>(i)</div></div></div>","null","FEEDBACK","","","","","","","","","","",""
"","","","","63fe39cd075bd5283fad495d","bdp_wmem","Tue Mar 14 2023 19:00:19 GMT-0500 (Central Daylight Time)","588507","Match,No Match","html-keyboard-response","116","292101","0.0-7.0-1.16","","null","","<div class='trialBorder'><div class='vertical-center'><img src='img/fixation2_sml.jpg'</img></div></div>","null","FIX","","","","","","","","","","",""
"","","","","63fe39cd075bd5283fad495d","bdp_wmem","Tue Mar 14 2023 19:00:19 GMT-0500 (Central Daylight Time)","588507","Match,No Match","html-keyboard-response","117","295110","0.0-7.0-2.16","","null","","<div class='trialBorder'><div class='vertical-center'><img style='vertical-align:center; align:center' src='img/fixation2_sml.jpg'></div><div class='arrayDiv2'><div class='tl'><img class='introPic' src='trustrating_stim/white_mw038.bmp'><br><font color='red'><strong>Keep</strong></font></div><div class='tr'><img class='introPic' src='trustrating_stim/white_mw091.bmp'><br><font color='green'><strong>Share</strong></font></div></div></div>","null","ARRAY","2","trustrating_stim/white_mw038.bmp,trustrating_stim/white_mw091.bmp","0,1","noMatchFace","i","3000","","","","",""
"","","","","63fe39cd075bd5283fad495d","bdp_wmem","Tue Mar 14 2023 19:00:19 GMT-0500 (Central Daylight Time)","588507","Match,No Match","html-keyboard-response","118","299119","0.0-7.0-3.16","","null","","<div class='trialBorder'><div class='vertical-center'><img src='img/fixation2_sml.jpg'</img></div></div>","null","DELAY","","","","","","","","","","",""
"","","","","63fe39cd075bd5283fad495d","bdp_wmem","Tue Mar 14 2023 19:00:19 GMT-0500 (Central Daylight Time)","588507","Match,No Match","html-keyboard-response","119","300248","0.0-7.0-4.16","","1129","","<div class='trialBorder'><div class='targDiv'><div class='tc'><img class='introPic' src='trustrating_stim/white_mw040.bmp'><br><font color='green'><strong>Share</strong></font></div></div><div class='respDiv'><div class='respDivL'>Match<br>(e)</div><div class='respDivR'>No Match<br>(i)</div></div></div>","i","TARGET","2","trustrating_stim/white_mw038.bmp,trustrating_stim/white_mw091.bmp","0,1","noMatchFace","i","3000","trustrating_stim/white_mw040.bmp","green","Share","REAL","1"
"","","","","63fe39cd075bd5283fad495d","bdp_wmem","Tue Mar 14 2023 19:00:19 GMT-0500 (Central Daylight Time)","588507","Match,No Match","html-keyboard-response","120","300762","0.0-7.0-5.16","","null","","<div class='trialBorder'><div class='vertical-center'><img src='img/correct.jpg'></div><div class='respDiv'><div class='respDivL'>Match<br>(e)</div><div class='respDivR'><font style='color:orange'>No Match<br>(i)</font></div></div></div>","null","FEEDBACK","","","","","","","","","","",""
"","","","","63fe39cd075bd5283fad495d","bdp_wmem","Tue Mar 14 2023 19:00:19 GMT-0500 (Central Daylight Time)","588507","Match,No Match","html-keyboard-response","121","301266","0.0-7.0-1.17","","null","","<div class='trialBorder'><div class='vertical-center'><img src='img/fixation2_sml.jpg'</img></div></div>","null","FIX","","","","","","","","","","",""
"","","","","63fe39cd075bd5283fad495d","bdp_wmem","Tue Mar 14 2023 19:00:19 GMT-0500 (Central Daylight Time)","588507","Match,No Match","html-keyboard-response","122","302778","0.0-7.0-2.17","","null","","<div class='trialBorder'><div class='vertical-center'><img style='vertical-align:center; align:center' src='img/fixation2_sml.jpg'></div><div class='arrayDiv1'><div class='tc'><img class='introPic' src='trustrating_stim/white_mw003.bmp'><br><font color='red'><strong>Keep</strong></font></div></div></div>","null","ARRAY","1","trustrating_stim/white_mw003.bmp","0","Match","e","1500","","","","",""
"","","","","63fe39cd075bd5283fad495d","bdp_wmem","Tue Mar 14 2023 19:00:19 GMT-0500 (Central Daylight Time)","588507","Match,No Match","html-keyboard-response","123","306782","0.0-7.0-3.17","","null","","<div class='trialBorder'><div class='vertical-center'><img src='img/fixation2_sml.jpg'</img></div></div>","null","DELAY","","","","","","","","","","",""
"","","","","63fe39cd075bd5283fad495d","bdp_wmem","Tue Mar 14 2023 19:00:19 GMT-0500 (Central Daylight Time)","588507","Match,No Match","html-keyboard-response","124","307465","0.0-7.0-4.17","","683","","<div class='trialBorder'><div class='targDiv'><div class='tc'><img class='introPic' src='trustrating_stim/white_mw003.bmp'><br><font color='red'><strong>Keep</strong></font></div></div><div class='respDiv'><div class='respDivL'>Match<br>(e)</div><div class='respDivR'>No Match<br>(i)</div></div></div>","e","TARGET","1","trustrating_stim/white_mw003.bmp","0","Match","e","1500","trustrating_stim/white_mw003.bmp","red","Keep","REAL","1"
"","","","","63fe39cd075bd5283fad495d","bdp_wmem","Tue Mar 14 2023 19:00:19 GMT-0500 (Central Daylight Time)","588507","Match,No Match","html-keyboard-response","125","307973","0.0-7.0-5.17","","null","","<div class='trialBorder'><div class='vertical-center'><img src='img/correct.jpg'></div><div class='respDiv'><div class='respDivL'><font style='color:orange'>Match<br>(e)</font></div><div class='respDivR'>No Match<br>(i)</div></div></div>","null","FEEDBACK","","","","","","","","","","",""
"","","","","63fe39cd075bd5283fad495d","bdp_wmem","Tue Mar 14 2023 19:00:19 GMT-0500 (Central Daylight Time)","588507","Match,No Match","html-keyboard-response","126","308476","0.0-7.0-1.18","","null","","<div class='trialBorder'><div class='vertical-center'><img src='img/fixation2_sml.jpg'</img></div></div>","null","FIX","","","","","","","","","","",""
"","","","","63fe39cd075bd5283fad495d","bdp_wmem","Tue Mar 14 2023 19:00:19 GMT-0500 (Central Daylight Time)","588507","Match,No Match","html-keyboard-response","127","312984","0.0-7.0-2.18","","null","","<div class='trialBorder'><div class='vertical-center'><img style='vertical-align:center; align:center' src='img/fixation2_sml.jpg'></div><div class='arrayDiv3'><div class='tl'><img class='introPic' src='trustrating_stim/white_mw078.bmp'><br><font color='red'><strong>Keep</strong></font></div><div class='tc'><img class='introPic' src='trustrating_stim/white_mw085.bmp'><br><font color='red'><strong>Keep</strong></font></div><div class='tr'><img class='introPic' src='trustrating_stim/white_mw091.bmp'><br><font color='green'><strong>Share</strong></font></div></div></div>","null","ARRAY","3","trustrating_stim/white_mw078.bmp,trustrating_stim/white_mw085.bmp,trustrating_stim/white_mw091.bmp","0,0,1","noMatchOutcome","i","4500","","","","",""
"","","","","63fe39cd075bd5283fad495d","bdp_wmem","Tue Mar 14 2023 19:00:19 GMT-0500 (Central Daylight Time)","588507","Match,No Match","html-keyboard-response","128","316995","0.0-7.0-3.18","","null","","<div class='trialBorder'><div class='vertical-center'><img src='img/fixation2_sml.jpg'</img></div></div>","null","DELAY","","","","","","","","","","",""
"","","","","63fe39cd075bd5283fad495d","bdp_wmem","Tue Mar 14 2023 19:00:19 GMT-0500 (Central Daylight Time)","588507","Match,No Match","html-keyboard-response","129","317976","0.0-7.0-4.18","","981","","<div class='trialBorder'><div class='targDiv'><div class='tc'><img class='introPic' src='trustrating_stim/white_mw091.bmp'><br><font color='red'><strong>Keep</strong></font></div></div><div class='respDiv'><div class='respDivL'>Match<br>(e)</div><div class='respDivR'>No Match<br>(i)</div></div></div>","i","TARGET","3","trustrating_stim/white_mw078.bmp,trustrating_stim/white_mw085.bmp,trustrating_stim/white_mw091.bmp","0,0,1","noMatchOutcome","i","4500","trustrating_stim/white_mw091.bmp","red","Keep","REAL","1"
"","","","","63fe39cd075bd5283fad495d","bdp_wmem","Tue Mar 14 2023 19:00:19 GMT-0500 (Central Daylight Time)","588507","Match,No Match","html-keyboard-response","130","318487","0.0-7.0-5.18","","null","","<div class='trialBorder'><div class='vertical-center'><img src='img/correct.jpg'></div><div class='respDiv'><div class='respDivL'>Match<br>(e)</div><div class='respDivR'><font style='color:orange'>No Match<br>(i)</font></div></div></div>","null","FEEDBACK","","","","","","","","","","",""
"","","","","63fe39cd075bd5283fad495d","bdp_wmem","Tue Mar 14 2023 19:00:19 GMT-0500 (Central Daylight Time)","588507","Match,No Match","html-keyboard-response","131","318993","0.0-7.0-1.19","","null","","<div class='trialBorder'><div class='vertical-center'><img src='img/fixation2_sml.jpg'</img></div></div>","null","FIX","","","","","","","","","","",""
"","","","","63fe39cd075bd5283fad495d","bdp_wmem","Tue Mar 14 2023 19:00:19 GMT-0500 (Central Daylight Time)","588507","Match,No Match","html-keyboard-response","132","323507","0.0-7.0-2.19","","null","","<div class='trialBorder'><div class='vertical-center'><img style='vertical-align:center; align:center' src='img/fixation2_sml.jpg'></div><div class='arrayDiv3'><div class='tl'><img class='introPic' src='trustrating_stim/white_mw092.bmp'><br><font color='red'><strong>Keep</strong></font></div><div class='tc'><img class='introPic' src='trustrating_stim/white_mw091.bmp'><br><font color='green'><strong>Share</strong></font></div><div class='tr'><img class='introPic' src='trustrating_stim/white_mw012.bmp'><br><font color='red'><strong>Keep</strong></font></div></div></div>","null","ARRAY","3","trustrating_stim/white_mw092.bmp,trustrating_stim/white_mw091.bmp,trustrating_stim/white_mw012.bmp","0,1,0","noMatchOutcome","i","4500","","","","",""
"","","","","63fe39cd075bd5283fad495d","bdp_wmem","Tue Mar 14 2023 19:00:19 GMT-0500 (Central Daylight Time)","588507","Match,No Match","html-keyboard-response","133","327520","0.0-7.0-3.19","","null","","<div class='trialBorder'><div class='vertical-center'><img src='img/fixation2_sml.jpg'</img></div></div>","null","DELAY","","","","","","","","","","",""
"","","","","63fe39cd075bd5283fad495d","bdp_wmem","Tue Mar 14 2023 19:00:19 GMT-0500 (Central Daylight Time)","588507","Match,No Match","html-keyboard-response","134","329064","0.0-7.0-4.19","","1543","","<div class='trialBorder'><div class='targDiv'><div class='tc'><img class='introPic' src='trustrating_stim/white_mw092.bmp'><br><font color='green'><strong>Share</strong></font></div></div><div class='respDiv'><div class='respDivL'>Match<br>(e)</div><div class='respDivR'>No Match<br>(i)</div></div></div>","e","TARGET","3","trustrating_stim/white_mw092.bmp,trustrating_stim/white_mw091.bmp,trustrating_stim/white_mw012.bmp","0,1,0","noMatchOutcome","i","4500","trustrating_stim/white_mw092.bmp","green","Share","REAL","0"
"","","","","63fe39cd075bd5283fad495d","bdp_wmem","Tue Mar 14 2023 19:00:19 GMT-0500 (Central Daylight Time)","588507","Match,No Match","html-keyboard-response","135","329576","0.0-7.0-5.19","","null","","<div class='trialBorder'><div class='vertical-center'><img src='img/error.jpg'></div><div class='respDiv'><div class='respDivL'><font style='color:orange'>Match<br>(e)</font></div><div class='respDivR'>No Match<br>(i)</div></div></div>","null","FEEDBACK","","","","","","","","","","",""
"","","","","63fe39cd075bd5283fad495d","bdp_wmem","Tue Mar 14 2023 19:00:19 GMT-0500 (Central Daylight Time)","588507","Match,No Match","html-keyboard-response","136","330084","0.0-7.0-1.20","","null","","<div class='trialBorder'><div class='vertical-center'><img src='img/fixation2_sml.jpg'</img></div></div>","null","FIX","","","","","","","","","","",""
"","","","","63fe39cd075bd5283fad495d","bdp_wmem","Tue Mar 14 2023 19:00:19 GMT-0500 (Central Daylight Time)","588507","Match,No Match","html-keyboard-response","137","333086","0.0-7.0-2.20","","null","","<div class='trialBorder'><div class='vertical-center'><img style='vertical-align:center; align:center' src='img/fixation2_sml.jpg'></div><div class='arrayDiv2'><div class='tl'><img class='introPic' src='trustrating_stim/white_mw013.bmp'><br><font color='red'><strong>Keep</strong></font></div><div class='tr'><img class='introPic' src='trustrating_stim/white_mw003.bmp'><br><font color='green'><strong>Share</strong></font></div></div></div>","null","ARRAY","2","trustrating_stim/white_mw013.bmp,trustrating_stim/white_mw003.bmp","0,1","Match","e","3000","","","","",""
"","","","","63fe39cd075bd5283fad495d","bdp_wmem","Tue Mar 14 2023 19:00:19 GMT-0500 (Central Daylight Time)","588507","Match,No Match","html-keyboard-response","138","337089","0.0-7.0-3.20","","null","","<div class='trialBorder'><div class='vertical-center'><img src='img/fixation2_sml.jpg'</img></div></div>","null","DELAY","","","","","","","","","","",""
"","","","","63fe39cd075bd5283fad495d","bdp_wmem","Tue Mar 14 2023 19:00:19 GMT-0500 (Central Daylight Time)","588507","Match,No Match","html-keyboard-response","139","338231","0.0-7.0-4.20","","1141","","<div class='trialBorder'><div class='targDiv'><div class='tc'><img class='introPic' src='trustrating_stim/white_mw013.bmp'><br><font color='red'><strong>Keep</strong></font></div></div><div class='respDiv'><div class='respDivL'>Match<br>(e)</div><div class='respDivR'>No Match<br>(i)</div></div></div>","i","TARGET","2","trustrating_stim/white_mw013.bmp,trustrating_stim/white_mw003.bmp","0,1","Match","e","3000","trustrating_stim/white_mw013.bmp","red","Keep","REAL","0"
"","","","","63fe39cd075bd5283fad495d","bdp_wmem","Tue Mar 14 2023 19:00:19 GMT-0500 (Central Daylight Time)","588507","Match,No Match","html-keyboard-response","140","338739","0.0-7.0-5.20","","null","","<div class='trialBorder'><div class='vertical-center'><img src='img/error.jpg'></div><div class='respDiv'><div class='respDivL'>Match<br>(e)</div><div class='respDivR'><font style='color:orange'>No Match<br>(i)</font></div></div></div>","null","FEEDBACK","","","","","","","","","","",""
"","","","","63fe39cd075bd5283fad495d","bdp_wmem","Tue Mar 14 2023 19:00:19 GMT-0500 (Central Daylight Time)","588507","Match,No Match","html-keyboard-response","141","339242","0.0-7.0-1.21","","null","","<div class='trialBorder'><div class='vertical-center'><img src='img/fixation2_sml.jpg'</img></div></div>","null","FIX","","","","","","","","","","",""
"","","","","63fe39cd075bd5283fad495d","bdp_wmem","Tue Mar 14 2023 19:00:19 GMT-0500 (Central Daylight Time)","588507","Match,No Match","html-keyboard-response","142","340753","0.0-7.0-2.21","","null","","<div class='trialBorder'><div class='vertical-center'><img style='vertical-align:center; align:center' src='img/fixation2_sml.jpg'></div><div class='arrayDiv1'><div class='tc'><img class='introPic' src='trustrating_stim/white_mw013.bmp'><br><font color='green'><strong>Share</strong></font></div></div></div>","null","ARRAY","1","trustrating_stim/white_mw013.bmp","1","noMatchOutcome","i","1500","","","","",""
"","","","","63fe39cd075bd5283fad495d","bdp_wmem","Tue Mar 14 2023 19:00:19 GMT-0500 (Central Daylight Time)","588507","Match,No Match","html-keyboard-response","143","344764","0.0-7.0-3.21","","null","","<div class='trialBorder'><div class='vertical-center'><img src='img/fixation2_sml.jpg'</img></div></div>","null","DELAY","","","","","","","","","","",""
"","","","","63fe39cd075bd5283fad495d","bdp_wmem","Tue Mar 14 2023 19:00:19 GMT-0500 (Central Daylight Time)","588507","Match,No Match","html-keyboard-response","144","346477","0.0-7.0-4.21","","1713","","<div class='trialBorder'><div class='targDiv'><div class='tc'><img class='introPic' src='trustrating_stim/white_mw013.bmp'><br><font color='red'><strong>Keep</strong></font></div></div><div class='respDiv'><div class='respDivL'>Match<br>(e)</div><div class='respDivR'>No Match<br>(i)</div></div></div>","i","TARGET","1","trustrating_stim/white_mw013.bmp","1","noMatchOutcome","i","1500","trustrating_stim/white_mw013.bmp","red","Keep","REAL","1"
"","","","","63fe39cd075bd5283fad495d","bdp_wmem","Tue Mar 14 2023 19:00:19 GMT-0500 (Central Daylight Time)","588507","Match,No Match","html-keyboard-response","145","346993","0.0-7.0-5.21","","null","","<div class='trialBorder'><div class='vertical-center'><img src='img/correct.jpg'></div><div class='respDiv'><div class='respDivL'>Match<br>(e)</div><div class='respDivR'><font style='color:orange'>No Match<br>(i)</font></div></div></div>","null","FEEDBACK","","","","","","","","","","",""
"","","","","63fe39cd075bd5283fad495d","bdp_wmem","Tue Mar 14 2023 19:00:19 GMT-0500 (Central Daylight Time)","588507","Match,No Match","html-keyboard-response","146","347499","0.0-7.0-1.22","","null","","<div class='trialBorder'><div class='vertical-center'><img src='img/fixation2_sml.jpg'</img></div></div>","null","FIX","","","","","","","","","","",""
"","","","","63fe39cd075bd5283fad495d","bdp_wmem","Tue Mar 14 2023 19:00:19 GMT-0500 (Central Daylight Time)","588507","Match,No Match","html-keyboard-response","147","349011","0.0-7.0-2.22","","null","","<div class='trialBorder'><div class='vertical-center'><img style='vertical-align:center; align:center' src='img/fixation2_sml.jpg'></div><div class='arrayDiv1'><div class='tc'><img class='introPic' src='trustrating_stim/white_mw085.bmp'><br><font color='red'><strong>Keep</strong></font></div></div></div>","null","ARRAY","1","trustrating_stim/white_mw085.bmp","0","noMatchFace","i","1500","","","","",""
"","","","","63fe39cd075bd5283fad495d","bdp_wmem","Tue Mar 14 2023 19:00:19 GMT-0500 (Central Daylight Time)","588507","Match,No Match","html-keyboard-response","148","353025","0.0-7.0-3.22","","null","","<div class='trialBorder'><div class='vertical-center'><img src='img/fixation2_sml.jpg'</img></div></div>","null","DELAY","","","","","","","","","","",""
"","","","","63fe39cd075bd5283fad495d","bdp_wmem","Tue Mar 14 2023 19:00:19 GMT-0500 (Central Daylight Time)","588507","Match,No Match","html-keyboard-response","149","354059","0.0-7.0-4.22","","1033","","<div class='trialBorder'><div class='targDiv'><div class='tc'><img class='introPic' src='trustrating_stim/white_mw012.bmp'><br><font color='red'><strong>Keep</strong></font></div></div><div class='respDiv'><div class='respDivL'>Match<br>(e)</div><div class='respDivR'>No Match<br>(i)</div></div></div>","i","TARGET","1","trustrating_stim/white_mw085.bmp","0","noMatchFace","i","1500","trustrating_stim/white_mw012.bmp","red","Keep","REAL","1"
"","","","","63fe39cd075bd5283fad495d","bdp_wmem","Tue Mar 14 2023 19:00:19 GMT-0500 (Central Daylight Time)","588507","Match,No Match","html-keyboard-response","150","354571","0.0-7.0-5.22","","null","","<div class='trialBorder'><div class='vertical-center'><img src='img/correct.jpg'></div><div class='respDiv'><div class='respDivL'>Match<br>(e)</div><div class='respDivR'><font style='color:orange'>No Match<br>(i)</font></div></div></div>","null","FEEDBACK","","","","","","","","","","",""
"","","","","63fe39cd075bd5283fad495d","bdp_wmem","Tue Mar 14 2023 19:00:19 GMT-0500 (Central Daylight Time)","588507","Match,No Match","html-keyboard-response","151","355081","0.0-7.0-1.23","","null","","<div class='trialBorder'><div class='vertical-center'><img src='img/fixation2_sml.jpg'</img></div></div>","null","FIX","","","","","","","","","","",""
"","","","","63fe39cd075bd5283fad495d","bdp_wmem","Tue Mar 14 2023 19:00:19 GMT-0500 (Central Daylight Time)","588507","Match,No Match","html-keyboard-response","152","358091","0.0-7.0-2.23","","null","","<div class='trialBorder'><div class='vertical-center'><img style='vertical-align:center; align:center' src='img/fixation2_sml.jpg'></div><div class='arrayDiv2'><div class='tl'><img class='introPic' src='trustrating_stim/white_mw012.bmp'><br><font color='green'><strong>Share</strong></font></div><div class='tr'><img class='introPic' src='trustrating_stim/white_mw010.bmp'><br><font color='red'><strong>Keep</strong></font></div></div></div>","null","ARRAY","2","trustrating_stim/white_mw012.bmp,trustrating_stim/white_mw010.bmp","1,0","Match","e","3000","","","","",""
"","","","","63fe39cd075bd5283fad495d","bdp_wmem","Tue Mar 14 2023 19:00:19 GMT-0500 (Central Daylight Time)","588507","Match,No Match","html-keyboard-response","153","362106","0.0-7.0-3.23","","null","","<div class='trialBorder'><div class='vertical-center'><img src='img/fixation2_sml.jpg'</img></div></div>","null","DELAY","","","","","","","","","","",""
"","","","","63fe39cd075bd5283fad495d","bdp_wmem","Tue Mar 14 2023 19:00:19 GMT-0500 (Central Daylight Time)","588507","Match,No Match","html-keyboard-response","154","363324","0.0-7.0-4.23","","1217","","<div class='trialBorder'><div class='targDiv'><div class='tc'><img class='introPic' src='trustrating_stim/white_mw012.bmp'><br><font color='green'><strong>Share</strong></font></div></div><div class='respDiv'><div class='respDivL'>Match<br>(e)</div><div class='respDivR'>No Match<br>(i)</div></div></div>","e","TARGET","2","trustrating_stim/white_mw012.bmp,trustrating_stim/white_mw010.bmp","1,0","Match","e","3000","trustrating_stim/white_mw012.bmp","green","Share","REAL","1"
"","","","","63fe39cd075bd5283fad495d","bdp_wmem","Tue Mar 14 2023 19:00:19 GMT-0500 (Central Daylight Time)","588507","Match,No Match","html-keyboard-response","155","363832","0.0-7.0-5.23","","null","","<div class='trialBorder'><div class='vertical-center'><img src='img/correct.jpg'></div><div class='respDiv'><div class='respDivL'><font style='color:orange'>Match<br>(e)</font></div><div class='respDivR'>No Match<br>(i)</div></div></div>","null","FEEDBACK","","","","","","","","","","",""
"","","","","63fe39cd075bd5283fad495d","bdp_wmem","Tue Mar 14 2023 19:00:19 GMT-0500 (Central Daylight Time)","588507","Match,No Match","html-keyboard-response","156","364335","0.0-7.0-1.24","","null","","<div class='trialBorder'><div class='vertical-center'><img src='img/fixation2_sml.jpg'</img></div></div>","null","FIX","","","","","","","","","","",""
"","","","","63fe39cd075bd5283fad495d","bdp_wmem","Tue Mar 14 2023 19:00:19 GMT-0500 (Central Daylight Time)","588507","Match,No Match","html-keyboard-response","157","367336","0.0-7.0-2.24","","null","","<div class='trialBorder'><div class='vertical-center'><img style='vertical-align:center; align:center' src='img/fixation2_sml.jpg'></div><div class='arrayDiv2'><div class='tl'><img class='introPic' src='trustrating_stim/white_mw092.bmp'><br><font color='red'><strong>Keep</strong></font></div><div class='tr'><img class='introPic' src='trustrating_stim/white_mw078.bmp'><br><font color='green'><strong>Share</strong></font></div></div></div>","null","ARRAY","2","trustrating_stim/white_mw092.bmp,trustrating_stim/white_mw078.bmp","0,1","noMatchFace","i","3000","","","","",""
"","","","","63fe39cd075bd5283fad495d","bdp_wmem","Tue Mar 14 2023 19:00:19 GMT-0500 (Central Daylight Time)","588507","Match,No Match","html-keyboard-response","158","371350","0.0-7.0-3.24","","null","","<div class='trialBorder'><div class='vertical-center'><img src='img/fixation2_sml.jpg'</img></div></div>","null","DELAY","","","","","","","","","","",""
"","","","","63fe39cd075bd5283fad495d","bdp_wmem","Tue Mar 14 2023 19:00:19 GMT-0500 (Central Daylight Time)","588507","Match,No Match","html-keyboard-response","159","372283","0.0-7.0-4.24","","932","","<div class='trialBorder'><div class='targDiv'><div class='tc'><img class='introPic' src='trustrating_stim/white_mw042.bmp'><br><font color='green'><strong>Share</strong></font></div></div><div class='respDiv'><div class='respDivL'>Match<br>(e)</div><div class='respDivR'>No Match<br>(i)</div></div></div>","i","TARGET","2","trustrating_stim/white_mw092.bmp,trustrating_stim/white_mw078.bmp","0,1","noMatchFace","i","3000","trustrating_stim/white_mw042.bmp","green","Share","REAL","1"
"","","","","63fe39cd075bd5283fad495d","bdp_wmem","Tue Mar 14 2023 19:00:19 GMT-0500 (Central Daylight Time)","588507","Match,No Match","html-keyboard-response","160","372793","0.0-7.0-5.24","","null","","<div class='trialBorder'><div class='vertical-center'><img src='img/correct.jpg'></div><div class='respDiv'><div class='respDivL'>Match<br>(e)</div><div class='respDivR'><font style='color:orange'>No Match<br>(i)</font></div></div></div>","null","FEEDBACK","","","","","","","","","","",""
"","","","","63fe39cd075bd5283fad495d","bdp_wmem","Tue Mar 14 2023 19:00:19 GMT-0500 (Central Daylight Time)","588507","Match,No Match","html-keyboard-response","161","373301","0.0-7.0-1.25","","null","","<div class='trialBorder'><div class='vertical-center'><img src='img/fixation2_sml.jpg'</img></div></div>","null","FIX","","","","","","","","","","",""
"","","","","63fe39cd075bd5283fad495d","bdp_wmem","Tue Mar 14 2023 19:00:19 GMT-0500 (Central Daylight Time)","588507","Match,No Match","html-keyboard-response","162","374804","0.0-7.0-2.25","","null","","<div class='trialBorder'><div class='vertical-center'><img style='vertical-align:center; align:center' src='img/fixation2_sml.jpg'></div><div class='arrayDiv1'><div class='tc'><img class='introPic' src='trustrating_stim/white_mw092.bmp'><br><font color='green'><strong>Share</strong></font></div></div></div>","null","ARRAY","1","trustrating_stim/white_mw092.bmp","1","noMatchFace","i","1500","","","","",""
"","","","","63fe39cd075bd5283fad495d","bdp_wmem","Tue Mar 14 2023 19:00:19 GMT-0500 (Central Daylight Time)","588507","Match,No Match","html-keyboard-response","163","378816","0.0-7.0-3.25","","null","","<div class='trialBorder'><div class='vertical-center'><img src='img/fixation2_sml.jpg'</img></div></div>","null","DELAY","","","","","","","","","","",""
"","","","","63fe39cd075bd5283fad495d","bdp_wmem","Tue Mar 14 2023 19:00:19 GMT-0500 (Central Daylight Time)","588507","Match,No Match","html-keyboard-response","164","379654","0.0-7.0-4.25","","838","","<div class='trialBorder'><div class='targDiv'><div class='tc'><img class='introPic' src='trustrating_stim/white_mw070.bmp'><br><font color='green'><strong>Share</strong></font></div></div><div class='respDiv'><div class='respDivL'>Match<br>(e)</div><div class='respDivR'>No Match<br>(i)</div></div></div>","i","TARGET","1","trustrating_stim/white_mw092.bmp","1","noMatchFace","i","1500","trustrating_stim/white_mw070.bmp","green","Share","REAL","1"
"","","","","63fe39cd075bd5283fad495d","bdp_wmem","Tue Mar 14 2023 19:00:19 GMT-0500 (Central Daylight Time)","588507","Match,No Match","html-keyboard-response","165","380161","0.0-7.0-5.25","","null","","<div class='trialBorder'><div class='vertical-center'><img src='img/correct.jpg'></div><div class='respDiv'><div class='respDivL'>Match<br>(e)</div><div class='respDivR'><font style='color:orange'>No Match<br>(i)</font></div></div></div>","null","FEEDBACK","","","","","","","","","","",""
"","","","","63fe39cd075bd5283fad495d","bdp_wmem","Tue Mar 14 2023 19:00:19 GMT-0500 (Central Daylight Time)","588507","Match,No Match","html-keyboard-response","166","380668","0.0-7.0-1.26","","null","","<div class='trialBorder'><div class='vertical-center'><img src='img/fixation2_sml.jpg'</img></div></div>","null","FIX","","","","","","","","","","",""
"","","","","63fe39cd075bd5283fad495d","bdp_wmem","Tue Mar 14 2023 19:00:19 GMT-0500 (Central Daylight Time)","588507","Match,No Match","html-keyboard-response","167","385175","0.0-7.0-2.26","","null","","<div class='trialBorder'><div class='vertical-center'><img style='vertical-align:center; align:center' src='img/fixation2_sml.jpg'></div><div class='arrayDiv3'><div class='tl'><img class='introPic' src='trustrating_stim/white_mw042.bmp'><br><font color='green'><strong>Share</strong></font></div><div class='tc'><img class='introPic' src='trustrating_stim/white_mw040.bmp'><br><font color='green'><strong>Share</strong></font></div><div class='tr'><img class='introPic' src='trustrating_stim/white_mw091.bmp'><br><font color='red'><strong>Keep</strong></font></div></div></div>","null","ARRAY","3","trustrating_stim/white_mw042.bmp,trustrating_stim/white_mw040.bmp,trustrating_stim/white_mw091.bmp","1,1,0","Match","e","4500","","","","",""
"","","","","63fe39cd075bd5283fad495d","bdp_wmem","Tue Mar 14 2023 19:00:19 GMT-0500 (Central Daylight Time)","588507","Match,No Match","html-keyboard-response","168","389182","0.0-7.0-3.26","","null","","<div class='trialBorder'><div class='vertical-center'><img src='img/fixation2_sml.jpg'</img></div></div>","null","DELAY","","","","","","","","","","",""
"","","","","63fe39cd075bd5283fad495d","bdp_wmem","Tue Mar 14 2023 19:00:19 GMT-0500 (Central Daylight Time)","588507","Match,No Match","html-keyboard-response","169","390376","0.0-7.0-4.26","","1194","","<div class='trialBorder'><div class='targDiv'><div class='tc'><img class='introPic' src='trustrating_stim/white_mw091.bmp'><br><font color='red'><strong>Keep</strong></font></div></div><div class='respDiv'><div class='respDivL'>Match<br>(e)</div><div class='respDivR'>No Match<br>(i)</div></div></div>","e","TARGET","3","trustrating_stim/white_mw042.bmp,trustrating_stim/white_mw040.bmp,trustrating_stim/white_mw091.bmp","1,1,0","Match","e","4500","trustrating_stim/white_mw091.bmp","red","Keep","REAL","1"
"","","","","63fe39cd075bd5283fad495d","bdp_wmem","Tue Mar 14 2023 19:00:19 GMT-0500 (Central Daylight Time)","588507","Match,No Match","html-keyboard-response","170","390885","0.0-7.0-5.26","","null","","<div class='trialBorder'><div class='vertical-center'><img src='img/correct.jpg'></div><div class='respDiv'><div class='respDivL'><font style='color:orange'>Match<br>(e)</font></div><div class='respDivR'>No Match<br>(i)</div></div></div>","null","FEEDBACK","","","","","","","","","","",""
"","","","","63fe39cd075bd5283fad495d","bdp_wmem","Tue Mar 14 2023 19:00:19 GMT-0500 (Central Daylight Time)","588507","Match,No Match","html-keyboard-response","171","391399","0.0-7.0-1.27","","null","","<div class='trialBorder'><div class='vertical-center'><img src='img/fixation2_sml.jpg'</img></div></div>","null","FIX","","","","","","","","","","",""
"","","","","63fe39cd075bd5283fad495d","bdp_wmem","Tue Mar 14 2023 19:00:19 GMT-0500 (Central Daylight Time)","588507","Match,No Match","html-keyboard-response","172","395908","0.0-7.0-2.27","","null","","<div class='trialBorder'><div class='vertical-center'><img style='vertical-align:center; align:center' src='img/fixation2_sml.jpg'></div><div class='arrayDiv3'><div class='tl'><img class='introPic' src='trustrating_stim/white_mw013.bmp'><br><font color='red'><strong>Keep</strong></font></div><div class='tc'><img class='introPic' src='trustrating_stim/white_mw092.bmp'><br><font color='green'><strong>Share</strong></font></div><div class='tr'><img class='introPic' src='trustrating_stim/white_mw012.bmp'><br><font color='red'><strong>Keep</strong></font></div></div></div>","null","ARRAY","3","trustrating_stim/white_mw013.bmp,trustrating_stim/white_mw092.bmp,trustrating_stim/white_mw012.bmp","0,1,0","noMatchFace","i","4500","","","","",""
"","","","","63fe39cd075bd5283fad495d","bdp_wmem","Tue Mar 14 2023 19:00:19 GMT-0500 (Central Daylight Time)","588507","Match,No Match","html-keyboard-response","173","399917","0.0-7.0-3.27","","null","","<div class='trialBorder'><div class='vertical-center'><img src='img/fixation2_sml.jpg'</img></div></div>","null","DELAY","","","","","","","","","","",""
"","","","","63fe39cd075bd5283fad495d","bdp_wmem","Tue Mar 14 2023 19:00:19 GMT-0500 (Central Daylight Time)","588507","Match,No Match","html-keyboard-response","174","401110","0.0-7.0-4.27","","1193","","<div class='trialBorder'><div class='targDiv'><div class='tc'><img class='introPic' src='trustrating_stim/white_mw003.bmp'><br><font color='red'><strong>Keep</strong></font></div></div><div class='respDiv'><div class='respDivL'>Match<br>(e)</div><div class='respDivR'>No Match<br>(i)</div></div></div>","i","TARGET","3","trustrating_stim/white_mw013.bmp,trustrating_stim/white_mw092.bmp,trustrating_stim/white_mw012.bmp","0,1,0","noMatchFace","i","4500","trustrating_stim/white_mw003.bmp","red","Keep","REAL","1"
"","","","","63fe39cd075bd5283fad495d","bdp_wmem","Tue Mar 14 2023 19:00:19 GMT-0500 (Central Daylight Time)","588507","Match,No Match","html-keyboard-response","175","401612","0.0-7.0-5.27","","null","","<div class='trialBorder'><div class='vertical-center'><img src='img/correct.jpg'></div><div class='respDiv'><div class='respDivL'>Match<br>(e)</div><div class='respDivR'><font style='color:orange'>No Match<br>(i)</font></div></div></div>","null","FEEDBACK","","","","","","","","","","",""
"","","","","63fe39cd075bd5283fad495d","bdp_wmem","Tue Mar 14 2023 19:00:19 GMT-0500 (Central Daylight Time)","588507","Match,No Match","html-keyboard-response","176","402118","0.0-7.0-1.28","","null","","<div class='trialBorder'><div class='vertical-center'><img src='img/fixation2_sml.jpg'</img></div></div>","null","FIX","","","","","","","","","","",""
"","","","","63fe39cd075bd5283fad495d","bdp_wmem","Tue Mar 14 2023 19:00:19 GMT-0500 (Central Daylight Time)","588507","Match,No Match","html-keyboard-response","177","406633","0.0-7.0-2.28","","null","","<div class='trialBorder'><div class='vertical-center'><img style='vertical-align:center; align:center' src='img/fixation2_sml.jpg'></div><div class='arrayDiv3'><div class='tl'><img class='introPic' src='trustrating_stim/white_mw038.bmp'><br><font color='green'><strong>Share</strong></font></div><div class='tc'><img class='introPic' src='trustrating_stim/white_mw010.bmp'><br><font color='red'><strong>Keep</strong></font></div><div class='tr'><img class='introPic' src='trustrating_stim/white_mw042.bmp'><br><font color='green'><strong>Share</strong></font></div></div></div>","null","ARRAY","3","trustrating_stim/white_mw038.bmp,trustrating_stim/white_mw010.bmp,trustrating_stim/white_mw042.bmp","1,0,1","noMatchOutcome","i","4500","","","","",""
"","","","","63fe39cd075bd5283fad495d","bdp_wmem","Tue Mar 14 2023 19:00:19 GMT-0500 (Central Daylight Time)","588507","Match,No Match","html-keyboard-response","178","410642","0.0-7.0-3.28","","null","","<div class='trialBorder'><div class='vertical-center'><img src='img/fixation2_sml.jpg'</img></div></div>","null","DELAY","","","","","","","","","","",""
"","","","","63fe39cd075bd5283fad495d","bdp_wmem","Tue Mar 14 2023 19:00:19 GMT-0500 (Central Daylight Time)","588507","Match,No Match","html-keyboard-response","179","412425","0.0-7.0-4.28","","1783","","<div class='trialBorder'><div class='targDiv'><div class='tc'><img class='introPic' src='trustrating_stim/white_mw010.bmp'><br><font color='green'><strong>Share</strong></font></div></div><div class='respDiv'><div class='respDivL'>Match<br>(e)</div><div class='respDivR'>No Match<br>(i)</div></div></div>","i","TARGET","3","trustrating_stim/white_mw038.bmp,trustrating_stim/white_mw010.bmp,trustrating_stim/white_mw042.bmp","1,0,1","noMatchOutcome","i","4500","trustrating_stim/white_mw010.bmp","green","Share","REAL","1"
"","","","","63fe39cd075bd5283fad495d","bdp_wmem","Tue Mar 14 2023 19:00:19 GMT-0500 (Central Daylight Time)","588507","Match,No Match","html-keyboard-response","180","412934","0.0-7.0-5.28","","null","","<div class='trialBorder'><div class='vertical-center'><img src='img/correct.jpg'></div><div class='respDiv'><div class='respDivL'>Match<br>(e)</div><div class='respDivR'><font style='color:orange'>No Match<br>(i)</font></div></div></div>","null","FEEDBACK","","","","","","","","","","",""
"","","","","63fe39cd075bd5283fad495d","bdp_wmem","Tue Mar 14 2023 19:00:19 GMT-0500 (Central Daylight Time)","588507","Match,No Match","html-keyboard-response","181","413439","0.0-7.0-1.29","","null","","<div class='trialBorder'><div class='vertical-center'><img src='img/fixation2_sml.jpg'</img></div></div>","null","FIX","","","","","","","","","","",""
"","","","","63fe39cd075bd5283fad495d","bdp_wmem","Tue Mar 14 2023 19:00:19 GMT-0500 (Central Daylight Time)","588507","Match,No Match","html-keyboard-response","182","414953","0.0-7.0-2.29","","null","","<div class='trialBorder'><div class='vertical-center'><img style='vertical-align:center; align:center' src='img/fixation2_sml.jpg'></div><div class='arrayDiv1'><div class='tc'><img class='introPic' src='trustrating_stim/white_mw078.bmp'><br><font color='red'><strong>Keep</strong></font></div></div></div>","null","ARRAY","1","trustrating_stim/white_mw078.bmp","0","Match","e","1500","","","","",""
"","","","","63fe39cd075bd5283fad495d","bdp_wmem","Tue Mar 14 2023 19:00:19 GMT-0500 (Central Daylight Time)","588507","Match,No Match","html-keyboard-response","183","418960","0.0-7.0-3.29","","null","","<div class='trialBorder'><div class='vertical-center'><img src='img/fixation2_sml.jpg'</img></div></div>","null","DELAY","","","","","","","","","","",""
"","","","","63fe39cd075bd5283fad495d","bdp_wmem","Tue Mar 14 2023 19:00:19 GMT-0500 (Central Daylight Time)","588507","Match,No Match","html-keyboard-response","184","420577","0.0-7.0-4.29","","1616","","<div class='trialBorder'><div class='targDiv'><div class='tc'><img class='introPic' src='trustrating_stim/white_mw078.bmp'><br><font color='red'><strong>Keep</strong></font></div></div><div class='respDiv'><div class='respDivL'>Match<br>(e)</div><div class='respDivR'>No Match<br>(i)</div></div></div>","e","TARGET","1","trustrating_stim/white_mw078.bmp","0","Match","e","1500","trustrating_stim/white_mw078.bmp","red","Keep","REAL","1"
"","","","","63fe39cd075bd5283fad495d","bdp_wmem","Tue Mar 14 2023 19:00:19 GMT-0500 (Central Daylight Time)","588507","Match,No Match","html-keyboard-response","185","421088","0.0-7.0-5.29","","null","","<div class='trialBorder'><div class='vertical-center'><img src='img/correct.jpg'></div><div class='respDiv'><div class='respDivL'><font style='color:orange'>Match<br>(e)</font></div><div class='respDivR'>No Match<br>(i)</div></div></div>","null","FEEDBACK","","","","","","","","","","",""
"","","","","63fe39cd075bd5283fad495d","bdp_wmem","Tue Mar 14 2023 19:00:19 GMT-0500 (Central Daylight Time)","588507","Match,No Match","html-keyboard-response","186","421598","0.0-7.0-1.30","","null","","<div class='trialBorder'><div class='vertical-center'><img src='img/fixation2_sml.jpg'</img></div></div>","null","FIX","","","","","","","","","","",""
"","","","","63fe39cd075bd5283fad495d","bdp_wmem","Tue Mar 14 2023 19:00:19 GMT-0500 (Central Daylight Time)","588507","Match,No Match","html-keyboard-response","187","423099","0.0-7.0-2.30","","null","","<div class='trialBorder'><div class='vertical-center'><img style='vertical-align:center; align:center' src='img/fixation2_sml.jpg'></div><div class='arrayDiv1'><div class='tc'><img class='introPic' src='trustrating_stim/white_mw091.bmp'><br><font color='green'><strong>Share</strong></font></div></div></div>","null","ARRAY","1","trustrating_stim/white_mw091.bmp","1","noMatchOutcome","i","1500","","","","",""
"","","","","63fe39cd075bd5283fad495d","bdp_wmem","Tue Mar 14 2023 19:00:19 GMT-0500 (Central Daylight Time)","588507","Match,No Match","html-keyboard-response","188","427105","0.0-7.0-3.30","","null","","<div class='trialBorder'><div class='vertical-center'><img src='img/fixation2_sml.jpg'</img></div></div>","null","DELAY","","","","","","","","","","",""
