"trial_type","trial_index","time_elapsed","internal_node_id","subject_id","task","startTime","totalTime","labels","view_history","rt","event","trial","time","trialtype","success","stimulus","key_press","stimType","arraySize","arrayFaces","arrayOutcomes","matchType","corrResp","arrayDur","targFace","targCol","targOutcome","trialType","corr"
"pavlovia","0","3","0.0-0.0","64013f9fa92a5dd2d30c5575","bdp_wmem","Mon Mar 13 2023 14:48:57 GMT-0400 (Eastern Daylight Time)","673792","Match,No Match","","","","","","","","","","","","","","","","","","","","",""
"instructions","1","3732","0.0-1.0","64013f9fa92a5dd2d30c5575","bdp_wmem","Mon Mar 13 2023 14:48:57 GMT-0400 (Eastern Daylight Time)","673792","Match,No Match","[{""page_index"":0,""viewing_time"":3729}]","3729","","","","","","","","","","","","","","","","","","",""
"","","","","64013f9fa92a5dd2d30c5575","bdp_wmem","Mon Mar 13 2023 14:48:57 GMT-0400 (Eastern Daylight Time)","673792","Match,No Match","","","fullscreenenter","2","8377","fullscreenenter","","","","","","","","","","","","","","",""
"fullscreen","2","9357","0.0-2.0","64013f9fa92a5dd2d30c5575","bdp_wmem","Mon Mar 13 2023 14:48:57 GMT-0400 (Eastern Daylight Time)","673792","Match,No Match","","","","","","","true","","","","","","","","","","","","","",""
"instructions","3","84468","0.0-4.0","64013f9fa92a5dd2d30c5575","bdp_wmem","Mon Mar 13 2023 14:48:57 GMT-0400 (Eastern Daylight Time)","673792","Match,No Match","[{""page_index"":0,""viewing_time"":20736},{""page_index"":1,""viewing_time"":15251},{""page_index"":2,""viewing_time"":16217},{""page_index"":3,""viewing_time"":9820},{""page_index"":4,""viewing_time"":13085}]","75109","","","","","","","","","","","","","","","","","","",""
"html-keyboard-response","4","84973","0.0-5.0-1.0","64013f9fa92a5dd2d30c5575","bdp_wmem","Mon Mar 13 2023 14:48:57 GMT-0400 (Eastern Daylight Time)","673792","Match,No Match","","null","","","","","","<div class='trialBorder'><div class='vertical-center'><img src='img/fixation2_sml.jpg'</img></div></div>","null","FIX","","","","","","","","","","",""
"html-keyboard-response","5","87977","0.0-5.0-2.0","64013f9fa92a5dd2d30c5575","bdp_wmem","Mon Mar 13 2023 14:48:57 GMT-0400 (Eastern Daylight Time)","673792","Match,No Match","","null","","","","","","<div class='trialBorder'><div class='vertical-center'><img style='vertical-align:center; align:center' src='img/fixation2_sml.jpg'></div><div class='arrayDiv2'><div class='tl'><img class='introPic' src='trustrating_stim/white_mw012.bmp'><br><font color='red'><strong>Keep</strong></font></div><div class='tr'><img class='introPic' src='trustrating_stim/white_mw038.bmp'><br><font color='green'><strong>Share</strong></font></div></div></div>","null","ARRAY","2","trustrating_stim/white_mw012.bmp,trustrating_stim/white_mw038.bmp","0,1","Match","e","3000","","","","",""
"html-keyboard-response","6","91979","0.0-5.0-3.0","64013f9fa92a5dd2d30c5575","bdp_wmem","Mon Mar 13 2023 14:48:57 GMT-0400 (Eastern Daylight Time)","673792","Match,No Match","","null","","","","","","<div class='trialBorder'><div class='vertical-center'><img src='img/fixation2_sml.jpg'</img></div></div>","null","DELAY","","","","","","","","","","",""
"html-keyboard-response","7","97136","0.0-5.0-4.0","64013f9fa92a5dd2d30c5575","bdp_wmem","Mon Mar 13 2023 14:48:57 GMT-0400 (Eastern Daylight Time)","673792","Match,No Match","","5153","","","","","","<div class='trialBorder'><div class='targDiv'><div class='tc'><img class='introPic' src='trustrating_stim/white_mw038.bmp'><br><font color='green'><strong>Share</strong></font></div></div><div class='respDiv'><div class='respDivL'>Match<br>(e)</div><div class='respDivR'>No Match<br>(i)</div></div></div>","e","TARGET","2","trustrating_stim/white_mw012.bmp,trustrating_stim/white_mw038.bmp","0,1","Match","e","3000","trustrating_stim/white_mw038.bmp","green","Share","PRACTICE","1"
"html-keyboard-response","8","97640","0.0-5.0-5.0","64013f9fa92a5dd2d30c5575","bdp_wmem","Mon Mar 13 2023 14:48:57 GMT-0400 (Eastern Daylight Time)","673792","Match,No Match","","null","","","","","","<div class='trialBorder'><div class='vertical-center'><img src='img/correct.jpg'></div><div class='respDiv'><div class='respDivL'><font style='color:orange'>Match<br>(e)</font></div><div class='respDivR'>No Match<br>(i)</div></div></div>","null","FEEDBACK","","","","","","","","","","",""
"html-keyboard-response","9","98144","0.0-5.0-1.1","64013f9fa92a5dd2d30c5575","bdp_wmem","Mon Mar 13 2023 14:48:57 GMT-0400 (Eastern Daylight Time)","673792","Match,No Match","","null","","","","","","<div class='trialBorder'><div class='vertical-center'><img src='img/fixation2_sml.jpg'</img></div></div>","null","FIX","","","","","","","","","","",""
"html-keyboard-response","10","102647","0.0-5.0-2.1","64013f9fa92a5dd2d30c5575","bdp_wmem","Mon Mar 13 2023 14:48:57 GMT-0400 (Eastern Daylight Time)","673792","Match,No Match","","null","","","","","","<div class='trialBorder'><div class='vertical-center'><img style='vertical-align:center; align:center' src='img/fixation2_sml.jpg'></div><div class='arrayDiv3'><div class='tl'><img class='introPic' src='trustrating_stim/white_mw013.bmp'><br><font color='green'><strong>Share</strong></font></div><div class='tc'><img class='introPic' src='trustrating_stim/white_mw091.bmp'><br><font color='green'><strong>Share</strong></font></div><div class='tr'><img class='introPic' src='trustrating_stim/white_mw092.bmp'><br><font color='red'><strong>Keep</strong></font></div></div></div>","null","ARRAY","3","trustrating_stim/white_mw013.bmp,trustrating_stim/white_mw091.bmp,trustrating_stim/white_mw092.bmp","1,1,0","Match","e","4500","","","","",""
"html-keyboard-response","11","106649","0.0-5.0-3.1","64013f9fa92a5dd2d30c5575","bdp_wmem","Mon Mar 13 2023 14:48:57 GMT-0400 (Eastern Daylight Time)","673792","Match,No Match","","null","","","","","","<div class='trialBorder'><div class='vertical-center'><img src='img/fixation2_sml.jpg'</img></div></div>","null","DELAY","","","","","","","","","","",""
"html-keyboard-response","12","112894","0.0-5.0-4.1","64013f9fa92a5dd2d30c5575","bdp_wmem","Mon Mar 13 2023 14:48:57 GMT-0400 (Eastern Daylight Time)","673792","Match,No Match","","6241","","","","","","<div class='trialBorder'><div class='targDiv'><div class='tc'><img class='introPic' src='trustrating_stim/white_mw092.bmp'><br><font color='red'><strong>Keep</strong></font></div></div><div class='respDiv'><div class='respDivL'>Match<br>(e)</div><div class='respDivR'>No Match<br>(i)</div></div></div>","i","TARGET","3","trustrating_stim/white_mw013.bmp,trustrating_stim/white_mw091.bmp,trustrating_stim/white_mw092.bmp","1,1,0","Match","e","4500","trustrating_stim/white_mw092.bmp","red","Keep","PRACTICE","0"
"html-keyboard-response","13","113398","0.0-5.0-5.1","64013f9fa92a5dd2d30c5575","bdp_wmem","Mon Mar 13 2023 14:48:57 GMT-0400 (Eastern Daylight Time)","673792","Match,No Match","","null","","","","","","<div class='trialBorder'><div class='vertical-center'><img src='img/error.jpg'></div><div class='respDiv'><div class='respDivL'>Match<br>(e)</div><div class='respDivR'><font style='color:orange'>No Match<br>(i)</font></div></div></div>","null","FEEDBACK","","","","","","","","","","",""
"html-keyboard-response","14","113901","0.0-5.0-1.2","64013f9fa92a5dd2d30c5575","bdp_wmem","Mon Mar 13 2023 14:48:57 GMT-0400 (Eastern Daylight Time)","673792","Match,No Match","","null","","","","","","<div class='trialBorder'><div class='vertical-center'><img src='img/fixation2_sml.jpg'</img></div></div>","null","FIX","","","","","","","","","","",""
"html-keyboard-response","15","115406","0.0-5.0-2.2","64013f9fa92a5dd2d30c5575","bdp_wmem","Mon Mar 13 2023 14:48:57 GMT-0400 (Eastern Daylight Time)","673792","Match,No Match","","null","","","","","","<div class='trialBorder'><div class='vertical-center'><img style='vertical-align:center; align:center' src='img/fixation2_sml.jpg'></div><div class='arrayDiv1'><div class='tc'><img class='introPic' src='trustrating_stim/white_mw085.bmp'><br><font color='green'><strong>Share</strong></font></div></div></div>","null","ARRAY","1","trustrating_stim/white_mw085.bmp","1","Match","e","1500","","","","",""
"html-keyboard-response","16","119408","0.0-5.0-3.2","64013f9fa92a5dd2d30c5575","bdp_wmem","Mon Mar 13 2023 14:48:57 GMT-0400 (Eastern Daylight Time)","673792","Match,No Match","","null","","","","","","<div class='trialBorder'><div class='vertical-center'><img src='img/fixation2_sml.jpg'</img></div></div>","null","DELAY","","","","","","","","","","",""
"html-keyboard-response","17","121278","0.0-5.0-4.2","64013f9fa92a5dd2d30c5575","bdp_wmem","Mon Mar 13 2023 14:48:57 GMT-0400 (Eastern Daylight Time)","673792","Match,No Match","","1867","","","","","","<div class='trialBorder'><div class='targDiv'><div class='tc'><img class='introPic' src='trustrating_stim/white_mw085.bmp'><br><font color='green'><strong>Share</strong></font></div></div><div class='respDiv'><div class='respDivL'>Match<br>(e)</div><div class='respDivR'>No Match<br>(i)</div></div></div>","e","TARGET","1","trustrating_stim/white_mw085.bmp","1","Match","e","1500","trustrating_stim/white_mw085.bmp","green","Share","PRACTICE","1"
"html-keyboard-response","18","121781","0.0-5.0-5.2","64013f9fa92a5dd2d30c5575","bdp_wmem","Mon Mar 13 2023 14:48:57 GMT-0400 (Eastern Daylight Time)","673792","Match,No Match","","null","","","","","","<div class='trialBorder'><div class='vertical-center'><img src='img/correct.jpg'></div><div class='respDiv'><div class='respDivL'><font style='color:orange'>Match<br>(e)</font></div><div class='respDivR'>No Match<br>(i)</div></div></div>","null","FEEDBACK","","","","","","","","","","",""
"html-keyboard-response","19","122284","0.0-5.0-1.3","64013f9fa92a5dd2d30c5575","bdp_wmem","Mon Mar 13 2023 14:48:57 GMT-0400 (Eastern Daylight Time)","673792","Match,No Match","","null","","","","","","<div class='trialBorder'><div class='vertical-center'><img src='img/fixation2_sml.jpg'</img></div></div>","null","FIX","","","","","","","","","","",""
"html-keyboard-response","20","126788","0.0-5.0-2.3","64013f9fa92a5dd2d30c5575","bdp_wmem","Mon Mar 13 2023 14:48:57 GMT-0400 (Eastern Daylight Time)","673792","Match,No Match","","null","","","","","","<div class='trialBorder'><div class='vertical-center'><img style='vertical-align:center; align:center' src='img/fixation2_sml.jpg'></div><div class='arrayDiv3'><div class='tl'><img class='introPic' src='trustrating_stim/white_mw070.bmp'><br><font color='green'><strong>Share</strong></font></div><div class='tc'><img class='introPic' src='trustrating_stim/white_mw013.bmp'><br><font color='red'><strong>Keep</strong></font></div><div class='tr'><img class='introPic' src='trustrating_stim/white_mw012.bmp'><br><font color='green'><strong>Share</strong></font></div></div></div>","null","ARRAY","3","trustrating_stim/white_mw070.bmp,trustrating_stim/white_mw013.bmp,trustrating_stim/white_mw012.bmp","1,0,1","noMatchOutcome","i","4500","","","","",""
"html-keyboard-response","21","130791","0.0-5.0-3.3","64013f9fa92a5dd2d30c5575","bdp_wmem","Mon Mar 13 2023 14:48:57 GMT-0400 (Eastern Daylight Time)","673792","Match,No Match","","null","","","","","","<div class='trialBorder'><div class='vertical-center'><img src='img/fixation2_sml.jpg'</img></div></div>","null","DELAY","","","","","","","","","","",""
"html-keyboard-response","22","137415","0.0-5.0-4.3","64013f9fa92a5dd2d30c5575","bdp_wmem","Mon Mar 13 2023 14:48:57 GMT-0400 (Eastern Daylight Time)","673792","Match,No Match","","6621","","","","","","<div class='trialBorder'><div class='targDiv'><div class='tc'><img class='introPic' src='trustrating_stim/white_mw013.bmp'><br><font color='green'><strong>Share</strong></font></div></div><div class='respDiv'><div class='respDivL'>Match<br>(e)</div><div class='respDivR'>No Match<br>(i)</div></div></div>","i","TARGET","3","trustrating_stim/white_mw070.bmp,trustrating_stim/white_mw013.bmp,trustrating_stim/white_mw012.bmp","1,0,1","noMatchOutcome","i","4500","trustrating_stim/white_mw013.bmp","green","Share","PRACTICE","1"
"html-keyboard-response","23","137918","0.0-5.0-5.3","64013f9fa92a5dd2d30c5575","bdp_wmem","Mon Mar 13 2023 14:48:57 GMT-0400 (Eastern Daylight Time)","673792","Match,No Match","","null","","","","","","<div class='trialBorder'><div class='vertical-center'><img src='img/correct.jpg'></div><div class='respDiv'><div class='respDivL'>Match<br>(e)</div><div class='respDivR'><font style='color:orange'>No Match<br>(i)</font></div></div></div>","null","FEEDBACK","","","","","","","","","","",""
"html-keyboard-response","24","138420","0.0-5.0-1.4","64013f9fa92a5dd2d30c5575","bdp_wmem","Mon Mar 13 2023 14:48:57 GMT-0400 (Eastern Daylight Time)","673792","Match,No Match","","null","","","","","","<div class='trialBorder'><div class='vertical-center'><img src='img/fixation2_sml.jpg'</img></div></div>","null","FIX","","","","","","","","","","",""
"html-keyboard-response","25","139924","0.0-5.0-2.4","64013f9fa92a5dd2d30c5575","bdp_wmem","Mon Mar 13 2023 14:48:57 GMT-0400 (Eastern Daylight Time)","673792","Match,No Match","","null","","","","","","<div class='trialBorder'><div class='vertical-center'><img style='vertical-align:center; align:center' src='img/fixation2_sml.jpg'></div><div class='arrayDiv1'><div class='tc'><img class='introPic' src='trustrating_stim/white_mw070.bmp'><br><font color='green'><strong>Share</strong></font></div></div></div>","null","ARRAY","1","trustrating_stim/white_mw070.bmp","1","noMatchFace","i","1500","","","","",""
"html-keyboard-response","26","143926","0.0-5.0-3.4","64013f9fa92a5dd2d30c5575","bdp_wmem","Mon Mar 13 2023 14:48:57 GMT-0400 (Eastern Daylight Time)","673792","Match,No Match","","null","","","","","","<div class='trialBorder'><div class='vertical-center'><img src='img/fixation2_sml.jpg'</img></div></div>","null","DELAY","","","","","","","","","","",""
"html-keyboard-response","27","146886","0.0-5.0-4.4","64013f9fa92a5dd2d30c5575","bdp_wmem","Mon Mar 13 2023 14:48:57 GMT-0400 (Eastern Daylight Time)","673792","Match,No Match","","2956","","","","","","<div class='trialBorder'><div class='targDiv'><div class='tc'><img class='introPic' src='trustrating_stim/white_mw078.bmp'><br><font color='green'><strong>Share</strong></font></div></div><div class='respDiv'><div class='respDivL'>Match<br>(e)</div><div class='respDivR'>No Match<br>(i)</div></div></div>","e","TARGET","1","trustrating_stim/white_mw070.bmp","1","noMatchFace","i","1500","trustrating_stim/white_mw078.bmp","green","Share","PRACTICE","0"
"html-keyboard-response","28","147388","0.0-5.0-5.4","64013f9fa92a5dd2d30c5575","bdp_wmem","Mon Mar 13 2023 14:48:57 GMT-0400 (Eastern Daylight Time)","673792","Match,No Match","","null","","","","","","<div class='trialBorder'><div class='vertical-center'><img src='img/error.jpg'></div><div class='respDiv'><div class='respDivL'><font style='color:orange'>Match<br>(e)</font></div><div class='respDivR'>No Match<br>(i)</div></div></div>","null","FEEDBACK","","","","","","","","","","",""
"html-keyboard-response","29","147890","0.0-5.0-1.5","64013f9fa92a5dd2d30c5575","bdp_wmem","Mon Mar 13 2023 14:48:57 GMT-0400 (Eastern Daylight Time)","673792","Match,No Match","","null","","","","","","<div class='trialBorder'><div class='vertical-center'><img src='img/fixation2_sml.jpg'</img></div></div>","null","FIX","","","","","","","","","","",""
"html-keyboard-response","30","150895","0.0-5.0-2.5","64013f9fa92a5dd2d30c5575","bdp_wmem","Mon Mar 13 2023 14:48:57 GMT-0400 (Eastern Daylight Time)","673792","Match,No Match","","null","","","","","","<div class='trialBorder'><div class='vertical-center'><img style='vertical-align:center; align:center' src='img/fixation2_sml.jpg'></div><div class='arrayDiv2'><div class='tl'><img class='introPic' src='trustrating_stim/white_mw012.bmp'><br><font color='green'><strong>Share</strong></font></div><div class='tr'><img class='introPic' src='trustrating_stim/white_mw092.bmp'><br><font color='red'><strong>Keep</strong></font></div></div></div>","null","ARRAY","2","trustrating_stim/white_mw012.bmp,trustrating_stim/white_mw092.bmp","1,0","noMatchFace","i","3000","","","","",""
"html-keyboard-response","31","154898","0.0-5.0-3.5","64013f9fa92a5dd2d30c5575","bdp_wmem","Mon Mar 13 2023 14:48:57 GMT-0400 (Eastern Daylight Time)","673792","Match,No Match","","null","","","","","","<div class='trialBorder'><div class='vertical-center'><img src='img/fixation2_sml.jpg'</img></div></div>","null","DELAY","","","","","","","","","","",""
"html-keyboard-response","32","156134","0.0-5.0-4.5","64013f9fa92a5dd2d30c5575","bdp_wmem","Mon Mar 13 2023 14:48:57 GMT-0400 (Eastern Daylight Time)","673792","Match,No Match","","1232","","","","","","<div class='trialBorder'><div class='targDiv'><div class='tc'><img class='introPic' src='trustrating_stim/white_mw091.bmp'><br><font color='green'><strong>Share</strong></font></div></div><div class='respDiv'><div class='respDivL'>Match<br>(e)</div><div class='respDivR'>No Match<br>(i)</div></div></div>","i","TARGET","2","trustrating_stim/white_mw012.bmp,trustrating_stim/white_mw092.bmp","1,0","noMatchFace","i","3000","trustrating_stim/white_mw091.bmp","green","Share","PRACTICE","1"
"html-keyboard-response","33","156637","0.0-5.0-5.5","64013f9fa92a5dd2d30c5575","bdp_wmem","Mon Mar 13 2023 14:48:57 GMT-0400 (Eastern Daylight Time)","673792","Match,No Match","","null","","","","","","<div class='trialBorder'><div class='vertical-center'><img src='img/correct.jpg'></div><div class='respDiv'><div class='respDivL'>Match<br>(e)</div><div class='respDivR'><font style='color:orange'>No Match<br>(i)</font></div></div></div>","null","FEEDBACK","","","","","","","","","","",""
"instructions","34","161502","0.0-6.0","64013f9fa92a5dd2d30c5575","bdp_wmem","Mon Mar 13 2023 14:48:57 GMT-0400 (Eastern Daylight Time)","673792","Match,No Match","[{""page_index"":0,""viewing_time"":4863}]","4864","","","","","","","","","","","","","","","","","","",""
"html-keyboard-response","35","162004","0.0-7.0-1.0","64013f9fa92a5dd2d30c5575","bdp_wmem","Mon Mar 13 2023 14:48:57 GMT-0400 (Eastern Daylight Time)","673792","Match,No Match","","null","","","","","","<div class='trialBorder'><div class='vertical-center'><img src='img/fixation2_sml.jpg'</img></div></div>","null","FIX","","","","","","","","","","",""
"html-keyboard-response","36","163509","0.0-7.0-2.0","64013f9fa92a5dd2d30c5575","bdp_wmem","Mon Mar 13 2023 14:48:57 GMT-0400 (Eastern Daylight Time)","673792","Match,No Match","","null","","","","","","<div class='trialBorder'><div class='vertical-center'><img style='vertical-align:center; align:center' src='img/fixation2_sml.jpg'></div><div class='arrayDiv1'><div class='tc'><img class='introPic' src='trustrating_stim/white_mw092.bmp'><br><font color='green'><strong>Share</strong></font></div></div></div>","null","ARRAY","1","trustrating_stim/white_mw092.bmp","1","noMatchOutcome","i","1500","","","","",""
"html-keyboard-response","37","167512","0.0-7.0-3.0","64013f9fa92a5dd2d30c5575","bdp_wmem","Mon Mar 13 2023 14:48:57 GMT-0400 (Eastern Daylight Time)","673792","Match,No Match","","null","","","","","","<div class='trialBorder'><div class='vertical-center'><img src='img/fixation2_sml.jpg'</img></div></div>","null","DELAY","","","","","","","","","","",""
"html-keyboard-response","38","169021","0.0-7.0-4.0","64013f9fa92a5dd2d30c5575","bdp_wmem","Mon Mar 13 2023 14:48:57 GMT-0400 (Eastern Daylight Time)","673792","Match,No Match","","1506","","","","","","<div class='trialBorder'><div class='targDiv'><div class='tc'><img class='introPic' src='trustrating_stim/white_mw092.bmp'><br><font color='red'><strong>Keep</strong></font></div></div><div class='respDiv'><div class='respDivL'>Match<br>(e)</div><div class='respDivR'>No Match<br>(i)</div></div></div>","e","TARGET","1","trustrating_stim/white_mw092.bmp","1","noMatchOutcome","i","1500","trustrating_stim/white_mw092.bmp","red","Keep","REAL","0"
"html-keyboard-response","39","169522","0.0-7.0-5.0","64013f9fa92a5dd2d30c5575","bdp_wmem","Mon Mar 13 2023 14:48:57 GMT-0400 (Eastern Daylight Time)","673792","Match,No Match","","null","","","","","","<div class='trialBorder'><div class='vertical-center'><img src='img/error.jpg'></div><div class='respDiv'><div class='respDivL'><font style='color:orange'>Match<br>(e)</font></div><div class='respDivR'>No Match<br>(i)</div></div></div>","null","FEEDBACK","","","","","","","","","","",""
"html-keyboard-response","40","170024","0.0-7.0-1.1","64013f9fa92a5dd2d30c5575","bdp_wmem","Mon Mar 13 2023 14:48:57 GMT-0400 (Eastern Daylight Time)","673792","Match,No Match","","null","","","","","","<div class='trialBorder'><div class='vertical-center'><img src='img/fixation2_sml.jpg'</img></div></div>","null","FIX","","","","","","","","","","",""
"html-keyboard-response","41","174528","0.0-7.0-2.1","64013f9fa92a5dd2d30c5575","bdp_wmem","Mon Mar 13 2023 14:48:57 GMT-0400 (Eastern Daylight Time)","673792","Match,No Match","","null","","","","","","<div class='trialBorder'><div class='vertical-center'><img style='vertical-align:center; align:center' src='img/fixation2_sml.jpg'></div><div class='arrayDiv3'><div class='tl'><img class='introPic' src='trustrating_stim/white_mw085.bmp'><br><font color='red'><strong>Keep</strong></font></div><div class='tc'><img class='introPic' src='trustrating_stim/white_mw078.bmp'><br><font color='red'><strong>Keep</strong></font></div><div class='tr'><img class='introPic' src='trustrating_stim/white_mw038.bmp'><br><font color='green'><strong>Share</strong></font></div></div></div>","null","ARRAY","3","trustrating_stim/white_mw085.bmp,trustrating_stim/white_mw078.bmp,trustrating_stim/white_mw038.bmp","0,0,1","noMatchFace","i","4500","","","","",""
"html-keyboard-response","42","178531","0.0-7.0-3.1","64013f9fa92a5dd2d30c5575","bdp_wmem","Mon Mar 13 2023 14:48:57 GMT-0400 (Eastern Daylight Time)","673792","Match,No Match","","null","","","","","","<div class='trialBorder'><div class='vertical-center'><img src='img/fixation2_sml.jpg'</img></div></div>","null","DELAY","","","","","","","","","","",""
"html-keyboard-response","43","181650","0.0-7.0-4.1","64013f9fa92a5dd2d30c5575","bdp_wmem","Mon Mar 13 2023 14:48:57 GMT-0400 (Eastern Daylight Time)","673792","Match,No Match","","3116","","","","","","<div class='trialBorder'><div class='targDiv'><div class='tc'><img class='introPic' src='trustrating_stim/white_mw042.bmp'><br><font color='green'><strong>Share</strong></font></div></div><div class='respDiv'><div class='respDivL'>Match<br>(e)</div><div class='respDivR'>No Match<br>(i)</div></div></div>","i","TARGET","3","trustrating_stim/white_mw085.bmp,trustrating_stim/white_mw078.bmp,trustrating_stim/white_mw038.bmp","0,0,1","noMatchFace","i","4500","trustrating_stim/white_mw042.bmp","green","Share","REAL","1"
"html-keyboard-response","44","182152","0.0-7.0-5.1","64013f9fa92a5dd2d30c5575","bdp_wmem","Mon Mar 13 2023 14:48:57 GMT-0400 (Eastern Daylight Time)","673792","Match,No Match","","null","","","","","","<div class='trialBorder'><div class='vertical-center'><img src='img/correct.jpg'></div><div class='respDiv'><div class='respDivL'>Match<br>(e)</div><div class='respDivR'><font style='color:orange'>No Match<br>(i)</font></div></div></div>","null","FEEDBACK","","","","","","","","","","",""
"html-keyboard-response","45","182655","0.0-7.0-1.2","64013f9fa92a5dd2d30c5575","bdp_wmem","Mon Mar 13 2023 14:48:57 GMT-0400 (Eastern Daylight Time)","673792","Match,No Match","","null","","","","","","<div class='trialBorder'><div class='vertical-center'><img src='img/fixation2_sml.jpg'</img></div></div>","null","FIX","","","","","","","","","","",""
"html-keyboard-response","46","185658","0.0-7.0-2.2","64013f9fa92a5dd2d30c5575","bdp_wmem","Mon Mar 13 2023 14:48:57 GMT-0400 (Eastern Daylight Time)","673792","Match,No Match","","null","","","","","","<div class='trialBorder'><div class='vertical-center'><img style='vertical-align:center; align:center' src='img/fixation2_sml.jpg'></div><div class='arrayDiv2'><div class='tl'><img class='introPic' src='trustrating_stim/white_mw038.bmp'><br><font color='green'><strong>Share</strong></font></div><div class='tr'><img class='introPic' src='trustrating_stim/white_mw010.bmp'><br><font color='red'><strong>Keep</strong></font></div></div></div>","null","ARRAY","2","trustrating_stim/white_mw038.bmp,trustrating_stim/white_mw010.bmp","1,0","Match","e","3000","","","","",""
"html-keyboard-response","47","189660","0.0-7.0-3.2","64013f9fa92a5dd2d30c5575","bdp_wmem","Mon Mar 13 2023 14:48:57 GMT-0400 (Eastern Daylight Time)","673792","Match,No Match","","null","","","","","","<div class='trialBorder'><div class='vertical-center'><img src='img/fixation2_sml.jpg'</img></div></div>","null","DELAY","","","","","","","","","","",""
"html-keyboard-response","48","194359","0.0-7.0-4.2","64013f9fa92a5dd2d30c5575","bdp_wmem","Mon Mar 13 2023 14:48:57 GMT-0400 (Eastern Daylight Time)","673792","Match,No Match","","4695","","","","","","<div class='trialBorder'><div class='targDiv'><div class='tc'><img class='introPic' src='trustrating_stim/white_mw010.bmp'><br><font color='red'><strong>Keep</strong></font></div></div><div class='respDiv'><div class='respDivL'>Match<br>(e)</div><div class='respDivR'>No Match<br>(i)</div></div></div>","e","TARGET","2","trustrating_stim/white_mw038.bmp,trustrating_stim/white_mw010.bmp","1,0","Match","e","3000","trustrating_stim/white_mw010.bmp","red","Keep","REAL","1"
"html-keyboard-response","49","194860","0.0-7.0-5.2","64013f9fa92a5dd2d30c5575","bdp_wmem","Mon Mar 13 2023 14:48:57 GMT-0400 (Eastern Daylight Time)","673792","Match,No Match","","null","","","","","","<div class='trialBorder'><div class='vertical-center'><img src='img/correct.jpg'></div><div class='respDiv'><div class='respDivL'><font style='color:orange'>Match<br>(e)</font></div><div class='respDivR'>No Match<br>(i)</div></div></div>","null","FEEDBACK","","","","","","","","","","",""
"html-keyboard-response","50","195363","0.0-7.0-1.3","64013f9fa92a5dd2d30c5575","bdp_wmem","Mon Mar 13 2023 14:48:57 GMT-0400 (Eastern Daylight Time)","673792","Match,No Match","","null","","","","","","<div class='trialBorder'><div class='vertical-center'><img src='img/fixation2_sml.jpg'</img></div></div>","null","FIX","","","","","","","","","","",""
"html-keyboard-response","51","196867","0.0-7.0-2.3","64013f9fa92a5dd2d30c5575","bdp_wmem","Mon Mar 13 2023 14:48:57 GMT-0400 (Eastern Daylight Time)","673792","Match,No Match","","null","","","","","","<div class='trialBorder'><div class='vertical-center'><img style='vertical-align:center; align:center' src='img/fixation2_sml.jpg'></div><div class='arrayDiv1'><div class='tc'><img class='introPic' src='trustrating_stim/white_mw085.bmp'><br><font color='green'><strong>Share</strong></font></div></div></div>","null","ARRAY","1","trustrating_stim/white_mw085.bmp","1","Match","e","1500","","","","",""
"html-keyboard-response","52","200871","0.0-7.0-3.3","64013f9fa92a5dd2d30c5575","bdp_wmem","Mon Mar 13 2023 14:48:57 GMT-0400 (Eastern Daylight Time)","673792","Match,No Match","","null","","","","","","<div class='trialBorder'><div class='vertical-center'><img src='img/fixation2_sml.jpg'</img></div></div>","null","DELAY","","","","","","","","","","",""
"html-keyboard-response","53","201921","0.0-7.0-4.3","64013f9fa92a5dd2d30c5575","bdp_wmem","Mon Mar 13 2023 14:48:57 GMT-0400 (Eastern Daylight Time)","673792","Match,No Match","","1048","","","","","","<div class='trialBorder'><div class='targDiv'><div class='tc'><img class='introPic' src='trustrating_stim/white_mw085.bmp'><br><font color='green'><strong>Share</strong></font></div></div><div class='respDiv'><div class='respDivL'>Match<br>(e)</div><div class='respDivR'>No Match<br>(i)</div></div></div>","e","TARGET","1","trustrating_stim/white_mw085.bmp","1","Match","e","1500","trustrating_stim/white_mw085.bmp","green","Share","REAL","1"
"html-keyboard-response","54","202422","0.0-7.0-5.3","64013f9fa92a5dd2d30c5575","bdp_wmem","Mon Mar 13 2023 14:48:57 GMT-0400 (Eastern Daylight Time)","673792","Match,No Match","","null","","","","","","<div class='trialBorder'><div class='vertical-center'><img src='img/correct.jpg'></div><div class='respDiv'><div class='respDivL'><font style='color:orange'>Match<br>(e)</font></div><div class='respDivR'>No Match<br>(i)</div></div></div>","null","FEEDBACK","","","","","","","","","","",""
"html-keyboard-response","55","202925","0.0-7.0-1.4","64013f9fa92a5dd2d30c5575","bdp_wmem","Mon Mar 13 2023 14:48:57 GMT-0400 (Eastern Daylight Time)","673792","Match,No Match","","null","","","","","","<div class='trialBorder'><div class='vertical-center'><img src='img/fixation2_sml.jpg'</img></div></div>","null","FIX","","","","","","","","","","",""
"html-keyboard-response","56","207429","0.0-7.0-2.4","64013f9fa92a5dd2d30c5575","bdp_wmem","Mon Mar 13 2023 14:48:57 GMT-0400 (Eastern Daylight Time)","673792","Match,No Match","","null","","","","","","<div class='trialBorder'><div class='vertical-center'><img style='vertical-align:center; align:center' src='img/fixation2_sml.jpg'></div><div class='arrayDiv3'><div class='tl'><img class='introPic' src='trustrating_stim/white_mw038.bmp'><br><font color='red'><strong>Keep</strong></font></div><div class='tc'><img class='introPic' src='trustrating_stim/white_mw042.bmp'><br><font color='red'><strong>Keep</strong></font></div><div class='tr'><img class='introPic' src='trustrating_stim/white_mw070.bmp'><br><font color='green'><strong>Share</strong></font></div></div></div>","null","ARRAY","3","trustrating_stim/white_mw038.bmp,trustrating_stim/white_mw042.bmp,trustrating_stim/white_mw070.bmp","0,0,1","noMatchFace","i","4500","","","","",""
"html-keyboard-response","57","211431","0.0-7.0-3.4","64013f9fa92a5dd2d30c5575","bdp_wmem","Mon Mar 13 2023 14:48:57 GMT-0400 (Eastern Daylight Time)","673792","Match,No Match","","null","","","","","","<div class='trialBorder'><div class='vertical-center'><img src='img/fixation2_sml.jpg'</img></div></div>","null","DELAY","","","","","","","","","","",""
"html-keyboard-response","58","214033","0.0-7.0-4.4","64013f9fa92a5dd2d30c5575","bdp_wmem","Mon Mar 13 2023 14:48:57 GMT-0400 (Eastern Daylight Time)","673792","Match,No Match","","2598","","","","","","<div class='trialBorder'><div class='targDiv'><div class='tc'><img class='introPic' src='trustrating_stim/white_mw040.bmp'><br><font color='red'><strong>Keep</strong></font></div></div><div class='respDiv'><div class='respDivL'>Match<br>(e)</div><div class='respDivR'>No Match<br>(i)</div></div></div>","i","TARGET","3","trustrating_stim/white_mw038.bmp,trustrating_stim/white_mw042.bmp,trustrating_stim/white_mw070.bmp","0,0,1","noMatchFace","i","4500","trustrating_stim/white_mw040.bmp","red","Keep","REAL","1"
"html-keyboard-response","59","214536","0.0-7.0-5.4","64013f9fa92a5dd2d30c5575","bdp_wmem","Mon Mar 13 2023 14:48:57 GMT-0400 (Eastern Daylight Time)","673792","Match,No Match","","null","","","","","","<div class='trialBorder'><div class='vertical-center'><img src='img/correct.jpg'></div><div class='respDiv'><div class='respDivL'>Match<br>(e)</div><div class='respDivR'><font style='color:orange'>No Match<br>(i)</font></div></div></div>","null","FEEDBACK","","","","","","","","","","",""
"html-keyboard-response","60","215039","0.0-7.0-1.5","64013f9fa92a5dd2d30c5575","bdp_wmem","Mon Mar 13 2023 14:48:57 GMT-0400 (Eastern Daylight Time)","673792","Match,No Match","","null","","","","","","<div class='trialBorder'><div class='vertical-center'><img src='img/fixation2_sml.jpg'</img></div></div>","null","FIX","","","","","","","","","","",""
"html-keyboard-response","61","218042","0.0-7.0-2.5","64013f9fa92a5dd2d30c5575","bdp_wmem","Mon Mar 13 2023 14:48:57 GMT-0400 (Eastern Daylight Time)","673792","Match,No Match","","null","","","","","","<div class='trialBorder'><div class='vertical-center'><img style='vertical-align:center; align:center' src='img/fixation2_sml.jpg'></div><div class='arrayDiv2'><div class='tl'><img class='introPic' src='trustrating_stim/white_mw010.bmp'><br><font color='red'><strong>Keep</strong></font></div><div class='tr'><img class='introPic' src='trustrating_stim/white_mw013.bmp'><br><font color='green'><strong>Share</strong></font></div></div></div>","null","ARRAY","2","trustrating_stim/white_mw010.bmp,trustrating_stim/white_mw013.bmp","0,1","Match","e","3000","","","","",""
"html-keyboard-response","62","222044","0.0-7.0-3.5","64013f9fa92a5dd2d30c5575","bdp_wmem","Mon Mar 13 2023 14:48:57 GMT-0400 (Eastern Daylight Time)","673792","Match,No Match","","null","","","","","","<div class='trialBorder'><div class='vertical-center'><img src='img/fixation2_sml.jpg'</img></div></div>","null","DELAY","","","","","","","","","","",""
"html-keyboard-response","63","225474","0.0-7.0-4.5","64013f9fa92a5dd2d30c5575","bdp_wmem","Mon Mar 13 2023 14:48:57 GMT-0400 (Eastern Daylight Time)","673792","Match,No Match","","3426","","","","","","<div class='trialBorder'><div class='targDiv'><div class='tc'><img class='introPic' src='trustrating_stim/white_mw013.bmp'><br><font color='green'><strong>Share</strong></font></div></div><div class='respDiv'><div class='respDivL'>Match<br>(e)</div><div class='respDivR'>No Match<br>(i)</div></div></div>","e","TARGET","2","trustrating_stim/white_mw010.bmp,trustrating_stim/white_mw013.bmp","0,1","Match","e","3000","trustrating_stim/white_mw013.bmp","green","Share","REAL","1"
"html-keyboard-response","64","225977","0.0-7.0-5.5","64013f9fa92a5dd2d30c5575","bdp_wmem","Mon Mar 13 2023 14:48:57 GMT-0400 (Eastern Daylight Time)","673792","Match,No Match","","null","","","","","","<div class='trialBorder'><div class='vertical-center'><img src='img/correct.jpg'></div><div class='respDiv'><div class='respDivL'><font style='color:orange'>Match<br>(e)</font></div><div class='respDivR'>No Match<br>(i)</div></div></div>","null","FEEDBACK","","","","","","","","","","",""
"html-keyboard-response","65","226480","0.0-7.0-1.6","64013f9fa92a5dd2d30c5575","bdp_wmem","Mon Mar 13 2023 14:48:57 GMT-0400 (Eastern Daylight Time)","673792","Match,No Match","","null","","","","","","<div class='trialBorder'><div class='vertical-center'><img src='img/fixation2_sml.jpg'</img></div></div>","null","FIX","","","","","","","","","","",""
"html-keyboard-response","66","230985","0.0-7.0-2.6","64013f9fa92a5dd2d30c5575","bdp_wmem","Mon Mar 13 2023 14:48:57 GMT-0400 (Eastern Daylight Time)","673792","Match,No Match","","null","","","","","","<div class='trialBorder'><div class='vertical-center'><img style='vertical-align:center; align:center' src='img/fixation2_sml.jpg'></div><div class='arrayDiv3'><div class='tl'><img class='introPic' src='trustrating_stim/white_mw092.bmp'><br><font color='red'><strong>Keep</strong></font></div><div class='tc'><img class='introPic' src='trustrating_stim/white_mw003.bmp'><br><font color='red'><strong>Keep</strong></font></div><div class='tr'><img class='introPic' src='trustrating_stim/white_mw013.bmp'><br><font color='green'><strong>Share</strong></font></div></div></div>","null","ARRAY","3","trustrating_stim/white_mw092.bmp,trustrating_stim/white_mw003.bmp,trustrating_stim/white_mw013.bmp","0,0,1","noMatchOutcome","i","4500","","","","",""
"html-keyboard-response","67","234988","0.0-7.0-3.6","64013f9fa92a5dd2d30c5575","bdp_wmem","Mon Mar 13 2023 14:48:57 GMT-0400 (Eastern Daylight Time)","673792","Match,No Match","","null","","","","","","<div class='trialBorder'><div class='vertical-center'><img src='img/fixation2_sml.jpg'</img></div></div>","null","DELAY","","","","","","","","","","",""
"html-keyboard-response","68","240019","0.0-7.0-4.6","64013f9fa92a5dd2d30c5575","bdp_wmem","Mon Mar 13 2023 14:48:57 GMT-0400 (Eastern Daylight Time)","673792","Match,No Match","","5027","","","","","","<div class='trialBorder'><div class='targDiv'><div class='tc'><img class='introPic' src='trustrating_stim/white_mw013.bmp'><br><font color='red'><strong>Keep</strong></font></div></div><div class='respDiv'><div class='respDivL'>Match<br>(e)</div><div class='respDivR'>No Match<br>(i)</div></div></div>","e","TARGET","3","trustrating_stim/white_mw092.bmp,trustrating_stim/white_mw003.bmp,trustrating_stim/white_mw013.bmp","0,0,1","noMatchOutcome","i","4500","trustrating_stim/white_mw013.bmp","red","Keep","REAL","0"
"html-keyboard-response","69","240521","0.0-7.0-5.6","64013f9fa92a5dd2d30c5575","bdp_wmem","Mon Mar 13 2023 14:48:57 GMT-0400 (Eastern Daylight Time)","673792","Match,No Match","","null","","","","","","<div class='trialBorder'><div class='vertical-center'><img src='img/error.jpg'></div><div class='respDiv'><div class='respDivL'><font style='color:orange'>Match<br>(e)</font></div><div class='respDivR'>No Match<br>(i)</div></div></div>","null","FEEDBACK","","","","","","","","","","",""
"html-keyboard-response","70","241023","0.0-7.0-1.7","64013f9fa92a5dd2d30c5575","bdp_wmem","Mon Mar 13 2023 14:48:57 GMT-0400 (Eastern Daylight Time)","673792","Match,No Match","","null","","","","","","<div class='trialBorder'><div class='vertical-center'><img src='img/fixation2_sml.jpg'</img></div></div>","null","FIX","","","","","","","","","","",""
"html-keyboard-response","71","245528","0.0-7.0-2.7","64013f9fa92a5dd2d30c5575","bdp_wmem","Mon Mar 13 2023 14:48:57 GMT-0400 (Eastern Daylight Time)","673792","Match,No Match","","null","","","","","","<div class='trialBorder'><div class='vertical-center'><img style='vertical-align:center; align:center' src='img/fixation2_sml.jpg'></div><div class='arrayDiv3'><div class='tl'><img class='introPic' src='trustrating_stim/white_mw078.bmp'><br><font color='red'><strong>Keep</strong></font></div><div class='tc'><img class='introPic' src='trustrating_stim/white_mw013.bmp'><br><font color='green'><strong>Share</strong></font></div><div class='tr'><img class='introPic' src='trustrating_stim/white_mw070.bmp'><br><font color='green'><strong>Share</strong></font></div></div></div>","null","ARRAY","3","trustrating_stim/white_mw078.bmp,trustrating_stim/white_mw013.bmp,trustrating_stim/white_mw070.bmp","0,1,1","Match","e","4500","","","","",""
"html-keyboard-response","72","249530","0.0-7.0-3.7","64013f9fa92a5dd2d30c5575","bdp_wmem","Mon Mar 13 2023 14:48:57 GMT-0400 (Eastern Daylight Time)","673792","Match,No Match","","null","","","","","","<div class='trialBorder'><div class='vertical-center'><img src='img/fixation2_sml.jpg'</img></div></div>","null","DELAY","","","","","","","","","","",""
"html-keyboard-response","73","251153","0.0-7.0-4.7","64013f9fa92a5dd2d30c5575","bdp_wmem","Mon Mar 13 2023 14:48:57 GMT-0400 (Eastern Daylight Time)","673792","Match,No Match","","1620","","","","","","<div class='trialBorder'><div class='targDiv'><div class='tc'><img class='introPic' src='trustrating_stim/white_mw013.bmp'><br><font color='green'><strong>Share</strong></font></div></div><div class='respDiv'><div class='respDivL'>Match<br>(e)</div><div class='respDivR'>No Match<br>(i)</div></div></div>","e","TARGET","3","trustrating_stim/white_mw078.bmp,trustrating_stim/white_mw013.bmp,trustrating_stim/white_mw070.bmp","0,1,1","Match","e","4500","trustrating_stim/white_mw013.bmp","green","Share","REAL","1"
"html-keyboard-response","74","251655","0.0-7.0-5.7","64013f9fa92a5dd2d30c5575","bdp_wmem","Mon Mar 13 2023 14:48:57 GMT-0400 (Eastern Daylight Time)","673792","Match,No Match","","null","","","","","","<div class='trialBorder'><div class='vertical-center'><img src='img/correct.jpg'></div><div class='respDiv'><div class='respDivL'><font style='color:orange'>Match<br>(e)</font></div><div class='respDivR'>No Match<br>(i)</div></div></div>","null","FEEDBACK","","","","","","","","","","",""
"html-keyboard-response","75","252157","0.0-7.0-1.8","64013f9fa92a5dd2d30c5575","bdp_wmem","Mon Mar 13 2023 14:48:57 GMT-0400 (Eastern Daylight Time)","673792","Match,No Match","","null","","","","","","<div class='trialBorder'><div class='vertical-center'><img src='img/fixation2_sml.jpg'</img></div></div>","null","FIX","","","","","","","","","","",""
"html-keyboard-response","76","253660","0.0-7.0-2.8","64013f9fa92a5dd2d30c5575","bdp_wmem","Mon Mar 13 2023 14:48:57 GMT-0400 (Eastern Daylight Time)","673792","Match,No Match","","null","","","","","","<div class='trialBorder'><div class='vertical-center'><img style='vertical-align:center; align:center' src='img/fixation2_sml.jpg'></div><div class='arrayDiv1'><div class='tc'><img class='introPic' src='trustrating_stim/white_mw092.bmp'><br><font color='red'><strong>Keep</strong></font></div></div></div>","null","ARRAY","1","trustrating_stim/white_mw092.bmp","0","noMatchFace","i","1500","","","","",""
"html-keyboard-response","77","257663","0.0-7.0-3.8","64013f9fa92a5dd2d30c5575","bdp_wmem","Mon Mar 13 2023 14:48:57 GMT-0400 (Eastern Daylight Time)","673792","Match,No Match","","null","","","","","","<div class='trialBorder'><div class='vertical-center'><img src='img/fixation2_sml.jpg'</img></div></div>","null","DELAY","","","","","","","","","","",""
"html-keyboard-response","78","259488","0.0-7.0-4.8","64013f9fa92a5dd2d30c5575","bdp_wmem","Mon Mar 13 2023 14:48:57 GMT-0400 (Eastern Daylight Time)","673792","Match,No Match","","1821","","","","","","<div class='trialBorder'><div class='targDiv'><div class='tc'><img class='introPic' src='trustrating_stim/white_mw010.bmp'><br><font color='red'><strong>Keep</strong></font></div></div><div class='respDiv'><div class='respDivL'>Match<br>(e)</div><div class='respDivR'>No Match<br>(i)</div></div></div>","i","TARGET","1","trustrating_stim/white_mw092.bmp","0","noMatchFace","i","1500","trustrating_stim/white_mw010.bmp","red","Keep","REAL","1"
"html-keyboard-response","79","259990","0.0-7.0-5.8","64013f9fa92a5dd2d30c5575","bdp_wmem","Mon Mar 13 2023 14:48:57 GMT-0400 (Eastern Daylight Time)","673792","Match,No Match","","null","","","","","","<div class='trialBorder'><div class='vertical-center'><img src='img/correct.jpg'></div><div class='respDiv'><div class='respDivL'>Match<br>(e)</div><div class='respDivR'><font style='color:orange'>No Match<br>(i)</font></div></div></div>","null","FEEDBACK","","","","","","","","","","",""
"html-keyboard-response","80","260492","0.0-7.0-1.9","64013f9fa92a5dd2d30c5575","bdp_wmem","Mon Mar 13 2023 14:48:57 GMT-0400 (Eastern Daylight Time)","673792","Match,No Match","","null","","","","","","<div class='trialBorder'><div class='vertical-center'><img src='img/fixation2_sml.jpg'</img></div></div>","null","FIX","","","","","","","","","","",""
"html-keyboard-response","81","263495","0.0-7.0-2.9","64013f9fa92a5dd2d30c5575","bdp_wmem","Mon Mar 13 2023 14:48:57 GMT-0400 (Eastern Daylight Time)","673792","Match,No Match","","null","","","","","","<div class='trialBorder'><div class='vertical-center'><img style='vertical-align:center; align:center' src='img/fixation2_sml.jpg'></div><div class='arrayDiv2'><div class='tl'><img class='introPic' src='trustrating_stim/white_mw040.bmp'><br><font color='green'><strong>Share</strong></font></div><div class='tr'><img class='introPic' src='trustrating_stim/white_mw010.bmp'><br><font color='red'><strong>Keep</strong></font></div></div></div>","null","ARRAY","2","trustrating_stim/white_mw040.bmp,trustrating_stim/white_mw010.bmp","1,0","noMatchOutcome","i","3000","","","","",""
"html-keyboard-response","82","267497","0.0-7.0-3.9","64013f9fa92a5dd2d30c5575","bdp_wmem","Mon Mar 13 2023 14:48:57 GMT-0400 (Eastern Daylight Time)","673792","Match,No Match","","null","","","","","","<div class='trialBorder'><div class='vertical-center'><img src='img/fixation2_sml.jpg'</img></div></div>","null","DELAY","","","","","","","","","","",""
"html-keyboard-response","83","270456","0.0-7.0-4.9","64013f9fa92a5dd2d30c5575","bdp_wmem","Mon Mar 13 2023 14:48:57 GMT-0400 (Eastern Daylight Time)","673792","Match,No Match","","2958","","","","","","<div class='trialBorder'><div class='targDiv'><div class='tc'><img class='introPic' src='trustrating_stim/white_mw040.bmp'><br><font color='red'><strong>Keep</strong></font></div></div><div class='respDiv'><div class='respDivL'>Match<br>(e)</div><div class='respDivR'>No Match<br>(i)</div></div></div>","e","TARGET","2","trustrating_stim/white_mw040.bmp,trustrating_stim/white_mw010.bmp","1,0","noMatchOutcome","i","3000","trustrating_stim/white_mw040.bmp","red","Keep","REAL","0"
"html-keyboard-response","84","270959","0.0-7.0-5.9","64013f9fa92a5dd2d30c5575","bdp_wmem","Mon Mar 13 2023 14:48:57 GMT-0400 (Eastern Daylight Time)","673792","Match,No Match","","null","","","","","","<div class='trialBorder'><div class='vertical-center'><img src='img/error.jpg'></div><div class='respDiv'><div class='respDivL'><font style='color:orange'>Match<br>(e)</font></div><div class='respDivR'>No Match<br>(i)</div></div></div>","null","FEEDBACK","","","","","","","","","","",""
"html-keyboard-response","85","271461","0.0-7.0-1.10","64013f9fa92a5dd2d30c5575","bdp_wmem","Mon Mar 13 2023 14:48:57 GMT-0400 (Eastern Daylight Time)","673792","Match,No Match","","null","","","","","","<div class='trialBorder'><div class='vertical-center'><img src='img/fixation2_sml.jpg'</img></div></div>","null","FIX","","","","","","","","","","",""
"html-keyboard-response","86","274467","0.0-7.0-2.10","64013f9fa92a5dd2d30c5575","bdp_wmem","Mon Mar 13 2023 14:48:57 GMT-0400 (Eastern Daylight Time)","673792","Match,No Match","","null","","","","","","<div class='trialBorder'><div class='vertical-center'><img style='vertical-align:center; align:center' src='img/fixation2_sml.jpg'></div><div class='arrayDiv2'><div class='tl'><img class='introPic' src='trustrating_stim/white_mw010.bmp'><br><font color='green'><strong>Share</strong></font></div><div class='tr'><img class='introPic' src='trustrating_stim/white_mw040.bmp'><br><font color='red'><strong>Keep</strong></font></div></div></div>","null","ARRAY","2","trustrating_stim/white_mw010.bmp,trustrating_stim/white_mw040.bmp","1,0","noMatchOutcome","i","3000","","","","",""
"html-keyboard-response","87","278469","0.0-7.0-3.10","64013f9fa92a5dd2d30c5575","bdp_wmem","Mon Mar 13 2023 14:48:57 GMT-0400 (Eastern Daylight Time)","673792","Match,No Match","","null","","","","","","<div class='trialBorder'><div class='vertical-center'><img src='img/fixation2_sml.jpg'</img></div></div>","null","DELAY","","","","","","","","","","",""
"html-keyboard-response","88","281851","0.0-7.0-4.10","64013f9fa92a5dd2d30c5575","bdp_wmem","Mon Mar 13 2023 14:48:57 GMT-0400 (Eastern Daylight Time)","673792","Match,No Match","","3381","","","","","","<div class='trialBorder'><div class='targDiv'><div class='tc'><img class='introPic' src='trustrating_stim/white_mw040.bmp'><br><font color='green'><strong>Share</strong></font></div></div><div class='respDiv'><div class='respDivL'>Match<br>(e)</div><div class='respDivR'>No Match<br>(i)</div></div></div>","i","TARGET","2","trustrating_stim/white_mw010.bmp,trustrating_stim/white_mw040.bmp","1,0","noMatchOutcome","i","3000","trustrating_stim/white_mw040.bmp","green","Share","REAL","1"
"html-keyboard-response","89","282354","0.0-7.0-5.10","64013f9fa92a5dd2d30c5575","bdp_wmem","Mon Mar 13 2023 14:48:57 GMT-0400 (Eastern Daylight Time)","673792","Match,No Match","","null","","","","","","<div class='trialBorder'><div class='vertical-center'><img src='img/correct.jpg'></div><div class='respDiv'><div class='respDivL'>Match<br>(e)</div><div class='respDivR'><font style='color:orange'>No Match<br>(i)</font></div></div></div>","null","FEEDBACK","","","","","","","","","","",""
"html-keyboard-response","90","282857","0.0-7.0-1.11","64013f9fa92a5dd2d30c5575","bdp_wmem","Mon Mar 13 2023 14:48:57 GMT-0400 (Eastern Daylight Time)","673792","Match,No Match","","null","","","","","","<div class='trialBorder'><div class='vertical-center'><img src='img/fixation2_sml.jpg'</img></div></div>","null","FIX","","","","","","","","","","",""
"html-keyboard-response","91","287362","0.0-7.0-2.11","64013f9fa92a5dd2d30c5575","bdp_wmem","Mon Mar 13 2023 14:48:57 GMT-0400 (Eastern Daylight Time)","673792","Match,No Match","","null","","","","","","<div class='trialBorder'><div class='vertical-center'><img style='vertical-align:center; align:center' src='img/fixation2_sml.jpg'></div><div class='arrayDiv3'><div class='tl'><img class='introPic' src='trustrating_stim/white_mw042.bmp'><br><font color='green'><strong>Share</strong></font></div><div class='tc'><img class='introPic' src='trustrating_stim/white_mw040.bmp'><br><font color='red'><strong>Keep</strong></font></div><div class='tr'><img class='introPic' src='trustrating_stim/white_mw012.bmp'><br><font color='red'><strong>Keep</strong></font></div></div></div>","null","ARRAY","3","trustrating_stim/white_mw042.bmp,trustrating_stim/white_mw040.bmp,trustrating_stim/white_mw012.bmp","1,0,0","noMatchFace","i","4500","","","","",""
"html-keyboard-response","92","291364","0.0-7.0-3.11","64013f9fa92a5dd2d30c5575","bdp_wmem","Mon Mar 13 2023 14:48:57 GMT-0400 (Eastern Daylight Time)","673792","Match,No Match","","null","","","","","","<div class='trialBorder'><div class='vertical-center'><img src='img/fixation2_sml.jpg'</img></div></div>","null","DELAY","","","","","","","","","","",""
"html-keyboard-response","93","293833","0.0-7.0-4.11","64013f9fa92a5dd2d30c5575","bdp_wmem","Mon Mar 13 2023 14:48:57 GMT-0400 (Eastern Daylight Time)","673792","Match,No Match","","2465","","","","","","<div class='trialBorder'><div class='targDiv'><div class='tc'><img class='introPic' src='trustrating_stim/white_mw038.bmp'><br><font color='green'><strong>Share</strong></font></div></div><div class='respDiv'><div class='respDivL'>Match<br>(e)</div><div class='respDivR'>No Match<br>(i)</div></div></div>","i","TARGET","3","trustrating_stim/white_mw042.bmp,trustrating_stim/white_mw040.bmp,trustrating_stim/white_mw012.bmp","1,0,0","noMatchFace","i","4500","trustrating_stim/white_mw038.bmp","green","Share","REAL","1"
"html-keyboard-response","94","294336","0.0-7.0-5.11","64013f9fa92a5dd2d30c5575","bdp_wmem","Mon Mar 13 2023 14:48:57 GMT-0400 (Eastern Daylight Time)","673792","Match,No Match","","null","","","","","","<div class='trialBorder'><div class='vertical-center'><img src='img/correct.jpg'></div><div class='respDiv'><div class='respDivL'>Match<br>(e)</div><div class='respDivR'><font style='color:orange'>No Match<br>(i)</font></div></div></div>","null","FEEDBACK","","","","","","","","","","",""
"html-keyboard-response","95","294838","0.0-7.0-1.12","64013f9fa92a5dd2d30c5575","bdp_wmem","Mon Mar 13 2023 14:48:57 GMT-0400 (Eastern Daylight Time)","673792","Match,No Match","","null","","","","","","<div class='trialBorder'><div class='vertical-center'><img src='img/fixation2_sml.jpg'</img></div></div>","null","FIX","","","","","","","","","","",""
"html-keyboard-response","96","299343","0.0-7.0-2.12","64013f9fa92a5dd2d30c5575","bdp_wmem","Mon Mar 13 2023 14:48:57 GMT-0400 (Eastern Daylight Time)","673792","Match,No Match","","null","","","","","","<div class='trialBorder'><div class='vertical-center'><img style='vertical-align:center; align:center' src='img/fixation2_sml.jpg'></div><div class='arrayDiv3'><div class='tl'><img class='introPic' src='trustrating_stim/white_mw010.bmp'><br><font color='green'><strong>Share</strong></font></div><div class='tc'><img class='introPic' src='trustrating_stim/white_mw078.bmp'><br><font color='red'><strong>Keep</strong></font></div><div class='tr'><img class='introPic' src='trustrating_stim/white_mw070.bmp'><br><font color='red'><strong>Keep</strong></font></div></div></div>","null","ARRAY","3","trustrating_stim/white_mw010.bmp,trustrating_stim/white_mw078.bmp,trustrating_stim/white_mw070.bmp","1,0,0","Match","e","4500","","","","",""
"html-keyboard-response","97","303346","0.0-7.0-3.12","64013f9fa92a5dd2d30c5575","bdp_wmem","Mon Mar 13 2023 14:48:57 GMT-0400 (Eastern Daylight Time)","673792","Match,No Match","","null","","","","","","<div class='trialBorder'><div class='vertical-center'><img src='img/fixation2_sml.jpg'</img></div></div>","null","DELAY","","","","","","","","","","",""
"html-keyboard-response","98","306081","0.0-7.0-4.12","64013f9fa92a5dd2d30c5575","bdp_wmem","Mon Mar 13 2023 14:48:57 GMT-0400 (Eastern Daylight Time)","673792","Match,No Match","","2732","","","","","","<div class='trialBorder'><div class='targDiv'><div class='tc'><img class='introPic' src='trustrating_stim/white_mw078.bmp'><br><font color='red'><strong>Keep</strong></font></div></div><div class='respDiv'><div class='respDivL'>Match<br>(e)</div><div class='respDivR'>No Match<br>(i)</div></div></div>","e","TARGET","3","trustrating_stim/white_mw010.bmp,trustrating_stim/white_mw078.bmp,trustrating_stim/white_mw070.bmp","1,0,0","Match","e","4500","trustrating_stim/white_mw078.bmp","red","Keep","REAL","1"
"html-keyboard-response","99","306584","0.0-7.0-5.12","64013f9fa92a5dd2d30c5575","bdp_wmem","Mon Mar 13 2023 14:48:57 GMT-0400 (Eastern Daylight Time)","673792","Match,No Match","","null","","","","","","<div class='trialBorder'><div class='vertical-center'><img src='img/correct.jpg'></div><div class='respDiv'><div class='respDivL'><font style='color:orange'>Match<br>(e)</font></div><div class='respDivR'>No Match<br>(i)</div></div></div>","null","FEEDBACK","","","","","","","","","","",""
"html-keyboard-response","100","307087","0.0-7.0-1.13","64013f9fa92a5dd2d30c5575","bdp_wmem","Mon Mar 13 2023 14:48:57 GMT-0400 (Eastern Daylight Time)","673792","Match,No Match","","null","","","","","","<div class='trialBorder'><div class='vertical-center'><img src='img/fixation2_sml.jpg'</img></div></div>","null","FIX","","","","","","","","","","",""
"html-keyboard-response","101","308591","0.0-7.0-2.13","64013f9fa92a5dd2d30c5575","bdp_wmem","Mon Mar 13 2023 14:48:57 GMT-0400 (Eastern Daylight Time)","673792","Match,No Match","","null","","","","","","<div class='trialBorder'><div class='vertical-center'><img style='vertical-align:center; align:center' src='img/fixation2_sml.jpg'></div><div class='arrayDiv1'><div class='tc'><img class='introPic' src='trustrating_stim/white_mw003.bmp'><br><font color='red'><strong>Keep</strong></font></div></div></div>","null","ARRAY","1","trustrating_stim/white_mw003.bmp","0","Match","e","1500","","","","",""
"html-keyboard-response","102","312594","0.0-7.0-3.13","64013f9fa92a5dd2d30c5575","bdp_wmem","Mon Mar 13 2023 14:48:57 GMT-0400 (Eastern Daylight Time)","673792","Match,No Match","","null","","","","","","<div class='trialBorder'><div class='vertical-center'><img src='img/fixation2_sml.jpg'</img></div></div>","null","DELAY","","","","","","","","","","",""
"html-keyboard-response","103","314515","0.0-7.0-4.13","64013f9fa92a5dd2d30c5575","bdp_wmem","Mon Mar 13 2023 14:48:57 GMT-0400 (Eastern Daylight Time)","673792","Match,No Match","","1918","","","","","","<div class='trialBorder'><div class='targDiv'><div class='tc'><img class='introPic' src='trustrating_stim/white_mw003.bmp'><br><font color='red'><strong>Keep</strong></font></div></div><div class='respDiv'><div class='respDivL'>Match<br>(e)</div><div class='respDivR'>No Match<br>(i)</div></div></div>","e","TARGET","1","trustrating_stim/white_mw003.bmp","0","Match","e","1500","trustrating_stim/white_mw003.bmp","red","Keep","REAL","1"
"html-keyboard-response","104","315018","0.0-7.0-5.13","64013f9fa92a5dd2d30c5575","bdp_wmem","Mon Mar 13 2023 14:48:57 GMT-0400 (Eastern Daylight Time)","673792","Match,No Match","","null","","","","","","<div class='trialBorder'><div class='vertical-center'><img src='img/correct.jpg'></div><div class='respDiv'><div class='respDivL'><font style='color:orange'>Match<br>(e)</font></div><div class='respDivR'>No Match<br>(i)</div></div></div>","null","FEEDBACK","","","","","","","","","","",""
"html-keyboard-response","105","315520","0.0-7.0-1.14","64013f9fa92a5dd2d30c5575","bdp_wmem","Mon Mar 13 2023 14:48:57 GMT-0400 (Eastern Daylight Time)","673792","Match,No Match","","null","","","","","","<div class='trialBorder'><div class='vertical-center'><img src='img/fixation2_sml.jpg'</img></div></div>","null","FIX","","","","","","","","","","",""
"html-keyboard-response","106","320024","0.0-7.0-2.14","64013f9fa92a5dd2d30c5575","bdp_wmem","Mon Mar 13 2023 14:48:57 GMT-0400 (Eastern Daylight Time)","673792","Match,No Match","","null","","","","","","<div class='trialBorder'><div class='vertical-center'><img style='vertical-align:center; align:center' src='img/fixation2_sml.jpg'></div><div class='arrayDiv3'><div class='tl'><img class='introPic' src='trustrating_stim/white_mw040.bmp'><br><font color='green'><strong>Share</strong></font></div><div class='tc'><img class='introPic' src='trustrating_stim/white_mw070.bmp'><br><font color='red'><strong>Keep</strong></font></div><div class='tr'><img class='introPic' src='trustrating_stim/white_mw078.bmp'><br><font color='red'><strong>Keep</strong></font></div></div></div>","null","ARRAY","3","trustrating_stim/white_mw040.bmp,trustrating_stim/white_mw070.bmp,trustrating_stim/white_mw078.bmp","1,0,0","noMatchOutcome","i","4500","","","","",""
"html-keyboard-response","107","324027","0.0-7.0-3.14","64013f9fa92a5dd2d30c5575","bdp_wmem","Mon Mar 13 2023 14:48:57 GMT-0400 (Eastern Daylight Time)","673792","Match,No Match","","null","","","","","","<div class='trialBorder'><div class='vertical-center'><img src='img/fixation2_sml.jpg'</img></div></div>","null","DELAY","","","","","","","","","","",""
"html-keyboard-response","108","326022","0.0-7.0-4.14","64013f9fa92a5dd2d30c5575","bdp_wmem","Mon Mar 13 2023 14:48:57 GMT-0400 (Eastern Daylight Time)","673792","Match,No Match","","1991","","","","","","<div class='trialBorder'><div class='targDiv'><div class='tc'><img class='introPic' src='trustrating_stim/white_mw070.bmp'><br><font color='green'><strong>Share</strong></font></div></div><div class='respDiv'><div class='respDivL'>Match<br>(e)</div><div class='respDivR'>No Match<br>(i)</div></div></div>","i","TARGET","3","trustrating_stim/white_mw040.bmp,trustrating_stim/white_mw070.bmp,trustrating_stim/white_mw078.bmp","1,0,0","noMatchOutcome","i","4500","trustrating_stim/white_mw070.bmp","green","Share","REAL","1"
"html-keyboard-response","109","326524","0.0-7.0-5.14","64013f9fa92a5dd2d30c5575","bdp_wmem","Mon Mar 13 2023 14:48:57 GMT-0400 (Eastern Daylight Time)","673792","Match,No Match","","null","","","","","","<div class='trialBorder'><div class='vertical-center'><img src='img/correct.jpg'></div><div class='respDiv'><div class='respDivL'>Match<br>(e)</div><div class='respDivR'><font style='color:orange'>No Match<br>(i)</font></div></div></div>","null","FEEDBACK","","","","","","","","","","",""
"html-keyboard-response","110","327027","0.0-7.0-1.15","64013f9fa92a5dd2d30c5575","bdp_wmem","Mon Mar 13 2023 14:48:57 GMT-0400 (Eastern Daylight Time)","673792","Match,No Match","","null","","","","","","<div class='trialBorder'><div class='vertical-center'><img src='img/fixation2_sml.jpg'</img></div></div>","null","FIX","","","","","","","","","","",""
"html-keyboard-response","111","331531","0.0-7.0-2.15","64013f9fa92a5dd2d30c5575","bdp_wmem","Mon Mar 13 2023 14:48:57 GMT-0400 (Eastern Daylight Time)","673792","Match,No Match","","null","","","","","","<div class='trialBorder'><div class='vertical-center'><img style='vertical-align:center; align:center' src='img/fixation2_sml.jpg'></div><div class='arrayDiv3'><div class='tl'><img class='introPic' src='trustrating_stim/white_mw003.bmp'><br><font color='red'><strong>Keep</strong></font></div><div class='tc'><img class='introPic' src='trustrating_stim/white_mw042.bmp'><br><font color='green'><strong>Share</strong></font></div><div class='tr'><img class='introPic' src='trustrating_stim/white_mw092.bmp'><br><font color='green'><strong>Share</strong></font></div></div></div>","null","ARRAY","3","trustrating_stim/white_mw003.bmp,trustrating_stim/white_mw042.bmp,trustrating_stim/white_mw092.bmp","0,1,1","noMatchOutcome","i","4500","","","","",""
"html-keyboard-response","112","335533","0.0-7.0-3.15","64013f9fa92a5dd2d30c5575","bdp_wmem","Mon Mar 13 2023 14:48:57 GMT-0400 (Eastern Daylight Time)","673792","Match,No Match","","null","","","","","","<div class='trialBorder'><div class='vertical-center'><img src='img/fixation2_sml.jpg'</img></div></div>","null","DELAY","","","","","","","","","","",""
"html-keyboard-response","113","337596","0.0-7.0-4.15","64013f9fa92a5dd2d30c5575","bdp_wmem","Mon Mar 13 2023 14:48:57 GMT-0400 (Eastern Daylight Time)","673792","Match,No Match","","2059","","","","","","<div class='trialBorder'><div class='targDiv'><div class='tc'><img class='introPic' src='trustrating_stim/white_mw042.bmp'><br><font color='red'><strong>Keep</strong></font></div></div><div class='respDiv'><div class='respDivL'>Match<br>(e)</div><div class='respDivR'>No Match<br>(i)</div></div></div>","i","TARGET","3","trustrating_stim/white_mw003.bmp,trustrating_stim/white_mw042.bmp,trustrating_stim/white_mw092.bmp","0,1,1","noMatchOutcome","i","4500","trustrating_stim/white_mw042.bmp","red","Keep","REAL","1"
"html-keyboard-response","114","338100","0.0-7.0-5.15","64013f9fa92a5dd2d30c5575","bdp_wmem","Mon Mar 13 2023 14:48:57 GMT-0400 (Eastern Daylight Time)","673792","Match,No Match","","null","","","","","","<div class='trialBorder'><div class='vertical-center'><img src='img/correct.jpg'></div><div class='respDiv'><div class='respDivL'>Match<br>(e)</div><div class='respDivR'><font style='color:orange'>No Match<br>(i)</font></div></div></div>","null","FEEDBACK","","","","","","","","","","",""
"html-keyboard-response","115","338602","0.0-7.0-1.16","64013f9fa92a5dd2d30c5575","bdp_wmem","Mon Mar 13 2023 14:48:57 GMT-0400 (Eastern Daylight Time)","673792","Match,No Match","","null","","","","","","<div class='trialBorder'><div class='vertical-center'><img src='img/fixation2_sml.jpg'</img></div></div>","null","FIX","","","","","","","","","","",""
"html-keyboard-response","116","341606","0.0-7.0-2.16","64013f9fa92a5dd2d30c5575","bdp_wmem","Mon Mar 13 2023 14:48:57 GMT-0400 (Eastern Daylight Time)","673792","Match,No Match","","null","","","","","","<div class='trialBorder'><div class='vertical-center'><img style='vertical-align:center; align:center' src='img/fixation2_sml.jpg'></div><div class='arrayDiv2'><div class='tl'><img class='introPic' src='trustrating_stim/white_mw078.bmp'><br><font color='red'><strong>Keep</strong></font></div><div class='tr'><img class='introPic' src='trustrating_stim/white_mw091.bmp'><br><font color='green'><strong>Share</strong></font></div></div></div>","null","ARRAY","2","trustrating_stim/white_mw078.bmp,trustrating_stim/white_mw091.bmp","0,1","Match","e","3000","","","","",""
"html-keyboard-response","117","345608","0.0-7.0-3.16","64013f9fa92a5dd2d30c5575","bdp_wmem","Mon Mar 13 2023 14:48:57 GMT-0400 (Eastern Daylight Time)","673792","Match,No Match","","null","","","","","","<div class='trialBorder'><div class='vertical-center'><img src='img/fixation2_sml.jpg'</img></div></div>","null","DELAY","","","","","","","","","","",""
"html-keyboard-response","118","348247","0.0-7.0-4.16","64013f9fa92a5dd2d30c5575","bdp_wmem","Mon Mar 13 2023 14:48:57 GMT-0400 (Eastern Daylight Time)","673792","Match,No Match","","2635","","","","","","<div class='trialBorder'><div class='targDiv'><div class='tc'><img class='introPic' src='trustrating_stim/white_mw091.bmp'><br><font color='green'><strong>Share</strong></font></div></div><div class='respDiv'><div class='respDivL'>Match<br>(e)</div><div class='respDivR'>No Match<br>(i)</div></div></div>","e","TARGET","2","trustrating_stim/white_mw078.bmp,trustrating_stim/white_mw091.bmp","0,1","Match","e","3000","trustrating_stim/white_mw091.bmp","green","Share","REAL","1"
"html-keyboard-response","119","348749","0.0-7.0-5.16","64013f9fa92a5dd2d30c5575","bdp_wmem","Mon Mar 13 2023 14:48:57 GMT-0400 (Eastern Daylight Time)","673792","Match,No Match","","null","","","","","","<div class='trialBorder'><div class='vertical-center'><img src='img/correct.jpg'></div><div class='respDiv'><div class='respDivL'><font style='color:orange'>Match<br>(e)</font></div><div class='respDivR'>No Match<br>(i)</div></div></div>","null","FEEDBACK","","","","","","","","","","",""
"html-keyboard-response","120","349251","0.0-7.0-1.17","64013f9fa92a5dd2d30c5575","bdp_wmem","Mon Mar 13 2023 14:48:57 GMT-0400 (Eastern Daylight Time)","673792","Match,No Match","","null","","","","","","<div class='trialBorder'><div class='vertical-center'><img src='img/fixation2_sml.jpg'</img></div></div>","null","FIX","","","","","","","","","","",""
"html-keyboard-response","121","352255","0.0-7.0-2.17","64013f9fa92a5dd2d30c5575","bdp_wmem","Mon Mar 13 2023 14:48:57 GMT-0400 (Eastern Daylight Time)","673792","Match,No Match","","null","","","","","","<div class='trialBorder'><div class='vertical-center'><img style='vertical-align:center; align:center' src='img/fixation2_sml.jpg'></div><div class='arrayDiv2'><div class='tl'><img class='introPic' src='trustrating_stim/white_mw013.bmp'><br><font color='red'><strong>Keep</strong></font></div><div class='tr'><img class='introPic' src='trustrating_stim/white_mw012.bmp'><br><font color='green'><strong>Share</strong></font></div></div></div>","null","ARRAY","2","trustrating_stim/white_mw013.bmp,trustrating_stim/white_mw012.bmp","0,1","noMatchFace","i","3000","","","","",""
"html-keyboard-response","122","356257","0.0-7.0-3.17","64013f9fa92a5dd2d30c5575","bdp_wmem","Mon Mar 13 2023 14:48:57 GMT-0400 (Eastern Daylight Time)","673792","Match,No Match","","null","","","","","","<div class='trialBorder'><div class='vertical-center'><img src='img/fixation2_sml.jpg'</img></div></div>","null","DELAY","","","","","","","","","","",""
"html-keyboard-response","123","358069","0.0-7.0-4.17","64013f9fa92a5dd2d30c5575","bdp_wmem","Mon Mar 13 2023 14:48:57 GMT-0400 (Eastern Daylight Time)","673792","Match,No Match","","1809","","","","","","<div class='trialBorder'><div class='targDiv'><div class='tc'><img class='introPic' src='trustrating_stim/white_mw003.bmp'><br><font color='red'><strong>Keep</strong></font></div></div><div class='respDiv'><div class='respDivL'>Match<br>(e)</div><div class='respDivR'>No Match<br>(i)</div></div></div>","i","TARGET","2","trustrating_stim/white_mw013.bmp,trustrating_stim/white_mw012.bmp","0,1","noMatchFace","i","3000","trustrating_stim/white_mw003.bmp","red","Keep","REAL","1"
"html-keyboard-response","124","358573","0.0-7.0-5.17","64013f9fa92a5dd2d30c5575","bdp_wmem","Mon Mar 13 2023 14:48:57 GMT-0400 (Eastern Daylight Time)","673792","Match,No Match","","null","","","","","","<div class='trialBorder'><div class='vertical-center'><img src='img/correct.jpg'></div><div class='respDiv'><div class='respDivL'>Match<br>(e)</div><div class='respDivR'><font style='color:orange'>No Match<br>(i)</font></div></div></div>","null","FEEDBACK","","","","","","","","","","",""
"html-keyboard-response","125","359076","0.0-7.0-1.18","64013f9fa92a5dd2d30c5575","bdp_wmem","Mon Mar 13 2023 14:48:57 GMT-0400 (Eastern Daylight Time)","673792","Match,No Match","","null","","","","","","<div class='trialBorder'><div class='vertical-center'><img src='img/fixation2_sml.jpg'</img></div></div>","null","FIX","","","","","","","","","","",""
"html-keyboard-response","126","363581","0.0-7.0-2.18","64013f9fa92a5dd2d30c5575","bdp_wmem","Mon Mar 13 2023 14:48:57 GMT-0400 (Eastern Daylight Time)","673792","Match,No Match","","null","","","","","","<div class='trialBorder'><div class='vertical-center'><img style='vertical-align:center; align:center' src='img/fixation2_sml.jpg'></div><div class='arrayDiv3'><div class='tl'><img class='introPic' src='trustrating_stim/white_mw042.bmp'><br><font color='red'><strong>Keep</strong></font></div><div class='tc'><img class='introPic' src='trustrating_stim/white_mw010.bmp'><br><font color='green'><strong>Share</strong></font></div><div class='tr'><img class='introPic' src='trustrating_stim/white_mw040.bmp'><br><font color='green'><strong>Share</strong></font></div></div></div>","null","ARRAY","3","trustrating_stim/white_mw042.bmp,trustrating_stim/white_mw010.bmp,trustrating_stim/white_mw040.bmp","0,1,1","noMatchFace","i","4500","","","","",""
"html-keyboard-response","127","367584","0.0-7.0-3.18","64013f9fa92a5dd2d30c5575","bdp_wmem","Mon Mar 13 2023 14:48:57 GMT-0400 (Eastern Daylight Time)","673792","Match,No Match","","null","","","","","","<div class='trialBorder'><div class='vertical-center'><img src='img/fixation2_sml.jpg'</img></div></div>","null","DELAY","","","","","","","","","","",""
"html-keyboard-response","128","370278","0.0-7.0-4.18","64013f9fa92a5dd2d30c5575","bdp_wmem","Mon Mar 13 2023 14:48:57 GMT-0400 (Eastern Daylight Time)","673792","Match,No Match","","2691","","","","","","<div class='trialBorder'><div class='targDiv'><div class='tc'><img class='introPic' src='trustrating_stim/white_mw003.bmp'><br><font color='red'><strong>Keep</strong></font></div></div><div class='respDiv'><div class='respDivL'>Match<br>(e)</div><div class='respDivR'>No Match<br>(i)</div></div></div>","e","TARGET","3","trustrating_stim/white_mw042.bmp,trustrating_stim/white_mw010.bmp,trustrating_stim/white_mw040.bmp","0,1,1","noMatchFace","i","4500","trustrating_stim/white_mw003.bmp","red","Keep","REAL","0"
"html-keyboard-response","129","370781","0.0-7.0-5.18","64013f9fa92a5dd2d30c5575","bdp_wmem","Mon Mar 13 2023 14:48:57 GMT-0400 (Eastern Daylight Time)","673792","Match,No Match","","null","","","","","","<div class='trialBorder'><div class='vertical-center'><img src='img/error.jpg'></div><div class='respDiv'><div class='respDivL'><font style='color:orange'>Match<br>(e)</font></div><div class='respDivR'>No Match<br>(i)</div></div></div>","null","FEEDBACK","","","","","","","","","","",""
"html-keyboard-response","130","371283","0.0-7.0-1.19","64013f9fa92a5dd2d30c5575","bdp_wmem","Mon Mar 13 2023 14:48:57 GMT-0400 (Eastern Daylight Time)","673792","Match,No Match","","null","","","","","","<div class='trialBorder'><div class='vertical-center'><img src='img/fixation2_sml.jpg'</img></div></div>","null","FIX","","","","","","","","","","",""
"html-keyboard-response","131","375788","0.0-7.0-2.19","64013f9fa92a5dd2d30c5575","bdp_wmem","Mon Mar 13 2023 14:48:57 GMT-0400 (Eastern Daylight Time)","673792","Match,No Match","","null","","","","","","<div class='trialBorder'><div class='vertical-center'><img style='vertical-align:center; align:center' src='img/fixation2_sml.jpg'></div><div class='arrayDiv3'><div class='tl'><img class='introPic' src='trustrating_stim/white_mw013.bmp'><br><font color='red'><strong>Keep</strong></font></div><div class='tc'><img class='introPic' src='trustrating_stim/white_mw040.bmp'><br><font color='red'><strong>Keep</strong></font></div><div class='tr'><img class='introPic' src='trustrating_stim/white_mw038.bmp'><br><font color='green'><strong>Share</strong></font></div></div></div>","null","ARRAY","3","trustrating_stim/white_mw013.bmp,trustrating_stim/white_mw040.bmp,trustrating_stim/white_mw038.bmp","0,0,1","Match","e","4500","","","","",""
"html-keyboard-response","132","379790","0.0-7.0-3.19","64013f9fa92a5dd2d30c5575","bdp_wmem","Mon Mar 13 2023 14:48:57 GMT-0400 (Eastern Daylight Time)","673792","Match,No Match","","null","","","","","","<div class='trialBorder'><div class='vertical-center'><img src='img/fixation2_sml.jpg'</img></div></div>","null","DELAY","","","","","","","","","","",""
"html-keyboard-response","133","383994","0.0-7.0-4.19","64013f9fa92a5dd2d30c5575","bdp_wmem","Mon Mar 13 2023 14:48:57 GMT-0400 (Eastern Daylight Time)","673792","Match,No Match","","4200","","","","","","<div class='trialBorder'><div class='targDiv'><div class='tc'><img class='introPic' src='trustrating_stim/white_mw013.bmp'><br><font color='red'><strong>Keep</strong></font></div></div><div class='respDiv'><div class='respDivL'>Match<br>(e)</div><div class='respDivR'>No Match<br>(i)</div></div></div>","e","TARGET","3","trustrating_stim/white_mw013.bmp,trustrating_stim/white_mw040.bmp,trustrating_stim/white_mw038.bmp","0,0,1","Match","e","4500","trustrating_stim/white_mw013.bmp","red","Keep","REAL","1"
"html-keyboard-response","134","384497","0.0-7.0-5.19","64013f9fa92a5dd2d30c5575","bdp_wmem","Mon Mar 13 2023 14:48:57 GMT-0400 (Eastern Daylight Time)","673792","Match,No Match","","null","","","","","","<div class='trialBorder'><div class='vertical-center'><img src='img/correct.jpg'></div><div class='respDiv'><div class='respDivL'><font style='color:orange'>Match<br>(e)</font></div><div class='respDivR'>No Match<br>(i)</div></div></div>","null","FEEDBACK","","","","","","","","","","",""
"html-keyboard-response","135","384999","0.0-7.0-1.20","64013f9fa92a5dd2d30c5575","bdp_wmem","Mon Mar 13 2023 14:48:57 GMT-0400 (Eastern Daylight Time)","673792","Match,No Match","","null","","","","","","<div class='trialBorder'><div class='vertical-center'><img src='img/fixation2_sml.jpg'</img></div></div>","null","FIX","","","","","","","","","","",""
"html-keyboard-response","136","386504","0.0-7.0-2.20","64013f9fa92a5dd2d30c5575","bdp_wmem","Mon Mar 13 2023 14:48:57 GMT-0400 (Eastern Daylight Time)","673792","Match,No Match","","null","","","","","","<div class='trialBorder'><div class='vertical-center'><img style='vertical-align:center; align:center' src='img/fixation2_sml.jpg'></div><div class='arrayDiv1'><div class='tc'><img class='introPic' src='trustrating_stim/white_mw038.bmp'><br><font color='red'><strong>Keep</strong></font></div></div></div>","null","ARRAY","1","trustrating_stim/white_mw038.bmp","0","noMatchOutcome","i","1500","","","","",""
"html-keyboard-response","137","390506","0.0-7.0-3.20","64013f9fa92a5dd2d30c5575","bdp_wmem","Mon Mar 13 2023 14:48:57 GMT-0400 (Eastern Daylight Time)","673792","Match,No Match","","null","","","","","","<div class='trialBorder'><div class='vertical-center'><img src='img/fixation2_sml.jpg'</img></div></div>","null","DELAY","","","","","","","","","","",""
"html-keyboard-response","138","392434","0.0-7.0-4.20","64013f9fa92a5dd2d30c5575","bdp_wmem","Mon Mar 13 2023 14:48:57 GMT-0400 (Eastern Daylight Time)","673792","Match,No Match","","1924","","","","","","<div class='trialBorder'><div class='targDiv'><div class='tc'><img class='introPic' src='trustrating_stim/white_mw038.bmp'><br><font color='green'><strong>Share</strong></font></div></div><div class='respDiv'><div class='respDivL'>Match<br>(e)</div><div class='respDivR'>No Match<br>(i)</div></div></div>","i","TARGET","1","trustrating_stim/white_mw038.bmp","0","noMatchOutcome","i","1500","trustrating_stim/white_mw038.bmp","green","Share","REAL","1"
"html-keyboard-response","139","392936","0.0-7.0-5.20","64013f9fa92a5dd2d30c5575","bdp_wmem","Mon Mar 13 2023 14:48:57 GMT-0400 (Eastern Daylight Time)","673792","Match,No Match","","null","","","","","","<div class='trialBorder'><div class='vertical-center'><img src='img/correct.jpg'></div><div class='respDiv'><div class='respDivL'>Match<br>(e)</div><div class='respDivR'><font style='color:orange'>No Match<br>(i)</font></div></div></div>","null","FEEDBACK","","","","","","","","","","",""
"html-keyboard-response","140","393438","0.0-7.0-1.21","64013f9fa92a5dd2d30c5575","bdp_wmem","Mon Mar 13 2023 14:48:57 GMT-0400 (Eastern Daylight Time)","673792","Match,No Match","","null","","","","","","<div class='trialBorder'><div class='vertical-center'><img src='img/fixation2_sml.jpg'</img></div></div>","null","FIX","","","","","","","","","","",""
"html-keyboard-response","141","394942","0.0-7.0-2.21","64013f9fa92a5dd2d30c5575","bdp_wmem","Mon Mar 13 2023 14:48:57 GMT-0400 (Eastern Daylight Time)","673792","Match,No Match","","null","","","","","","<div class='trialBorder'><div class='vertical-center'><img style='vertical-align:center; align:center' src='img/fixation2_sml.jpg'></div><div class='arrayDiv1'><div class='tc'><img class='introPic' src='trustrating_stim/white_mw092.bmp'><br><font color='red'><strong>Keep</strong></font></div></div></div>","null","ARRAY","1","trustrating_stim/white_mw092.bmp","0","Match","e","1500","","","","",""
"html-keyboard-response","142","398944","0.0-7.0-3.21","64013f9fa92a5dd2d30c5575","bdp_wmem","Mon Mar 13 2023 14:48:57 GMT-0400 (Eastern Daylight Time)","673792","Match,No Match","","null","","","","","","<div class='trialBorder'><div class='vertical-center'><img src='img/fixation2_sml.jpg'</img></div></div>","null","DELAY","","","","","","","","","","",""
"html-keyboard-response","143","400709","0.0-7.0-4.21","64013f9fa92a5dd2d30c5575","bdp_wmem","Mon Mar 13 2023 14:48:57 GMT-0400 (Eastern Daylight Time)","673792","Match,No Match","","1762","","","","","","<div class='trialBorder'><div class='targDiv'><div class='tc'><img class='introPic' src='trustrating_stim/white_mw092.bmp'><br><font color='red'><strong>Keep</strong></font></div></div><div class='respDiv'><div class='respDivL'>Match<br>(e)</div><div class='respDivR'>No Match<br>(i)</div></div></div>","e","TARGET","1","trustrating_stim/white_mw092.bmp","0","Match","e","1500","trustrating_stim/white_mw092.bmp","red","Keep","REAL","1"
"html-keyboard-response","144","401212","0.0-7.0-5.21","64013f9fa92a5dd2d30c5575","bdp_wmem","Mon Mar 13 2023 14:48:57 GMT-0400 (Eastern Daylight Time)","673792","Match,No Match","","null","","","","","","<div class='trialBorder'><div class='vertical-center'><img src='img/correct.jpg'></div><div class='respDiv'><div class='respDivL'><font style='color:orange'>Match<br>(e)</font></div><div class='respDivR'>No Match<br>(i)</div></div></div>","null","FEEDBACK","","","","","","","","","","",""
"html-keyboard-response","145","401715","0.0-7.0-1.22","64013f9fa92a5dd2d30c5575","bdp_wmem","Mon Mar 13 2023 14:48:57 GMT-0400 (Eastern Daylight Time)","673792","Match,No Match","","null","","","","","","<div class='trialBorder'><div class='vertical-center'><img src='img/fixation2_sml.jpg'</img></div></div>","null","FIX","","","","","","","","","","",""
"html-keyboard-response","146","404718","0.0-7.0-2.22","64013f9fa92a5dd2d30c5575","bdp_wmem","Mon Mar 13 2023 14:48:57 GMT-0400 (Eastern Daylight Time)","673792","Match,No Match","","null","","","","","","<div class='trialBorder'><div class='vertical-center'><img style='vertical-align:center; align:center' src='img/fixation2_sml.jpg'></div><div class='arrayDiv2'><div class='tl'><img class='introPic' src='trustrating_stim/white_mw040.bmp'><br><font color='green'><strong>Share</strong></font></div><div class='tr'><img class='introPic' src='trustrating_stim/white_mw010.bmp'><br><font color='red'><strong>Keep</strong></font></div></div></div>","null","ARRAY","2","trustrating_stim/white_mw040.bmp,trustrating_stim/white_mw010.bmp","1,0","noMatchFace","i","3000","","","","",""
"html-keyboard-response","147","408721","0.0-7.0-3.22","64013f9fa92a5dd2d30c5575","bdp_wmem","Mon Mar 13 2023 14:48:57 GMT-0400 (Eastern Daylight Time)","673792","Match,No Match","","null","","","","","","<div class='trialBorder'><div class='vertical-center'><img src='img/fixation2_sml.jpg'</img></div></div>","null","DELAY","","","","","","","","","","",""
"html-keyboard-response","148","410154","0.0-7.0-4.22","64013f9fa92a5dd2d30c5575","bdp_wmem","Mon Mar 13 2023 14:48:57 GMT-0400 (Eastern Daylight Time)","673792","Match,No Match","","1429","","","","","","<div class='trialBorder'><div class='targDiv'><div class='tc'><img class='introPic' src='trustrating_stim/white_mw038.bmp'><br><font color='green'><strong>Share</strong></font></div></div><div class='respDiv'><div class='respDivL'>Match<br>(e)</div><div class='respDivR'>No Match<br>(i)</div></div></div>","i","TARGET","2","trustrating_stim/white_mw040.bmp,trustrating_stim/white_mw010.bmp","1,0","noMatchFace","i","3000","trustrating_stim/white_mw038.bmp","green","Share","REAL","1"
"html-keyboard-response","149","410658","0.0-7.0-5.22","64013f9fa92a5dd2d30c5575","bdp_wmem","Mon Mar 13 2023 14:48:57 GMT-0400 (Eastern Daylight Time)","673792","Match,No Match","","null","","","","","","<div class='trialBorder'><div class='vertical-center'><img src='img/correct.jpg'></div><div class='respDiv'><div class='respDivL'>Match<br>(e)</div><div class='respDivR'><font style='color:orange'>No Match<br>(i)</font></div></div></div>","null","FEEDBACK","","","","","","","","","","",""
"html-keyboard-response","150","411160","0.0-7.0-1.23","64013f9fa92a5dd2d30c5575","bdp_wmem","Mon Mar 13 2023 14:48:57 GMT-0400 (Eastern Daylight Time)","673792","Match,No Match","","null","","","","","","<div class='trialBorder'><div class='vertical-center'><img src='img/fixation2_sml.jpg'</img></div></div>","null","FIX","","","","","","","","","","",""
"html-keyboard-response","151","412663","0.0-7.0-2.23","64013f9fa92a5dd2d30c5575","bdp_wmem","Mon Mar 13 2023 14:48:57 GMT-0400 (Eastern Daylight Time)","673792","Match,No Match","","null","","","","","","<div class='trialBorder'><div class='vertical-center'><img style='vertical-align:center; align:center' src='img/fixation2_sml.jpg'></div><div class='arrayDiv1'><div class='tc'><img class='introPic' src='trustrating_stim/white_mw078.bmp'><br><font color='red'><strong>Keep</strong></font></div></div></div>","null","ARRAY","1","trustrating_stim/white_mw078.bmp","0","Match","e","1500","","","","",""
"html-keyboard-response","152","416665","0.0-7.0-3.23","64013f9fa92a5dd2d30c5575","bdp_wmem","Mon Mar 13 2023 14:48:57 GMT-0400 (Eastern Daylight Time)","673792","Match,No Match","","null","","","","","","<div class='trialBorder'><div class='vertical-center'><img src='img/fixation2_sml.jpg'</img></div></div>","null","DELAY","","","","","","","","","","",""
"html-keyboard-response","153","419024","0.0-7.0-4.23","64013f9fa92a5dd2d30c5575","bdp_wmem","Mon Mar 13 2023 14:48:57 GMT-0400 (Eastern Daylight Time)","673792","Match,No Match","","2356","","","","","","<div class='trialBorder'><div class='targDiv'><div class='tc'><img class='introPic' src='trustrating_stim/white_mw078.bmp'><br><font color='red'><strong>Keep</strong></font></div></div><div class='respDiv'><div class='respDivL'>Match<br>(e)</div><div class='respDivR'>No Match<br>(i)</div></div></div>","i","TARGET","1","trustrating_stim/white_mw078.bmp","0","Match","e","1500","trustrating_stim/white_mw078.bmp","red","Keep","REAL","0"
"html-keyboard-response","154","419527","0.0-7.0-5.23","64013f9fa92a5dd2d30c5575","bdp_wmem","Mon Mar 13 2023 14:48:57 GMT-0400 (Eastern Daylight Time)","673792","Match,No Match","","null","","","","","","<div class='trialBorder'><div class='vertical-center'><img src='img/error.jpg'></div><div class='respDiv'><div class='respDivL'>Match<br>(e)</div><div class='respDivR'><font style='color:orange'>No Match<br>(i)</font></div></div></div>","null","FEEDBACK","","","","","","","","","","",""
"html-keyboard-response","155","420028","0.0-7.0-1.24","64013f9fa92a5dd2d30c5575","bdp_wmem","Mon Mar 13 2023 14:48:57 GMT-0400 (Eastern Daylight Time)","673792","Match,No Match","","null","","","","","","<div class='trialBorder'><div class='vertical-center'><img src='img/fixation2_sml.jpg'</img></div></div>","null","FIX","","","","","","","","","","",""
"html-keyboard-response","156","423032","0.0-7.0-2.24","64013f9fa92a5dd2d30c5575","bdp_wmem","Mon Mar 13 2023 14:48:57 GMT-0400 (Eastern Daylight Time)","673792","Match,No Match","","null","","","","","","<div class='trialBorder'><div class='vertical-center'><img style='vertical-align:center; align:center' src='img/fixation2_sml.jpg'></div><div class='arrayDiv2'><div class='tl'><img class='introPic' src='trustrating_stim/white_mw040.bmp'><br><font color='red'><strong>Keep</strong></font></div><div class='tr'><img class='introPic' src='trustrating_stim/white_mw070.bmp'><br><font color='green'><strong>Share</strong></font></div></div></div>","null","ARRAY","2","trustrating_stim/white_mw040.bmp,trustrating_stim/white_mw070.bmp","0,1","Match","e","3000","","","","",""
"html-keyboard-response","157","427035","0.0-7.0-3.24","64013f9fa92a5dd2d30c5575","bdp_wmem","Mon Mar 13 2023 14:48:57 GMT-0400 (Eastern Daylight Time)","673792","Match,No Match","","null","","","","","","<div class='trialBorder'><div class='vertical-center'><img src='img/fixation2_sml.jpg'</img></div></div>","null","DELAY","","","","","","","","","","",""
"html-keyboard-response","158","429216","0.0-7.0-4.24","64013f9fa92a5dd2d30c5575","bdp_wmem","Mon Mar 13 2023 14:48:57 GMT-0400 (Eastern Daylight Time)","673792","Match,No Match","","2177","","","","","","<div class='trialBorder'><div class='targDiv'><div class='tc'><img class='introPic' src='trustrating_stim/white_mw040.bmp'><br><font color='red'><strong>Keep</strong></font></div></div><div class='respDiv'><div class='respDivL'>Match<br>(e)</div><div class='respDivR'>No Match<br>(i)</div></div></div>","e","TARGET","2","trustrating_stim/white_mw040.bmp,trustrating_stim/white_mw070.bmp","0,1","Match","e","3000","trustrating_stim/white_mw040.bmp","red","Keep","REAL","1"
"html-keyboard-response","159","429718","0.0-7.0-5.24","64013f9fa92a5dd2d30c5575","bdp_wmem","Mon Mar 13 2023 14:48:57 GMT-0400 (Eastern Daylight Time)","673792","Match,No Match","","null","","","","","","<div class='trialBorder'><div class='vertical-center'><img src='img/correct.jpg'></div><div class='respDiv'><div class='respDivL'><font style='color:orange'>Match<br>(e)</font></div><div class='respDivR'>No Match<br>(i)</div></div></div>","null","FEEDBACK","","","","","","","","","","",""
"html-keyboard-response","160","430221","0.0-7.0-1.25","64013f9fa92a5dd2d30c5575","bdp_wmem","Mon Mar 13 2023 14:48:57 GMT-0400 (Eastern Daylight Time)","673792","Match,No Match","","null","","","","","","<div class='trialBorder'><div class='vertical-center'><img src='img/fixation2_sml.jpg'</img></div></div>","null","FIX","","","","","","","","","","",""
"html-keyboard-response","161","434726","0.0-7.0-2.25","64013f9fa92a5dd2d30c5575","bdp_wmem","Mon Mar 13 2023 14:48:57 GMT-0400 (Eastern Daylight Time)","673792","Match,No Match","","null","","","","","","<div class='trialBorder'><div class='vertical-center'><img style='vertical-align:center; align:center' src='img/fixation2_sml.jpg'></div><div class='arrayDiv3'><div class='tl'><img class='introPic' src='trustrating_stim/white_mw085.bmp'><br><font color='red'><strong>Keep</strong></font></div><div class='tc'><img class='introPic' src='trustrating_stim/white_mw013.bmp'><br><font color='green'><strong>Share</strong></font></div><div class='tr'><img class='introPic' src='trustrating_stim/white_mw010.bmp'><br><font color='green'><strong>Share</strong></font></div></div></div>","null","ARRAY","3","trustrating_stim/white_mw085.bmp,trustrating_stim/white_mw013.bmp,trustrating_stim/white_mw010.bmp","0,1,1","noMatchOutcome","i","4500","","","","",""
"html-keyboard-response","162","438728","0.0-7.0-3.25","64013f9fa92a5dd2d30c5575","bdp_wmem","Mon Mar 13 2023 14:48:57 GMT-0400 (Eastern Daylight Time)","673792","Match,No Match","","null","","","","","","<div class='trialBorder'><div class='vertical-center'><img src='img/fixation2_sml.jpg'</img></div></div>","null","DELAY","","","","","","","","","","",""
"html-keyboard-response","163","440633","0.0-7.0-4.25","64013f9fa92a5dd2d30c5575","bdp_wmem","Mon Mar 13 2023 14:48:57 GMT-0400 (Eastern Daylight Time)","673792","Match,No Match","","1902","","","","","","<div class='trialBorder'><div class='targDiv'><div class='tc'><img class='introPic' src='trustrating_stim/white_mw013.bmp'><br><font color='red'><strong>Keep</strong></font></div></div><div class='respDiv'><div class='respDivL'>Match<br>(e)</div><div class='respDivR'>No Match<br>(i)</div></div></div>","e","TARGET","3","trustrating_stim/white_mw085.bmp,trustrating_stim/white_mw013.bmp,trustrating_stim/white_mw010.bmp","0,1,1","noMatchOutcome","i","4500","trustrating_stim/white_mw013.bmp","red","Keep","REAL","0"
"html-keyboard-response","164","441136","0.0-7.0-5.25","64013f9fa92a5dd2d30c5575","bdp_wmem","Mon Mar 13 2023 14:48:57 GMT-0400 (Eastern Daylight Time)","673792","Match,No Match","","null","","","","","","<div class='trialBorder'><div class='vertical-center'><img src='img/error.jpg'></div><div class='respDiv'><div class='respDivL'><font style='color:orange'>Match<br>(e)</font></div><div class='respDivR'>No Match<br>(i)</div></div></div>","null","FEEDBACK","","","","","","","","","","",""
"html-keyboard-response","165","441638","0.0-7.0-1.26","64013f9fa92a5dd2d30c5575","bdp_wmem","Mon Mar 13 2023 14:48:57 GMT-0400 (Eastern Daylight Time)","673792","Match,No Match","","null","","","","","","<div class='trialBorder'><div class='vertical-center'><img src='img/fixation2_sml.jpg'</img></div></div>","null","FIX","","","","","","","","","","",""
"html-keyboard-response","166","444641","0.0-7.0-2.26","64013f9fa92a5dd2d30c5575","bdp_wmem","Mon Mar 13 2023 14:48:57 GMT-0400 (Eastern Daylight Time)","673792","Match,No Match","","null","","","","","","<div class='trialBorder'><div class='vertical-center'><img style='vertical-align:center; align:center' src='img/fixation2_sml.jpg'></div><div class='arrayDiv2'><div class='tl'><img class='introPic' src='trustrating_stim/white_mw038.bmp'><br><font color='red'><strong>Keep</strong></font></div><div class='tr'><img class='introPic' src='trustrating_stim/white_mw078.bmp'><br><font color='green'><strong>Share</strong></font></div></div></div>","null","ARRAY","2","trustrating_stim/white_mw038.bmp,trustrating_stim/white_mw078.bmp","0,1","Match","e","3000","","","","",""
"html-keyboard-response","167","448643","0.0-7.0-3.26","64013f9fa92a5dd2d30c5575","bdp_wmem","Mon Mar 13 2023 14:48:57 GMT-0400 (Eastern Daylight Time)","673792","Match,No Match","","null","","","","","","<div class='trialBorder'><div class='vertical-center'><img src='img/fixation2_sml.jpg'</img></div></div>","null","DELAY","","","","","","","","","","",""
"html-keyboard-response","168","450362","0.0-7.0-4.26","64013f9fa92a5dd2d30c5575","bdp_wmem","Mon Mar 13 2023 14:48:57 GMT-0400 (Eastern Daylight Time)","673792","Match,No Match","","1716","","","","","","<div class='trialBorder'><div class='targDiv'><div class='tc'><img class='introPic' src='trustrating_stim/white_mw038.bmp'><br><font color='red'><strong>Keep</strong></font></div></div><div class='respDiv'><div class='respDivL'>Match<br>(e)</div><div class='respDivR'>No Match<br>(i)</div></div></div>","e","TARGET","2","trustrating_stim/white_mw038.bmp,trustrating_stim/white_mw078.bmp","0,1","Match","e","3000","trustrating_stim/white_mw038.bmp","red","Keep","REAL","1"
"html-keyboard-response","169","450865","0.0-7.0-5.26","64013f9fa92a5dd2d30c5575","bdp_wmem","Mon Mar 13 2023 14:48:57 GMT-0400 (Eastern Daylight Time)","673792","Match,No Match","","null","","","","","","<div class='trialBorder'><div class='vertical-center'><img src='img/correct.jpg'></div><div class='respDiv'><div class='respDivL'><font style='color:orange'>Match<br>(e)</font></div><div class='respDivR'>No Match<br>(i)</div></div></div>","null","FEEDBACK","","","","","","","","","","",""
"html-keyboard-response","170","451367","0.0-7.0-1.27","64013f9fa92a5dd2d30c5575","bdp_wmem","Mon Mar 13 2023 14:48:57 GMT-0400 (Eastern Daylight Time)","673792","Match,No Match","","null","","","","","","<div class='trialBorder'><div class='vertical-center'><img src='img/fixation2_sml.jpg'</img></div></div>","null","FIX","","","","","","","","","","",""
"html-keyboard-response","171","455872","0.0-7.0-2.27","64013f9fa92a5dd2d30c5575","bdp_wmem","Mon Mar 13 2023 14:48:57 GMT-0400 (Eastern Daylight Time)","673792","Match,No Match","","null","","","","","","<div class='trialBorder'><div class='vertical-center'><img style='vertical-align:center; align:center' src='img/fixation2_sml.jpg'></div><div class='arrayDiv3'><div class='tl'><img class='introPic' src='trustrating_stim/white_mw040.bmp'><br><font color='red'><strong>Keep</strong></font></div><div class='tc'><img class='introPic' src='trustrating_stim/white_mw038.bmp'><br><font color='green'><strong>Share</strong></font></div><div class='tr'><img class='introPic' src='trustrating_stim/white_mw013.bmp'><br><font color='green'><strong>Share</strong></font></div></div></div>","null","ARRAY","3","trustrating_stim/white_mw040.bmp,trustrating_stim/white_mw038.bmp,trustrating_stim/white_mw013.bmp","0,1,1","Match","e","4500","","","","",""
"html-keyboard-response","172","459873","0.0-7.0-3.27","64013f9fa92a5dd2d30c5575","bdp_wmem","Mon Mar 13 2023 14:48:57 GMT-0400 (Eastern Daylight Time)","673792","Match,No Match","","null","","","","","","<div class='trialBorder'><div class='vertical-center'><img src='img/fixation2_sml.jpg'</img></div></div>","null","DELAY","","","","","","","","","","",""
"html-keyboard-response","173","462325","0.0-7.0-4.27","64013f9fa92a5dd2d30c5575","bdp_wmem","Mon Mar 13 2023 14:48:57 GMT-0400 (Eastern Daylight Time)","673792","Match,No Match","","2448","","","","","","<div class='trialBorder'><div class='targDiv'><div class='tc'><img class='introPic' src='trustrating_stim/white_mw013.bmp'><br><font color='green'><strong>Share</strong></font></div></div><div class='respDiv'><div class='respDivL'>Match<br>(e)</div><div class='respDivR'>No Match<br>(i)</div></div></div>","i","TARGET","3","trustrating_stim/white_mw040.bmp,trustrating_stim/white_mw038.bmp,trustrating_stim/white_mw013.bmp","0,1,1","Match","e","4500","trustrating_stim/white_mw013.bmp","green","Share","REAL","0"
"html-keyboard-response","174","462828","0.0-7.0-5.27","64013f9fa92a5dd2d30c5575","bdp_wmem","Mon Mar 13 2023 14:48:57 GMT-0400 (Eastern Daylight Time)","673792","Match,No Match","","null","","","","","","<div class='trialBorder'><div class='vertical-center'><img src='img/error.jpg'></div><div class='respDiv'><div class='respDivL'>Match<br>(e)</div><div class='respDivR'><font style='color:orange'>No Match<br>(i)</font></div></div></div>","null","FEEDBACK","","","","","","","","","","",""
"html-keyboard-response","175","463330","0.0-7.0-1.28","64013f9fa92a5dd2d30c5575","bdp_wmem","Mon Mar 13 2023 14:48:57 GMT-0400 (Eastern Daylight Time)","673792","Match,No Match","","null","","","","","","<div class='trialBorder'><div class='vertical-center'><img src='img/fixation2_sml.jpg'</img></div></div>","null","FIX","","","","","","","","","","",""
"html-keyboard-response","176","464837","0.0-7.0-2.28","64013f9fa92a5dd2d30c5575","bdp_wmem","Mon Mar 13 2023 14:48:57 GMT-0400 (Eastern Daylight Time)","673792","Match,No Match","","null","","","","","","<div class='trialBorder'><div class='vertical-center'><img style='vertical-align:center; align:center' src='img/fixation2_sml.jpg'></div><div class='arrayDiv1'><div class='tc'><img class='introPic' src='trustrating_stim/white_mw038.bmp'><br><font color='green'><strong>Share</strong></font></div></div></div>","null","ARRAY","1","trustrating_stim/white_mw038.bmp","1","Match","e","1500","","","","",""
"html-keyboard-response","177","468838","0.0-7.0-3.28","64013f9fa92a5dd2d30c5575","bdp_wmem","Mon Mar 13 2023 14:48:57 GMT-0400 (Eastern Daylight Time)","673792","Match,No Match","","null","","","","","","<div class='trialBorder'><div class='vertical-center'><img src='img/fixation2_sml.jpg'</img></div></div>","null","DELAY","","","","","","","","","","",""
"html-keyboard-response","178","471351","0.0-7.0-4.28","64013f9fa92a5dd2d30c5575","bdp_wmem","Mon Mar 13 2023 14:48:57 GMT-0400 (Eastern Daylight Time)","673792","Match,No Match","","2509","","","","","","<div class='trialBorder'><div class='targDiv'><div class='tc'><img class='introPic' src='trustrating_stim/white_mw038.bmp'><br><font color='green'><strong>Share</strong></font></div></div><div class='respDiv'><div class='respDivL'>Match<br>(e)</div><div class='respDivR'>No Match<br>(i)</div></div></div>","e","TARGET","1","trustrating_stim/white_mw038.bmp","1","Match","e","1500","trustrating_stim/white_mw038.bmp","green","Share","REAL","1"
"html-keyboard-response","179","471854","0.0-7.0-5.28","64013f9fa92a5dd2d30c5575","bdp_wmem","Mon Mar 13 2023 14:48:57 GMT-0400 (Eastern Daylight Time)","673792","Match,No Match","","null","","","","","","<div class='trialBorder'><div class='vertical-center'><img src='img/correct.jpg'></div><div class='respDiv'><div class='respDivL'><font style='color:orange'>Match<br>(e)</font></div><div class='respDivR'>No Match<br>(i)</div></div></div>","null","FEEDBACK","","","","","","","","","","",""
"html-keyboard-response","180","472356","0.0-7.0-1.29","64013f9fa92a5dd2d30c5575","bdp_wmem","Mon Mar 13 2023 14:48:57 GMT-0400 (Eastern Daylight Time)","673792","Match,No Match","","null","","","","","","<div class='trialBorder'><div class='vertical-center'><img src='img/fixation2_sml.jpg'</img></div></div>","null","FIX","","","","","","","","","","",""
"html-keyboard-response","181","473859","0.0-7.0-2.29","64013f9fa92a5dd2d30c5575","bdp_wmem","Mon Mar 13 2023 14:48:57 GMT-0400 (Eastern Daylight Time)","673792","Match,No Match","","null","","","","","","<div class='trialBorder'><div class='vertical-center'><img style='vertical-align:center; align:center' src='img/fixation2_sml.jpg'></div><div class='arrayDiv1'><div class='tc'><img class='introPic' src='trustrating_stim/white_mw091.bmp'><br><font color='green'><strong>Share</strong></font></div></div></div>","null","ARRAY","1","trustrating_stim/white_mw091.bmp","1","noMatchOutcome","i","1500","","","","",""
"html-keyboard-response","182","477861","0.0-7.0-3.29","64013f9fa92a5dd2d30c5575","bdp_wmem","Mon Mar 13 2023 14:48:57 GMT-0400 (Eastern Daylight Time)","673792","Match,No Match","","null","","","","","","<div class='trialBorder'><div class='vertical-center'><img src='img/fixation2_sml.jpg'</img></div></div>","null","DELAY","","","","","","","","","","",""
"html-keyboard-response","183","479625","0.0-7.0-4.29","64013f9fa92a5dd2d30c5575","bdp_wmem","Mon Mar 13 2023 14:48:57 GMT-0400 (Eastern Daylight Time)","673792","Match,No Match","","1760","","","","","","<div class='trialBorder'><div class='targDiv'><div class='tc'><img class='introPic' src='trustrating_stim/white_mw091.bmp'><br><font color='red'><strong>Keep</strong></font></div></div><div class='respDiv'><div class='respDivL'>Match<br>(e)</div><div class='respDivR'>No Match<br>(i)</div></div></div>","i","TARGET","1","trustrating_stim/white_mw091.bmp","1","noMatchOutcome","i","1500","trustrating_stim/white_mw091.bmp","red","Keep","REAL","1"
"html-keyboard-response","184","480128","0.0-7.0-5.29","64013f9fa92a5dd2d30c5575","bdp_wmem","Mon Mar 13 2023 14:48:57 GMT-0400 (Eastern Daylight Time)","673792","Match,No Match","","null","","","","","","<div class='trialBorder'><div class='vertical-center'><img src='img/correct.jpg'></div><div class='respDiv'><div class='respDivL'>Match<br>(e)</div><div class='respDivR'><font style='color:orange'>No Match<br>(i)</font></div></div></div>","null","FEEDBACK","","","","","","","","","","",""
"html-keyboard-response","185","480630","0.0-7.0-1.30","64013f9fa92a5dd2d30c5575","bdp_wmem","Mon Mar 13 2023 14:48:57 GMT-0400 (Eastern Daylight Time)","673792","Match,No Match","","null","","","","","","<div class='trialBorder'><div class='vertical-center'><img src='img/fixation2_sml.jpg'</img></div></div>","null","FIX","","","","","","","","","","",""
"html-keyboard-response","186","485136","0.0-7.0-2.30","64013f9fa92a5dd2d30c5575","bdp_wmem","Mon Mar 13 2023 14:48:57 GMT-0400 (Eastern Daylight Time)","673792","Match,No Match","","null","","","","","","<div class='trialBorder'><div class='vertical-center'><img style='vertical-align:center; align:center' src='img/fixation2_sml.jpg'></div><div class='arrayDiv3'><div class='tl'><img class='introPic' src='trustrating_stim/white_mw010.bmp'><br><font color='green'><strong>Share</strong></font></div><div class='tc'><img class='introPic' src='trustrating_stim/white_mw013.bmp'><br><font color='red'><strong>Keep</strong></font></div><div class='tr'><img class='introPic' src='trustrating_stim/white_mw042.bmp'><br><font color='red'><strong>Keep</strong></font></div></div></div>","null","ARRAY","3","trustrating_stim/white_mw010.bmp,trustrating_stim/white_mw013.bmp,trustrating_stim/white_mw042.bmp","1,0,0","Match","e","4500","","","","",""
