"trial_type","trial_index","time_elapsed","internal_node_id","subject_id","task","startTime","totalTime","labels","event","trial","time","trialtype","numBlurs","view_history","rt","success","stimulus","key_press","stimType","arraySize","arrayFaces","arrayOutcomes","matchType","corrResp","arrayDur","targFace","targCol","targOutcome","trialType","corr"
"pavlovia","0","6","0.0-0.0","63dc7b5bf451a34177b66c66","bdp_wmem","Fri Mar 10 2023 15:32:03 GMT-0500 (Eastern Standard Time)","672622","Match,No Match","","","","","","","","","","","","","","","","","","","","","",""
"","","","","63dc7b5bf451a34177b66c66","bdp_wmem","Fri Mar 10 2023 15:32:03 GMT-0500 (Eastern Standard Time)","672622","Match,No Match","blur","1","1035","blurevent","1","","","","","","","","","","","","","","","","",""
"","","","","63dc7b5bf451a34177b66c66","bdp_wmem","Fri Mar 10 2023 15:32:03 GMT-0500 (Eastern Standard Time)","672622","Match,No Match","focus","1","14017","focusevent","","","","","","","","","","","","","","","","","",""
"instructions","1","16609","0.0-1.0","63dc7b5bf451a34177b66c66","bdp_wmem","Fri Mar 10 2023 15:32:03 GMT-0500 (Eastern Standard Time)","672622","Match,No Match","","","","","","[{""page_index"":0,""viewing_time"":16601}]","16602","","","","","","","","","","","","","","",""
"","","","","63dc7b5bf451a34177b66c66","bdp_wmem","Fri Mar 10 2023 15:32:03 GMT-0500 (Eastern Standard Time)","672622","Match,No Match","fullscreenenter","2","19256","fullscreenenter","","","","","","","","","","","","","","","","","",""
"fullscreen","2","20219","0.0-2.0","63dc7b5bf451a34177b66c66","bdp_wmem","Fri Mar 10 2023 15:32:03 GMT-0500 (Eastern Standard Time)","672622","Match,No Match","","","","","","","","true","","","","","","","","","","","","","",""
"instructions","3","138572","0.0-4.0","63dc7b5bf451a34177b66c66","bdp_wmem","Fri Mar 10 2023 15:32:03 GMT-0500 (Eastern Standard Time)","672622","Match,No Match","","","","","","[{""page_index"":0,""viewing_time"":27822},{""page_index"":1,""viewing_time"":66114},{""page_index"":2,""viewing_time"":14263},{""page_index"":3,""viewing_time"":6826},{""page_index"":4,""viewing_time"":3326}]","118351","","","","","","","","","","","","","","",""
"html-keyboard-response","4","139081","0.0-5.0-1.0","63dc7b5bf451a34177b66c66","bdp_wmem","Fri Mar 10 2023 15:32:03 GMT-0500 (Eastern Standard Time)","672622","Match,No Match","","","","","","","null","","<div class='trialBorder'><div class='vertical-center'><img src='img/fixation2_sml.jpg'</img></div></div>","null","FIX","","","","","","","","","","",""
"html-keyboard-response","5","142090","0.0-5.0-2.0","63dc7b5bf451a34177b66c66","bdp_wmem","Fri Mar 10 2023 15:32:03 GMT-0500 (Eastern Standard Time)","672622","Match,No Match","","","","","","","null","","<div class='trialBorder'><div class='vertical-center'><img style='vertical-align:center; align:center' src='img/fixation2_sml.jpg'></div><div class='arrayDiv2'><div class='tl'><img class='introPic' src='trustrating_stim/white_mw010.bmp'><br><font color='green'><strong>Share</strong></font></div><div class='tr'><img class='introPic' src='trustrating_stim/white_mw040.bmp'><br><font color='red'><strong>Keep</strong></font></div></div></div>","null","ARRAY","2","trustrating_stim/white_mw010.bmp,trustrating_stim/white_mw040.bmp","1,0","noMatchFace","i","3000","","","","",""
"html-keyboard-response","6","146095","0.0-5.0-3.0","63dc7b5bf451a34177b66c66","bdp_wmem","Fri Mar 10 2023 15:32:03 GMT-0500 (Eastern Standard Time)","672622","Match,No Match","","","","","","","null","","<div class='trialBorder'><div class='vertical-center'><img src='img/fixation2_sml.jpg'</img></div></div>","null","DELAY","","","","","","","","","","",""
"html-keyboard-response","7","149847","0.0-5.0-4.0","63dc7b5bf451a34177b66c66","bdp_wmem","Fri Mar 10 2023 15:32:03 GMT-0500 (Eastern Standard Time)","672622","Match,No Match","","","","","","","3749","","<div class='trialBorder'><div class='targDiv'><div class='tc'><img class='introPic' src='trustrating_stim/white_mw003.bmp'><br><font color='red'><strong>Keep</strong></font></div></div><div class='respDiv'><div class='respDivL'>Match<br>(e)</div><div class='respDivR'>No Match<br>(i)</div></div></div>","i","TARGET","2","trustrating_stim/white_mw010.bmp,trustrating_stim/white_mw040.bmp","1,0","noMatchFace","i","3000","trustrating_stim/white_mw003.bmp","red","Keep","PRACTICE","1"
"html-keyboard-response","8","150357","0.0-5.0-5.0","63dc7b5bf451a34177b66c66","bdp_wmem","Fri Mar 10 2023 15:32:03 GMT-0500 (Eastern Standard Time)","672622","Match,No Match","","","","","","","null","","<div class='trialBorder'><div class='vertical-center'><img src='img/correct.jpg'></div><div class='respDiv'><div class='respDivL'>Match<br>(e)</div><div class='respDivR'><font style='color:orange'>No Match<br>(i)</font></div></div></div>","null","FEEDBACK","","","","","","","","","","",""
"html-keyboard-response","9","150863","0.0-5.0-1.1","63dc7b5bf451a34177b66c66","bdp_wmem","Fri Mar 10 2023 15:32:03 GMT-0500 (Eastern Standard Time)","672622","Match,No Match","","","","","","","null","","<div class='trialBorder'><div class='vertical-center'><img src='img/fixation2_sml.jpg'</img></div></div>","null","FIX","","","","","","","","","","",""
"html-keyboard-response","10","152373","0.0-5.0-2.1","63dc7b5bf451a34177b66c66","bdp_wmem","Fri Mar 10 2023 15:32:03 GMT-0500 (Eastern Standard Time)","672622","Match,No Match","","","","","","","null","","<div class='trialBorder'><div class='vertical-center'><img style='vertical-align:center; align:center' src='img/fixation2_sml.jpg'></div><div class='arrayDiv1'><div class='tc'><img class='introPic' src='trustrating_stim/white_mw040.bmp'><br><font color='red'><strong>Keep</strong></font></div></div></div>","null","ARRAY","1","trustrating_stim/white_mw040.bmp","0","Match","e","1500","","","","",""
"html-keyboard-response","11","156379","0.0-5.0-3.1","63dc7b5bf451a34177b66c66","bdp_wmem","Fri Mar 10 2023 15:32:03 GMT-0500 (Eastern Standard Time)","672622","Match,No Match","","","","","","","null","","<div class='trialBorder'><div class='vertical-center'><img src='img/fixation2_sml.jpg'</img></div></div>","null","DELAY","","","","","","","","","","",""
"html-keyboard-response","12","158481","0.0-5.0-4.1","63dc7b5bf451a34177b66c66","bdp_wmem","Fri Mar 10 2023 15:32:03 GMT-0500 (Eastern Standard Time)","672622","Match,No Match","","","","","","","2101","","<div class='trialBorder'><div class='targDiv'><div class='tc'><img class='introPic' src='trustrating_stim/white_mw040.bmp'><br><font color='red'><strong>Keep</strong></font></div></div><div class='respDiv'><div class='respDivL'>Match<br>(e)</div><div class='respDivR'>No Match<br>(i)</div></div></div>","e","TARGET","1","trustrating_stim/white_mw040.bmp","0","Match","e","1500","trustrating_stim/white_mw040.bmp","red","Keep","PRACTICE","1"
"html-keyboard-response","13","158996","0.0-5.0-5.1","63dc7b5bf451a34177b66c66","bdp_wmem","Fri Mar 10 2023 15:32:03 GMT-0500 (Eastern Standard Time)","672622","Match,No Match","","","","","","","null","","<div class='trialBorder'><div class='vertical-center'><img src='img/correct.jpg'></div><div class='respDiv'><div class='respDivL'><font style='color:orange'>Match<br>(e)</font></div><div class='respDivR'>No Match<br>(i)</div></div></div>","null","FEEDBACK","","","","","","","","","","",""
"html-keyboard-response","14","159503","0.0-5.0-1.2","63dc7b5bf451a34177b66c66","bdp_wmem","Fri Mar 10 2023 15:32:03 GMT-0500 (Eastern Standard Time)","672622","Match,No Match","","","","","","","null","","<div class='trialBorder'><div class='vertical-center'><img src='img/fixation2_sml.jpg'</img></div></div>","null","FIX","","","","","","","","","","",""
"html-keyboard-response","15","164007","0.0-5.0-2.2","63dc7b5bf451a34177b66c66","bdp_wmem","Fri Mar 10 2023 15:32:03 GMT-0500 (Eastern Standard Time)","672622","Match,No Match","","","","","","","null","","<div class='trialBorder'><div class='vertical-center'><img style='vertical-align:center; align:center' src='img/fixation2_sml.jpg'></div><div class='arrayDiv3'><div class='tl'><img class='introPic' src='trustrating_stim/white_mw038.bmp'><br><font color='red'><strong>Keep</strong></font></div><div class='tc'><img class='introPic' src='trustrating_stim/white_mw085.bmp'><br><font color='green'><strong>Share</strong></font></div><div class='tr'><img class='introPic' src='trustrating_stim/white_mw078.bmp'><br><font color='red'><strong>Keep</strong></font></div></div></div>","null","ARRAY","3","trustrating_stim/white_mw038.bmp,trustrating_stim/white_mw085.bmp,trustrating_stim/white_mw078.bmp","0,1,0","noMatchOutcome","i","4500","","","","",""
"html-keyboard-response","16","168012","0.0-5.0-3.2","63dc7b5bf451a34177b66c66","bdp_wmem","Fri Mar 10 2023 15:32:03 GMT-0500 (Eastern Standard Time)","672622","Match,No Match","","","","","","","null","","<div class='trialBorder'><div class='vertical-center'><img src='img/fixation2_sml.jpg'</img></div></div>","null","DELAY","","","","","","","","","","",""
"html-keyboard-response","17","170673","0.0-5.0-4.2","63dc7b5bf451a34177b66c66","bdp_wmem","Fri Mar 10 2023 15:32:03 GMT-0500 (Eastern Standard Time)","672622","Match,No Match","","","","","","","2658","","<div class='trialBorder'><div class='targDiv'><div class='tc'><img class='introPic' src='trustrating_stim/white_mw038.bmp'><br><font color='green'><strong>Share</strong></font></div></div><div class='respDiv'><div class='respDivL'>Match<br>(e)</div><div class='respDivR'>No Match<br>(i)</div></div></div>","e","TARGET","3","trustrating_stim/white_mw038.bmp,trustrating_stim/white_mw085.bmp,trustrating_stim/white_mw078.bmp","0,1,0","noMatchOutcome","i","4500","trustrating_stim/white_mw038.bmp","green","Share","PRACTICE","0"
"html-keyboard-response","18","171175","0.0-5.0-5.2","63dc7b5bf451a34177b66c66","bdp_wmem","Fri Mar 10 2023 15:32:03 GMT-0500 (Eastern Standard Time)","672622","Match,No Match","","","","","","","null","","<div class='trialBorder'><div class='vertical-center'><img src='img/error.jpg'></div><div class='respDiv'><div class='respDivL'><font style='color:orange'>Match<br>(e)</font></div><div class='respDivR'>No Match<br>(i)</div></div></div>","null","FEEDBACK","","","","","","","","","","",""
"html-keyboard-response","19","171684","0.0-5.0-1.3","63dc7b5bf451a34177b66c66","bdp_wmem","Fri Mar 10 2023 15:32:03 GMT-0500 (Eastern Standard Time)","672622","Match,No Match","","","","","","","null","","<div class='trialBorder'><div class='vertical-center'><img src='img/fixation2_sml.jpg'</img></div></div>","null","FIX","","","","","","","","","","",""
"html-keyboard-response","20","174688","0.0-5.0-2.3","63dc7b5bf451a34177b66c66","bdp_wmem","Fri Mar 10 2023 15:32:03 GMT-0500 (Eastern Standard Time)","672622","Match,No Match","","","","","","","null","","<div class='trialBorder'><div class='vertical-center'><img style='vertical-align:center; align:center' src='img/fixation2_sml.jpg'></div><div class='arrayDiv2'><div class='tl'><img class='introPic' src='trustrating_stim/white_mw003.bmp'><br><font color='red'><strong>Keep</strong></font></div><div class='tr'><img class='introPic' src='trustrating_stim/white_mw070.bmp'><br><font color='green'><strong>Share</strong></font></div></div></div>","null","ARRAY","2","trustrating_stim/white_mw003.bmp,trustrating_stim/white_mw070.bmp","0,1","Match","e","3000","","","","",""
"html-keyboard-response","21","178691","0.0-5.0-3.3","63dc7b5bf451a34177b66c66","bdp_wmem","Fri Mar 10 2023 15:32:03 GMT-0500 (Eastern Standard Time)","672622","Match,No Match","","","","","","","null","","<div class='trialBorder'><div class='vertical-center'><img src='img/fixation2_sml.jpg'</img></div></div>","null","DELAY","","","","","","","","","","",""
"html-keyboard-response","22","180518","0.0-5.0-4.3","63dc7b5bf451a34177b66c66","bdp_wmem","Fri Mar 10 2023 15:32:03 GMT-0500 (Eastern Standard Time)","672622","Match,No Match","","","","","","","1824","","<div class='trialBorder'><div class='targDiv'><div class='tc'><img class='introPic' src='trustrating_stim/white_mw070.bmp'><br><font color='green'><strong>Share</strong></font></div></div><div class='respDiv'><div class='respDivL'>Match<br>(e)</div><div class='respDivR'>No Match<br>(i)</div></div></div>","e","TARGET","2","trustrating_stim/white_mw003.bmp,trustrating_stim/white_mw070.bmp","0,1","Match","e","3000","trustrating_stim/white_mw070.bmp","green","Share","PRACTICE","1"
"html-keyboard-response","23","181023","0.0-5.0-5.3","63dc7b5bf451a34177b66c66","bdp_wmem","Fri Mar 10 2023 15:32:03 GMT-0500 (Eastern Standard Time)","672622","Match,No Match","","","","","","","null","","<div class='trialBorder'><div class='vertical-center'><img src='img/correct.jpg'></div><div class='respDiv'><div class='respDivL'><font style='color:orange'>Match<br>(e)</font></div><div class='respDivR'>No Match<br>(i)</div></div></div>","null","FEEDBACK","","","","","","","","","","",""
"html-keyboard-response","24","181532","0.0-5.0-1.4","63dc7b5bf451a34177b66c66","bdp_wmem","Fri Mar 10 2023 15:32:03 GMT-0500 (Eastern Standard Time)","672622","Match,No Match","","","","","","","null","","<div class='trialBorder'><div class='vertical-center'><img src='img/fixation2_sml.jpg'</img></div></div>","null","FIX","","","","","","","","","","",""
"html-keyboard-response","25","183036","0.0-5.0-2.4","63dc7b5bf451a34177b66c66","bdp_wmem","Fri Mar 10 2023 15:32:03 GMT-0500 (Eastern Standard Time)","672622","Match,No Match","","","","","","","null","","<div class='trialBorder'><div class='vertical-center'><img style='vertical-align:center; align:center' src='img/fixation2_sml.jpg'></div><div class='arrayDiv1'><div class='tc'><img class='introPic' src='trustrating_stim/white_mw038.bmp'><br><font color='green'><strong>Share</strong></font></div></div></div>","null","ARRAY","1","trustrating_stim/white_mw038.bmp","1","noMatchFace","i","1500","","","","",""
"html-keyboard-response","26","187043","0.0-5.0-3.4","63dc7b5bf451a34177b66c66","bdp_wmem","Fri Mar 10 2023 15:32:03 GMT-0500 (Eastern Standard Time)","672622","Match,No Match","","","","","","","null","","<div class='trialBorder'><div class='vertical-center'><img src='img/fixation2_sml.jpg'</img></div></div>","null","DELAY","","","","","","","","","","",""
"html-keyboard-response","27","189100","0.0-5.0-4.4","63dc7b5bf451a34177b66c66","bdp_wmem","Fri Mar 10 2023 15:32:03 GMT-0500 (Eastern Standard Time)","672622","Match,No Match","","","","","","","2055","","<div class='trialBorder'><div class='targDiv'><div class='tc'><img class='introPic' src='trustrating_stim/white_mw003.bmp'><br><font color='green'><strong>Share</strong></font></div></div><div class='respDiv'><div class='respDivL'>Match<br>(e)</div><div class='respDivR'>No Match<br>(i)</div></div></div>","i","TARGET","1","trustrating_stim/white_mw038.bmp","1","noMatchFace","i","1500","trustrating_stim/white_mw003.bmp","green","Share","PRACTICE","1"
"html-keyboard-response","28","189602","0.0-5.0-5.4","63dc7b5bf451a34177b66c66","bdp_wmem","Fri Mar 10 2023 15:32:03 GMT-0500 (Eastern Standard Time)","672622","Match,No Match","","","","","","","null","","<div class='trialBorder'><div class='vertical-center'><img src='img/correct.jpg'></div><div class='respDiv'><div class='respDivL'>Match<br>(e)</div><div class='respDivR'><font style='color:orange'>No Match<br>(i)</font></div></div></div>","null","FEEDBACK","","","","","","","","","","",""
"html-keyboard-response","29","190110","0.0-5.0-1.5","63dc7b5bf451a34177b66c66","bdp_wmem","Fri Mar 10 2023 15:32:03 GMT-0500 (Eastern Standard Time)","672622","Match,No Match","","","","","","","null","","<div class='trialBorder'><div class='vertical-center'><img src='img/fixation2_sml.jpg'</img></div></div>","null","FIX","","","","","","","","","","",""
"html-keyboard-response","30","194614","0.0-5.0-2.5","63dc7b5bf451a34177b66c66","bdp_wmem","Fri Mar 10 2023 15:32:03 GMT-0500 (Eastern Standard Time)","672622","Match,No Match","","","","","","","null","","<div class='trialBorder'><div class='vertical-center'><img style='vertical-align:center; align:center' src='img/fixation2_sml.jpg'></div><div class='arrayDiv3'><div class='tl'><img class='introPic' src='trustrating_stim/white_mw013.bmp'><br><font color='green'><strong>Share</strong></font></div><div class='tc'><img class='introPic' src='trustrating_stim/white_mw012.bmp'><br><font color='red'><strong>Keep</strong></font></div><div class='tr'><img class='introPic' src='trustrating_stim/white_mw091.bmp'><br><font color='red'><strong>Keep</strong></font></div></div></div>","null","ARRAY","3","trustrating_stim/white_mw013.bmp,trustrating_stim/white_mw012.bmp,trustrating_stim/white_mw091.bmp","1,0,0","Match","e","4500","","","","",""
"html-keyboard-response","31","198620","0.0-5.0-3.5","63dc7b5bf451a34177b66c66","bdp_wmem","Fri Mar 10 2023 15:32:03 GMT-0500 (Eastern Standard Time)","672622","Match,No Match","","","","","","","null","","<div class='trialBorder'><div class='vertical-center'><img src='img/fixation2_sml.jpg'</img></div></div>","null","DELAY","","","","","","","","","","",""
"html-keyboard-response","32","200683","0.0-5.0-4.5","63dc7b5bf451a34177b66c66","bdp_wmem","Fri Mar 10 2023 15:32:03 GMT-0500 (Eastern Standard Time)","672622","Match,No Match","","","","","","","2061","","<div class='trialBorder'><div class='targDiv'><div class='tc'><img class='introPic' src='trustrating_stim/white_mw091.bmp'><br><font color='red'><strong>Keep</strong></font></div></div><div class='respDiv'><div class='respDivL'>Match<br>(e)</div><div class='respDivR'>No Match<br>(i)</div></div></div>","e","TARGET","3","trustrating_stim/white_mw013.bmp,trustrating_stim/white_mw012.bmp,trustrating_stim/white_mw091.bmp","1,0,0","Match","e","4500","trustrating_stim/white_mw091.bmp","red","Keep","PRACTICE","1"
"html-keyboard-response","33","201185","0.0-5.0-5.5","63dc7b5bf451a34177b66c66","bdp_wmem","Fri Mar 10 2023 15:32:03 GMT-0500 (Eastern Standard Time)","672622","Match,No Match","","","","","","","null","","<div class='trialBorder'><div class='vertical-center'><img src='img/correct.jpg'></div><div class='respDiv'><div class='respDivL'><font style='color:orange'>Match<br>(e)</font></div><div class='respDivR'>No Match<br>(i)</div></div></div>","null","FEEDBACK","","","","","","","","","","",""
"instructions","34","203093","0.0-6.0","63dc7b5bf451a34177b66c66","bdp_wmem","Fri Mar 10 2023 15:32:03 GMT-0500 (Eastern Standard Time)","672622","Match,No Match","","","","","","[{""page_index"":0,""viewing_time"":1907}]","1908","","","","","","","","","","","","","","",""
"html-keyboard-response","35","203609","0.0-7.0-1.0","63dc7b5bf451a34177b66c66","bdp_wmem","Fri Mar 10 2023 15:32:03 GMT-0500 (Eastern Standard Time)","672622","Match,No Match","","","","","","","null","","<div class='trialBorder'><div class='vertical-center'><img src='img/fixation2_sml.jpg'</img></div></div>","null","FIX","","","","","","","","","","",""
"html-keyboard-response","36","208117","0.0-7.0-2.0","63dc7b5bf451a34177b66c66","bdp_wmem","Fri Mar 10 2023 15:32:03 GMT-0500 (Eastern Standard Time)","672622","Match,No Match","","","","","","","null","","<div class='trialBorder'><div class='vertical-center'><img style='vertical-align:center; align:center' src='img/fixation2_sml.jpg'></div><div class='arrayDiv3'><div class='tl'><img class='introPic' src='trustrating_stim/white_mw038.bmp'><br><font color='red'><strong>Keep</strong></font></div><div class='tc'><img class='introPic' src='trustrating_stim/white_mw070.bmp'><br><font color='red'><strong>Keep</strong></font></div><div class='tr'><img class='introPic' src='trustrating_stim/white_mw092.bmp'><br><font color='green'><strong>Share</strong></font></div></div></div>","null","ARRAY","3","trustrating_stim/white_mw038.bmp,trustrating_stim/white_mw070.bmp,trustrating_stim/white_mw092.bmp","0,0,1","noMatchFace","i","4500","","","","",""
"html-keyboard-response","37","212121","0.0-7.0-3.0","63dc7b5bf451a34177b66c66","bdp_wmem","Fri Mar 10 2023 15:32:03 GMT-0500 (Eastern Standard Time)","672622","Match,No Match","","","","","","","null","","<div class='trialBorder'><div class='vertical-center'><img src='img/fixation2_sml.jpg'</img></div></div>","null","DELAY","","","","","","","","","","",""
"html-keyboard-response","38","213973","0.0-7.0-4.0","63dc7b5bf451a34177b66c66","bdp_wmem","Fri Mar 10 2023 15:32:03 GMT-0500 (Eastern Standard Time)","672622","Match,No Match","","","","","","","1849","","<div class='trialBorder'><div class='targDiv'><div class='tc'><img class='introPic' src='trustrating_stim/white_mw012.bmp'><br><font color='red'><strong>Keep</strong></font></div></div><div class='respDiv'><div class='respDivL'>Match<br>(e)</div><div class='respDivR'>No Match<br>(i)</div></div></div>","e","TARGET","3","trustrating_stim/white_mw038.bmp,trustrating_stim/white_mw070.bmp,trustrating_stim/white_mw092.bmp","0,0,1","noMatchFace","i","4500","trustrating_stim/white_mw012.bmp","red","Keep","REAL","0"
"html-keyboard-response","39","214489","0.0-7.0-5.0","63dc7b5bf451a34177b66c66","bdp_wmem","Fri Mar 10 2023 15:32:03 GMT-0500 (Eastern Standard Time)","672622","Match,No Match","","","","","","","null","","<div class='trialBorder'><div class='vertical-center'><img src='img/error.jpg'></div><div class='respDiv'><div class='respDivL'><font style='color:orange'>Match<br>(e)</font></div><div class='respDivR'>No Match<br>(i)</div></div></div>","null","FEEDBACK","","","","","","","","","","",""
"html-keyboard-response","40","214992","0.0-7.0-1.1","63dc7b5bf451a34177b66c66","bdp_wmem","Fri Mar 10 2023 15:32:03 GMT-0500 (Eastern Standard Time)","672622","Match,No Match","","","","","","","null","","<div class='trialBorder'><div class='vertical-center'><img src='img/fixation2_sml.jpg'</img></div></div>","null","FIX","","","","","","","","","","",""
"html-keyboard-response","41","216497","0.0-7.0-2.1","63dc7b5bf451a34177b66c66","bdp_wmem","Fri Mar 10 2023 15:32:03 GMT-0500 (Eastern Standard Time)","672622","Match,No Match","","","","","","","null","","<div class='trialBorder'><div class='vertical-center'><img style='vertical-align:center; align:center' src='img/fixation2_sml.jpg'></div><div class='arrayDiv1'><div class='tc'><img class='introPic' src='trustrating_stim/white_mw003.bmp'><br><font color='red'><strong>Keep</strong></font></div></div></div>","null","ARRAY","1","trustrating_stim/white_mw003.bmp","0","Match","e","1500","","","","",""
"html-keyboard-response","42","220505","0.0-7.0-3.1","63dc7b5bf451a34177b66c66","bdp_wmem","Fri Mar 10 2023 15:32:03 GMT-0500 (Eastern Standard Time)","672622","Match,No Match","","","","","","","null","","<div class='trialBorder'><div class='vertical-center'><img src='img/fixation2_sml.jpg'</img></div></div>","null","DELAY","","","","","","","","","","",""
"html-keyboard-response","43","221861","0.0-7.0-4.1","63dc7b5bf451a34177b66c66","bdp_wmem","Fri Mar 10 2023 15:32:03 GMT-0500 (Eastern Standard Time)","672622","Match,No Match","","","","","","","1354","","<div class='trialBorder'><div class='targDiv'><div class='tc'><img class='introPic' src='trustrating_stim/white_mw003.bmp'><br><font color='red'><strong>Keep</strong></font></div></div><div class='respDiv'><div class='respDivL'>Match<br>(e)</div><div class='respDivR'>No Match<br>(i)</div></div></div>","e","TARGET","1","trustrating_stim/white_mw003.bmp","0","Match","e","1500","trustrating_stim/white_mw003.bmp","red","Keep","REAL","1"
"html-keyboard-response","44","222370","0.0-7.0-5.1","63dc7b5bf451a34177b66c66","bdp_wmem","Fri Mar 10 2023 15:32:03 GMT-0500 (Eastern Standard Time)","672622","Match,No Match","","","","","","","null","","<div class='trialBorder'><div class='vertical-center'><img src='img/correct.jpg'></div><div class='respDiv'><div class='respDivL'><font style='color:orange'>Match<br>(e)</font></div><div class='respDivR'>No Match<br>(i)</div></div></div>","null","FEEDBACK","","","","","","","","","","",""
"html-keyboard-response","45","222876","0.0-7.0-1.2","63dc7b5bf451a34177b66c66","bdp_wmem","Fri Mar 10 2023 15:32:03 GMT-0500 (Eastern Standard Time)","672622","Match,No Match","","","","","","","null","","<div class='trialBorder'><div class='vertical-center'><img src='img/fixation2_sml.jpg'</img></div></div>","null","FIX","","","","","","","","","","",""
"html-keyboard-response","46","225888","0.0-7.0-2.2","63dc7b5bf451a34177b66c66","bdp_wmem","Fri Mar 10 2023 15:32:03 GMT-0500 (Eastern Standard Time)","672622","Match,No Match","","","","","","","null","","<div class='trialBorder'><div class='vertical-center'><img style='vertical-align:center; align:center' src='img/fixation2_sml.jpg'></div><div class='arrayDiv2'><div class='tl'><img class='introPic' src='trustrating_stim/white_mw040.bmp'><br><font color='red'><strong>Keep</strong></font></div><div class='tr'><img class='introPic' src='trustrating_stim/white_mw012.bmp'><br><font color='green'><strong>Share</strong></font></div></div></div>","null","ARRAY","2","trustrating_stim/white_mw040.bmp,trustrating_stim/white_mw012.bmp","0,1","Match","e","3000","","","","",""
"html-keyboard-response","47","229898","0.0-7.0-3.2","63dc7b5bf451a34177b66c66","bdp_wmem","Fri Mar 10 2023 15:32:03 GMT-0500 (Eastern Standard Time)","672622","Match,No Match","","","","","","","null","","<div class='trialBorder'><div class='vertical-center'><img src='img/fixation2_sml.jpg'</img></div></div>","null","DELAY","","","","","","","","","","",""
"html-keyboard-response","48","231005","0.0-7.0-4.2","63dc7b5bf451a34177b66c66","bdp_wmem","Fri Mar 10 2023 15:32:03 GMT-0500 (Eastern Standard Time)","672622","Match,No Match","","","","","","","1105","","<div class='trialBorder'><div class='targDiv'><div class='tc'><img class='introPic' src='trustrating_stim/white_mw012.bmp'><br><font color='green'><strong>Share</strong></font></div></div><div class='respDiv'><div class='respDivL'>Match<br>(e)</div><div class='respDivR'>No Match<br>(i)</div></div></div>","e","TARGET","2","trustrating_stim/white_mw040.bmp,trustrating_stim/white_mw012.bmp","0,1","Match","e","3000","trustrating_stim/white_mw012.bmp","green","Share","REAL","1"
"html-keyboard-response","49","231520","0.0-7.0-5.2","63dc7b5bf451a34177b66c66","bdp_wmem","Fri Mar 10 2023 15:32:03 GMT-0500 (Eastern Standard Time)","672622","Match,No Match","","","","","","","null","","<div class='trialBorder'><div class='vertical-center'><img src='img/correct.jpg'></div><div class='respDiv'><div class='respDivL'><font style='color:orange'>Match<br>(e)</font></div><div class='respDivR'>No Match<br>(i)</div></div></div>","null","FEEDBACK","","","","","","","","","","",""
"html-keyboard-response","50","232025","0.0-7.0-1.3","63dc7b5bf451a34177b66c66","bdp_wmem","Fri Mar 10 2023 15:32:03 GMT-0500 (Eastern Standard Time)","672622","Match,No Match","","","","","","","null","","<div class='trialBorder'><div class='vertical-center'><img src='img/fixation2_sml.jpg'</img></div></div>","null","FIX","","","","","","","","","","",""
"html-keyboard-response","51","236532","0.0-7.0-2.3","63dc7b5bf451a34177b66c66","bdp_wmem","Fri Mar 10 2023 15:32:03 GMT-0500 (Eastern Standard Time)","672622","Match,No Match","","","","","","","null","","<div class='trialBorder'><div class='vertical-center'><img style='vertical-align:center; align:center' src='img/fixation2_sml.jpg'></div><div class='arrayDiv3'><div class='tl'><img class='introPic' src='trustrating_stim/white_mw070.bmp'><br><font color='green'><strong>Share</strong></font></div><div class='tc'><img class='introPic' src='trustrating_stim/white_mw091.bmp'><br><font color='green'><strong>Share</strong></font></div><div class='tr'><img class='introPic' src='trustrating_stim/white_mw038.bmp'><br><font color='red'><strong>Keep</strong></font></div></div></div>","null","ARRAY","3","trustrating_stim/white_mw070.bmp,trustrating_stim/white_mw091.bmp,trustrating_stim/white_mw038.bmp","1,1,0","noMatchOutcome","i","4500","","","","",""
"html-keyboard-response","52","240544","0.0-7.0-3.3","63dc7b5bf451a34177b66c66","bdp_wmem","Fri Mar 10 2023 15:32:03 GMT-0500 (Eastern Standard Time)","672622","Match,No Match","","","","","","","null","","<div class='trialBorder'><div class='vertical-center'><img src='img/fixation2_sml.jpg'</img></div></div>","null","DELAY","","","","","","","","","","",""
"html-keyboard-response","53","242311","0.0-7.0-4.3","63dc7b5bf451a34177b66c66","bdp_wmem","Fri Mar 10 2023 15:32:03 GMT-0500 (Eastern Standard Time)","672622","Match,No Match","","","","","","","1765","","<div class='trialBorder'><div class='targDiv'><div class='tc'><img class='introPic' src='trustrating_stim/white_mw038.bmp'><br><font color='green'><strong>Share</strong></font></div></div><div class='respDiv'><div class='respDivL'>Match<br>(e)</div><div class='respDivR'>No Match<br>(i)</div></div></div>","i","TARGET","3","trustrating_stim/white_mw070.bmp,trustrating_stim/white_mw091.bmp,trustrating_stim/white_mw038.bmp","1,1,0","noMatchOutcome","i","4500","trustrating_stim/white_mw038.bmp","green","Share","REAL","1"
"html-keyboard-response","54","242814","0.0-7.0-5.3","63dc7b5bf451a34177b66c66","bdp_wmem","Fri Mar 10 2023 15:32:03 GMT-0500 (Eastern Standard Time)","672622","Match,No Match","","","","","","","null","","<div class='trialBorder'><div class='vertical-center'><img src='img/correct.jpg'></div><div class='respDiv'><div class='respDivL'>Match<br>(e)</div><div class='respDivR'><font style='color:orange'>No Match<br>(i)</font></div></div></div>","null","FEEDBACK","","","","","","","","","","",""
"html-keyboard-response","55","243319","0.0-7.0-1.4","63dc7b5bf451a34177b66c66","bdp_wmem","Fri Mar 10 2023 15:32:03 GMT-0500 (Eastern Standard Time)","672622","Match,No Match","","","","","","","null","","<div class='trialBorder'><div class='vertical-center'><img src='img/fixation2_sml.jpg'</img></div></div>","null","FIX","","","","","","","","","","",""
"html-keyboard-response","56","247822","0.0-7.0-2.4","63dc7b5bf451a34177b66c66","bdp_wmem","Fri Mar 10 2023 15:32:03 GMT-0500 (Eastern Standard Time)","672622","Match,No Match","","","","","","","null","","<div class='trialBorder'><div class='vertical-center'><img style='vertical-align:center; align:center' src='img/fixation2_sml.jpg'></div><div class='arrayDiv3'><div class='tl'><img class='introPic' src='trustrating_stim/white_mw070.bmp'><br><font color='red'><strong>Keep</strong></font></div><div class='tc'><img class='introPic' src='trustrating_stim/white_mw042.bmp'><br><font color='red'><strong>Keep</strong></font></div><div class='tr'><img class='introPic' src='trustrating_stim/white_mw040.bmp'><br><font color='green'><strong>Share</strong></font></div></div></div>","null","ARRAY","3","trustrating_stim/white_mw070.bmp,trustrating_stim/white_mw042.bmp,trustrating_stim/white_mw040.bmp","0,0,1","noMatchOutcome","i","4500","","","","",""
"html-keyboard-response","57","251831","0.0-7.0-3.4","63dc7b5bf451a34177b66c66","bdp_wmem","Fri Mar 10 2023 15:32:03 GMT-0500 (Eastern Standard Time)","672622","Match,No Match","","","","","","","null","","<div class='trialBorder'><div class='vertical-center'><img src='img/fixation2_sml.jpg'</img></div></div>","null","DELAY","","","","","","","","","","",""
"html-keyboard-response","58","253264","0.0-7.0-4.4","63dc7b5bf451a34177b66c66","bdp_wmem","Fri Mar 10 2023 15:32:03 GMT-0500 (Eastern Standard Time)","672622","Match,No Match","","","","","","","1431","","<div class='trialBorder'><div class='targDiv'><div class='tc'><img class='introPic' src='trustrating_stim/white_mw070.bmp'><br><font color='green'><strong>Share</strong></font></div></div><div class='respDiv'><div class='respDivL'>Match<br>(e)</div><div class='respDivR'>No Match<br>(i)</div></div></div>","i","TARGET","3","trustrating_stim/white_mw070.bmp,trustrating_stim/white_mw042.bmp,trustrating_stim/white_mw040.bmp","0,0,1","noMatchOutcome","i","4500","trustrating_stim/white_mw070.bmp","green","Share","REAL","1"
"html-keyboard-response","59","253774","0.0-7.0-5.4","63dc7b5bf451a34177b66c66","bdp_wmem","Fri Mar 10 2023 15:32:03 GMT-0500 (Eastern Standard Time)","672622","Match,No Match","","","","","","","null","","<div class='trialBorder'><div class='vertical-center'><img src='img/correct.jpg'></div><div class='respDiv'><div class='respDivL'>Match<br>(e)</div><div class='respDivR'><font style='color:orange'>No Match<br>(i)</font></div></div></div>","null","FEEDBACK","","","","","","","","","","",""
"html-keyboard-response","60","254280","0.0-7.0-1.5","63dc7b5bf451a34177b66c66","bdp_wmem","Fri Mar 10 2023 15:32:03 GMT-0500 (Eastern Standard Time)","672622","Match,No Match","","","","","","","null","","<div class='trialBorder'><div class='vertical-center'><img src='img/fixation2_sml.jpg'</img></div></div>","null","FIX","","","","","","","","","","",""
"html-keyboard-response","61","258789","0.0-7.0-2.5","63dc7b5bf451a34177b66c66","bdp_wmem","Fri Mar 10 2023 15:32:03 GMT-0500 (Eastern Standard Time)","672622","Match,No Match","","","","","","","null","","<div class='trialBorder'><div class='vertical-center'><img style='vertical-align:center; align:center' src='img/fixation2_sml.jpg'></div><div class='arrayDiv3'><div class='tl'><img class='introPic' src='trustrating_stim/white_mw092.bmp'><br><font color='green'><strong>Share</strong></font></div><div class='tc'><img class='introPic' src='trustrating_stim/white_mw010.bmp'><br><font color='red'><strong>Keep</strong></font></div><div class='tr'><img class='introPic' src='trustrating_stim/white_mw078.bmp'><br><font color='red'><strong>Keep</strong></font></div></div></div>","null","ARRAY","3","trustrating_stim/white_mw092.bmp,trustrating_stim/white_mw010.bmp,trustrating_stim/white_mw078.bmp","1,0,0","Match","e","4500","","","","",""
"html-keyboard-response","62","262794","0.0-7.0-3.5","63dc7b5bf451a34177b66c66","bdp_wmem","Fri Mar 10 2023 15:32:03 GMT-0500 (Eastern Standard Time)","672622","Match,No Match","","","","","","","null","","<div class='trialBorder'><div class='vertical-center'><img src='img/fixation2_sml.jpg'</img></div></div>","null","DELAY","","","","","","","","","","",""
"html-keyboard-response","63","264824","0.0-7.0-4.5","63dc7b5bf451a34177b66c66","bdp_wmem","Fri Mar 10 2023 15:32:03 GMT-0500 (Eastern Standard Time)","672622","Match,No Match","","","","","","","2029","","<div class='trialBorder'><div class='targDiv'><div class='tc'><img class='introPic' src='trustrating_stim/white_mw078.bmp'><br><font color='red'><strong>Keep</strong></font></div></div><div class='respDiv'><div class='respDivL'>Match<br>(e)</div><div class='respDivR'>No Match<br>(i)</div></div></div>","e","TARGET","3","trustrating_stim/white_mw092.bmp,trustrating_stim/white_mw010.bmp,trustrating_stim/white_mw078.bmp","1,0,0","Match","e","4500","trustrating_stim/white_mw078.bmp","red","Keep","REAL","1"
"html-keyboard-response","64","265326","0.0-7.0-5.5","63dc7b5bf451a34177b66c66","bdp_wmem","Fri Mar 10 2023 15:32:03 GMT-0500 (Eastern Standard Time)","672622","Match,No Match","","","","","","","null","","<div class='trialBorder'><div class='vertical-center'><img src='img/correct.jpg'></div><div class='respDiv'><div class='respDivL'><font style='color:orange'>Match<br>(e)</font></div><div class='respDivR'>No Match<br>(i)</div></div></div>","null","FEEDBACK","","","","","","","","","","",""
"html-keyboard-response","65","265833","0.0-7.0-1.6","63dc7b5bf451a34177b66c66","bdp_wmem","Fri Mar 10 2023 15:32:03 GMT-0500 (Eastern Standard Time)","672622","Match,No Match","","","","","","","null","","<div class='trialBorder'><div class='vertical-center'><img src='img/fixation2_sml.jpg'</img></div></div>","null","FIX","","","","","","","","","","",""
"html-keyboard-response","66","267337","0.0-7.0-2.6","63dc7b5bf451a34177b66c66","bdp_wmem","Fri Mar 10 2023 15:32:03 GMT-0500 (Eastern Standard Time)","672622","Match,No Match","","","","","","","null","","<div class='trialBorder'><div class='vertical-center'><img style='vertical-align:center; align:center' src='img/fixation2_sml.jpg'></div><div class='arrayDiv1'><div class='tc'><img class='introPic' src='trustrating_stim/white_mw085.bmp'><br><font color='green'><strong>Share</strong></font></div></div></div>","null","ARRAY","1","trustrating_stim/white_mw085.bmp","1","noMatchFace","i","1500","","","","",""
"html-keyboard-response","67","271353","0.0-7.0-3.6","63dc7b5bf451a34177b66c66","bdp_wmem","Fri Mar 10 2023 15:32:03 GMT-0500 (Eastern Standard Time)","672622","Match,No Match","","","","","","","null","","<div class='trialBorder'><div class='vertical-center'><img src='img/fixation2_sml.jpg'</img></div></div>","null","DELAY","","","","","","","","","","",""
"html-keyboard-response","68","273776","0.0-7.0-4.6","63dc7b5bf451a34177b66c66","bdp_wmem","Fri Mar 10 2023 15:32:03 GMT-0500 (Eastern Standard Time)","672622","Match,No Match","","","","","","","2421","","<div class='trialBorder'><div class='targDiv'><div class='tc'><img class='introPic' src='trustrating_stim/white_mw040.bmp'><br><font color='green'><strong>Share</strong></font></div></div><div class='respDiv'><div class='respDivL'>Match<br>(e)</div><div class='respDivR'>No Match<br>(i)</div></div></div>","i","TARGET","1","trustrating_stim/white_mw085.bmp","1","noMatchFace","i","1500","trustrating_stim/white_mw040.bmp","green","Share","REAL","1"
"html-keyboard-response","69","274279","0.0-7.0-5.6","63dc7b5bf451a34177b66c66","bdp_wmem","Fri Mar 10 2023 15:32:03 GMT-0500 (Eastern Standard Time)","672622","Match,No Match","","","","","","","null","","<div class='trialBorder'><div class='vertical-center'><img src='img/correct.jpg'></div><div class='respDiv'><div class='respDivL'>Match<br>(e)</div><div class='respDivR'><font style='color:orange'>No Match<br>(i)</font></div></div></div>","null","FEEDBACK","","","","","","","","","","",""
"html-keyboard-response","70","274788","0.0-7.0-1.7","63dc7b5bf451a34177b66c66","bdp_wmem","Fri Mar 10 2023 15:32:03 GMT-0500 (Eastern Standard Time)","672622","Match,No Match","","","","","","","null","","<div class='trialBorder'><div class='vertical-center'><img src='img/fixation2_sml.jpg'</img></div></div>","null","FIX","","","","","","","","","","",""
"html-keyboard-response","71","279305","0.0-7.0-2.7","63dc7b5bf451a34177b66c66","bdp_wmem","Fri Mar 10 2023 15:32:03 GMT-0500 (Eastern Standard Time)","672622","Match,No Match","","","","","","","null","","<div class='trialBorder'><div class='vertical-center'><img style='vertical-align:center; align:center' src='img/fixation2_sml.jpg'></div><div class='arrayDiv3'><div class='tl'><img class='introPic' src='trustrating_stim/white_mw012.bmp'><br><font color='green'><strong>Share</strong></font></div><div class='tc'><img class='introPic' src='trustrating_stim/white_mw010.bmp'><br><font color='red'><strong>Keep</strong></font></div><div class='tr'><img class='introPic' src='trustrating_stim/white_mw042.bmp'><br><font color='red'><strong>Keep</strong></font></div></div></div>","null","ARRAY","3","trustrating_stim/white_mw012.bmp,trustrating_stim/white_mw010.bmp,trustrating_stim/white_mw042.bmp","1,0,0","Match","e","4500","","","","",""
"html-keyboard-response","72","283318","0.0-7.0-3.7","63dc7b5bf451a34177b66c66","bdp_wmem","Fri Mar 10 2023 15:32:03 GMT-0500 (Eastern Standard Time)","672622","Match,No Match","","","","","","","null","","<div class='trialBorder'><div class='vertical-center'><img src='img/fixation2_sml.jpg'</img></div></div>","null","DELAY","","","","","","","","","","",""
"html-keyboard-response","73","284861","0.0-7.0-4.7","63dc7b5bf451a34177b66c66","bdp_wmem","Fri Mar 10 2023 15:32:03 GMT-0500 (Eastern Standard Time)","672622","Match,No Match","","","","","","","1540","","<div class='trialBorder'><div class='targDiv'><div class='tc'><img class='introPic' src='trustrating_stim/white_mw042.bmp'><br><font color='red'><strong>Keep</strong></font></div></div><div class='respDiv'><div class='respDivL'>Match<br>(e)</div><div class='respDivR'>No Match<br>(i)</div></div></div>","e","TARGET","3","trustrating_stim/white_mw012.bmp,trustrating_stim/white_mw010.bmp,trustrating_stim/white_mw042.bmp","1,0,0","Match","e","4500","trustrating_stim/white_mw042.bmp","red","Keep","REAL","1"
"html-keyboard-response","74","285369","0.0-7.0-5.7","63dc7b5bf451a34177b66c66","bdp_wmem","Fri Mar 10 2023 15:32:03 GMT-0500 (Eastern Standard Time)","672622","Match,No Match","","","","","","","null","","<div class='trialBorder'><div class='vertical-center'><img src='img/correct.jpg'></div><div class='respDiv'><div class='respDivL'><font style='color:orange'>Match<br>(e)</font></div><div class='respDivR'>No Match<br>(i)</div></div></div>","null","FEEDBACK","","","","","","","","","","",""
"html-keyboard-response","75","285875","0.0-7.0-1.8","63dc7b5bf451a34177b66c66","bdp_wmem","Fri Mar 10 2023 15:32:03 GMT-0500 (Eastern Standard Time)","672622","Match,No Match","","","","","","","null","","<div class='trialBorder'><div class='vertical-center'><img src='img/fixation2_sml.jpg'</img></div></div>","null","FIX","","","","","","","","","","",""
"html-keyboard-response","76","290385","0.0-7.0-2.8","63dc7b5bf451a34177b66c66","bdp_wmem","Fri Mar 10 2023 15:32:03 GMT-0500 (Eastern Standard Time)","672622","Match,No Match","","","","","","","null","","<div class='trialBorder'><div class='vertical-center'><img style='vertical-align:center; align:center' src='img/fixation2_sml.jpg'></div><div class='arrayDiv3'><div class='tl'><img class='introPic' src='trustrating_stim/white_mw012.bmp'><br><font color='green'><strong>Share</strong></font></div><div class='tc'><img class='introPic' src='trustrating_stim/white_mw010.bmp'><br><font color='green'><strong>Share</strong></font></div><div class='tr'><img class='introPic' src='trustrating_stim/white_mw042.bmp'><br><font color='red'><strong>Keep</strong></font></div></div></div>","null","ARRAY","3","trustrating_stim/white_mw012.bmp,trustrating_stim/white_mw010.bmp,trustrating_stim/white_mw042.bmp","1,1,0","noMatchFace","i","4500","","","","",""
"html-keyboard-response","77","294391","0.0-7.0-3.8","63dc7b5bf451a34177b66c66","bdp_wmem","Fri Mar 10 2023 15:32:03 GMT-0500 (Eastern Standard Time)","672622","Match,No Match","","","","","","","null","","<div class='trialBorder'><div class='vertical-center'><img src='img/fixation2_sml.jpg'</img></div></div>","null","DELAY","","","","","","","","","","",""
"html-keyboard-response","78","296046","0.0-7.0-4.8","63dc7b5bf451a34177b66c66","bdp_wmem","Fri Mar 10 2023 15:32:03 GMT-0500 (Eastern Standard Time)","672622","Match,No Match","","","","","","","1653","","<div class='trialBorder'><div class='targDiv'><div class='tc'><img class='introPic' src='trustrating_stim/white_mw091.bmp'><br><font color='green'><strong>Share</strong></font></div></div><div class='respDiv'><div class='respDivL'>Match<br>(e)</div><div class='respDivR'>No Match<br>(i)</div></div></div>","i","TARGET","3","trustrating_stim/white_mw012.bmp,trustrating_stim/white_mw010.bmp,trustrating_stim/white_mw042.bmp","1,1,0","noMatchFace","i","4500","trustrating_stim/white_mw091.bmp","green","Share","REAL","1"
"html-keyboard-response","79","296548","0.0-7.0-5.8","63dc7b5bf451a34177b66c66","bdp_wmem","Fri Mar 10 2023 15:32:03 GMT-0500 (Eastern Standard Time)","672622","Match,No Match","","","","","","","null","","<div class='trialBorder'><div class='vertical-center'><img src='img/correct.jpg'></div><div class='respDiv'><div class='respDivL'>Match<br>(e)</div><div class='respDivR'><font style='color:orange'>No Match<br>(i)</font></div></div></div>","null","FEEDBACK","","","","","","","","","","",""
"html-keyboard-response","80","297051","0.0-7.0-1.9","63dc7b5bf451a34177b66c66","bdp_wmem","Fri Mar 10 2023 15:32:03 GMT-0500 (Eastern Standard Time)","672622","Match,No Match","","","","","","","null","","<div class='trialBorder'><div class='vertical-center'><img src='img/fixation2_sml.jpg'</img></div></div>","null","FIX","","","","","","","","","","",""
"html-keyboard-response","81","300066","0.0-7.0-2.9","63dc7b5bf451a34177b66c66","bdp_wmem","Fri Mar 10 2023 15:32:03 GMT-0500 (Eastern Standard Time)","672622","Match,No Match","","","","","","","null","","<div class='trialBorder'><div class='vertical-center'><img style='vertical-align:center; align:center' src='img/fixation2_sml.jpg'></div><div class='arrayDiv2'><div class='tl'><img class='introPic' src='trustrating_stim/white_mw003.bmp'><br><font color='green'><strong>Share</strong></font></div><div class='tr'><img class='introPic' src='trustrating_stim/white_mw092.bmp'><br><font color='red'><strong>Keep</strong></font></div></div></div>","null","ARRAY","2","trustrating_stim/white_mw003.bmp,trustrating_stim/white_mw092.bmp","1,0","noMatchOutcome","i","3000","","","","",""
"html-keyboard-response","82","304068","0.0-7.0-3.9","63dc7b5bf451a34177b66c66","bdp_wmem","Fri Mar 10 2023 15:32:03 GMT-0500 (Eastern Standard Time)","672622","Match,No Match","","","","","","","null","","<div class='trialBorder'><div class='vertical-center'><img src='img/fixation2_sml.jpg'</img></div></div>","null","DELAY","","","","","","","","","","",""
"html-keyboard-response","83","305791","0.0-7.0-4.9","63dc7b5bf451a34177b66c66","bdp_wmem","Fri Mar 10 2023 15:32:03 GMT-0500 (Eastern Standard Time)","672622","Match,No Match","","","","","","","1719","","<div class='trialBorder'><div class='targDiv'><div class='tc'><img class='introPic' src='trustrating_stim/white_mw092.bmp'><br><font color='green'><strong>Share</strong></font></div></div><div class='respDiv'><div class='respDivL'>Match<br>(e)</div><div class='respDivR'>No Match<br>(i)</div></div></div>","i","TARGET","2","trustrating_stim/white_mw003.bmp,trustrating_stim/white_mw092.bmp","1,0","noMatchOutcome","i","3000","trustrating_stim/white_mw092.bmp","green","Share","REAL","1"
"html-keyboard-response","84","306295","0.0-7.0-5.9","63dc7b5bf451a34177b66c66","bdp_wmem","Fri Mar 10 2023 15:32:03 GMT-0500 (Eastern Standard Time)","672622","Match,No Match","","","","","","","null","","<div class='trialBorder'><div class='vertical-center'><img src='img/correct.jpg'></div><div class='respDiv'><div class='respDivL'>Match<br>(e)</div><div class='respDivR'><font style='color:orange'>No Match<br>(i)</font></div></div></div>","null","FEEDBACK","","","","","","","","","","",""
"html-keyboard-response","85","306797","0.0-7.0-1.10","63dc7b5bf451a34177b66c66","bdp_wmem","Fri Mar 10 2023 15:32:03 GMT-0500 (Eastern Standard Time)","672622","Match,No Match","","","","","","","null","","<div class='trialBorder'><div class='vertical-center'><img src='img/fixation2_sml.jpg'</img></div></div>","null","FIX","","","","","","","","","","",""
"html-keyboard-response","86","311303","0.0-7.0-2.10","63dc7b5bf451a34177b66c66","bdp_wmem","Fri Mar 10 2023 15:32:03 GMT-0500 (Eastern Standard Time)","672622","Match,No Match","","","","","","","null","","<div class='trialBorder'><div class='vertical-center'><img style='vertical-align:center; align:center' src='img/fixation2_sml.jpg'></div><div class='arrayDiv3'><div class='tl'><img class='introPic' src='trustrating_stim/white_mw092.bmp'><br><font color='red'><strong>Keep</strong></font></div><div class='tc'><img class='introPic' src='trustrating_stim/white_mw012.bmp'><br><font color='red'><strong>Keep</strong></font></div><div class='tr'><img class='introPic' src='trustrating_stim/white_mw078.bmp'><br><font color='green'><strong>Share</strong></font></div></div></div>","null","ARRAY","3","trustrating_stim/white_mw092.bmp,trustrating_stim/white_mw012.bmp,trustrating_stim/white_mw078.bmp","0,0,1","Match","e","4500","","","","",""
"html-keyboard-response","87","315311","0.0-7.0-3.10","63dc7b5bf451a34177b66c66","bdp_wmem","Fri Mar 10 2023 15:32:03 GMT-0500 (Eastern Standard Time)","672622","Match,No Match","","","","","","","null","","<div class='trialBorder'><div class='vertical-center'><img src='img/fixation2_sml.jpg'</img></div></div>","null","DELAY","","","","","","","","","","",""
"html-keyboard-response","88","317876","0.0-7.0-4.10","63dc7b5bf451a34177b66c66","bdp_wmem","Fri Mar 10 2023 15:32:03 GMT-0500 (Eastern Standard Time)","672622","Match,No Match","","","","","","","2563","","<div class='trialBorder'><div class='targDiv'><div class='tc'><img class='introPic' src='trustrating_stim/white_mw078.bmp'><br><font color='green'><strong>Share</strong></font></div></div><div class='respDiv'><div class='respDivL'>Match<br>(e)</div><div class='respDivR'>No Match<br>(i)</div></div></div>","i","TARGET","3","trustrating_stim/white_mw092.bmp,trustrating_stim/white_mw012.bmp,trustrating_stim/white_mw078.bmp","0,0,1","Match","e","4500","trustrating_stim/white_mw078.bmp","green","Share","REAL","0"
"html-keyboard-response","89","318380","0.0-7.0-5.10","63dc7b5bf451a34177b66c66","bdp_wmem","Fri Mar 10 2023 15:32:03 GMT-0500 (Eastern Standard Time)","672622","Match,No Match","","","","","","","null","","<div class='trialBorder'><div class='vertical-center'><img src='img/error.jpg'></div><div class='respDiv'><div class='respDivL'>Match<br>(e)</div><div class='respDivR'><font style='color:orange'>No Match<br>(i)</font></div></div></div>","null","FEEDBACK","","","","","","","","","","",""
"html-keyboard-response","90","318884","0.0-7.0-1.11","63dc7b5bf451a34177b66c66","bdp_wmem","Fri Mar 10 2023 15:32:03 GMT-0500 (Eastern Standard Time)","672622","Match,No Match","","","","","","","null","","<div class='trialBorder'><div class='vertical-center'><img src='img/fixation2_sml.jpg'</img></div></div>","null","FIX","","","","","","","","","","",""
"html-keyboard-response","91","320392","0.0-7.0-2.11","63dc7b5bf451a34177b66c66","bdp_wmem","Fri Mar 10 2023 15:32:03 GMT-0500 (Eastern Standard Time)","672622","Match,No Match","","","","","","","null","","<div class='trialBorder'><div class='vertical-center'><img style='vertical-align:center; align:center' src='img/fixation2_sml.jpg'></div><div class='arrayDiv1'><div class='tc'><img class='introPic' src='trustrating_stim/white_mw003.bmp'><br><font color='red'><strong>Keep</strong></font></div></div></div>","null","ARRAY","1","trustrating_stim/white_mw003.bmp","0","noMatchFace","i","1500","","","","",""
"html-keyboard-response","92","324400","0.0-7.0-3.11","63dc7b5bf451a34177b66c66","bdp_wmem","Fri Mar 10 2023 15:32:03 GMT-0500 (Eastern Standard Time)","672622","Match,No Match","","","","","","","null","","<div class='trialBorder'><div class='vertical-center'><img src='img/fixation2_sml.jpg'</img></div></div>","null","DELAY","","","","","","","","","","",""
"html-keyboard-response","93","325833","0.0-7.0-4.11","63dc7b5bf451a34177b66c66","bdp_wmem","Fri Mar 10 2023 15:32:03 GMT-0500 (Eastern Standard Time)","672622","Match,No Match","","","","","","","1431","","<div class='trialBorder'><div class='targDiv'><div class='tc'><img class='introPic' src='trustrating_stim/white_mw078.bmp'><br><font color='red'><strong>Keep</strong></font></div></div><div class='respDiv'><div class='respDivL'>Match<br>(e)</div><div class='respDivR'>No Match<br>(i)</div></div></div>","i","TARGET","1","trustrating_stim/white_mw003.bmp","0","noMatchFace","i","1500","trustrating_stim/white_mw078.bmp","red","Keep","REAL","1"
"html-keyboard-response","94","326338","0.0-7.0-5.11","63dc7b5bf451a34177b66c66","bdp_wmem","Fri Mar 10 2023 15:32:03 GMT-0500 (Eastern Standard Time)","672622","Match,No Match","","","","","","","null","","<div class='trialBorder'><div class='vertical-center'><img src='img/correct.jpg'></div><div class='respDiv'><div class='respDivL'>Match<br>(e)</div><div class='respDivR'><font style='color:orange'>No Match<br>(i)</font></div></div></div>","null","FEEDBACK","","","","","","","","","","",""
"html-keyboard-response","95","326844","0.0-7.0-1.12","63dc7b5bf451a34177b66c66","bdp_wmem","Fri Mar 10 2023 15:32:03 GMT-0500 (Eastern Standard Time)","672622","Match,No Match","","","","","","","null","","<div class='trialBorder'><div class='vertical-center'><img src='img/fixation2_sml.jpg'</img></div></div>","null","FIX","","","","","","","","","","",""
"html-keyboard-response","96","329852","0.0-7.0-2.12","63dc7b5bf451a34177b66c66","bdp_wmem","Fri Mar 10 2023 15:32:03 GMT-0500 (Eastern Standard Time)","672622","Match,No Match","","","","","","","null","","<div class='trialBorder'><div class='vertical-center'><img style='vertical-align:center; align:center' src='img/fixation2_sml.jpg'></div><div class='arrayDiv2'><div class='tl'><img class='introPic' src='trustrating_stim/white_mw070.bmp'><br><font color='red'><strong>Keep</strong></font></div><div class='tr'><img class='introPic' src='trustrating_stim/white_mw010.bmp'><br><font color='green'><strong>Share</strong></font></div></div></div>","null","ARRAY","2","trustrating_stim/white_mw070.bmp,trustrating_stim/white_mw010.bmp","0,1","Match","e","3000","","","","",""
"html-keyboard-response","97","333859","0.0-7.0-3.12","63dc7b5bf451a34177b66c66","bdp_wmem","Fri Mar 10 2023 15:32:03 GMT-0500 (Eastern Standard Time)","672622","Match,No Match","","","","","","","null","","<div class='trialBorder'><div class='vertical-center'><img src='img/fixation2_sml.jpg'</img></div></div>","null","DELAY","","","","","","","","","","",""
"html-keyboard-response","98","334515","0.0-7.0-4.12","63dc7b5bf451a34177b66c66","bdp_wmem","Fri Mar 10 2023 15:32:03 GMT-0500 (Eastern Standard Time)","672622","Match,No Match","","","","","","","653","","<div class='trialBorder'><div class='targDiv'><div class='tc'><img class='introPic' src='trustrating_stim/white_mw010.bmp'><br><font color='green'><strong>Share</strong></font></div></div><div class='respDiv'><div class='respDivL'>Match<br>(e)</div><div class='respDivR'>No Match<br>(i)</div></div></div>","e","TARGET","2","trustrating_stim/white_mw070.bmp,trustrating_stim/white_mw010.bmp","0,1","Match","e","3000","trustrating_stim/white_mw010.bmp","green","Share","REAL","1"
"html-keyboard-response","99","335022","0.0-7.0-5.12","63dc7b5bf451a34177b66c66","bdp_wmem","Fri Mar 10 2023 15:32:03 GMT-0500 (Eastern Standard Time)","672622","Match,No Match","","","","","","","null","","<div class='trialBorder'><div class='vertical-center'><img src='img/correct.jpg'></div><div class='respDiv'><div class='respDivL'><font style='color:orange'>Match<br>(e)</font></div><div class='respDivR'>No Match<br>(i)</div></div></div>","null","FEEDBACK","","","","","","","","","","",""
"html-keyboard-response","100","335533","0.0-7.0-1.13","63dc7b5bf451a34177b66c66","bdp_wmem","Fri Mar 10 2023 15:32:03 GMT-0500 (Eastern Standard Time)","672622","Match,No Match","","","","","","","null","","<div class='trialBorder'><div class='vertical-center'><img src='img/fixation2_sml.jpg'</img></div></div>","null","FIX","","","","","","","","","","",""
"html-keyboard-response","101","340039","0.0-7.0-2.13","63dc7b5bf451a34177b66c66","bdp_wmem","Fri Mar 10 2023 15:32:03 GMT-0500 (Eastern Standard Time)","672622","Match,No Match","","","","","","","null","","<div class='trialBorder'><div class='vertical-center'><img style='vertical-align:center; align:center' src='img/fixation2_sml.jpg'></div><div class='arrayDiv3'><div class='tl'><img class='introPic' src='trustrating_stim/white_mw013.bmp'><br><font color='green'><strong>Share</strong></font></div><div class='tc'><img class='introPic' src='trustrating_stim/white_mw012.bmp'><br><font color='red'><strong>Keep</strong></font></div><div class='tr'><img class='introPic' src='trustrating_stim/white_mw010.bmp'><br><font color='red'><strong>Keep</strong></font></div></div></div>","null","ARRAY","3","trustrating_stim/white_mw013.bmp,trustrating_stim/white_mw012.bmp,trustrating_stim/white_mw010.bmp","1,0,0","Match","e","4500","","","","",""
"html-keyboard-response","102","344044","0.0-7.0-3.13","63dc7b5bf451a34177b66c66","bdp_wmem","Fri Mar 10 2023 15:32:03 GMT-0500 (Eastern Standard Time)","672622","Match,No Match","","","","","","","null","","<div class='trialBorder'><div class='vertical-center'><img src='img/fixation2_sml.jpg'</img></div></div>","null","DELAY","","","","","","","","","","",""
"html-keyboard-response","103","345691","0.0-7.0-4.13","63dc7b5bf451a34177b66c66","bdp_wmem","Fri Mar 10 2023 15:32:03 GMT-0500 (Eastern Standard Time)","672622","Match,No Match","","","","","","","1645","","<div class='trialBorder'><div class='targDiv'><div class='tc'><img class='introPic' src='trustrating_stim/white_mw010.bmp'><br><font color='red'><strong>Keep</strong></font></div></div><div class='respDiv'><div class='respDivL'>Match<br>(e)</div><div class='respDivR'>No Match<br>(i)</div></div></div>","e","TARGET","3","trustrating_stim/white_mw013.bmp,trustrating_stim/white_mw012.bmp,trustrating_stim/white_mw010.bmp","1,0,0","Match","e","4500","trustrating_stim/white_mw010.bmp","red","Keep","REAL","1"
"html-keyboard-response","104","346199","0.0-7.0-5.13","63dc7b5bf451a34177b66c66","bdp_wmem","Fri Mar 10 2023 15:32:03 GMT-0500 (Eastern Standard Time)","672622","Match,No Match","","","","","","","null","","<div class='trialBorder'><div class='vertical-center'><img src='img/correct.jpg'></div><div class='respDiv'><div class='respDivL'><font style='color:orange'>Match<br>(e)</font></div><div class='respDivR'>No Match<br>(i)</div></div></div>","null","FEEDBACK","","","","","","","","","","",""
"html-keyboard-response","105","346716","0.0-7.0-1.14","63dc7b5bf451a34177b66c66","bdp_wmem","Fri Mar 10 2023 15:32:03 GMT-0500 (Eastern Standard Time)","672622","Match,No Match","","","","","","","null","","<div class='trialBorder'><div class='vertical-center'><img src='img/fixation2_sml.jpg'</img></div></div>","null","FIX","","","","","","","","","","",""
"html-keyboard-response","106","348224","0.0-7.0-2.14","63dc7b5bf451a34177b66c66","bdp_wmem","Fri Mar 10 2023 15:32:03 GMT-0500 (Eastern Standard Time)","672622","Match,No Match","","","","","","","null","","<div class='trialBorder'><div class='vertical-center'><img style='vertical-align:center; align:center' src='img/fixation2_sml.jpg'></div><div class='arrayDiv1'><div class='tc'><img class='introPic' src='trustrating_stim/white_mw092.bmp'><br><font color='green'><strong>Share</strong></font></div></div></div>","null","ARRAY","1","trustrating_stim/white_mw092.bmp","1","noMatchOutcome","i","1500","","","","",""
"html-keyboard-response","107","352231","0.0-7.0-3.14","63dc7b5bf451a34177b66c66","bdp_wmem","Fri Mar 10 2023 15:32:03 GMT-0500 (Eastern Standard Time)","672622","Match,No Match","","","","","","","null","","<div class='trialBorder'><div class='vertical-center'><img src='img/fixation2_sml.jpg'</img></div></div>","null","DELAY","","","","","","","","","","",""
"html-keyboard-response","108","353300","0.0-7.0-4.14","63dc7b5bf451a34177b66c66","bdp_wmem","Fri Mar 10 2023 15:32:03 GMT-0500 (Eastern Standard Time)","672622","Match,No Match","","","","","","","1067","","<div class='trialBorder'><div class='targDiv'><div class='tc'><img class='introPic' src='trustrating_stim/white_mw092.bmp'><br><font color='red'><strong>Keep</strong></font></div></div><div class='respDiv'><div class='respDivL'>Match<br>(e)</div><div class='respDivR'>No Match<br>(i)</div></div></div>","i","TARGET","1","trustrating_stim/white_mw092.bmp","1","noMatchOutcome","i","1500","trustrating_stim/white_mw092.bmp","red","Keep","REAL","1"
"html-keyboard-response","109","353804","0.0-7.0-5.14","63dc7b5bf451a34177b66c66","bdp_wmem","Fri Mar 10 2023 15:32:03 GMT-0500 (Eastern Standard Time)","672622","Match,No Match","","","","","","","null","","<div class='trialBorder'><div class='vertical-center'><img src='img/correct.jpg'></div><div class='respDiv'><div class='respDivL'>Match<br>(e)</div><div class='respDivR'><font style='color:orange'>No Match<br>(i)</font></div></div></div>","null","FEEDBACK","","","","","","","","","","",""
"html-keyboard-response","110","354310","0.0-7.0-1.15","63dc7b5bf451a34177b66c66","bdp_wmem","Fri Mar 10 2023 15:32:03 GMT-0500 (Eastern Standard Time)","672622","Match,No Match","","","","","","","null","","<div class='trialBorder'><div class='vertical-center'><img src='img/fixation2_sml.jpg'</img></div></div>","null","FIX","","","","","","","","","","",""
"html-keyboard-response","111","358816","0.0-7.0-2.15","63dc7b5bf451a34177b66c66","bdp_wmem","Fri Mar 10 2023 15:32:03 GMT-0500 (Eastern Standard Time)","672622","Match,No Match","","","","","","","null","","<div class='trialBorder'><div class='vertical-center'><img style='vertical-align:center; align:center' src='img/fixation2_sml.jpg'></div><div class='arrayDiv3'><div class='tl'><img class='introPic' src='trustrating_stim/white_mw013.bmp'><br><font color='green'><strong>Share</strong></font></div><div class='tc'><img class='introPic' src='trustrating_stim/white_mw092.bmp'><br><font color='green'><strong>Share</strong></font></div><div class='tr'><img class='introPic' src='trustrating_stim/white_mw040.bmp'><br><font color='red'><strong>Keep</strong></font></div></div></div>","null","ARRAY","3","trustrating_stim/white_mw013.bmp,trustrating_stim/white_mw092.bmp,trustrating_stim/white_mw040.bmp","1,1,0","noMatchOutcome","i","4500","","","","",""
"html-keyboard-response","112","362822","0.0-7.0-3.15","63dc7b5bf451a34177b66c66","bdp_wmem","Fri Mar 10 2023 15:32:03 GMT-0500 (Eastern Standard Time)","672622","Match,No Match","","","","","","","null","","<div class='trialBorder'><div class='vertical-center'><img src='img/fixation2_sml.jpg'</img></div></div>","null","DELAY","","","","","","","","","","",""
"html-keyboard-response","113","364628","0.0-7.0-4.15","63dc7b5bf451a34177b66c66","bdp_wmem","Fri Mar 10 2023 15:32:03 GMT-0500 (Eastern Standard Time)","672622","Match,No Match","","","","","","","1804","","<div class='trialBorder'><div class='targDiv'><div class='tc'><img class='introPic' src='trustrating_stim/white_mw092.bmp'><br><font color='red'><strong>Keep</strong></font></div></div><div class='respDiv'><div class='respDivL'>Match<br>(e)</div><div class='respDivR'>No Match<br>(i)</div></div></div>","i","TARGET","3","trustrating_stim/white_mw013.bmp,trustrating_stim/white_mw092.bmp,trustrating_stim/white_mw040.bmp","1,1,0","noMatchOutcome","i","4500","trustrating_stim/white_mw092.bmp","red","Keep","REAL","1"
"html-keyboard-response","114","365137","0.0-7.0-5.15","63dc7b5bf451a34177b66c66","bdp_wmem","Fri Mar 10 2023 15:32:03 GMT-0500 (Eastern Standard Time)","672622","Match,No Match","","","","","","","null","","<div class='trialBorder'><div class='vertical-center'><img src='img/correct.jpg'></div><div class='respDiv'><div class='respDivL'>Match<br>(e)</div><div class='respDivR'><font style='color:orange'>No Match<br>(i)</font></div></div></div>","null","FEEDBACK","","","","","","","","","","",""
"html-keyboard-response","115","365643","0.0-7.0-1.16","63dc7b5bf451a34177b66c66","bdp_wmem","Fri Mar 10 2023 15:32:03 GMT-0500 (Eastern Standard Time)","672622","Match,No Match","","","","","","","null","","<div class='trialBorder'><div class='vertical-center'><img src='img/fixation2_sml.jpg'</img></div></div>","null","FIX","","","","","","","","","","",""
"html-keyboard-response","116","367148","0.0-7.0-2.16","63dc7b5bf451a34177b66c66","bdp_wmem","Fri Mar 10 2023 15:32:03 GMT-0500 (Eastern Standard Time)","672622","Match,No Match","","","","","","","null","","<div class='trialBorder'><div class='vertical-center'><img style='vertical-align:center; align:center' src='img/fixation2_sml.jpg'></div><div class='arrayDiv1'><div class='tc'><img class='introPic' src='trustrating_stim/white_mw042.bmp'><br><font color='green'><strong>Share</strong></font></div></div></div>","null","ARRAY","1","trustrating_stim/white_mw042.bmp","1","Match","e","1500","","","","",""
"html-keyboard-response","117","371156","0.0-7.0-3.16","63dc7b5bf451a34177b66c66","bdp_wmem","Fri Mar 10 2023 15:32:03 GMT-0500 (Eastern Standard Time)","672622","Match,No Match","","","","","","","null","","<div class='trialBorder'><div class='vertical-center'><img src='img/fixation2_sml.jpg'</img></div></div>","null","DELAY","","","","","","","","","","",""
"html-keyboard-response","118","372348","0.0-7.0-4.16","63dc7b5bf451a34177b66c66","bdp_wmem","Fri Mar 10 2023 15:32:03 GMT-0500 (Eastern Standard Time)","672622","Match,No Match","","","","","","","1189","","<div class='trialBorder'><div class='targDiv'><div class='tc'><img class='introPic' src='trustrating_stim/white_mw042.bmp'><br><font color='green'><strong>Share</strong></font></div></div><div class='respDiv'><div class='respDivL'>Match<br>(e)</div><div class='respDivR'>No Match<br>(i)</div></div></div>","e","TARGET","1","trustrating_stim/white_mw042.bmp","1","Match","e","1500","trustrating_stim/white_mw042.bmp","green","Share","REAL","1"
"html-keyboard-response","119","372854","0.0-7.0-5.16","63dc7b5bf451a34177b66c66","bdp_wmem","Fri Mar 10 2023 15:32:03 GMT-0500 (Eastern Standard Time)","672622","Match,No Match","","","","","","","null","","<div class='trialBorder'><div class='vertical-center'><img src='img/correct.jpg'></div><div class='respDiv'><div class='respDivL'><font style='color:orange'>Match<br>(e)</font></div><div class='respDivR'>No Match<br>(i)</div></div></div>","null","FEEDBACK","","","","","","","","","","",""
"html-keyboard-response","120","373367","0.0-7.0-1.17","63dc7b5bf451a34177b66c66","bdp_wmem","Fri Mar 10 2023 15:32:03 GMT-0500 (Eastern Standard Time)","672622","Match,No Match","","","","","","","null","","<div class='trialBorder'><div class='vertical-center'><img src='img/fixation2_sml.jpg'</img></div></div>","null","FIX","","","","","","","","","","",""
"html-keyboard-response","121","374871","0.0-7.0-2.17","63dc7b5bf451a34177b66c66","bdp_wmem","Fri Mar 10 2023 15:32:03 GMT-0500 (Eastern Standard Time)","672622","Match,No Match","","","","","","","null","","<div class='trialBorder'><div class='vertical-center'><img style='vertical-align:center; align:center' src='img/fixation2_sml.jpg'></div><div class='arrayDiv1'><div class='tc'><img class='introPic' src='trustrating_stim/white_mw013.bmp'><br><font color='red'><strong>Keep</strong></font></div></div></div>","null","ARRAY","1","trustrating_stim/white_mw013.bmp","0","Match","e","1500","","","","",""
"html-keyboard-response","122","378878","0.0-7.0-3.17","63dc7b5bf451a34177b66c66","bdp_wmem","Fri Mar 10 2023 15:32:03 GMT-0500 (Eastern Standard Time)","672622","Match,No Match","","","","","","","null","","<div class='trialBorder'><div class='vertical-center'><img src='img/fixation2_sml.jpg'</img></div></div>","null","DELAY","","","","","","","","","","",""
"html-keyboard-response","123","380016","0.0-7.0-4.17","63dc7b5bf451a34177b66c66","bdp_wmem","Fri Mar 10 2023 15:32:03 GMT-0500 (Eastern Standard Time)","672622","Match,No Match","","","","","","","1136","","<div class='trialBorder'><div class='targDiv'><div class='tc'><img class='introPic' src='trustrating_stim/white_mw013.bmp'><br><font color='red'><strong>Keep</strong></font></div></div><div class='respDiv'><div class='respDivL'>Match<br>(e)</div><div class='respDivR'>No Match<br>(i)</div></div></div>","e","TARGET","1","trustrating_stim/white_mw013.bmp","0","Match","e","1500","trustrating_stim/white_mw013.bmp","red","Keep","REAL","1"
"html-keyboard-response","124","380524","0.0-7.0-5.17","63dc7b5bf451a34177b66c66","bdp_wmem","Fri Mar 10 2023 15:32:03 GMT-0500 (Eastern Standard Time)","672622","Match,No Match","","","","","","","null","","<div class='trialBorder'><div class='vertical-center'><img src='img/correct.jpg'></div><div class='respDiv'><div class='respDivL'><font style='color:orange'>Match<br>(e)</font></div><div class='respDivR'>No Match<br>(i)</div></div></div>","null","FEEDBACK","","","","","","","","","","",""
"html-keyboard-response","125","381026","0.0-7.0-1.18","63dc7b5bf451a34177b66c66","bdp_wmem","Fri Mar 10 2023 15:32:03 GMT-0500 (Eastern Standard Time)","672622","Match,No Match","","","","","","","null","","<div class='trialBorder'><div class='vertical-center'><img src='img/fixation2_sml.jpg'</img></div></div>","null","FIX","","","","","","","","","","",""
"html-keyboard-response","126","382534","0.0-7.0-2.18","63dc7b5bf451a34177b66c66","bdp_wmem","Fri Mar 10 2023 15:32:03 GMT-0500 (Eastern Standard Time)","672622","Match,No Match","","","","","","","null","","<div class='trialBorder'><div class='vertical-center'><img style='vertical-align:center; align:center' src='img/fixation2_sml.jpg'></div><div class='arrayDiv1'><div class='tc'><img class='introPic' src='trustrating_stim/white_mw003.bmp'><br><font color='red'><strong>Keep</strong></font></div></div></div>","null","ARRAY","1","trustrating_stim/white_mw003.bmp","0","Match","e","1500","","","","",""
"html-keyboard-response","127","386543","0.0-7.0-3.18","63dc7b5bf451a34177b66c66","bdp_wmem","Fri Mar 10 2023 15:32:03 GMT-0500 (Eastern Standard Time)","672622","Match,No Match","","","","","","","null","","<div class='trialBorder'><div class='vertical-center'><img src='img/fixation2_sml.jpg'</img></div></div>","null","DELAY","","","","","","","","","","",""
"html-keyboard-response","128","387573","0.0-7.0-4.18","63dc7b5bf451a34177b66c66","bdp_wmem","Fri Mar 10 2023 15:32:03 GMT-0500 (Eastern Standard Time)","672622","Match,No Match","","","","","","","1028","","<div class='trialBorder'><div class='targDiv'><div class='tc'><img class='introPic' src='trustrating_stim/white_mw003.bmp'><br><font color='red'><strong>Keep</strong></font></div></div><div class='respDiv'><div class='respDivL'>Match<br>(e)</div><div class='respDivR'>No Match<br>(i)</div></div></div>","e","TARGET","1","trustrating_stim/white_mw003.bmp","0","Match","e","1500","trustrating_stim/white_mw003.bmp","red","Keep","REAL","1"
"html-keyboard-response","129","388087","0.0-7.0-5.18","63dc7b5bf451a34177b66c66","bdp_wmem","Fri Mar 10 2023 15:32:03 GMT-0500 (Eastern Standard Time)","672622","Match,No Match","","","","","","","null","","<div class='trialBorder'><div class='vertical-center'><img src='img/correct.jpg'></div><div class='respDiv'><div class='respDivL'><font style='color:orange'>Match<br>(e)</font></div><div class='respDivR'>No Match<br>(i)</div></div></div>","null","FEEDBACK","","","","","","","","","","",""
"html-keyboard-response","130","388593","0.0-7.0-1.19","63dc7b5bf451a34177b66c66","bdp_wmem","Fri Mar 10 2023 15:32:03 GMT-0500 (Eastern Standard Time)","672622","Match,No Match","","","","","","","null","","<div class='trialBorder'><div class='vertical-center'><img src='img/fixation2_sml.jpg'</img></div></div>","null","FIX","","","","","","","","","","",""
"html-keyboard-response","131","393097","0.0-7.0-2.19","63dc7b5bf451a34177b66c66","bdp_wmem","Fri Mar 10 2023 15:32:03 GMT-0500 (Eastern Standard Time)","672622","Match,No Match","","","","","","","null","","<div class='trialBorder'><div class='vertical-center'><img style='vertical-align:center; align:center' src='img/fixation2_sml.jpg'></div><div class='arrayDiv3'><div class='tl'><img class='introPic' src='trustrating_stim/white_mw003.bmp'><br><font color='red'><strong>Keep</strong></font></div><div class='tc'><img class='introPic' src='trustrating_stim/white_mw040.bmp'><br><font color='green'><strong>Share</strong></font></div><div class='tr'><img class='introPic' src='trustrating_stim/white_mw091.bmp'><br><font color='green'><strong>Share</strong></font></div></div></div>","null","ARRAY","3","trustrating_stim/white_mw003.bmp,trustrating_stim/white_mw040.bmp,trustrating_stim/white_mw091.bmp","0,1,1","Match","e","4500","","","","",""
"html-keyboard-response","132","397101","0.0-7.0-3.19","63dc7b5bf451a34177b66c66","bdp_wmem","Fri Mar 10 2023 15:32:03 GMT-0500 (Eastern Standard Time)","672622","Match,No Match","","","","","","","null","","<div class='trialBorder'><div class='vertical-center'><img src='img/fixation2_sml.jpg'</img></div></div>","null","DELAY","","","","","","","","","","",""
"html-keyboard-response","133","399552","0.0-7.0-4.19","63dc7b5bf451a34177b66c66","bdp_wmem","Fri Mar 10 2023 15:32:03 GMT-0500 (Eastern Standard Time)","672622","Match,No Match","","","","","","","2448","","<div class='trialBorder'><div class='targDiv'><div class='tc'><img class='introPic' src='trustrating_stim/white_mw091.bmp'><br><font color='green'><strong>Share</strong></font></div></div><div class='respDiv'><div class='respDivL'>Match<br>(e)</div><div class='respDivR'>No Match<br>(i)</div></div></div>","i","TARGET","3","trustrating_stim/white_mw003.bmp,trustrating_stim/white_mw040.bmp,trustrating_stim/white_mw091.bmp","0,1,1","Match","e","4500","trustrating_stim/white_mw091.bmp","green","Share","REAL","0"
"html-keyboard-response","134","400058","0.0-7.0-5.19","63dc7b5bf451a34177b66c66","bdp_wmem","Fri Mar 10 2023 15:32:03 GMT-0500 (Eastern Standard Time)","672622","Match,No Match","","","","","","","null","","<div class='trialBorder'><div class='vertical-center'><img src='img/error.jpg'></div><div class='respDiv'><div class='respDivL'>Match<br>(e)</div><div class='respDivR'><font style='color:orange'>No Match<br>(i)</font></div></div></div>","null","FEEDBACK","","","","","","","","","","",""
"html-keyboard-response","135","400567","0.0-7.0-1.20","63dc7b5bf451a34177b66c66","bdp_wmem","Fri Mar 10 2023 15:32:03 GMT-0500 (Eastern Standard Time)","672622","Match,No Match","","","","","","","null","","<div class='trialBorder'><div class='vertical-center'><img src='img/fixation2_sml.jpg'</img></div></div>","null","FIX","","","","","","","","","","",""
"html-keyboard-response","136","403572","0.0-7.0-2.20","63dc7b5bf451a34177b66c66","bdp_wmem","Fri Mar 10 2023 15:32:03 GMT-0500 (Eastern Standard Time)","672622","Match,No Match","","","","","","","null","","<div class='trialBorder'><div class='vertical-center'><img style='vertical-align:center; align:center' src='img/fixation2_sml.jpg'></div><div class='arrayDiv2'><div class='tl'><img class='introPic' src='trustrating_stim/white_mw013.bmp'><br><font color='green'><strong>Share</strong></font></div><div class='tr'><img class='introPic' src='trustrating_stim/white_mw003.bmp'><br><font color='red'><strong>Keep</strong></font></div></div></div>","null","ARRAY","2","trustrating_stim/white_mw013.bmp,trustrating_stim/white_mw003.bmp","1,0","noMatchFace","i","3000","","","","",""
"html-keyboard-response","137","407573","0.0-7.0-3.20","63dc7b5bf451a34177b66c66","bdp_wmem","Fri Mar 10 2023 15:32:03 GMT-0500 (Eastern Standard Time)","672622","Match,No Match","","","","","","","null","","<div class='trialBorder'><div class='vertical-center'><img src='img/fixation2_sml.jpg'</img></div></div>","null","DELAY","","","","","","","","","","",""
"html-keyboard-response","138","412183","0.0-7.0-4.20","63dc7b5bf451a34177b66c66","bdp_wmem","Fri Mar 10 2023 15:32:03 GMT-0500 (Eastern Standard Time)","672622","Match,No Match","","","","","","","4607","","<div class='trialBorder'><div class='targDiv'><div class='tc'><img class='introPic' src='trustrating_stim/white_mw038.bmp'><br><font color='green'><strong>Share</strong></font></div></div><div class='respDiv'><div class='respDivL'>Match<br>(e)</div><div class='respDivR'>No Match<br>(i)</div></div></div>","i","TARGET","2","trustrating_stim/white_mw013.bmp,trustrating_stim/white_mw003.bmp","1,0","noMatchFace","i","3000","trustrating_stim/white_mw038.bmp","green","Share","REAL","1"
"html-keyboard-response","139","412689","0.0-7.0-5.20","63dc7b5bf451a34177b66c66","bdp_wmem","Fri Mar 10 2023 15:32:03 GMT-0500 (Eastern Standard Time)","672622","Match,No Match","","","","","","","null","","<div class='trialBorder'><div class='vertical-center'><img src='img/correct.jpg'></div><div class='respDiv'><div class='respDivL'>Match<br>(e)</div><div class='respDivR'><font style='color:orange'>No Match<br>(i)</font></div></div></div>","null","FEEDBACK","","","","","","","","","","",""
"html-keyboard-response","140","413190","0.0-7.0-1.21","63dc7b5bf451a34177b66c66","bdp_wmem","Fri Mar 10 2023 15:32:03 GMT-0500 (Eastern Standard Time)","672622","Match,No Match","","","","","","","null","","<div class='trialBorder'><div class='vertical-center'><img src='img/fixation2_sml.jpg'</img></div></div>","null","FIX","","","","","","","","","","",""
"html-keyboard-response","141","416194","0.0-7.0-2.21","63dc7b5bf451a34177b66c66","bdp_wmem","Fri Mar 10 2023 15:32:03 GMT-0500 (Eastern Standard Time)","672622","Match,No Match","","","","","","","null","","<div class='trialBorder'><div class='vertical-center'><img style='vertical-align:center; align:center' src='img/fixation2_sml.jpg'></div><div class='arrayDiv2'><div class='tl'><img class='introPic' src='trustrating_stim/white_mw013.bmp'><br><font color='red'><strong>Keep</strong></font></div><div class='tr'><img class='introPic' src='trustrating_stim/white_mw003.bmp'><br><font color='green'><strong>Share</strong></font></div></div></div>","null","ARRAY","2","trustrating_stim/white_mw013.bmp,trustrating_stim/white_mw003.bmp","0,1","Match","e","3000","","","","",""
"html-keyboard-response","142","420204","0.0-7.0-3.21","63dc7b5bf451a34177b66c66","bdp_wmem","Fri Mar 10 2023 15:32:03 GMT-0500 (Eastern Standard Time)","672622","Match,No Match","","","","","","","null","","<div class='trialBorder'><div class='vertical-center'><img src='img/fixation2_sml.jpg'</img></div></div>","null","DELAY","","","","","","","","","","",""
"html-keyboard-response","143","421649","0.0-7.0-4.21","63dc7b5bf451a34177b66c66","bdp_wmem","Fri Mar 10 2023 15:32:03 GMT-0500 (Eastern Standard Time)","672622","Match,No Match","","","","","","","1442","","<div class='trialBorder'><div class='targDiv'><div class='tc'><img class='introPic' src='trustrating_stim/white_mw003.bmp'><br><font color='green'><strong>Share</strong></font></div></div><div class='respDiv'><div class='respDivL'>Match<br>(e)</div><div class='respDivR'>No Match<br>(i)</div></div></div>","e","TARGET","2","trustrating_stim/white_mw013.bmp,trustrating_stim/white_mw003.bmp","0,1","Match","e","3000","trustrating_stim/white_mw003.bmp","green","Share","REAL","1"
"html-keyboard-response","144","422155","0.0-7.0-5.21","63dc7b5bf451a34177b66c66","bdp_wmem","Fri Mar 10 2023 15:32:03 GMT-0500 (Eastern Standard Time)","672622","Match,No Match","","","","","","","null","","<div class='trialBorder'><div class='vertical-center'><img src='img/correct.jpg'></div><div class='respDiv'><div class='respDivL'><font style='color:orange'>Match<br>(e)</font></div><div class='respDivR'>No Match<br>(i)</div></div></div>","null","FEEDBACK","","","","","","","","","","",""
"html-keyboard-response","145","422659","0.0-7.0-1.22","63dc7b5bf451a34177b66c66","bdp_wmem","Fri Mar 10 2023 15:32:03 GMT-0500 (Eastern Standard Time)","672622","Match,No Match","","","","","","","null","","<div class='trialBorder'><div class='vertical-center'><img src='img/fixation2_sml.jpg'</img></div></div>","null","FIX","","","","","","","","","","",""
"html-keyboard-response","146","427168","0.0-7.0-2.22","63dc7b5bf451a34177b66c66","bdp_wmem","Fri Mar 10 2023 15:32:03 GMT-0500 (Eastern Standard Time)","672622","Match,No Match","","","","","","","null","","<div class='trialBorder'><div class='vertical-center'><img style='vertical-align:center; align:center' src='img/fixation2_sml.jpg'></div><div class='arrayDiv3'><div class='tl'><img class='introPic' src='trustrating_stim/white_mw003.bmp'><br><font color='red'><strong>Keep</strong></font></div><div class='tc'><img class='introPic' src='trustrating_stim/white_mw010.bmp'><br><font color='green'><strong>Share</strong></font></div><div class='tr'><img class='introPic' src='trustrating_stim/white_mw092.bmp'><br><font color='red'><strong>Keep</strong></font></div></div></div>","null","ARRAY","3","trustrating_stim/white_mw003.bmp,trustrating_stim/white_mw010.bmp,trustrating_stim/white_mw092.bmp","0,1,0","noMatchFace","i","4500","","","","",""
"html-keyboard-response","147","431184","0.0-7.0-3.22","63dc7b5bf451a34177b66c66","bdp_wmem","Fri Mar 10 2023 15:32:03 GMT-0500 (Eastern Standard Time)","672622","Match,No Match","","","","","","","null","","<div class='trialBorder'><div class='vertical-center'><img src='img/fixation2_sml.jpg'</img></div></div>","null","DELAY","","","","","","","","","","",""
"html-keyboard-response","148","431914","0.0-7.0-4.22","63dc7b5bf451a34177b66c66","bdp_wmem","Fri Mar 10 2023 15:32:03 GMT-0500 (Eastern Standard Time)","672622","Match,No Match","","","","","","","728","","<div class='trialBorder'><div class='targDiv'><div class='tc'><img class='introPic' src='trustrating_stim/white_mw085.bmp'><br><font color='green'><strong>Share</strong></font></div></div><div class='respDiv'><div class='respDivL'>Match<br>(e)</div><div class='respDivR'>No Match<br>(i)</div></div></div>","i","TARGET","3","trustrating_stim/white_mw003.bmp,trustrating_stim/white_mw010.bmp,trustrating_stim/white_mw092.bmp","0,1,0","noMatchFace","i","4500","trustrating_stim/white_mw085.bmp","green","Share","REAL","1"
"html-keyboard-response","149","432418","0.0-7.0-5.22","63dc7b5bf451a34177b66c66","bdp_wmem","Fri Mar 10 2023 15:32:03 GMT-0500 (Eastern Standard Time)","672622","Match,No Match","","","","","","","null","","<div class='trialBorder'><div class='vertical-center'><img src='img/correct.jpg'></div><div class='respDiv'><div class='respDivL'>Match<br>(e)</div><div class='respDivR'><font style='color:orange'>No Match<br>(i)</font></div></div></div>","null","FEEDBACK","","","","","","","","","","",""
"html-keyboard-response","150","432922","0.0-7.0-1.23","63dc7b5bf451a34177b66c66","bdp_wmem","Fri Mar 10 2023 15:32:03 GMT-0500 (Eastern Standard Time)","672622","Match,No Match","","","","","","","null","","<div class='trialBorder'><div class='vertical-center'><img src='img/fixation2_sml.jpg'</img></div></div>","null","FIX","","","","","","","","","","",""
"html-keyboard-response","151","437424","0.0-7.0-2.23","63dc7b5bf451a34177b66c66","bdp_wmem","Fri Mar 10 2023 15:32:03 GMT-0500 (Eastern Standard Time)","672622","Match,No Match","","","","","","","null","","<div class='trialBorder'><div class='vertical-center'><img style='vertical-align:center; align:center' src='img/fixation2_sml.jpg'></div><div class='arrayDiv3'><div class='tl'><img class='introPic' src='trustrating_stim/white_mw013.bmp'><br><font color='green'><strong>Share</strong></font></div><div class='tc'><img class='introPic' src='trustrating_stim/white_mw070.bmp'><br><font color='red'><strong>Keep</strong></font></div><div class='tr'><img class='introPic' src='trustrating_stim/white_mw091.bmp'><br><font color='green'><strong>Share</strong></font></div></div></div>","null","ARRAY","3","trustrating_stim/white_mw013.bmp,trustrating_stim/white_mw070.bmp,trustrating_stim/white_mw091.bmp","1,0,1","Match","e","4500","","","","",""
"html-keyboard-response","152","441439","0.0-7.0-3.23","63dc7b5bf451a34177b66c66","bdp_wmem","Fri Mar 10 2023 15:32:03 GMT-0500 (Eastern Standard Time)","672622","Match,No Match","","","","","","","null","","<div class='trialBorder'><div class='vertical-center'><img src='img/fixation2_sml.jpg'</img></div></div>","null","DELAY","","","","","","","","","","",""
"html-keyboard-response","153","443506","0.0-7.0-4.23","63dc7b5bf451a34177b66c66","bdp_wmem","Fri Mar 10 2023 15:32:03 GMT-0500 (Eastern Standard Time)","672622","Match,No Match","","","","","","","2065","","<div class='trialBorder'><div class='targDiv'><div class='tc'><img class='introPic' src='trustrating_stim/white_mw091.bmp'><br><font color='green'><strong>Share</strong></font></div></div><div class='respDiv'><div class='respDivL'>Match<br>(e)</div><div class='respDivR'>No Match<br>(i)</div></div></div>","e","TARGET","3","trustrating_stim/white_mw013.bmp,trustrating_stim/white_mw070.bmp,trustrating_stim/white_mw091.bmp","1,0,1","Match","e","4500","trustrating_stim/white_mw091.bmp","green","Share","REAL","1"
"html-keyboard-response","154","444011","0.0-7.0-5.23","63dc7b5bf451a34177b66c66","bdp_wmem","Fri Mar 10 2023 15:32:03 GMT-0500 (Eastern Standard Time)","672622","Match,No Match","","","","","","","null","","<div class='trialBorder'><div class='vertical-center'><img src='img/correct.jpg'></div><div class='respDiv'><div class='respDivL'><font style='color:orange'>Match<br>(e)</font></div><div class='respDivR'>No Match<br>(i)</div></div></div>","null","FEEDBACK","","","","","","","","","","",""
"html-keyboard-response","155","444517","0.0-7.0-1.24","63dc7b5bf451a34177b66c66","bdp_wmem","Fri Mar 10 2023 15:32:03 GMT-0500 (Eastern Standard Time)","672622","Match,No Match","","","","","","","null","","<div class='trialBorder'><div class='vertical-center'><img src='img/fixation2_sml.jpg'</img></div></div>","null","FIX","","","","","","","","","","",""
"html-keyboard-response","156","449028","0.0-7.0-2.24","63dc7b5bf451a34177b66c66","bdp_wmem","Fri Mar 10 2023 15:32:03 GMT-0500 (Eastern Standard Time)","672622","Match,No Match","","","","","","","null","","<div class='trialBorder'><div class='vertical-center'><img style='vertical-align:center; align:center' src='img/fixation2_sml.jpg'></div><div class='arrayDiv3'><div class='tl'><img class='introPic' src='trustrating_stim/white_mw078.bmp'><br><font color='red'><strong>Keep</strong></font></div><div class='tc'><img class='introPic' src='trustrating_stim/white_mw012.bmp'><br><font color='red'><strong>Keep</strong></font></div><div class='tr'><img class='introPic' src='trustrating_stim/white_mw040.bmp'><br><font color='green'><strong>Share</strong></font></div></div></div>","null","ARRAY","3","trustrating_stim/white_mw078.bmp,trustrating_stim/white_mw012.bmp,trustrating_stim/white_mw040.bmp","0,0,1","Match","e","4500","","","","",""
"html-keyboard-response","157","453045","0.0-7.0-3.24","63dc7b5bf451a34177b66c66","bdp_wmem","Fri Mar 10 2023 15:32:03 GMT-0500 (Eastern Standard Time)","672622","Match,No Match","","","","","","","null","","<div class='trialBorder'><div class='vertical-center'><img src='img/fixation2_sml.jpg'</img></div></div>","null","DELAY","","","","","","","","","","",""
"html-keyboard-response","158","453723","0.0-7.0-4.24","63dc7b5bf451a34177b66c66","bdp_wmem","Fri Mar 10 2023 15:32:03 GMT-0500 (Eastern Standard Time)","672622","Match,No Match","","","","","","","675","","<div class='trialBorder'><div class='targDiv'><div class='tc'><img class='introPic' src='trustrating_stim/white_mw078.bmp'><br><font color='red'><strong>Keep</strong></font></div></div><div class='respDiv'><div class='respDivL'>Match<br>(e)</div><div class='respDivR'>No Match<br>(i)</div></div></div>","i","TARGET","3","trustrating_stim/white_mw078.bmp,trustrating_stim/white_mw012.bmp,trustrating_stim/white_mw040.bmp","0,0,1","Match","e","4500","trustrating_stim/white_mw078.bmp","red","Keep","REAL","0"
"html-keyboard-response","159","454230","0.0-7.0-5.24","63dc7b5bf451a34177b66c66","bdp_wmem","Fri Mar 10 2023 15:32:03 GMT-0500 (Eastern Standard Time)","672622","Match,No Match","","","","","","","null","","<div class='trialBorder'><div class='vertical-center'><img src='img/error.jpg'></div><div class='respDiv'><div class='respDivL'>Match<br>(e)</div><div class='respDivR'><font style='color:orange'>No Match<br>(i)</font></div></div></div>","null","FEEDBACK","","","","","","","","","","",""
"html-keyboard-response","160","454737","0.0-7.0-1.25","63dc7b5bf451a34177b66c66","bdp_wmem","Fri Mar 10 2023 15:32:03 GMT-0500 (Eastern Standard Time)","672622","Match,No Match","","","","","","","null","","<div class='trialBorder'><div class='vertical-center'><img src='img/fixation2_sml.jpg'</img></div></div>","null","FIX","","","","","","","","","","",""
"html-keyboard-response","161","456242","0.0-7.0-2.25","63dc7b5bf451a34177b66c66","bdp_wmem","Fri Mar 10 2023 15:32:03 GMT-0500 (Eastern Standard Time)","672622","Match,No Match","","","","","","","null","","<div class='trialBorder'><div class='vertical-center'><img style='vertical-align:center; align:center' src='img/fixation2_sml.jpg'></div><div class='arrayDiv1'><div class='tc'><img class='introPic' src='trustrating_stim/white_mw085.bmp'><br><font color='red'><strong>Keep</strong></font></div></div></div>","null","ARRAY","1","trustrating_stim/white_mw085.bmp","0","Match","e","1500","","","","",""
"html-keyboard-response","162","460249","0.0-7.0-3.25","63dc7b5bf451a34177b66c66","bdp_wmem","Fri Mar 10 2023 15:32:03 GMT-0500 (Eastern Standard Time)","672622","Match,No Match","","","","","","","null","","<div class='trialBorder'><div class='vertical-center'><img src='img/fixation2_sml.jpg'</img></div></div>","null","DELAY","","","","","","","","","","",""
"html-keyboard-response","163","462262","0.0-7.0-4.25","63dc7b5bf451a34177b66c66","bdp_wmem","Fri Mar 10 2023 15:32:03 GMT-0500 (Eastern Standard Time)","672622","Match,No Match","","","","","","","2010","","<div class='trialBorder'><div class='targDiv'><div class='tc'><img class='introPic' src='trustrating_stim/white_mw085.bmp'><br><font color='red'><strong>Keep</strong></font></div></div><div class='respDiv'><div class='respDivL'>Match<br>(e)</div><div class='respDivR'>No Match<br>(i)</div></div></div>","e","TARGET","1","trustrating_stim/white_mw085.bmp","0","Match","e","1500","trustrating_stim/white_mw085.bmp","red","Keep","REAL","1"
"html-keyboard-response","164","462769","0.0-7.0-5.25","63dc7b5bf451a34177b66c66","bdp_wmem","Fri Mar 10 2023 15:32:03 GMT-0500 (Eastern Standard Time)","672622","Match,No Match","","","","","","","null","","<div class='trialBorder'><div class='vertical-center'><img src='img/correct.jpg'></div><div class='respDiv'><div class='respDivL'><font style='color:orange'>Match<br>(e)</font></div><div class='respDivR'>No Match<br>(i)</div></div></div>","null","FEEDBACK","","","","","","","","","","",""
"html-keyboard-response","165","463273","0.0-7.0-1.26","63dc7b5bf451a34177b66c66","bdp_wmem","Fri Mar 10 2023 15:32:03 GMT-0500 (Eastern Standard Time)","672622","Match,No Match","","","","","","","null","","<div class='trialBorder'><div class='vertical-center'><img src='img/fixation2_sml.jpg'</img></div></div>","null","FIX","","","","","","","","","","",""
"html-keyboard-response","166","464779","0.0-7.0-2.26","63dc7b5bf451a34177b66c66","bdp_wmem","Fri Mar 10 2023 15:32:03 GMT-0500 (Eastern Standard Time)","672622","Match,No Match","","","","","","","null","","<div class='trialBorder'><div class='vertical-center'><img style='vertical-align:center; align:center' src='img/fixation2_sml.jpg'></div><div class='arrayDiv1'><div class='tc'><img class='introPic' src='trustrating_stim/white_mw091.bmp'><br><font color='green'><strong>Share</strong></font></div></div></div>","null","ARRAY","1","trustrating_stim/white_mw091.bmp","1","Match","e","1500","","","","",""
"html-keyboard-response","167","468785","0.0-7.0-3.26","63dc7b5bf451a34177b66c66","bdp_wmem","Fri Mar 10 2023 15:32:03 GMT-0500 (Eastern Standard Time)","672622","Match,No Match","","","","","","","null","","<div class='trialBorder'><div class='vertical-center'><img src='img/fixation2_sml.jpg'</img></div></div>","null","DELAY","","","","","","","","","","",""
"html-keyboard-response","168","470024","0.0-7.0-4.26","63dc7b5bf451a34177b66c66","bdp_wmem","Fri Mar 10 2023 15:32:03 GMT-0500 (Eastern Standard Time)","672622","Match,No Match","","","","","","","1238","","<div class='trialBorder'><div class='targDiv'><div class='tc'><img class='introPic' src='trustrating_stim/white_mw091.bmp'><br><font color='green'><strong>Share</strong></font></div></div><div class='respDiv'><div class='respDivL'>Match<br>(e)</div><div class='respDivR'>No Match<br>(i)</div></div></div>","e","TARGET","1","trustrating_stim/white_mw091.bmp","1","Match","e","1500","trustrating_stim/white_mw091.bmp","green","Share","REAL","1"
"html-keyboard-response","169","470529","0.0-7.0-5.26","63dc7b5bf451a34177b66c66","bdp_wmem","Fri Mar 10 2023 15:32:03 GMT-0500 (Eastern Standard Time)","672622","Match,No Match","","","","","","","null","","<div class='trialBorder'><div class='vertical-center'><img src='img/correct.jpg'></div><div class='respDiv'><div class='respDivL'><font style='color:orange'>Match<br>(e)</font></div><div class='respDivR'>No Match<br>(i)</div></div></div>","null","FEEDBACK","","","","","","","","","","",""
"html-keyboard-response","170","471039","0.0-7.0-1.27","63dc7b5bf451a34177b66c66","bdp_wmem","Fri Mar 10 2023 15:32:03 GMT-0500 (Eastern Standard Time)","672622","Match,No Match","","","","","","","null","","<div class='trialBorder'><div class='vertical-center'><img src='img/fixation2_sml.jpg'</img></div></div>","null","FIX","","","","","","","","","","",""
"html-keyboard-response","171","472547","0.0-7.0-2.27","63dc7b5bf451a34177b66c66","bdp_wmem","Fri Mar 10 2023 15:32:03 GMT-0500 (Eastern Standard Time)","672622","Match,No Match","","","","","","","null","","<div class='trialBorder'><div class='vertical-center'><img style='vertical-align:center; align:center' src='img/fixation2_sml.jpg'></div><div class='arrayDiv1'><div class='tc'><img class='introPic' src='trustrating_stim/white_mw091.bmp'><br><font color='red'><strong>Keep</strong></font></div></div></div>","null","ARRAY","1","trustrating_stim/white_mw091.bmp","0","noMatchFace","i","1500","","","","",""
"html-keyboard-response","172","476550","0.0-7.0-3.27","63dc7b5bf451a34177b66c66","bdp_wmem","Fri Mar 10 2023 15:32:03 GMT-0500 (Eastern Standard Time)","672622","Match,No Match","","","","","","","null","","<div class='trialBorder'><div class='vertical-center'><img src='img/fixation2_sml.jpg'</img></div></div>","null","DELAY","","","","","","","","","","",""
"html-keyboard-response","173","478581","0.0-7.0-4.27","63dc7b5bf451a34177b66c66","bdp_wmem","Fri Mar 10 2023 15:32:03 GMT-0500 (Eastern Standard Time)","672622","Match,No Match","","","","","","","2029","","<div class='trialBorder'><div class='targDiv'><div class='tc'><img class='introPic' src='trustrating_stim/white_mw092.bmp'><br><font color='red'><strong>Keep</strong></font></div></div><div class='respDiv'><div class='respDivL'>Match<br>(e)</div><div class='respDivR'>No Match<br>(i)</div></div></div>","i","TARGET","1","trustrating_stim/white_mw091.bmp","0","noMatchFace","i","1500","trustrating_stim/white_mw092.bmp","red","Keep","REAL","1"
"html-keyboard-response","174","479087","0.0-7.0-5.27","63dc7b5bf451a34177b66c66","bdp_wmem","Fri Mar 10 2023 15:32:03 GMT-0500 (Eastern Standard Time)","672622","Match,No Match","","","","","","","null","","<div class='trialBorder'><div class='vertical-center'><img src='img/correct.jpg'></div><div class='respDiv'><div class='respDivL'>Match<br>(e)</div><div class='respDivR'><font style='color:orange'>No Match<br>(i)</font></div></div></div>","null","FEEDBACK","","","","","","","","","","",""
"html-keyboard-response","175","479605","0.0-7.0-1.28","63dc7b5bf451a34177b66c66","bdp_wmem","Fri Mar 10 2023 15:32:03 GMT-0500 (Eastern Standard Time)","672622","Match,No Match","","","","","","","null","","<div class='trialBorder'><div class='vertical-center'><img src='img/fixation2_sml.jpg'</img></div></div>","null","FIX","","","","","","","","","","",""
"html-keyboard-response","176","484112","0.0-7.0-2.28","63dc7b5bf451a34177b66c66","bdp_wmem","Fri Mar 10 2023 15:32:03 GMT-0500 (Eastern Standard Time)","672622","Match,No Match","","","","","","","null","","<div class='trialBorder'><div class='vertical-center'><img style='vertical-align:center; align:center' src='img/fixation2_sml.jpg'></div><div class='arrayDiv3'><div class='tl'><img class='introPic' src='trustrating_stim/white_mw012.bmp'><br><font color='green'><strong>Share</strong></font></div><div class='tc'><img class='introPic' src='trustrating_stim/white_mw013.bmp'><br><font color='red'><strong>Keep</strong></font></div><div class='tr'><img class='introPic' src='trustrating_stim/white_mw092.bmp'><br><font color='red'><strong>Keep</strong></font></div></div></div>","null","ARRAY","3","trustrating_stim/white_mw012.bmp,trustrating_stim/white_mw013.bmp,trustrating_stim/white_mw092.bmp","1,0,0","noMatchOutcome","i","4500","","","","",""
"html-keyboard-response","177","488117","0.0-7.0-3.28","63dc7b5bf451a34177b66c66","bdp_wmem","Fri Mar 10 2023 15:32:03 GMT-0500 (Eastern Standard Time)","672622","Match,No Match","","","","","","","null","","<div class='trialBorder'><div class='vertical-center'><img src='img/fixation2_sml.jpg'</img></div></div>","null","DELAY","","","","","","","","","","",""
"html-keyboard-response","178","488969","0.0-7.0-4.28","63dc7b5bf451a34177b66c66","bdp_wmem","Fri Mar 10 2023 15:32:03 GMT-0500 (Eastern Standard Time)","672622","Match,No Match","","","","","","","850","","<div class='trialBorder'><div class='targDiv'><div class='tc'><img class='introPic' src='trustrating_stim/white_mw013.bmp'><br><font color='green'><strong>Share</strong></font></div></div><div class='respDiv'><div class='respDivL'>Match<br>(e)</div><div class='respDivR'>No Match<br>(i)</div></div></div>","i","TARGET","3","trustrating_stim/white_mw012.bmp,trustrating_stim/white_mw013.bmp,trustrating_stim/white_mw092.bmp","1,0,0","noMatchOutcome","i","4500","trustrating_stim/white_mw013.bmp","green","Share","REAL","1"
"html-keyboard-response","179","489472","0.0-7.0-5.28","63dc7b5bf451a34177b66c66","bdp_wmem","Fri Mar 10 2023 15:32:03 GMT-0500 (Eastern Standard Time)","672622","Match,No Match","","","","","","","null","","<div class='trialBorder'><div class='vertical-center'><img src='img/correct.jpg'></div><div class='respDiv'><div class='respDivL'>Match<br>(e)</div><div class='respDivR'><font style='color:orange'>No Match<br>(i)</font></div></div></div>","null","FEEDBACK","","","","","","","","","","",""
"html-keyboard-response","180","489980","0.0-7.0-1.29","63dc7b5bf451a34177b66c66","bdp_wmem","Fri Mar 10 2023 15:32:03 GMT-0500 (Eastern Standard Time)","672622","Match,No Match","","","","","","","null","","<div class='trialBorder'><div class='vertical-center'><img src='img/fixation2_sml.jpg'</img></div></div>","null","FIX","","","","","","","","","","",""
"html-keyboard-response","181","492988","0.0-7.0-2.29","63dc7b5bf451a34177b66c66","bdp_wmem","Fri Mar 10 2023 15:32:03 GMT-0500 (Eastern Standard Time)","672622","Match,No Match","","","","","","","null","","<div class='trialBorder'><div class='vertical-center'><img style='vertical-align:center; align:center' src='img/fixation2_sml.jpg'></div><div class='arrayDiv2'><div class='tl'><img class='introPic' src='trustrating_stim/white_mw042.bmp'><br><font color='red'><strong>Keep</strong></font></div><div class='tr'><img class='introPic' src='trustrating_stim/white_mw038.bmp'><br><font color='green'><strong>Share</strong></font></div></div></div>","null","ARRAY","2","trustrating_stim/white_mw042.bmp,trustrating_stim/white_mw038.bmp","0,1","noMatchOutcome","i","3000","","","","",""
"html-keyboard-response","182","496993","0.0-7.0-3.29","63dc7b5bf451a34177b66c66","bdp_wmem","Fri Mar 10 2023 15:32:03 GMT-0500 (Eastern Standard Time)","672622","Match,No Match","","","","","","","null","","<div class='trialBorder'><div class='vertical-center'><img src='img/fixation2_sml.jpg'</img></div></div>","null","DELAY","","","","","","","","","","",""
"html-keyboard-response","183","499721","0.0-7.0-4.29","63dc7b5bf451a34177b66c66","bdp_wmem","Fri Mar 10 2023 15:32:03 GMT-0500 (Eastern Standard Time)","672622","Match,No Match","","","","","","","2727","","<div class='trialBorder'><div class='targDiv'><div class='tc'><img class='introPic' src='trustrating_stim/white_mw038.bmp'><br><font color='red'><strong>Keep</strong></font></div></div><div class='respDiv'><div class='respDivL'>Match<br>(e)</div><div class='respDivR'>No Match<br>(i)</div></div></div>","i","TARGET","2","trustrating_stim/white_mw042.bmp,trustrating_stim/white_mw038.bmp","0,1","noMatchOutcome","i","3000","trustrating_stim/white_mw038.bmp","red","Keep","REAL","1"
"html-keyboard-response","184","500223","0.0-7.0-5.29","63dc7b5bf451a34177b66c66","bdp_wmem","Fri Mar 10 2023 15:32:03 GMT-0500 (Eastern Standard Time)","672622","Match,No Match","","","","","","","null","","<div class='trialBorder'><div class='vertical-center'><img src='img/correct.jpg'></div><div class='respDiv'><div class='respDivL'>Match<br>(e)</div><div class='respDivR'><font style='color:orange'>No Match<br>(i)</font></div></div></div>","null","FEEDBACK","","","","","","","","","","",""
