"trial_type","trial_index","time_elapsed","internal_node_id","subject_id","task","startTime","totalTime","labels","view_history","rt","event","trial","time","trialtype","success","stimulus","key_press","stimType","arraySize","arrayFaces","arrayOutcomes","matchType","corrResp","arrayDur","targFace","targCol","targOutcome","trialType","corr"
"pavlovia","0","2","0.0-0.0","63ea6fc5092518554c9b8111","bdp_wmem","Mon Mar 13 2023 11:57:26 GMT-0700 (Pacific Daylight Time)","694802","Match,No Match","","","","","","","","","","","","","","","","","","","","",""
"instructions","1","15239","0.0-1.0","63ea6fc5092518554c9b8111","bdp_wmem","Mon Mar 13 2023 11:57:26 GMT-0700 (Pacific Daylight Time)","694802","Match,No Match","[{""page_index"":0,""viewing_time"":15236}]","15236","","","","","","","","","","","","","","","","","","",""
"","","","","63ea6fc5092518554c9b8111","bdp_wmem","Mon Mar 13 2023 11:57:26 GMT-0700 (Pacific Daylight Time)","694802","Match,No Match","","","fullscreenenter","2","17048","fullscreenenter","","","","","","","","","","","","","","",""
"fullscreen","2","18050","0.0-2.0","63ea6fc5092518554c9b8111","bdp_wmem","Mon Mar 13 2023 11:57:26 GMT-0700 (Pacific Daylight Time)","694802","Match,No Match","","","","","","","true","","","","","","","","","","","","","",""
"instructions","3","152891","0.0-4.0","63ea6fc5092518554c9b8111","bdp_wmem","Mon Mar 13 2023 11:57:26 GMT-0700 (Pacific Daylight Time)","694802","Match,No Match","[{""page_index"":0,""viewing_time"":30222},{""page_index"":1,""viewing_time"":51156},{""page_index"":2,""viewing_time"":27864},{""page_index"":3,""viewing_time"":12758},{""page_index"":4,""viewing_time"":12840}]","134840","","","","","","","","","","","","","","","","","","",""
"html-keyboard-response","4","153400","0.0-5.0-1.0","63ea6fc5092518554c9b8111","bdp_wmem","Mon Mar 13 2023 11:57:26 GMT-0700 (Pacific Daylight Time)","694802","Match,No Match","","null","","","","","","<div class='trialBorder'><div class='vertical-center'><img src='img/fixation2_sml.jpg'</img></div></div>","null","FIX","","","","","","","","","","",""
"html-keyboard-response","5","156407","0.0-5.0-2.0","63ea6fc5092518554c9b8111","bdp_wmem","Mon Mar 13 2023 11:57:26 GMT-0700 (Pacific Daylight Time)","694802","Match,No Match","","null","","","","","","<div class='trialBorder'><div class='vertical-center'><img style='vertical-align:center; align:center' src='img/fixation2_sml.jpg'></div><div class='arrayDiv2'><div class='tl'><img class='introPic' src='trustrating_stim/white_mw040.bmp'><br><font color='red'><strong>Keep</strong></font></div><div class='tr'><img class='introPic' src='trustrating_stim/white_mw003.bmp'><br><font color='green'><strong>Share</strong></font></div></div></div>","null","ARRAY","2","trustrating_stim/white_mw040.bmp,trustrating_stim/white_mw003.bmp","0,1","Match","e","3000","","","","",""
"html-keyboard-response","6","160418","0.0-5.0-3.0","63ea6fc5092518554c9b8111","bdp_wmem","Mon Mar 13 2023 11:57:26 GMT-0700 (Pacific Daylight Time)","694802","Match,No Match","","null","","","","","","<div class='trialBorder'><div class='vertical-center'><img src='img/fixation2_sml.jpg'</img></div></div>","null","DELAY","","","","","","","","","","",""
"html-keyboard-response","7","162938","0.0-5.0-4.0","63ea6fc5092518554c9b8111","bdp_wmem","Mon Mar 13 2023 11:57:26 GMT-0700 (Pacific Daylight Time)","694802","Match,No Match","","2518","","","","","","<div class='trialBorder'><div class='targDiv'><div class='tc'><img class='introPic' src='trustrating_stim/white_mw003.bmp'><br><font color='green'><strong>Share</strong></font></div></div><div class='respDiv'><div class='respDivL'>Match<br>(e)</div><div class='respDivR'>No Match<br>(i)</div></div></div>","e","TARGET","2","trustrating_stim/white_mw040.bmp,trustrating_stim/white_mw003.bmp","0,1","Match","e","3000","trustrating_stim/white_mw003.bmp","green","Share","PRACTICE","1"
"html-keyboard-response","8","163447","0.0-5.0-5.0","63ea6fc5092518554c9b8111","bdp_wmem","Mon Mar 13 2023 11:57:26 GMT-0700 (Pacific Daylight Time)","694802","Match,No Match","","null","","","","","","<div class='trialBorder'><div class='vertical-center'><img src='img/correct.jpg'></div><div class='respDiv'><div class='respDivL'><font style='color:orange'>Match<br>(e)</font></div><div class='respDivR'>No Match<br>(i)</div></div></div>","null","FEEDBACK","","","","","","","","","","",""
"html-keyboard-response","9","163951","0.0-5.0-1.1","63ea6fc5092518554c9b8111","bdp_wmem","Mon Mar 13 2023 11:57:26 GMT-0700 (Pacific Daylight Time)","694802","Match,No Match","","null","","","","","","<div class='trialBorder'><div class='vertical-center'><img src='img/fixation2_sml.jpg'</img></div></div>","null","FIX","","","","","","","","","","",""
"html-keyboard-response","10","165458","0.0-5.0-2.1","63ea6fc5092518554c9b8111","bdp_wmem","Mon Mar 13 2023 11:57:26 GMT-0700 (Pacific Daylight Time)","694802","Match,No Match","","null","","","","","","<div class='trialBorder'><div class='vertical-center'><img style='vertical-align:center; align:center' src='img/fixation2_sml.jpg'></div><div class='arrayDiv1'><div class='tc'><img class='introPic' src='trustrating_stim/white_mw038.bmp'><br><font color='green'><strong>Share</strong></font></div></div></div>","null","ARRAY","1","trustrating_stim/white_mw038.bmp","1","noMatchFace","i","1500","","","","",""
"html-keyboard-response","11","169463","0.0-5.0-3.1","63ea6fc5092518554c9b8111","bdp_wmem","Mon Mar 13 2023 11:57:26 GMT-0700 (Pacific Daylight Time)","694802","Match,No Match","","null","","","","","","<div class='trialBorder'><div class='vertical-center'><img src='img/fixation2_sml.jpg'</img></div></div>","null","DELAY","","","","","","","","","","",""
"html-keyboard-response","12","171262","0.0-5.0-4.1","63ea6fc5092518554c9b8111","bdp_wmem","Mon Mar 13 2023 11:57:26 GMT-0700 (Pacific Daylight Time)","694802","Match,No Match","","1798","","","","","","<div class='trialBorder'><div class='targDiv'><div class='tc'><img class='introPic' src='trustrating_stim/white_mw013.bmp'><br><font color='green'><strong>Share</strong></font></div></div><div class='respDiv'><div class='respDivL'>Match<br>(e)</div><div class='respDivR'>No Match<br>(i)</div></div></div>","i","TARGET","1","trustrating_stim/white_mw038.bmp","1","noMatchFace","i","1500","trustrating_stim/white_mw013.bmp","green","Share","PRACTICE","1"
"html-keyboard-response","13","171767","0.0-5.0-5.1","63ea6fc5092518554c9b8111","bdp_wmem","Mon Mar 13 2023 11:57:26 GMT-0700 (Pacific Daylight Time)","694802","Match,No Match","","null","","","","","","<div class='trialBorder'><div class='vertical-center'><img src='img/correct.jpg'></div><div class='respDiv'><div class='respDivL'>Match<br>(e)</div><div class='respDivR'><font style='color:orange'>No Match<br>(i)</font></div></div></div>","null","FEEDBACK","","","","","","","","","","",""
"html-keyboard-response","14","172274","0.0-5.0-1.2","63ea6fc5092518554c9b8111","bdp_wmem","Mon Mar 13 2023 11:57:26 GMT-0700 (Pacific Daylight Time)","694802","Match,No Match","","null","","","","","","<div class='trialBorder'><div class='vertical-center'><img src='img/fixation2_sml.jpg'</img></div></div>","null","FIX","","","","","","","","","","",""
"html-keyboard-response","15","176786","0.0-5.0-2.2","63ea6fc5092518554c9b8111","bdp_wmem","Mon Mar 13 2023 11:57:26 GMT-0700 (Pacific Daylight Time)","694802","Match,No Match","","null","","","","","","<div class='trialBorder'><div class='vertical-center'><img style='vertical-align:center; align:center' src='img/fixation2_sml.jpg'></div><div class='arrayDiv3'><div class='tl'><img class='introPic' src='trustrating_stim/white_mw012.bmp'><br><font color='red'><strong>Keep</strong></font></div><div class='tc'><img class='introPic' src='trustrating_stim/white_mw078.bmp'><br><font color='green'><strong>Share</strong></font></div><div class='tr'><img class='introPic' src='trustrating_stim/white_mw040.bmp'><br><font color='red'><strong>Keep</strong></font></div></div></div>","null","ARRAY","3","trustrating_stim/white_mw012.bmp,trustrating_stim/white_mw078.bmp,trustrating_stim/white_mw040.bmp","0,1,0","noMatchOutcome","i","4500","","","","",""
"html-keyboard-response","16","180791","0.0-5.0-3.2","63ea6fc5092518554c9b8111","bdp_wmem","Mon Mar 13 2023 11:57:26 GMT-0700 (Pacific Daylight Time)","694802","Match,No Match","","null","","","","","","<div class='trialBorder'><div class='vertical-center'><img src='img/fixation2_sml.jpg'</img></div></div>","null","DELAY","","","","","","","","","","",""
"html-keyboard-response","17","182904","0.0-5.0-4.2","63ea6fc5092518554c9b8111","bdp_wmem","Mon Mar 13 2023 11:57:26 GMT-0700 (Pacific Daylight Time)","694802","Match,No Match","","2112","","","","","","<div class='trialBorder'><div class='targDiv'><div class='tc'><img class='introPic' src='trustrating_stim/white_mw012.bmp'><br><font color='green'><strong>Share</strong></font></div></div><div class='respDiv'><div class='respDivL'>Match<br>(e)</div><div class='respDivR'>No Match<br>(i)</div></div></div>","i","TARGET","3","trustrating_stim/white_mw012.bmp,trustrating_stim/white_mw078.bmp,trustrating_stim/white_mw040.bmp","0,1,0","noMatchOutcome","i","4500","trustrating_stim/white_mw012.bmp","green","Share","PRACTICE","1"
"html-keyboard-response","18","183410","0.0-5.0-5.2","63ea6fc5092518554c9b8111","bdp_wmem","Mon Mar 13 2023 11:57:26 GMT-0700 (Pacific Daylight Time)","694802","Match,No Match","","null","","","","","","<div class='trialBorder'><div class='vertical-center'><img src='img/correct.jpg'></div><div class='respDiv'><div class='respDivL'>Match<br>(e)</div><div class='respDivR'><font style='color:orange'>No Match<br>(i)</font></div></div></div>","null","FEEDBACK","","","","","","","","","","",""
"html-keyboard-response","19","183911","0.0-5.0-1.3","63ea6fc5092518554c9b8111","bdp_wmem","Mon Mar 13 2023 11:57:26 GMT-0700 (Pacific Daylight Time)","694802","Match,No Match","","null","","","","","","<div class='trialBorder'><div class='vertical-center'><img src='img/fixation2_sml.jpg'</img></div></div>","null","FIX","","","","","","","","","","",""
"html-keyboard-response","20","185415","0.0-5.0-2.3","63ea6fc5092518554c9b8111","bdp_wmem","Mon Mar 13 2023 11:57:26 GMT-0700 (Pacific Daylight Time)","694802","Match,No Match","","null","","","","","","<div class='trialBorder'><div class='vertical-center'><img style='vertical-align:center; align:center' src='img/fixation2_sml.jpg'></div><div class='arrayDiv1'><div class='tc'><img class='introPic' src='trustrating_stim/white_mw040.bmp'><br><font color='green'><strong>Share</strong></font></div></div></div>","null","ARRAY","1","trustrating_stim/white_mw040.bmp","1","Match","e","1500","","","","",""
"html-keyboard-response","21","189426","0.0-5.0-3.3","63ea6fc5092518554c9b8111","bdp_wmem","Mon Mar 13 2023 11:57:26 GMT-0700 (Pacific Daylight Time)","694802","Match,No Match","","null","","","","","","<div class='trialBorder'><div class='vertical-center'><img src='img/fixation2_sml.jpg'</img></div></div>","null","DELAY","","","","","","","","","","",""
"html-keyboard-response","22","190591","0.0-5.0-4.3","63ea6fc5092518554c9b8111","bdp_wmem","Mon Mar 13 2023 11:57:26 GMT-0700 (Pacific Daylight Time)","694802","Match,No Match","","1164","","","","","","<div class='trialBorder'><div class='targDiv'><div class='tc'><img class='introPic' src='trustrating_stim/white_mw040.bmp'><br><font color='green'><strong>Share</strong></font></div></div><div class='respDiv'><div class='respDivL'>Match<br>(e)</div><div class='respDivR'>No Match<br>(i)</div></div></div>","e","TARGET","1","trustrating_stim/white_mw040.bmp","1","Match","e","1500","trustrating_stim/white_mw040.bmp","green","Share","PRACTICE","1"
"html-keyboard-response","23","191095","0.0-5.0-5.3","63ea6fc5092518554c9b8111","bdp_wmem","Mon Mar 13 2023 11:57:26 GMT-0700 (Pacific Daylight Time)","694802","Match,No Match","","null","","","","","","<div class='trialBorder'><div class='vertical-center'><img src='img/correct.jpg'></div><div class='respDiv'><div class='respDivL'><font style='color:orange'>Match<br>(e)</font></div><div class='respDivR'>No Match<br>(i)</div></div></div>","null","FEEDBACK","","","","","","","","","","",""
"html-keyboard-response","24","191602","0.0-5.0-1.4","63ea6fc5092518554c9b8111","bdp_wmem","Mon Mar 13 2023 11:57:26 GMT-0700 (Pacific Daylight Time)","694802","Match,No Match","","null","","","","","","<div class='trialBorder'><div class='vertical-center'><img src='img/fixation2_sml.jpg'</img></div></div>","null","FIX","","","","","","","","","","",""
"html-keyboard-response","25","196114","0.0-5.0-2.4","63ea6fc5092518554c9b8111","bdp_wmem","Mon Mar 13 2023 11:57:26 GMT-0700 (Pacific Daylight Time)","694802","Match,No Match","","null","","","","","","<div class='trialBorder'><div class='vertical-center'><img style='vertical-align:center; align:center' src='img/fixation2_sml.jpg'></div><div class='arrayDiv3'><div class='tl'><img class='introPic' src='trustrating_stim/white_mw078.bmp'><br><font color='red'><strong>Keep</strong></font></div><div class='tc'><img class='introPic' src='trustrating_stim/white_mw085.bmp'><br><font color='green'><strong>Share</strong></font></div><div class='tr'><img class='introPic' src='trustrating_stim/white_mw042.bmp'><br><font color='red'><strong>Keep</strong></font></div></div></div>","null","ARRAY","3","trustrating_stim/white_mw078.bmp,trustrating_stim/white_mw085.bmp,trustrating_stim/white_mw042.bmp","0,1,0","Match","e","4500","","","","",""
"html-keyboard-response","26","200119","0.0-5.0-3.4","63ea6fc5092518554c9b8111","bdp_wmem","Mon Mar 13 2023 11:57:26 GMT-0700 (Pacific Daylight Time)","694802","Match,No Match","","null","","","","","","<div class='trialBorder'><div class='vertical-center'><img src='img/fixation2_sml.jpg'</img></div></div>","null","DELAY","","","","","","","","","","",""
"html-keyboard-response","27","201702","0.0-5.0-4.4","63ea6fc5092518554c9b8111","bdp_wmem","Mon Mar 13 2023 11:57:26 GMT-0700 (Pacific Daylight Time)","694802","Match,No Match","","1582","","","","","","<div class='trialBorder'><div class='targDiv'><div class='tc'><img class='introPic' src='trustrating_stim/white_mw078.bmp'><br><font color='red'><strong>Keep</strong></font></div></div><div class='respDiv'><div class='respDivL'>Match<br>(e)</div><div class='respDivR'>No Match<br>(i)</div></div></div>","i","TARGET","3","trustrating_stim/white_mw078.bmp,trustrating_stim/white_mw085.bmp,trustrating_stim/white_mw042.bmp","0,1,0","Match","e","4500","trustrating_stim/white_mw078.bmp","red","Keep","PRACTICE","0"
"html-keyboard-response","28","202210","0.0-5.0-5.4","63ea6fc5092518554c9b8111","bdp_wmem","Mon Mar 13 2023 11:57:26 GMT-0700 (Pacific Daylight Time)","694802","Match,No Match","","null","","","","","","<div class='trialBorder'><div class='vertical-center'><img src='img/error.jpg'></div><div class='respDiv'><div class='respDivL'>Match<br>(e)</div><div class='respDivR'><font style='color:orange'>No Match<br>(i)</font></div></div></div>","null","FEEDBACK","","","","","","","","","","",""
"html-keyboard-response","29","202722","0.0-5.0-1.5","63ea6fc5092518554c9b8111","bdp_wmem","Mon Mar 13 2023 11:57:26 GMT-0700 (Pacific Daylight Time)","694802","Match,No Match","","null","","","","","","<div class='trialBorder'><div class='vertical-center'><img src='img/fixation2_sml.jpg'</img></div></div>","null","FIX","","","","","","","","","","",""
"html-keyboard-response","30","205730","0.0-5.0-2.5","63ea6fc5092518554c9b8111","bdp_wmem","Mon Mar 13 2023 11:57:26 GMT-0700 (Pacific Daylight Time)","694802","Match,No Match","","null","","","","","","<div class='trialBorder'><div class='vertical-center'><img style='vertical-align:center; align:center' src='img/fixation2_sml.jpg'></div><div class='arrayDiv2'><div class='tl'><img class='introPic' src='trustrating_stim/white_mw003.bmp'><br><font color='green'><strong>Share</strong></font></div><div class='tr'><img class='introPic' src='trustrating_stim/white_mw078.bmp'><br><font color='red'><strong>Keep</strong></font></div></div></div>","null","ARRAY","2","trustrating_stim/white_mw003.bmp,trustrating_stim/white_mw078.bmp","1,0","noMatchFace","i","3000","","","","",""
"html-keyboard-response","31","209735","0.0-5.0-3.5","63ea6fc5092518554c9b8111","bdp_wmem","Mon Mar 13 2023 11:57:26 GMT-0700 (Pacific Daylight Time)","694802","Match,No Match","","null","","","","","","<div class='trialBorder'><div class='vertical-center'><img src='img/fixation2_sml.jpg'</img></div></div>","null","DELAY","","","","","","","","","","",""
"html-keyboard-response","32","212644","0.0-5.0-4.5","63ea6fc5092518554c9b8111","bdp_wmem","Mon Mar 13 2023 11:57:26 GMT-0700 (Pacific Daylight Time)","694802","Match,No Match","","2908","","","","","","<div class='trialBorder'><div class='targDiv'><div class='tc'><img class='introPic' src='trustrating_stim/white_mw085.bmp'><br><font color='red'><strong>Keep</strong></font></div></div><div class='respDiv'><div class='respDivL'>Match<br>(e)</div><div class='respDivR'>No Match<br>(i)</div></div></div>","e","TARGET","2","trustrating_stim/white_mw003.bmp,trustrating_stim/white_mw078.bmp","1,0","noMatchFace","i","3000","trustrating_stim/white_mw085.bmp","red","Keep","PRACTICE","0"
"html-keyboard-response","33","213154","0.0-5.0-5.5","63ea6fc5092518554c9b8111","bdp_wmem","Mon Mar 13 2023 11:57:26 GMT-0700 (Pacific Daylight Time)","694802","Match,No Match","","null","","","","","","<div class='trialBorder'><div class='vertical-center'><img src='img/error.jpg'></div><div class='respDiv'><div class='respDivL'><font style='color:orange'>Match<br>(e)</font></div><div class='respDivR'>No Match<br>(i)</div></div></div>","null","FEEDBACK","","","","","","","","","","",""
"instructions","34","219377","0.0-6.0","63ea6fc5092518554c9b8111","bdp_wmem","Mon Mar 13 2023 11:57:26 GMT-0700 (Pacific Daylight Time)","694802","Match,No Match","[{""page_index"":0,""viewing_time"":6222}]","6223","","","","","","","","","","","","","","","","","","",""
"html-keyboard-response","35","219879","0.0-7.0-1.0","63ea6fc5092518554c9b8111","bdp_wmem","Mon Mar 13 2023 11:57:26 GMT-0700 (Pacific Daylight Time)","694802","Match,No Match","","null","","","","","","<div class='trialBorder'><div class='vertical-center'><img src='img/fixation2_sml.jpg'</img></div></div>","null","FIX","","","","","","","","","","",""
"html-keyboard-response","36","221383","0.0-7.0-2.0","63ea6fc5092518554c9b8111","bdp_wmem","Mon Mar 13 2023 11:57:26 GMT-0700 (Pacific Daylight Time)","694802","Match,No Match","","null","","","","","","<div class='trialBorder'><div class='vertical-center'><img style='vertical-align:center; align:center' src='img/fixation2_sml.jpg'></div><div class='arrayDiv1'><div class='tc'><img class='introPic' src='trustrating_stim/white_mw070.bmp'><br><font color='green'><strong>Share</strong></font></div></div></div>","null","ARRAY","1","trustrating_stim/white_mw070.bmp","1","Match","e","1500","","","","",""
"html-keyboard-response","37","225394","0.0-7.0-3.0","63ea6fc5092518554c9b8111","bdp_wmem","Mon Mar 13 2023 11:57:26 GMT-0700 (Pacific Daylight Time)","694802","Match,No Match","","null","","","","","","<div class='trialBorder'><div class='vertical-center'><img src='img/fixation2_sml.jpg'</img></div></div>","null","DELAY","","","","","","","","","","",""
"html-keyboard-response","38","226855","0.0-7.0-4.0","63ea6fc5092518554c9b8111","bdp_wmem","Mon Mar 13 2023 11:57:26 GMT-0700 (Pacific Daylight Time)","694802","Match,No Match","","1460","","","","","","<div class='trialBorder'><div class='targDiv'><div class='tc'><img class='introPic' src='trustrating_stim/white_mw070.bmp'><br><font color='green'><strong>Share</strong></font></div></div><div class='respDiv'><div class='respDivL'>Match<br>(e)</div><div class='respDivR'>No Match<br>(i)</div></div></div>","e","TARGET","1","trustrating_stim/white_mw070.bmp","1","Match","e","1500","trustrating_stim/white_mw070.bmp","green","Share","REAL","1"
"html-keyboard-response","39","227362","0.0-7.0-5.0","63ea6fc5092518554c9b8111","bdp_wmem","Mon Mar 13 2023 11:57:26 GMT-0700 (Pacific Daylight Time)","694802","Match,No Match","","null","","","","","","<div class='trialBorder'><div class='vertical-center'><img src='img/correct.jpg'></div><div class='respDiv'><div class='respDivL'><font style='color:orange'>Match<br>(e)</font></div><div class='respDivR'>No Match<br>(i)</div></div></div>","null","FEEDBACK","","","","","","","","","","",""
"html-keyboard-response","40","227874","0.0-7.0-1.1","63ea6fc5092518554c9b8111","bdp_wmem","Mon Mar 13 2023 11:57:26 GMT-0700 (Pacific Daylight Time)","694802","Match,No Match","","null","","","","","","<div class='trialBorder'><div class='vertical-center'><img src='img/fixation2_sml.jpg'</img></div></div>","null","FIX","","","","","","","","","","",""
"html-keyboard-response","41","230882","0.0-7.0-2.1","63ea6fc5092518554c9b8111","bdp_wmem","Mon Mar 13 2023 11:57:26 GMT-0700 (Pacific Daylight Time)","694802","Match,No Match","","null","","","","","","<div class='trialBorder'><div class='vertical-center'><img style='vertical-align:center; align:center' src='img/fixation2_sml.jpg'></div><div class='arrayDiv2'><div class='tl'><img class='introPic' src='trustrating_stim/white_mw003.bmp'><br><font color='red'><strong>Keep</strong></font></div><div class='tr'><img class='introPic' src='trustrating_stim/white_mw092.bmp'><br><font color='green'><strong>Share</strong></font></div></div></div>","null","ARRAY","2","trustrating_stim/white_mw003.bmp,trustrating_stim/white_mw092.bmp","0,1","noMatchFace","i","3000","","","","",""
"html-keyboard-response","42","234887","0.0-7.0-3.1","63ea6fc5092518554c9b8111","bdp_wmem","Mon Mar 13 2023 11:57:26 GMT-0700 (Pacific Daylight Time)","694802","Match,No Match","","null","","","","","","<div class='trialBorder'><div class='vertical-center'><img src='img/fixation2_sml.jpg'</img></div></div>","null","DELAY","","","","","","","","","","",""
"html-keyboard-response","43","237586","0.0-7.0-4.1","63ea6fc5092518554c9b8111","bdp_wmem","Mon Mar 13 2023 11:57:26 GMT-0700 (Pacific Daylight Time)","694802","Match,No Match","","2698","","","","","","<div class='trialBorder'><div class='targDiv'><div class='tc'><img class='introPic' src='trustrating_stim/white_mw042.bmp'><br><font color='green'><strong>Share</strong></font></div></div><div class='respDiv'><div class='respDivL'>Match<br>(e)</div><div class='respDivR'>No Match<br>(i)</div></div></div>","e","TARGET","2","trustrating_stim/white_mw003.bmp,trustrating_stim/white_mw092.bmp","0,1","noMatchFace","i","3000","trustrating_stim/white_mw042.bmp","green","Share","REAL","0"
"html-keyboard-response","44","238098","0.0-7.0-5.1","63ea6fc5092518554c9b8111","bdp_wmem","Mon Mar 13 2023 11:57:26 GMT-0700 (Pacific Daylight Time)","694802","Match,No Match","","null","","","","","","<div class='trialBorder'><div class='vertical-center'><img src='img/error.jpg'></div><div class='respDiv'><div class='respDivL'><font style='color:orange'>Match<br>(e)</font></div><div class='respDivR'>No Match<br>(i)</div></div></div>","null","FEEDBACK","","","","","","","","","","",""
"html-keyboard-response","45","238608","0.0-7.0-1.2","63ea6fc5092518554c9b8111","bdp_wmem","Mon Mar 13 2023 11:57:26 GMT-0700 (Pacific Daylight Time)","694802","Match,No Match","","null","","","","","","<div class='trialBorder'><div class='vertical-center'><img src='img/fixation2_sml.jpg'</img></div></div>","null","FIX","","","","","","","","","","",""
"html-keyboard-response","46","243122","0.0-7.0-2.2","63ea6fc5092518554c9b8111","bdp_wmem","Mon Mar 13 2023 11:57:26 GMT-0700 (Pacific Daylight Time)","694802","Match,No Match","","null","","","","","","<div class='trialBorder'><div class='vertical-center'><img style='vertical-align:center; align:center' src='img/fixation2_sml.jpg'></div><div class='arrayDiv3'><div class='tl'><img class='introPic' src='trustrating_stim/white_mw070.bmp'><br><font color='green'><strong>Share</strong></font></div><div class='tc'><img class='introPic' src='trustrating_stim/white_mw010.bmp'><br><font color='green'><strong>Share</strong></font></div><div class='tr'><img class='introPic' src='trustrating_stim/white_mw092.bmp'><br><font color='red'><strong>Keep</strong></font></div></div></div>","null","ARRAY","3","trustrating_stim/white_mw070.bmp,trustrating_stim/white_mw010.bmp,trustrating_stim/white_mw092.bmp","1,1,0","noMatchFace","i","4500","","","","",""
"html-keyboard-response","47","247127","0.0-7.0-3.2","63ea6fc5092518554c9b8111","bdp_wmem","Mon Mar 13 2023 11:57:26 GMT-0700 (Pacific Daylight Time)","694802","Match,No Match","","null","","","","","","<div class='trialBorder'><div class='vertical-center'><img src='img/fixation2_sml.jpg'</img></div></div>","null","DELAY","","","","","","","","","","",""
"html-keyboard-response","48","249433","0.0-7.0-4.2","63ea6fc5092518554c9b8111","bdp_wmem","Mon Mar 13 2023 11:57:26 GMT-0700 (Pacific Daylight Time)","694802","Match,No Match","","2305","","","","","","<div class='trialBorder'><div class='targDiv'><div class='tc'><img class='introPic' src='trustrating_stim/white_mw003.bmp'><br><font color='green'><strong>Share</strong></font></div></div><div class='respDiv'><div class='respDivL'>Match<br>(e)</div><div class='respDivR'>No Match<br>(i)</div></div></div>","e","TARGET","3","trustrating_stim/white_mw070.bmp,trustrating_stim/white_mw010.bmp,trustrating_stim/white_mw092.bmp","1,1,0","noMatchFace","i","4500","trustrating_stim/white_mw003.bmp","green","Share","REAL","0"
"html-keyboard-response","49","249938","0.0-7.0-5.2","63ea6fc5092518554c9b8111","bdp_wmem","Mon Mar 13 2023 11:57:26 GMT-0700 (Pacific Daylight Time)","694802","Match,No Match","","null","","","","","","<div class='trialBorder'><div class='vertical-center'><img src='img/error.jpg'></div><div class='respDiv'><div class='respDivL'><font style='color:orange'>Match<br>(e)</font></div><div class='respDivR'>No Match<br>(i)</div></div></div>","null","FEEDBACK","","","","","","","","","","",""
"html-keyboard-response","50","250439","0.0-7.0-1.3","63ea6fc5092518554c9b8111","bdp_wmem","Mon Mar 13 2023 11:57:26 GMT-0700 (Pacific Daylight Time)","694802","Match,No Match","","null","","","","","","<div class='trialBorder'><div class='vertical-center'><img src='img/fixation2_sml.jpg'</img></div></div>","null","FIX","","","","","","","","","","",""
"html-keyboard-response","51","251943","0.0-7.0-2.3","63ea6fc5092518554c9b8111","bdp_wmem","Mon Mar 13 2023 11:57:26 GMT-0700 (Pacific Daylight Time)","694802","Match,No Match","","null","","","","","","<div class='trialBorder'><div class='vertical-center'><img style='vertical-align:center; align:center' src='img/fixation2_sml.jpg'></div><div class='arrayDiv1'><div class='tc'><img class='introPic' src='trustrating_stim/white_mw038.bmp'><br><font color='red'><strong>Keep</strong></font></div></div></div>","null","ARRAY","1","trustrating_stim/white_mw038.bmp","0","noMatchOutcome","i","1500","","","","",""
"html-keyboard-response","52","255954","0.0-7.0-3.3","63ea6fc5092518554c9b8111","bdp_wmem","Mon Mar 13 2023 11:57:26 GMT-0700 (Pacific Daylight Time)","694802","Match,No Match","","null","","","","","","<div class='trialBorder'><div class='vertical-center'><img src='img/fixation2_sml.jpg'</img></div></div>","null","DELAY","","","","","","","","","","",""
"html-keyboard-response","53","257932","0.0-7.0-4.3","63ea6fc5092518554c9b8111","bdp_wmem","Mon Mar 13 2023 11:57:26 GMT-0700 (Pacific Daylight Time)","694802","Match,No Match","","1977","","","","","","<div class='trialBorder'><div class='targDiv'><div class='tc'><img class='introPic' src='trustrating_stim/white_mw038.bmp'><br><font color='green'><strong>Share</strong></font></div></div><div class='respDiv'><div class='respDivL'>Match<br>(e)</div><div class='respDivR'>No Match<br>(i)</div></div></div>","i","TARGET","1","trustrating_stim/white_mw038.bmp","0","noMatchOutcome","i","1500","trustrating_stim/white_mw038.bmp","green","Share","REAL","1"
"html-keyboard-response","54","258441","0.0-7.0-5.3","63ea6fc5092518554c9b8111","bdp_wmem","Mon Mar 13 2023 11:57:26 GMT-0700 (Pacific Daylight Time)","694802","Match,No Match","","null","","","","","","<div class='trialBorder'><div class='vertical-center'><img src='img/correct.jpg'></div><div class='respDiv'><div class='respDivL'>Match<br>(e)</div><div class='respDivR'><font style='color:orange'>No Match<br>(i)</font></div></div></div>","null","FEEDBACK","","","","","","","","","","",""
"html-keyboard-response","55","258951","0.0-7.0-1.4","63ea6fc5092518554c9b8111","bdp_wmem","Mon Mar 13 2023 11:57:26 GMT-0700 (Pacific Daylight Time)","694802","Match,No Match","","null","","","","","","<div class='trialBorder'><div class='vertical-center'><img src='img/fixation2_sml.jpg'</img></div></div>","null","FIX","","","","","","","","","","",""
"html-keyboard-response","56","263458","0.0-7.0-2.4","63ea6fc5092518554c9b8111","bdp_wmem","Mon Mar 13 2023 11:57:26 GMT-0700 (Pacific Daylight Time)","694802","Match,No Match","","null","","","","","","<div class='trialBorder'><div class='vertical-center'><img style='vertical-align:center; align:center' src='img/fixation2_sml.jpg'></div><div class='arrayDiv3'><div class='tl'><img class='introPic' src='trustrating_stim/white_mw040.bmp'><br><font color='green'><strong>Share</strong></font></div><div class='tc'><img class='introPic' src='trustrating_stim/white_mw092.bmp'><br><font color='green'><strong>Share</strong></font></div><div class='tr'><img class='introPic' src='trustrating_stim/white_mw085.bmp'><br><font color='red'><strong>Keep</strong></font></div></div></div>","null","ARRAY","3","trustrating_stim/white_mw040.bmp,trustrating_stim/white_mw092.bmp,trustrating_stim/white_mw085.bmp","1,1,0","Match","e","4500","","","","",""
"html-keyboard-response","57","267463","0.0-7.0-3.4","63ea6fc5092518554c9b8111","bdp_wmem","Mon Mar 13 2023 11:57:26 GMT-0700 (Pacific Daylight Time)","694802","Match,No Match","","null","","","","","","<div class='trialBorder'><div class='vertical-center'><img src='img/fixation2_sml.jpg'</img></div></div>","null","DELAY","","","","","","","","","","",""
"html-keyboard-response","58","269510","0.0-7.0-4.4","63ea6fc5092518554c9b8111","bdp_wmem","Mon Mar 13 2023 11:57:26 GMT-0700 (Pacific Daylight Time)","694802","Match,No Match","","2046","","","","","","<div class='trialBorder'><div class='targDiv'><div class='tc'><img class='introPic' src='trustrating_stim/white_mw092.bmp'><br><font color='green'><strong>Share</strong></font></div></div><div class='respDiv'><div class='respDivL'>Match<br>(e)</div><div class='respDivR'>No Match<br>(i)</div></div></div>","i","TARGET","3","trustrating_stim/white_mw040.bmp,trustrating_stim/white_mw092.bmp,trustrating_stim/white_mw085.bmp","1,1,0","Match","e","4500","trustrating_stim/white_mw092.bmp","green","Share","REAL","0"
"html-keyboard-response","59","270018","0.0-7.0-5.4","63ea6fc5092518554c9b8111","bdp_wmem","Mon Mar 13 2023 11:57:26 GMT-0700 (Pacific Daylight Time)","694802","Match,No Match","","null","","","","","","<div class='trialBorder'><div class='vertical-center'><img src='img/error.jpg'></div><div class='respDiv'><div class='respDivL'>Match<br>(e)</div><div class='respDivR'><font style='color:orange'>No Match<br>(i)</font></div></div></div>","null","FEEDBACK","","","","","","","","","","",""
"html-keyboard-response","60","270519","0.0-7.0-1.5","63ea6fc5092518554c9b8111","bdp_wmem","Mon Mar 13 2023 11:57:26 GMT-0700 (Pacific Daylight Time)","694802","Match,No Match","","null","","","","","","<div class='trialBorder'><div class='vertical-center'><img src='img/fixation2_sml.jpg'</img></div></div>","null","FIX","","","","","","","","","","",""
"html-keyboard-response","61","272023","0.0-7.0-2.5","63ea6fc5092518554c9b8111","bdp_wmem","Mon Mar 13 2023 11:57:26 GMT-0700 (Pacific Daylight Time)","694802","Match,No Match","","null","","","","","","<div class='trialBorder'><div class='vertical-center'><img style='vertical-align:center; align:center' src='img/fixation2_sml.jpg'></div><div class='arrayDiv1'><div class='tc'><img class='introPic' src='trustrating_stim/white_mw085.bmp'><br><font color='red'><strong>Keep</strong></font></div></div></div>","null","ARRAY","1","trustrating_stim/white_mw085.bmp","0","noMatchFace","i","1500","","","","",""
"html-keyboard-response","62","276034","0.0-7.0-3.5","63ea6fc5092518554c9b8111","bdp_wmem","Mon Mar 13 2023 11:57:26 GMT-0700 (Pacific Daylight Time)","694802","Match,No Match","","null","","","","","","<div class='trialBorder'><div class='vertical-center'><img src='img/fixation2_sml.jpg'</img></div></div>","null","DELAY","","","","","","","","","","",""
"html-keyboard-response","63","277594","0.0-7.0-4.5","63ea6fc5092518554c9b8111","bdp_wmem","Mon Mar 13 2023 11:57:26 GMT-0700 (Pacific Daylight Time)","694802","Match,No Match","","1559","","","","","","<div class='trialBorder'><div class='targDiv'><div class='tc'><img class='introPic' src='trustrating_stim/white_mw092.bmp'><br><font color='red'><strong>Keep</strong></font></div></div><div class='respDiv'><div class='respDivL'>Match<br>(e)</div><div class='respDivR'>No Match<br>(i)</div></div></div>","i","TARGET","1","trustrating_stim/white_mw085.bmp","0","noMatchFace","i","1500","trustrating_stim/white_mw092.bmp","red","Keep","REAL","1"
"html-keyboard-response","64","278103","0.0-7.0-5.5","63ea6fc5092518554c9b8111","bdp_wmem","Mon Mar 13 2023 11:57:26 GMT-0700 (Pacific Daylight Time)","694802","Match,No Match","","null","","","","","","<div class='trialBorder'><div class='vertical-center'><img src='img/correct.jpg'></div><div class='respDiv'><div class='respDivL'>Match<br>(e)</div><div class='respDivR'><font style='color:orange'>No Match<br>(i)</font></div></div></div>","null","FEEDBACK","","","","","","","","","","",""
"html-keyboard-response","65","278610","0.0-7.0-1.6","63ea6fc5092518554c9b8111","bdp_wmem","Mon Mar 13 2023 11:57:26 GMT-0700 (Pacific Daylight Time)","694802","Match,No Match","","null","","","","","","<div class='trialBorder'><div class='vertical-center'><img src='img/fixation2_sml.jpg'</img></div></div>","null","FIX","","","","","","","","","","",""
"html-keyboard-response","66","280119","0.0-7.0-2.6","63ea6fc5092518554c9b8111","bdp_wmem","Mon Mar 13 2023 11:57:26 GMT-0700 (Pacific Daylight Time)","694802","Match,No Match","","null","","","","","","<div class='trialBorder'><div class='vertical-center'><img style='vertical-align:center; align:center' src='img/fixation2_sml.jpg'></div><div class='arrayDiv1'><div class='tc'><img class='introPic' src='trustrating_stim/white_mw010.bmp'><br><font color='green'><strong>Share</strong></font></div></div></div>","null","ARRAY","1","trustrating_stim/white_mw010.bmp","1","noMatchFace","i","1500","","","","",""
"html-keyboard-response","67","284130","0.0-7.0-3.6","63ea6fc5092518554c9b8111","bdp_wmem","Mon Mar 13 2023 11:57:26 GMT-0700 (Pacific Daylight Time)","694802","Match,No Match","","null","","","","","","<div class='trialBorder'><div class='vertical-center'><img src='img/fixation2_sml.jpg'</img></div></div>","null","DELAY","","","","","","","","","","",""
"html-keyboard-response","68","285965","0.0-7.0-4.6","63ea6fc5092518554c9b8111","bdp_wmem","Mon Mar 13 2023 11:57:26 GMT-0700 (Pacific Daylight Time)","694802","Match,No Match","","1834","","","","","","<div class='trialBorder'><div class='targDiv'><div class='tc'><img class='introPic' src='trustrating_stim/white_mw040.bmp'><br><font color='green'><strong>Share</strong></font></div></div><div class='respDiv'><div class='respDivL'>Match<br>(e)</div><div class='respDivR'>No Match<br>(i)</div></div></div>","i","TARGET","1","trustrating_stim/white_mw010.bmp","1","noMatchFace","i","1500","trustrating_stim/white_mw040.bmp","green","Share","REAL","1"
"html-keyboard-response","69","286471","0.0-7.0-5.6","63ea6fc5092518554c9b8111","bdp_wmem","Mon Mar 13 2023 11:57:26 GMT-0700 (Pacific Daylight Time)","694802","Match,No Match","","null","","","","","","<div class='trialBorder'><div class='vertical-center'><img src='img/correct.jpg'></div><div class='respDiv'><div class='respDivL'>Match<br>(e)</div><div class='respDivR'><font style='color:orange'>No Match<br>(i)</font></div></div></div>","null","FEEDBACK","","","","","","","","","","",""
"html-keyboard-response","70","286978","0.0-7.0-1.7","63ea6fc5092518554c9b8111","bdp_wmem","Mon Mar 13 2023 11:57:26 GMT-0700 (Pacific Daylight Time)","694802","Match,No Match","","null","","","","","","<div class='trialBorder'><div class='vertical-center'><img src='img/fixation2_sml.jpg'</img></div></div>","null","FIX","","","","","","","","","","",""
"html-keyboard-response","71","288487","0.0-7.0-2.7","63ea6fc5092518554c9b8111","bdp_wmem","Mon Mar 13 2023 11:57:26 GMT-0700 (Pacific Daylight Time)","694802","Match,No Match","","null","","","","","","<div class='trialBorder'><div class='vertical-center'><img style='vertical-align:center; align:center' src='img/fixation2_sml.jpg'></div><div class='arrayDiv1'><div class='tc'><img class='introPic' src='trustrating_stim/white_mw070.bmp'><br><font color='green'><strong>Share</strong></font></div></div></div>","null","ARRAY","1","trustrating_stim/white_mw070.bmp","1","Match","e","1500","","","","",""
"html-keyboard-response","72","292498","0.0-7.0-3.7","63ea6fc5092518554c9b8111","bdp_wmem","Mon Mar 13 2023 11:57:26 GMT-0700 (Pacific Daylight Time)","694802","Match,No Match","","null","","","","","","<div class='trialBorder'><div class='vertical-center'><img src='img/fixation2_sml.jpg'</img></div></div>","null","DELAY","","","","","","","","","","",""
"html-keyboard-response","73","294381","0.0-7.0-4.7","63ea6fc5092518554c9b8111","bdp_wmem","Mon Mar 13 2023 11:57:26 GMT-0700 (Pacific Daylight Time)","694802","Match,No Match","","1882","","","","","","<div class='trialBorder'><div class='targDiv'><div class='tc'><img class='introPic' src='trustrating_stim/white_mw070.bmp'><br><font color='green'><strong>Share</strong></font></div></div><div class='respDiv'><div class='respDivL'>Match<br>(e)</div><div class='respDivR'>No Match<br>(i)</div></div></div>","e","TARGET","1","trustrating_stim/white_mw070.bmp","1","Match","e","1500","trustrating_stim/white_mw070.bmp","green","Share","REAL","1"
"html-keyboard-response","74","294887","0.0-7.0-5.7","63ea6fc5092518554c9b8111","bdp_wmem","Mon Mar 13 2023 11:57:26 GMT-0700 (Pacific Daylight Time)","694802","Match,No Match","","null","","","","","","<div class='trialBorder'><div class='vertical-center'><img src='img/correct.jpg'></div><div class='respDiv'><div class='respDivL'><font style='color:orange'>Match<br>(e)</font></div><div class='respDivR'>No Match<br>(i)</div></div></div>","null","FEEDBACK","","","","","","","","","","",""
"html-keyboard-response","75","295393","0.0-7.0-1.8","63ea6fc5092518554c9b8111","bdp_wmem","Mon Mar 13 2023 11:57:26 GMT-0700 (Pacific Daylight Time)","694802","Match,No Match","","null","","","","","","<div class='trialBorder'><div class='vertical-center'><img src='img/fixation2_sml.jpg'</img></div></div>","null","FIX","","","","","","","","","","",""
"html-keyboard-response","76","296903","0.0-7.0-2.8","63ea6fc5092518554c9b8111","bdp_wmem","Mon Mar 13 2023 11:57:26 GMT-0700 (Pacific Daylight Time)","694802","Match,No Match","","null","","","","","","<div class='trialBorder'><div class='vertical-center'><img style='vertical-align:center; align:center' src='img/fixation2_sml.jpg'></div><div class='arrayDiv1'><div class='tc'><img class='introPic' src='trustrating_stim/white_mw070.bmp'><br><font color='red'><strong>Keep</strong></font></div></div></div>","null","ARRAY","1","trustrating_stim/white_mw070.bmp","0","noMatchFace","i","1500","","","","",""
"html-keyboard-response","77","300914","0.0-7.0-3.8","63ea6fc5092518554c9b8111","bdp_wmem","Mon Mar 13 2023 11:57:26 GMT-0700 (Pacific Daylight Time)","694802","Match,No Match","","null","","","","","","<div class='trialBorder'><div class='vertical-center'><img src='img/fixation2_sml.jpg'</img></div></div>","null","DELAY","","","","","","","","","","",""
"html-keyboard-response","78","302217","0.0-7.0-4.8","63ea6fc5092518554c9b8111","bdp_wmem","Mon Mar 13 2023 11:57:26 GMT-0700 (Pacific Daylight Time)","694802","Match,No Match","","1302","","","","","","<div class='trialBorder'><div class='targDiv'><div class='tc'><img class='introPic' src='trustrating_stim/white_mw085.bmp'><br><font color='red'><strong>Keep</strong></font></div></div><div class='respDiv'><div class='respDivL'>Match<br>(e)</div><div class='respDivR'>No Match<br>(i)</div></div></div>","i","TARGET","1","trustrating_stim/white_mw070.bmp","0","noMatchFace","i","1500","trustrating_stim/white_mw085.bmp","red","Keep","REAL","1"
"html-keyboard-response","79","302727","0.0-7.0-5.8","63ea6fc5092518554c9b8111","bdp_wmem","Mon Mar 13 2023 11:57:26 GMT-0700 (Pacific Daylight Time)","694802","Match,No Match","","null","","","","","","<div class='trialBorder'><div class='vertical-center'><img src='img/correct.jpg'></div><div class='respDiv'><div class='respDivL'>Match<br>(e)</div><div class='respDivR'><font style='color:orange'>No Match<br>(i)</font></div></div></div>","null","FEEDBACK","","","","","","","","","","",""
"html-keyboard-response","80","303234","0.0-7.0-1.9","63ea6fc5092518554c9b8111","bdp_wmem","Mon Mar 13 2023 11:57:26 GMT-0700 (Pacific Daylight Time)","694802","Match,No Match","","null","","","","","","<div class='trialBorder'><div class='vertical-center'><img src='img/fixation2_sml.jpg'</img></div></div>","null","FIX","","","","","","","","","","",""
"html-keyboard-response","81","306242","0.0-7.0-2.9","63ea6fc5092518554c9b8111","bdp_wmem","Mon Mar 13 2023 11:57:26 GMT-0700 (Pacific Daylight Time)","694802","Match,No Match","","null","","","","","","<div class='trialBorder'><div class='vertical-center'><img style='vertical-align:center; align:center' src='img/fixation2_sml.jpg'></div><div class='arrayDiv2'><div class='tl'><img class='introPic' src='trustrating_stim/white_mw070.bmp'><br><font color='green'><strong>Share</strong></font></div><div class='tr'><img class='introPic' src='trustrating_stim/white_mw078.bmp'><br><font color='red'><strong>Keep</strong></font></div></div></div>","null","ARRAY","2","trustrating_stim/white_mw070.bmp,trustrating_stim/white_mw078.bmp","1,0","noMatchOutcome","i","3000","","","","",""
"html-keyboard-response","82","310247","0.0-7.0-3.9","63ea6fc5092518554c9b8111","bdp_wmem","Mon Mar 13 2023 11:57:26 GMT-0700 (Pacific Daylight Time)","694802","Match,No Match","","null","","","","","","<div class='trialBorder'><div class='vertical-center'><img src='img/fixation2_sml.jpg'</img></div></div>","null","DELAY","","","","","","","","","","",""
"html-keyboard-response","83","311888","0.0-7.0-4.9","63ea6fc5092518554c9b8111","bdp_wmem","Mon Mar 13 2023 11:57:26 GMT-0700 (Pacific Daylight Time)","694802","Match,No Match","","1639","","","","","","<div class='trialBorder'><div class='targDiv'><div class='tc'><img class='introPic' src='trustrating_stim/white_mw078.bmp'><br><font color='green'><strong>Share</strong></font></div></div><div class='respDiv'><div class='respDivL'>Match<br>(e)</div><div class='respDivR'>No Match<br>(i)</div></div></div>","i","TARGET","2","trustrating_stim/white_mw070.bmp,trustrating_stim/white_mw078.bmp","1,0","noMatchOutcome","i","3000","trustrating_stim/white_mw078.bmp","green","Share","REAL","1"
"html-keyboard-response","84","312391","0.0-7.0-5.9","63ea6fc5092518554c9b8111","bdp_wmem","Mon Mar 13 2023 11:57:26 GMT-0700 (Pacific Daylight Time)","694802","Match,No Match","","null","","","","","","<div class='trialBorder'><div class='vertical-center'><img src='img/correct.jpg'></div><div class='respDiv'><div class='respDivL'>Match<br>(e)</div><div class='respDivR'><font style='color:orange'>No Match<br>(i)</font></div></div></div>","null","FEEDBACK","","","","","","","","","","",""
"html-keyboard-response","85","312898","0.0-7.0-1.10","63ea6fc5092518554c9b8111","bdp_wmem","Mon Mar 13 2023 11:57:26 GMT-0700 (Pacific Daylight Time)","694802","Match,No Match","","null","","","","","","<div class='trialBorder'><div class='vertical-center'><img src='img/fixation2_sml.jpg'</img></div></div>","null","FIX","","","","","","","","","","",""
"html-keyboard-response","86","317410","0.0-7.0-2.10","63ea6fc5092518554c9b8111","bdp_wmem","Mon Mar 13 2023 11:57:26 GMT-0700 (Pacific Daylight Time)","694802","Match,No Match","","null","","","","","","<div class='trialBorder'><div class='vertical-center'><img style='vertical-align:center; align:center' src='img/fixation2_sml.jpg'></div><div class='arrayDiv3'><div class='tl'><img class='introPic' src='trustrating_stim/white_mw003.bmp'><br><font color='green'><strong>Share</strong></font></div><div class='tc'><img class='introPic' src='trustrating_stim/white_mw012.bmp'><br><font color='red'><strong>Keep</strong></font></div><div class='tr'><img class='introPic' src='trustrating_stim/white_mw040.bmp'><br><font color='green'><strong>Share</strong></font></div></div></div>","null","ARRAY","3","trustrating_stim/white_mw003.bmp,trustrating_stim/white_mw012.bmp,trustrating_stim/white_mw040.bmp","1,0,1","noMatchOutcome","i","4500","","","","",""
"html-keyboard-response","87","321415","0.0-7.0-3.10","63ea6fc5092518554c9b8111","bdp_wmem","Mon Mar 13 2023 11:57:26 GMT-0700 (Pacific Daylight Time)","694802","Match,No Match","","null","","","","","","<div class='trialBorder'><div class='vertical-center'><img src='img/fixation2_sml.jpg'</img></div></div>","null","DELAY","","","","","","","","","","",""
"html-keyboard-response","88","323180","0.0-7.0-4.10","63ea6fc5092518554c9b8111","bdp_wmem","Mon Mar 13 2023 11:57:26 GMT-0700 (Pacific Daylight Time)","694802","Match,No Match","","1764","","","","","","<div class='trialBorder'><div class='targDiv'><div class='tc'><img class='introPic' src='trustrating_stim/white_mw040.bmp'><br><font color='red'><strong>Keep</strong></font></div></div><div class='respDiv'><div class='respDivL'>Match<br>(e)</div><div class='respDivR'>No Match<br>(i)</div></div></div>","i","TARGET","3","trustrating_stim/white_mw003.bmp,trustrating_stim/white_mw012.bmp,trustrating_stim/white_mw040.bmp","1,0,1","noMatchOutcome","i","4500","trustrating_stim/white_mw040.bmp","red","Keep","REAL","1"
"html-keyboard-response","89","323687","0.0-7.0-5.10","63ea6fc5092518554c9b8111","bdp_wmem","Mon Mar 13 2023 11:57:26 GMT-0700 (Pacific Daylight Time)","694802","Match,No Match","","null","","","","","","<div class='trialBorder'><div class='vertical-center'><img src='img/correct.jpg'></div><div class='respDiv'><div class='respDivL'>Match<br>(e)</div><div class='respDivR'><font style='color:orange'>No Match<br>(i)</font></div></div></div>","null","FEEDBACK","","","","","","","","","","",""
"html-keyboard-response","90","324194","0.0-7.0-1.11","63ea6fc5092518554c9b8111","bdp_wmem","Mon Mar 13 2023 11:57:26 GMT-0700 (Pacific Daylight Time)","694802","Match,No Match","","null","","","","","","<div class='trialBorder'><div class='vertical-center'><img src='img/fixation2_sml.jpg'</img></div></div>","null","FIX","","","","","","","","","","",""
"html-keyboard-response","91","325703","0.0-7.0-2.11","63ea6fc5092518554c9b8111","bdp_wmem","Mon Mar 13 2023 11:57:26 GMT-0700 (Pacific Daylight Time)","694802","Match,No Match","","null","","","","","","<div class='trialBorder'><div class='vertical-center'><img style='vertical-align:center; align:center' src='img/fixation2_sml.jpg'></div><div class='arrayDiv1'><div class='tc'><img class='introPic' src='trustrating_stim/white_mw092.bmp'><br><font color='red'><strong>Keep</strong></font></div></div></div>","null","ARRAY","1","trustrating_stim/white_mw092.bmp","0","Match","e","1500","","","","",""
"html-keyboard-response","92","329714","0.0-7.0-3.11","63ea6fc5092518554c9b8111","bdp_wmem","Mon Mar 13 2023 11:57:26 GMT-0700 (Pacific Daylight Time)","694802","Match,No Match","","null","","","","","","<div class='trialBorder'><div class='vertical-center'><img src='img/fixation2_sml.jpg'</img></div></div>","null","DELAY","","","","","","","","","","",""
"html-keyboard-response","93","331305","0.0-7.0-4.11","63ea6fc5092518554c9b8111","bdp_wmem","Mon Mar 13 2023 11:57:26 GMT-0700 (Pacific Daylight Time)","694802","Match,No Match","","1590","","","","","","<div class='trialBorder'><div class='targDiv'><div class='tc'><img class='introPic' src='trustrating_stim/white_mw092.bmp'><br><font color='red'><strong>Keep</strong></font></div></div><div class='respDiv'><div class='respDivL'>Match<br>(e)</div><div class='respDivR'>No Match<br>(i)</div></div></div>","e","TARGET","1","trustrating_stim/white_mw092.bmp","0","Match","e","1500","trustrating_stim/white_mw092.bmp","red","Keep","REAL","1"
"html-keyboard-response","94","331810","0.0-7.0-5.11","63ea6fc5092518554c9b8111","bdp_wmem","Mon Mar 13 2023 11:57:26 GMT-0700 (Pacific Daylight Time)","694802","Match,No Match","","null","","","","","","<div class='trialBorder'><div class='vertical-center'><img src='img/correct.jpg'></div><div class='respDiv'><div class='respDivL'><font style='color:orange'>Match<br>(e)</font></div><div class='respDivR'>No Match<br>(i)</div></div></div>","null","FEEDBACK","","","","","","","","","","",""
"html-keyboard-response","95","332321","0.0-7.0-1.12","63ea6fc5092518554c9b8111","bdp_wmem","Mon Mar 13 2023 11:57:26 GMT-0700 (Pacific Daylight Time)","694802","Match,No Match","","null","","","","","","<div class='trialBorder'><div class='vertical-center'><img src='img/fixation2_sml.jpg'</img></div></div>","null","FIX","","","","","","","","","","",""
"html-keyboard-response","96","336834","0.0-7.0-2.12","63ea6fc5092518554c9b8111","bdp_wmem","Mon Mar 13 2023 11:57:26 GMT-0700 (Pacific Daylight Time)","694802","Match,No Match","","null","","","","","","<div class='trialBorder'><div class='vertical-center'><img style='vertical-align:center; align:center' src='img/fixation2_sml.jpg'></div><div class='arrayDiv3'><div class='tl'><img class='introPic' src='trustrating_stim/white_mw013.bmp'><br><font color='green'><strong>Share</strong></font></div><div class='tc'><img class='introPic' src='trustrating_stim/white_mw040.bmp'><br><font color='green'><strong>Share</strong></font></div><div class='tr'><img class='introPic' src='trustrating_stim/white_mw003.bmp'><br><font color='red'><strong>Keep</strong></font></div></div></div>","null","ARRAY","3","trustrating_stim/white_mw013.bmp,trustrating_stim/white_mw040.bmp,trustrating_stim/white_mw003.bmp","1,1,0","Match","e","4500","","","","",""
"html-keyboard-response","97","340839","0.0-7.0-3.12","63ea6fc5092518554c9b8111","bdp_wmem","Mon Mar 13 2023 11:57:26 GMT-0700 (Pacific Daylight Time)","694802","Match,No Match","","null","","","","","","<div class='trialBorder'><div class='vertical-center'><img src='img/fixation2_sml.jpg'</img></div></div>","null","DELAY","","","","","","","","","","",""
"html-keyboard-response","98","343132","0.0-7.0-4.12","63ea6fc5092518554c9b8111","bdp_wmem","Mon Mar 13 2023 11:57:26 GMT-0700 (Pacific Daylight Time)","694802","Match,No Match","","2292","","","","","","<div class='trialBorder'><div class='targDiv'><div class='tc'><img class='introPic' src='trustrating_stim/white_mw040.bmp'><br><font color='green'><strong>Share</strong></font></div></div><div class='respDiv'><div class='respDivL'>Match<br>(e)</div><div class='respDivR'>No Match<br>(i)</div></div></div>","e","TARGET","3","trustrating_stim/white_mw013.bmp,trustrating_stim/white_mw040.bmp,trustrating_stim/white_mw003.bmp","1,1,0","Match","e","4500","trustrating_stim/white_mw040.bmp","green","Share","REAL","1"
"html-keyboard-response","99","343639","0.0-7.0-5.12","63ea6fc5092518554c9b8111","bdp_wmem","Mon Mar 13 2023 11:57:26 GMT-0700 (Pacific Daylight Time)","694802","Match,No Match","","null","","","","","","<div class='trialBorder'><div class='vertical-center'><img src='img/correct.jpg'></div><div class='respDiv'><div class='respDivL'><font style='color:orange'>Match<br>(e)</font></div><div class='respDivR'>No Match<br>(i)</div></div></div>","null","FEEDBACK","","","","","","","","","","",""
"html-keyboard-response","100","344146","0.0-7.0-1.13","63ea6fc5092518554c9b8111","bdp_wmem","Mon Mar 13 2023 11:57:26 GMT-0700 (Pacific Daylight Time)","694802","Match,No Match","","null","","","","","","<div class='trialBorder'><div class='vertical-center'><img src='img/fixation2_sml.jpg'</img></div></div>","null","FIX","","","","","","","","","","",""
"html-keyboard-response","101","345650","0.0-7.0-2.13","63ea6fc5092518554c9b8111","bdp_wmem","Mon Mar 13 2023 11:57:26 GMT-0700 (Pacific Daylight Time)","694802","Match,No Match","","null","","","","","","<div class='trialBorder'><div class='vertical-center'><img style='vertical-align:center; align:center' src='img/fixation2_sml.jpg'></div><div class='arrayDiv1'><div class='tc'><img class='introPic' src='trustrating_stim/white_mw085.bmp'><br><font color='green'><strong>Share</strong></font></div></div></div>","null","ARRAY","1","trustrating_stim/white_mw085.bmp","1","Match","e","1500","","","","",""
"html-keyboard-response","102","349655","0.0-7.0-3.13","63ea6fc5092518554c9b8111","bdp_wmem","Mon Mar 13 2023 11:57:26 GMT-0700 (Pacific Daylight Time)","694802","Match,No Match","","null","","","","","","<div class='trialBorder'><div class='vertical-center'><img src='img/fixation2_sml.jpg'</img></div></div>","null","DELAY","","","","","","","","","","",""
"html-keyboard-response","103","351317","0.0-7.0-4.13","63ea6fc5092518554c9b8111","bdp_wmem","Mon Mar 13 2023 11:57:26 GMT-0700 (Pacific Daylight Time)","694802","Match,No Match","","1661","","","","","","<div class='trialBorder'><div class='targDiv'><div class='tc'><img class='introPic' src='trustrating_stim/white_mw085.bmp'><br><font color='green'><strong>Share</strong></font></div></div><div class='respDiv'><div class='respDivL'>Match<br>(e)</div><div class='respDivR'>No Match<br>(i)</div></div></div>","e","TARGET","1","trustrating_stim/white_mw085.bmp","1","Match","e","1500","trustrating_stim/white_mw085.bmp","green","Share","REAL","1"
"html-keyboard-response","104","351825","0.0-7.0-5.13","63ea6fc5092518554c9b8111","bdp_wmem","Mon Mar 13 2023 11:57:26 GMT-0700 (Pacific Daylight Time)","694802","Match,No Match","","null","","","","","","<div class='trialBorder'><div class='vertical-center'><img src='img/correct.jpg'></div><div class='respDiv'><div class='respDivL'><font style='color:orange'>Match<br>(e)</font></div><div class='respDivR'>No Match<br>(i)</div></div></div>","null","FEEDBACK","","","","","","","","","","",""
"html-keyboard-response","105","352338","0.0-7.0-1.14","63ea6fc5092518554c9b8111","bdp_wmem","Mon Mar 13 2023 11:57:26 GMT-0700 (Pacific Daylight Time)","694802","Match,No Match","","null","","","","","","<div class='trialBorder'><div class='vertical-center'><img src='img/fixation2_sml.jpg'</img></div></div>","null","FIX","","","","","","","","","","",""
"html-keyboard-response","106","355346","0.0-7.0-2.14","63ea6fc5092518554c9b8111","bdp_wmem","Mon Mar 13 2023 11:57:26 GMT-0700 (Pacific Daylight Time)","694802","Match,No Match","","null","","","","","","<div class='trialBorder'><div class='vertical-center'><img style='vertical-align:center; align:center' src='img/fixation2_sml.jpg'></div><div class='arrayDiv2'><div class='tl'><img class='introPic' src='trustrating_stim/white_mw078.bmp'><br><font color='green'><strong>Share</strong></font></div><div class='tr'><img class='introPic' src='trustrating_stim/white_mw085.bmp'><br><font color='red'><strong>Keep</strong></font></div></div></div>","null","ARRAY","2","trustrating_stim/white_mw078.bmp,trustrating_stim/white_mw085.bmp","1,0","Match","e","3000","","","","",""
"html-keyboard-response","107","359351","0.0-7.0-3.14","63ea6fc5092518554c9b8111","bdp_wmem","Mon Mar 13 2023 11:57:26 GMT-0700 (Pacific Daylight Time)","694802","Match,No Match","","null","","","","","","<div class='trialBorder'><div class='vertical-center'><img src='img/fixation2_sml.jpg'</img></div></div>","null","DELAY","","","","","","","","","","",""
"html-keyboard-response","108","361760","0.0-7.0-4.14","63ea6fc5092518554c9b8111","bdp_wmem","Mon Mar 13 2023 11:57:26 GMT-0700 (Pacific Daylight Time)","694802","Match,No Match","","2407","","","","","","<div class='trialBorder'><div class='targDiv'><div class='tc'><img class='introPic' src='trustrating_stim/white_mw078.bmp'><br><font color='green'><strong>Share</strong></font></div></div><div class='respDiv'><div class='respDivL'>Match<br>(e)</div><div class='respDivR'>No Match<br>(i)</div></div></div>","e","TARGET","2","trustrating_stim/white_mw078.bmp,trustrating_stim/white_mw085.bmp","1,0","Match","e","3000","trustrating_stim/white_mw078.bmp","green","Share","REAL","1"
"html-keyboard-response","109","362263","0.0-7.0-5.14","63ea6fc5092518554c9b8111","bdp_wmem","Mon Mar 13 2023 11:57:26 GMT-0700 (Pacific Daylight Time)","694802","Match,No Match","","null","","","","","","<div class='trialBorder'><div class='vertical-center'><img src='img/correct.jpg'></div><div class='respDiv'><div class='respDivL'><font style='color:orange'>Match<br>(e)</font></div><div class='respDivR'>No Match<br>(i)</div></div></div>","null","FEEDBACK","","","","","","","","","","",""
"html-keyboard-response","110","362769","0.0-7.0-1.15","63ea6fc5092518554c9b8111","bdp_wmem","Mon Mar 13 2023 11:57:26 GMT-0700 (Pacific Daylight Time)","694802","Match,No Match","","null","","","","","","<div class='trialBorder'><div class='vertical-center'><img src='img/fixation2_sml.jpg'</img></div></div>","null","FIX","","","","","","","","","","",""
"html-keyboard-response","111","365778","0.0-7.0-2.15","63ea6fc5092518554c9b8111","bdp_wmem","Mon Mar 13 2023 11:57:26 GMT-0700 (Pacific Daylight Time)","694802","Match,No Match","","null","","","","","","<div class='trialBorder'><div class='vertical-center'><img style='vertical-align:center; align:center' src='img/fixation2_sml.jpg'></div><div class='arrayDiv2'><div class='tl'><img class='introPic' src='trustrating_stim/white_mw010.bmp'><br><font color='green'><strong>Share</strong></font></div><div class='tr'><img class='introPic' src='trustrating_stim/white_mw012.bmp'><br><font color='red'><strong>Keep</strong></font></div></div></div>","null","ARRAY","2","trustrating_stim/white_mw010.bmp,trustrating_stim/white_mw012.bmp","1,0","noMatchFace","i","3000","","","","",""
"html-keyboard-response","112","369783","0.0-7.0-3.15","63ea6fc5092518554c9b8111","bdp_wmem","Mon Mar 13 2023 11:57:26 GMT-0700 (Pacific Daylight Time)","694802","Match,No Match","","null","","","","","","<div class='trialBorder'><div class='vertical-center'><img src='img/fixation2_sml.jpg'</img></div></div>","null","DELAY","","","","","","","","","","",""
"html-keyboard-response","113","371013","0.0-7.0-4.15","63ea6fc5092518554c9b8111","bdp_wmem","Mon Mar 13 2023 11:57:26 GMT-0700 (Pacific Daylight Time)","694802","Match,No Match","","1229","","","","","","<div class='trialBorder'><div class='targDiv'><div class='tc'><img class='introPic' src='trustrating_stim/white_mw091.bmp'><br><font color='red'><strong>Keep</strong></font></div></div><div class='respDiv'><div class='respDivL'>Match<br>(e)</div><div class='respDivR'>No Match<br>(i)</div></div></div>","i","TARGET","2","trustrating_stim/white_mw010.bmp,trustrating_stim/white_mw012.bmp","1,0","noMatchFace","i","3000","trustrating_stim/white_mw091.bmp","red","Keep","REAL","1"
"html-keyboard-response","114","371522","0.0-7.0-5.15","63ea6fc5092518554c9b8111","bdp_wmem","Mon Mar 13 2023 11:57:26 GMT-0700 (Pacific Daylight Time)","694802","Match,No Match","","null","","","","","","<div class='trialBorder'><div class='vertical-center'><img src='img/correct.jpg'></div><div class='respDiv'><div class='respDivL'>Match<br>(e)</div><div class='respDivR'><font style='color:orange'>No Match<br>(i)</font></div></div></div>","null","FEEDBACK","","","","","","","","","","",""
"html-keyboard-response","115","372034","0.0-7.0-1.16","63ea6fc5092518554c9b8111","bdp_wmem","Mon Mar 13 2023 11:57:26 GMT-0700 (Pacific Daylight Time)","694802","Match,No Match","","null","","","","","","<div class='trialBorder'><div class='vertical-center'><img src='img/fixation2_sml.jpg'</img></div></div>","null","FIX","","","","","","","","","","",""
"html-keyboard-response","116","376546","0.0-7.0-2.16","63ea6fc5092518554c9b8111","bdp_wmem","Mon Mar 13 2023 11:57:26 GMT-0700 (Pacific Daylight Time)","694802","Match,No Match","","null","","","","","","<div class='trialBorder'><div class='vertical-center'><img style='vertical-align:center; align:center' src='img/fixation2_sml.jpg'></div><div class='arrayDiv3'><div class='tl'><img class='introPic' src='trustrating_stim/white_mw040.bmp'><br><font color='red'><strong>Keep</strong></font></div><div class='tc'><img class='introPic' src='trustrating_stim/white_mw078.bmp'><br><font color='green'><strong>Share</strong></font></div><div class='tr'><img class='introPic' src='trustrating_stim/white_mw012.bmp'><br><font color='green'><strong>Share</strong></font></div></div></div>","null","ARRAY","3","trustrating_stim/white_mw040.bmp,trustrating_stim/white_mw078.bmp,trustrating_stim/white_mw012.bmp","0,1,1","noMatchOutcome","i","4500","","","","",""
"html-keyboard-response","117","380551","0.0-7.0-3.16","63ea6fc5092518554c9b8111","bdp_wmem","Mon Mar 13 2023 11:57:26 GMT-0700 (Pacific Daylight Time)","694802","Match,No Match","","null","","","","","","<div class='trialBorder'><div class='vertical-center'><img src='img/fixation2_sml.jpg'</img></div></div>","null","DELAY","","","","","","","","","","",""
"html-keyboard-response","118","383264","0.0-7.0-4.16","63ea6fc5092518554c9b8111","bdp_wmem","Mon Mar 13 2023 11:57:26 GMT-0700 (Pacific Daylight Time)","694802","Match,No Match","","2712","","","","","","<div class='trialBorder'><div class='targDiv'><div class='tc'><img class='introPic' src='trustrating_stim/white_mw078.bmp'><br><font color='red'><strong>Keep</strong></font></div></div><div class='respDiv'><div class='respDivL'>Match<br>(e)</div><div class='respDivR'>No Match<br>(i)</div></div></div>","i","TARGET","3","trustrating_stim/white_mw040.bmp,trustrating_stim/white_mw078.bmp,trustrating_stim/white_mw012.bmp","0,1,1","noMatchOutcome","i","4500","trustrating_stim/white_mw078.bmp","red","Keep","REAL","1"
"html-keyboard-response","119","383767","0.0-7.0-5.16","63ea6fc5092518554c9b8111","bdp_wmem","Mon Mar 13 2023 11:57:26 GMT-0700 (Pacific Daylight Time)","694802","Match,No Match","","null","","","","","","<div class='trialBorder'><div class='vertical-center'><img src='img/correct.jpg'></div><div class='respDiv'><div class='respDivL'>Match<br>(e)</div><div class='respDivR'><font style='color:orange'>No Match<br>(i)</font></div></div></div>","null","FEEDBACK","","","","","","","","","","",""
"html-keyboard-response","120","384273","0.0-7.0-1.17","63ea6fc5092518554c9b8111","bdp_wmem","Mon Mar 13 2023 11:57:26 GMT-0700 (Pacific Daylight Time)","694802","Match,No Match","","null","","","","","","<div class='trialBorder'><div class='vertical-center'><img src='img/fixation2_sml.jpg'</img></div></div>","null","FIX","","","","","","","","","","",""
"html-keyboard-response","121","387282","0.0-7.0-2.17","63ea6fc5092518554c9b8111","bdp_wmem","Mon Mar 13 2023 11:57:26 GMT-0700 (Pacific Daylight Time)","694802","Match,No Match","","null","","","","","","<div class='trialBorder'><div class='vertical-center'><img style='vertical-align:center; align:center' src='img/fixation2_sml.jpg'></div><div class='arrayDiv2'><div class='tl'><img class='introPic' src='trustrating_stim/white_mw091.bmp'><br><font color='red'><strong>Keep</strong></font></div><div class='tr'><img class='introPic' src='trustrating_stim/white_mw010.bmp'><br><font color='green'><strong>Share</strong></font></div></div></div>","null","ARRAY","2","trustrating_stim/white_mw091.bmp,trustrating_stim/white_mw010.bmp","0,1","noMatchFace","i","3000","","","","",""
"html-keyboard-response","122","391287","0.0-7.0-3.17","63ea6fc5092518554c9b8111","bdp_wmem","Mon Mar 13 2023 11:57:26 GMT-0700 (Pacific Daylight Time)","694802","Match,No Match","","null","","","","","","<div class='trialBorder'><div class='vertical-center'><img src='img/fixation2_sml.jpg'</img></div></div>","null","DELAY","","","","","","","","","","",""
"html-keyboard-response","123","392992","0.0-7.0-4.17","63ea6fc5092518554c9b8111","bdp_wmem","Mon Mar 13 2023 11:57:26 GMT-0700 (Pacific Daylight Time)","694802","Match,No Match","","1704","","","","","","<div class='trialBorder'><div class='targDiv'><div class='tc'><img class='introPic' src='trustrating_stim/white_mw040.bmp'><br><font color='green'><strong>Share</strong></font></div></div><div class='respDiv'><div class='respDivL'>Match<br>(e)</div><div class='respDivR'>No Match<br>(i)</div></div></div>","i","TARGET","2","trustrating_stim/white_mw091.bmp,trustrating_stim/white_mw010.bmp","0,1","noMatchFace","i","3000","trustrating_stim/white_mw040.bmp","green","Share","REAL","1"
"html-keyboard-response","124","393495","0.0-7.0-5.17","63ea6fc5092518554c9b8111","bdp_wmem","Mon Mar 13 2023 11:57:26 GMT-0700 (Pacific Daylight Time)","694802","Match,No Match","","null","","","","","","<div class='trialBorder'><div class='vertical-center'><img src='img/correct.jpg'></div><div class='respDiv'><div class='respDivL'>Match<br>(e)</div><div class='respDivR'><font style='color:orange'>No Match<br>(i)</font></div></div></div>","null","FEEDBACK","","","","","","","","","","",""
"html-keyboard-response","125","394002","0.0-7.0-1.18","63ea6fc5092518554c9b8111","bdp_wmem","Mon Mar 13 2023 11:57:26 GMT-0700 (Pacific Daylight Time)","694802","Match,No Match","","null","","","","","","<div class='trialBorder'><div class='vertical-center'><img src='img/fixation2_sml.jpg'</img></div></div>","null","FIX","","","","","","","","","","",""
"html-keyboard-response","126","397010","0.0-7.0-2.18","63ea6fc5092518554c9b8111","bdp_wmem","Mon Mar 13 2023 11:57:26 GMT-0700 (Pacific Daylight Time)","694802","Match,No Match","","null","","","","","","<div class='trialBorder'><div class='vertical-center'><img style='vertical-align:center; align:center' src='img/fixation2_sml.jpg'></div><div class='arrayDiv2'><div class='tl'><img class='introPic' src='trustrating_stim/white_mw042.bmp'><br><font color='red'><strong>Keep</strong></font></div><div class='tr'><img class='introPic' src='trustrating_stim/white_mw092.bmp'><br><font color='green'><strong>Share</strong></font></div></div></div>","null","ARRAY","2","trustrating_stim/white_mw042.bmp,trustrating_stim/white_mw092.bmp","0,1","noMatchOutcome","i","3000","","","","",""
"html-keyboard-response","127","401018","0.0-7.0-3.18","63ea6fc5092518554c9b8111","bdp_wmem","Mon Mar 13 2023 11:57:26 GMT-0700 (Pacific Daylight Time)","694802","Match,No Match","","null","","","","","","<div class='trialBorder'><div class='vertical-center'><img src='img/fixation2_sml.jpg'</img></div></div>","null","DELAY","","","","","","","","","","",""
"html-keyboard-response","128","402633","0.0-7.0-4.18","63ea6fc5092518554c9b8111","bdp_wmem","Mon Mar 13 2023 11:57:26 GMT-0700 (Pacific Daylight Time)","694802","Match,No Match","","1614","","","","","","<div class='trialBorder'><div class='targDiv'><div class='tc'><img class='introPic' src='trustrating_stim/white_mw042.bmp'><br><font color='green'><strong>Share</strong></font></div></div><div class='respDiv'><div class='respDivL'>Match<br>(e)</div><div class='respDivR'>No Match<br>(i)</div></div></div>","i","TARGET","2","trustrating_stim/white_mw042.bmp,trustrating_stim/white_mw092.bmp","0,1","noMatchOutcome","i","3000","trustrating_stim/white_mw042.bmp","green","Share","REAL","1"
"html-keyboard-response","129","403138","0.0-7.0-5.18","63ea6fc5092518554c9b8111","bdp_wmem","Mon Mar 13 2023 11:57:26 GMT-0700 (Pacific Daylight Time)","694802","Match,No Match","","null","","","","","","<div class='trialBorder'><div class='vertical-center'><img src='img/correct.jpg'></div><div class='respDiv'><div class='respDivL'>Match<br>(e)</div><div class='respDivR'><font style='color:orange'>No Match<br>(i)</font></div></div></div>","null","FEEDBACK","","","","","","","","","","",""
"html-keyboard-response","130","403650","0.0-7.0-1.19","63ea6fc5092518554c9b8111","bdp_wmem","Mon Mar 13 2023 11:57:26 GMT-0700 (Pacific Daylight Time)","694802","Match,No Match","","null","","","","","","<div class='trialBorder'><div class='vertical-center'><img src='img/fixation2_sml.jpg'</img></div></div>","null","FIX","","","","","","","","","","",""
"html-keyboard-response","131","405159","0.0-7.0-2.19","63ea6fc5092518554c9b8111","bdp_wmem","Mon Mar 13 2023 11:57:26 GMT-0700 (Pacific Daylight Time)","694802","Match,No Match","","null","","","","","","<div class='trialBorder'><div class='vertical-center'><img style='vertical-align:center; align:center' src='img/fixation2_sml.jpg'></div><div class='arrayDiv1'><div class='tc'><img class='introPic' src='trustrating_stim/white_mw091.bmp'><br><font color='green'><strong>Share</strong></font></div></div></div>","null","ARRAY","1","trustrating_stim/white_mw091.bmp","1","Match","e","1500","","","","",""
"html-keyboard-response","132","409169","0.0-7.0-3.19","63ea6fc5092518554c9b8111","bdp_wmem","Mon Mar 13 2023 11:57:26 GMT-0700 (Pacific Daylight Time)","694802","Match,No Match","","null","","","","","","<div class='trialBorder'><div class='vertical-center'><img src='img/fixation2_sml.jpg'</img></div></div>","null","DELAY","","","","","","","","","","",""
"html-keyboard-response","133","410491","0.0-7.0-4.19","63ea6fc5092518554c9b8111","bdp_wmem","Mon Mar 13 2023 11:57:26 GMT-0700 (Pacific Daylight Time)","694802","Match,No Match","","1321","","","","","","<div class='trialBorder'><div class='targDiv'><div class='tc'><img class='introPic' src='trustrating_stim/white_mw091.bmp'><br><font color='green'><strong>Share</strong></font></div></div><div class='respDiv'><div class='respDivL'>Match<br>(e)</div><div class='respDivR'>No Match<br>(i)</div></div></div>","e","TARGET","1","trustrating_stim/white_mw091.bmp","1","Match","e","1500","trustrating_stim/white_mw091.bmp","green","Share","REAL","1"
"html-keyboard-response","134","410999","0.0-7.0-5.19","63ea6fc5092518554c9b8111","bdp_wmem","Mon Mar 13 2023 11:57:26 GMT-0700 (Pacific Daylight Time)","694802","Match,No Match","","null","","","","","","<div class='trialBorder'><div class='vertical-center'><img src='img/correct.jpg'></div><div class='respDiv'><div class='respDivL'><font style='color:orange'>Match<br>(e)</font></div><div class='respDivR'>No Match<br>(i)</div></div></div>","null","FEEDBACK","","","","","","","","","","",""
"html-keyboard-response","135","411506","0.0-7.0-1.20","63ea6fc5092518554c9b8111","bdp_wmem","Mon Mar 13 2023 11:57:26 GMT-0700 (Pacific Daylight Time)","694802","Match,No Match","","null","","","","","","<div class='trialBorder'><div class='vertical-center'><img src='img/fixation2_sml.jpg'</img></div></div>","null","FIX","","","","","","","","","","",""
"html-keyboard-response","136","416018","0.0-7.0-2.20","63ea6fc5092518554c9b8111","bdp_wmem","Mon Mar 13 2023 11:57:26 GMT-0700 (Pacific Daylight Time)","694802","Match,No Match","","null","","","","","","<div class='trialBorder'><div class='vertical-center'><img style='vertical-align:center; align:center' src='img/fixation2_sml.jpg'></div><div class='arrayDiv3'><div class='tl'><img class='introPic' src='trustrating_stim/white_mw042.bmp'><br><font color='green'><strong>Share</strong></font></div><div class='tc'><img class='introPic' src='trustrating_stim/white_mw085.bmp'><br><font color='red'><strong>Keep</strong></font></div><div class='tr'><img class='introPic' src='trustrating_stim/white_mw003.bmp'><br><font color='green'><strong>Share</strong></font></div></div></div>","null","ARRAY","3","trustrating_stim/white_mw042.bmp,trustrating_stim/white_mw085.bmp,trustrating_stim/white_mw003.bmp","1,0,1","Match","e","4500","","","","",""
"html-keyboard-response","137","420023","0.0-7.0-3.20","63ea6fc5092518554c9b8111","bdp_wmem","Mon Mar 13 2023 11:57:26 GMT-0700 (Pacific Daylight Time)","694802","Match,No Match","","null","","","","","","<div class='trialBorder'><div class='vertical-center'><img src='img/fixation2_sml.jpg'</img></div></div>","null","DELAY","","","","","","","","","","",""
"html-keyboard-response","138","422500","0.0-7.0-4.20","63ea6fc5092518554c9b8111","bdp_wmem","Mon Mar 13 2023 11:57:26 GMT-0700 (Pacific Daylight Time)","694802","Match,No Match","","2476","","","","","","<div class='trialBorder'><div class='targDiv'><div class='tc'><img class='introPic' src='trustrating_stim/white_mw042.bmp'><br><font color='green'><strong>Share</strong></font></div></div><div class='respDiv'><div class='respDivL'>Match<br>(e)</div><div class='respDivR'>No Match<br>(i)</div></div></div>","e","TARGET","3","trustrating_stim/white_mw042.bmp,trustrating_stim/white_mw085.bmp,trustrating_stim/white_mw003.bmp","1,0,1","Match","e","4500","trustrating_stim/white_mw042.bmp","green","Share","REAL","1"
"html-keyboard-response","139","423010","0.0-7.0-5.20","63ea6fc5092518554c9b8111","bdp_wmem","Mon Mar 13 2023 11:57:26 GMT-0700 (Pacific Daylight Time)","694802","Match,No Match","","null","","","","","","<div class='trialBorder'><div class='vertical-center'><img src='img/correct.jpg'></div><div class='respDiv'><div class='respDivL'><font style='color:orange'>Match<br>(e)</font></div><div class='respDivR'>No Match<br>(i)</div></div></div>","null","FEEDBACK","","","","","","","","","","",""
"html-keyboard-response","140","423511","0.0-7.0-1.21","63ea6fc5092518554c9b8111","bdp_wmem","Mon Mar 13 2023 11:57:26 GMT-0700 (Pacific Daylight Time)","694802","Match,No Match","","null","","","","","","<div class='trialBorder'><div class='vertical-center'><img src='img/fixation2_sml.jpg'</img></div></div>","null","FIX","","","","","","","","","","",""
"html-keyboard-response","141","426519","0.0-7.0-2.21","63ea6fc5092518554c9b8111","bdp_wmem","Mon Mar 13 2023 11:57:26 GMT-0700 (Pacific Daylight Time)","694802","Match,No Match","","null","","","","","","<div class='trialBorder'><div class='vertical-center'><img style='vertical-align:center; align:center' src='img/fixation2_sml.jpg'></div><div class='arrayDiv2'><div class='tl'><img class='introPic' src='trustrating_stim/white_mw078.bmp'><br><font color='green'><strong>Share</strong></font></div><div class='tr'><img class='introPic' src='trustrating_stim/white_mw010.bmp'><br><font color='red'><strong>Keep</strong></font></div></div></div>","null","ARRAY","2","trustrating_stim/white_mw078.bmp,trustrating_stim/white_mw010.bmp","1,0","Match","e","3000","","","","",""
"html-keyboard-response","142","430530","0.0-7.0-3.21","63ea6fc5092518554c9b8111","bdp_wmem","Mon Mar 13 2023 11:57:26 GMT-0700 (Pacific Daylight Time)","694802","Match,No Match","","null","","","","","","<div class='trialBorder'><div class='vertical-center'><img src='img/fixation2_sml.jpg'</img></div></div>","null","DELAY","","","","","","","","","","",""
"html-keyboard-response","143","432665","0.0-7.0-4.21","63ea6fc5092518554c9b8111","bdp_wmem","Mon Mar 13 2023 11:57:26 GMT-0700 (Pacific Daylight Time)","694802","Match,No Match","","2134","","","","","","<div class='trialBorder'><div class='targDiv'><div class='tc'><img class='introPic' src='trustrating_stim/white_mw010.bmp'><br><font color='red'><strong>Keep</strong></font></div></div><div class='respDiv'><div class='respDivL'>Match<br>(e)</div><div class='respDivR'>No Match<br>(i)</div></div></div>","i","TARGET","2","trustrating_stim/white_mw078.bmp,trustrating_stim/white_mw010.bmp","1,0","Match","e","3000","trustrating_stim/white_mw010.bmp","red","Keep","REAL","0"
"html-keyboard-response","144","433175","0.0-7.0-5.21","63ea6fc5092518554c9b8111","bdp_wmem","Mon Mar 13 2023 11:57:26 GMT-0700 (Pacific Daylight Time)","694802","Match,No Match","","null","","","","","","<div class='trialBorder'><div class='vertical-center'><img src='img/error.jpg'></div><div class='respDiv'><div class='respDivL'>Match<br>(e)</div><div class='respDivR'><font style='color:orange'>No Match<br>(i)</font></div></div></div>","null","FEEDBACK","","","","","","","","","","",""
"html-keyboard-response","145","433679","0.0-7.0-1.22","63ea6fc5092518554c9b8111","bdp_wmem","Mon Mar 13 2023 11:57:26 GMT-0700 (Pacific Daylight Time)","694802","Match,No Match","","null","","","","","","<div class='trialBorder'><div class='vertical-center'><img src='img/fixation2_sml.jpg'</img></div></div>","null","FIX","","","","","","","","","","",""
"html-keyboard-response","146","435186","0.0-7.0-2.22","63ea6fc5092518554c9b8111","bdp_wmem","Mon Mar 13 2023 11:57:26 GMT-0700 (Pacific Daylight Time)","694802","Match,No Match","","null","","","","","","<div class='trialBorder'><div class='vertical-center'><img style='vertical-align:center; align:center' src='img/fixation2_sml.jpg'></div><div class='arrayDiv1'><div class='tc'><img class='introPic' src='trustrating_stim/white_mw010.bmp'><br><font color='red'><strong>Keep</strong></font></div></div></div>","null","ARRAY","1","trustrating_stim/white_mw010.bmp","0","Match","e","1500","","","","",""
"html-keyboard-response","147","439191","0.0-7.0-3.22","63ea6fc5092518554c9b8111","bdp_wmem","Mon Mar 13 2023 11:57:26 GMT-0700 (Pacific Daylight Time)","694802","Match,No Match","","null","","","","","","<div class='trialBorder'><div class='vertical-center'><img src='img/fixation2_sml.jpg'</img></div></div>","null","DELAY","","","","","","","","","","",""
"html-keyboard-response","148","440790","0.0-7.0-4.22","63ea6fc5092518554c9b8111","bdp_wmem","Mon Mar 13 2023 11:57:26 GMT-0700 (Pacific Daylight Time)","694802","Match,No Match","","1598","","","","","","<div class='trialBorder'><div class='targDiv'><div class='tc'><img class='introPic' src='trustrating_stim/white_mw010.bmp'><br><font color='red'><strong>Keep</strong></font></div></div><div class='respDiv'><div class='respDivL'>Match<br>(e)</div><div class='respDivR'>No Match<br>(i)</div></div></div>","e","TARGET","1","trustrating_stim/white_mw010.bmp","0","Match","e","1500","trustrating_stim/white_mw010.bmp","red","Keep","REAL","1"
"html-keyboard-response","149","441298","0.0-7.0-5.22","63ea6fc5092518554c9b8111","bdp_wmem","Mon Mar 13 2023 11:57:26 GMT-0700 (Pacific Daylight Time)","694802","Match,No Match","","null","","","","","","<div class='trialBorder'><div class='vertical-center'><img src='img/correct.jpg'></div><div class='respDiv'><div class='respDivL'><font style='color:orange'>Match<br>(e)</font></div><div class='respDivR'>No Match<br>(i)</div></div></div>","null","FEEDBACK","","","","","","","","","","",""
"html-keyboard-response","150","441810","0.0-7.0-1.23","63ea6fc5092518554c9b8111","bdp_wmem","Mon Mar 13 2023 11:57:26 GMT-0700 (Pacific Daylight Time)","694802","Match,No Match","","null","","","","","","<div class='trialBorder'><div class='vertical-center'><img src='img/fixation2_sml.jpg'</img></div></div>","null","FIX","","","","","","","","","","",""
"html-keyboard-response","151","444818","0.0-7.0-2.23","63ea6fc5092518554c9b8111","bdp_wmem","Mon Mar 13 2023 11:57:26 GMT-0700 (Pacific Daylight Time)","694802","Match,No Match","","null","","","","","","<div class='trialBorder'><div class='vertical-center'><img style='vertical-align:center; align:center' src='img/fixation2_sml.jpg'></div><div class='arrayDiv2'><div class='tl'><img class='introPic' src='trustrating_stim/white_mw040.bmp'><br><font color='green'><strong>Share</strong></font></div><div class='tr'><img class='introPic' src='trustrating_stim/white_mw085.bmp'><br><font color='red'><strong>Keep</strong></font></div></div></div>","null","ARRAY","2","trustrating_stim/white_mw040.bmp,trustrating_stim/white_mw085.bmp","1,0","Match","e","3000","","","","",""
"html-keyboard-response","152","448823","0.0-7.0-3.23","63ea6fc5092518554c9b8111","bdp_wmem","Mon Mar 13 2023 11:57:26 GMT-0700 (Pacific Daylight Time)","694802","Match,No Match","","null","","","","","","<div class='trialBorder'><div class='vertical-center'><img src='img/fixation2_sml.jpg'</img></div></div>","null","DELAY","","","","","","","","","","",""
"html-keyboard-response","153","450282","0.0-7.0-4.23","63ea6fc5092518554c9b8111","bdp_wmem","Mon Mar 13 2023 11:57:26 GMT-0700 (Pacific Daylight Time)","694802","Match,No Match","","1458","","","","","","<div class='trialBorder'><div class='targDiv'><div class='tc'><img class='introPic' src='trustrating_stim/white_mw040.bmp'><br><font color='green'><strong>Share</strong></font></div></div><div class='respDiv'><div class='respDivL'>Match<br>(e)</div><div class='respDivR'>No Match<br>(i)</div></div></div>","e","TARGET","2","trustrating_stim/white_mw040.bmp,trustrating_stim/white_mw085.bmp","1,0","Match","e","3000","trustrating_stim/white_mw040.bmp","green","Share","REAL","1"
"html-keyboard-response","154","450791","0.0-7.0-5.23","63ea6fc5092518554c9b8111","bdp_wmem","Mon Mar 13 2023 11:57:26 GMT-0700 (Pacific Daylight Time)","694802","Match,No Match","","null","","","","","","<div class='trialBorder'><div class='vertical-center'><img src='img/correct.jpg'></div><div class='respDiv'><div class='respDivL'><font style='color:orange'>Match<br>(e)</font></div><div class='respDivR'>No Match<br>(i)</div></div></div>","null","FEEDBACK","","","","","","","","","","",""
"html-keyboard-response","155","451298","0.0-7.0-1.24","63ea6fc5092518554c9b8111","bdp_wmem","Mon Mar 13 2023 11:57:26 GMT-0700 (Pacific Daylight Time)","694802","Match,No Match","","null","","","","","","<div class='trialBorder'><div class='vertical-center'><img src='img/fixation2_sml.jpg'</img></div></div>","null","FIX","","","","","","","","","","",""
"html-keyboard-response","156","455810","0.0-7.0-2.24","63ea6fc5092518554c9b8111","bdp_wmem","Mon Mar 13 2023 11:57:26 GMT-0700 (Pacific Daylight Time)","694802","Match,No Match","","null","","","","","","<div class='trialBorder'><div class='vertical-center'><img style='vertical-align:center; align:center' src='img/fixation2_sml.jpg'></div><div class='arrayDiv3'><div class='tl'><img class='introPic' src='trustrating_stim/white_mw042.bmp'><br><font color='green'><strong>Share</strong></font></div><div class='tc'><img class='introPic' src='trustrating_stim/white_mw038.bmp'><br><font color='red'><strong>Keep</strong></font></div><div class='tr'><img class='introPic' src='trustrating_stim/white_mw010.bmp'><br><font color='green'><strong>Share</strong></font></div></div></div>","null","ARRAY","3","trustrating_stim/white_mw042.bmp,trustrating_stim/white_mw038.bmp,trustrating_stim/white_mw010.bmp","1,0,1","noMatchOutcome","i","4500","","","","",""
"html-keyboard-response","157","459815","0.0-7.0-3.24","63ea6fc5092518554c9b8111","bdp_wmem","Mon Mar 13 2023 11:57:26 GMT-0700 (Pacific Daylight Time)","694802","Match,No Match","","null","","","","","","<div class='trialBorder'><div class='vertical-center'><img src='img/fixation2_sml.jpg'</img></div></div>","null","DELAY","","","","","","","","","","",""
"html-keyboard-response","158","461770","0.0-7.0-4.24","63ea6fc5092518554c9b8111","bdp_wmem","Mon Mar 13 2023 11:57:26 GMT-0700 (Pacific Daylight Time)","694802","Match,No Match","","1954","","","","","","<div class='trialBorder'><div class='targDiv'><div class='tc'><img class='introPic' src='trustrating_stim/white_mw010.bmp'><br><font color='red'><strong>Keep</strong></font></div></div><div class='respDiv'><div class='respDivL'>Match<br>(e)</div><div class='respDivR'>No Match<br>(i)</div></div></div>","i","TARGET","3","trustrating_stim/white_mw042.bmp,trustrating_stim/white_mw038.bmp,trustrating_stim/white_mw010.bmp","1,0,1","noMatchOutcome","i","4500","trustrating_stim/white_mw010.bmp","red","Keep","REAL","1"
"html-keyboard-response","159","462279","0.0-7.0-5.24","63ea6fc5092518554c9b8111","bdp_wmem","Mon Mar 13 2023 11:57:26 GMT-0700 (Pacific Daylight Time)","694802","Match,No Match","","null","","","","","","<div class='trialBorder'><div class='vertical-center'><img src='img/correct.jpg'></div><div class='respDiv'><div class='respDivL'>Match<br>(e)</div><div class='respDivR'><font style='color:orange'>No Match<br>(i)</font></div></div></div>","null","FEEDBACK","","","","","","","","","","",""
"html-keyboard-response","160","462786","0.0-7.0-1.25","63ea6fc5092518554c9b8111","bdp_wmem","Mon Mar 13 2023 11:57:26 GMT-0700 (Pacific Daylight Time)","694802","Match,No Match","","null","","","","","","<div class='trialBorder'><div class='vertical-center'><img src='img/fixation2_sml.jpg'</img></div></div>","null","FIX","","","","","","","","","","",""
"html-keyboard-response","161","467298","0.0-7.0-2.25","63ea6fc5092518554c9b8111","bdp_wmem","Mon Mar 13 2023 11:57:26 GMT-0700 (Pacific Daylight Time)","694802","Match,No Match","","null","","","","","","<div class='trialBorder'><div class='vertical-center'><img style='vertical-align:center; align:center' src='img/fixation2_sml.jpg'></div><div class='arrayDiv3'><div class='tl'><img class='introPic' src='trustrating_stim/white_mw092.bmp'><br><font color='green'><strong>Share</strong></font></div><div class='tc'><img class='introPic' src='trustrating_stim/white_mw038.bmp'><br><font color='green'><strong>Share</strong></font></div><div class='tr'><img class='introPic' src='trustrating_stim/white_mw070.bmp'><br><font color='red'><strong>Keep</strong></font></div></div></div>","null","ARRAY","3","trustrating_stim/white_mw092.bmp,trustrating_stim/white_mw038.bmp,trustrating_stim/white_mw070.bmp","1,1,0","Match","e","4500","","","","",""
"html-keyboard-response","162","471303","0.0-7.0-3.25","63ea6fc5092518554c9b8111","bdp_wmem","Mon Mar 13 2023 11:57:26 GMT-0700 (Pacific Daylight Time)","694802","Match,No Match","","null","","","","","","<div class='trialBorder'><div class='vertical-center'><img src='img/fixation2_sml.jpg'</img></div></div>","null","DELAY","","","","","","","","","","",""
"html-keyboard-response","163","473411","0.0-7.0-4.25","63ea6fc5092518554c9b8111","bdp_wmem","Mon Mar 13 2023 11:57:26 GMT-0700 (Pacific Daylight Time)","694802","Match,No Match","","2106","","","","","","<div class='trialBorder'><div class='targDiv'><div class='tc'><img class='introPic' src='trustrating_stim/white_mw070.bmp'><br><font color='red'><strong>Keep</strong></font></div></div><div class='respDiv'><div class='respDivL'>Match<br>(e)</div><div class='respDivR'>No Match<br>(i)</div></div></div>","i","TARGET","3","trustrating_stim/white_mw092.bmp,trustrating_stim/white_mw038.bmp,trustrating_stim/white_mw070.bmp","1,1,0","Match","e","4500","trustrating_stim/white_mw070.bmp","red","Keep","REAL","0"
"html-keyboard-response","164","473922","0.0-7.0-5.25","63ea6fc5092518554c9b8111","bdp_wmem","Mon Mar 13 2023 11:57:26 GMT-0700 (Pacific Daylight Time)","694802","Match,No Match","","null","","","","","","<div class='trialBorder'><div class='vertical-center'><img src='img/error.jpg'></div><div class='respDiv'><div class='respDivL'>Match<br>(e)</div><div class='respDivR'><font style='color:orange'>No Match<br>(i)</font></div></div></div>","null","FEEDBACK","","","","","","","","","","",""
"html-keyboard-response","165","474430","0.0-7.0-1.26","63ea6fc5092518554c9b8111","bdp_wmem","Mon Mar 13 2023 11:57:26 GMT-0700 (Pacific Daylight Time)","694802","Match,No Match","","null","","","","","","<div class='trialBorder'><div class='vertical-center'><img src='img/fixation2_sml.jpg'</img></div></div>","null","FIX","","","","","","","","","","",""
"html-keyboard-response","166","478935","0.0-7.0-2.26","63ea6fc5092518554c9b8111","bdp_wmem","Mon Mar 13 2023 11:57:26 GMT-0700 (Pacific Daylight Time)","694802","Match,No Match","","null","","","","","","<div class='trialBorder'><div class='vertical-center'><img style='vertical-align:center; align:center' src='img/fixation2_sml.jpg'></div><div class='arrayDiv3'><div class='tl'><img class='introPic' src='trustrating_stim/white_mw042.bmp'><br><font color='green'><strong>Share</strong></font></div><div class='tc'><img class='introPic' src='trustrating_stim/white_mw078.bmp'><br><font color='red'><strong>Keep</strong></font></div><div class='tr'><img class='introPic' src='trustrating_stim/white_mw040.bmp'><br><font color='green'><strong>Share</strong></font></div></div></div>","null","ARRAY","3","trustrating_stim/white_mw042.bmp,trustrating_stim/white_mw078.bmp,trustrating_stim/white_mw040.bmp","1,0,1","noMatchFace","i","4500","","","","",""
"html-keyboard-response","167","482946","0.0-7.0-3.26","63ea6fc5092518554c9b8111","bdp_wmem","Mon Mar 13 2023 11:57:26 GMT-0700 (Pacific Daylight Time)","694802","Match,No Match","","null","","","","","","<div class='trialBorder'><div class='vertical-center'><img src='img/fixation2_sml.jpg'</img></div></div>","null","DELAY","","","","","","","","","","",""
"html-keyboard-response","168","484547","0.0-7.0-4.26","63ea6fc5092518554c9b8111","bdp_wmem","Mon Mar 13 2023 11:57:26 GMT-0700 (Pacific Daylight Time)","694802","Match,No Match","","1600","","","","","","<div class='trialBorder'><div class='targDiv'><div class='tc'><img class='introPic' src='trustrating_stim/white_mw003.bmp'><br><font color='red'><strong>Keep</strong></font></div></div><div class='respDiv'><div class='respDivL'>Match<br>(e)</div><div class='respDivR'>No Match<br>(i)</div></div></div>","i","TARGET","3","trustrating_stim/white_mw042.bmp,trustrating_stim/white_mw078.bmp,trustrating_stim/white_mw040.bmp","1,0,1","noMatchFace","i","4500","trustrating_stim/white_mw003.bmp","red","Keep","REAL","1"
"html-keyboard-response","169","485058","0.0-7.0-5.26","63ea6fc5092518554c9b8111","bdp_wmem","Mon Mar 13 2023 11:57:26 GMT-0700 (Pacific Daylight Time)","694802","Match,No Match","","null","","","","","","<div class='trialBorder'><div class='vertical-center'><img src='img/correct.jpg'></div><div class='respDiv'><div class='respDivL'>Match<br>(e)</div><div class='respDivR'><font style='color:orange'>No Match<br>(i)</font></div></div></div>","null","FEEDBACK","","","","","","","","","","",""
"html-keyboard-response","170","485570","0.0-7.0-1.27","63ea6fc5092518554c9b8111","bdp_wmem","Mon Mar 13 2023 11:57:26 GMT-0700 (Pacific Daylight Time)","694802","Match,No Match","","null","","","","","","<div class='trialBorder'><div class='vertical-center'><img src='img/fixation2_sml.jpg'</img></div></div>","null","FIX","","","","","","","","","","",""
"html-keyboard-response","171","490082","0.0-7.0-2.27","63ea6fc5092518554c9b8111","bdp_wmem","Mon Mar 13 2023 11:57:26 GMT-0700 (Pacific Daylight Time)","694802","Match,No Match","","null","","","","","","<div class='trialBorder'><div class='vertical-center'><img style='vertical-align:center; align:center' src='img/fixation2_sml.jpg'></div><div class='arrayDiv3'><div class='tl'><img class='introPic' src='trustrating_stim/white_mw040.bmp'><br><font color='green'><strong>Share</strong></font></div><div class='tc'><img class='introPic' src='trustrating_stim/white_mw078.bmp'><br><font color='green'><strong>Share</strong></font></div><div class='tr'><img class='introPic' src='trustrating_stim/white_mw013.bmp'><br><font color='red'><strong>Keep</strong></font></div></div></div>","null","ARRAY","3","trustrating_stim/white_mw040.bmp,trustrating_stim/white_mw078.bmp,trustrating_stim/white_mw013.bmp","1,1,0","Match","e","4500","","","","",""
"html-keyboard-response","172","494087","0.0-7.0-3.27","63ea6fc5092518554c9b8111","bdp_wmem","Mon Mar 13 2023 11:57:26 GMT-0700 (Pacific Daylight Time)","694802","Match,No Match","","null","","","","","","<div class='trialBorder'><div class='vertical-center'><img src='img/fixation2_sml.jpg'</img></div></div>","null","DELAY","","","","","","","","","","",""
"html-keyboard-response","173","495920","0.0-7.0-4.27","63ea6fc5092518554c9b8111","bdp_wmem","Mon Mar 13 2023 11:57:26 GMT-0700 (Pacific Daylight Time)","694802","Match,No Match","","1832","","","","","","<div class='trialBorder'><div class='targDiv'><div class='tc'><img class='introPic' src='trustrating_stim/white_mw078.bmp'><br><font color='green'><strong>Share</strong></font></div></div><div class='respDiv'><div class='respDivL'>Match<br>(e)</div><div class='respDivR'>No Match<br>(i)</div></div></div>","e","TARGET","3","trustrating_stim/white_mw040.bmp,trustrating_stim/white_mw078.bmp,trustrating_stim/white_mw013.bmp","1,1,0","Match","e","4500","trustrating_stim/white_mw078.bmp","green","Share","REAL","1"
"html-keyboard-response","174","496423","0.0-7.0-5.27","63ea6fc5092518554c9b8111","bdp_wmem","Mon Mar 13 2023 11:57:26 GMT-0700 (Pacific Daylight Time)","694802","Match,No Match","","null","","","","","","<div class='trialBorder'><div class='vertical-center'><img src='img/correct.jpg'></div><div class='respDiv'><div class='respDivL'><font style='color:orange'>Match<br>(e)</font></div><div class='respDivR'>No Match<br>(i)</div></div></div>","null","FEEDBACK","","","","","","","","","","",""
"html-keyboard-response","175","496930","0.0-7.0-1.28","63ea6fc5092518554c9b8111","bdp_wmem","Mon Mar 13 2023 11:57:26 GMT-0700 (Pacific Daylight Time)","694802","Match,No Match","","null","","","","","","<div class='trialBorder'><div class='vertical-center'><img src='img/fixation2_sml.jpg'</img></div></div>","null","FIX","","","","","","","","","","",""
"html-keyboard-response","176","499938","0.0-7.0-2.28","63ea6fc5092518554c9b8111","bdp_wmem","Mon Mar 13 2023 11:57:26 GMT-0700 (Pacific Daylight Time)","694802","Match,No Match","","null","","","","","","<div class='trialBorder'><div class='vertical-center'><img style='vertical-align:center; align:center' src='img/fixation2_sml.jpg'></div><div class='arrayDiv2'><div class='tl'><img class='introPic' src='trustrating_stim/white_mw040.bmp'><br><font color='red'><strong>Keep</strong></font></div><div class='tr'><img class='introPic' src='trustrating_stim/white_mw010.bmp'><br><font color='green'><strong>Share</strong></font></div></div></div>","null","ARRAY","2","trustrating_stim/white_mw040.bmp,trustrating_stim/white_mw010.bmp","0,1","noMatchOutcome","i","3000","","","","",""
"html-keyboard-response","177","503943","0.0-7.0-3.28","63ea6fc5092518554c9b8111","bdp_wmem","Mon Mar 13 2023 11:57:26 GMT-0700 (Pacific Daylight Time)","694802","Match,No Match","","null","","","","","","<div class='trialBorder'><div class='vertical-center'><img src='img/fixation2_sml.jpg'</img></div></div>","null","DELAY","","","","","","","","","","",""
"html-keyboard-response","178","506513","0.0-7.0-4.28","63ea6fc5092518554c9b8111","bdp_wmem","Mon Mar 13 2023 11:57:26 GMT-0700 (Pacific Daylight Time)","694802","Match,No Match","","2569","","","","","","<div class='trialBorder'><div class='targDiv'><div class='tc'><img class='introPic' src='trustrating_stim/white_mw010.bmp'><br><font color='red'><strong>Keep</strong></font></div></div><div class='respDiv'><div class='respDivL'>Match<br>(e)</div><div class='respDivR'>No Match<br>(i)</div></div></div>","i","TARGET","2","trustrating_stim/white_mw040.bmp,trustrating_stim/white_mw010.bmp","0,1","noMatchOutcome","i","3000","trustrating_stim/white_mw010.bmp","red","Keep","REAL","1"
"html-keyboard-response","179","507018","0.0-7.0-5.28","63ea6fc5092518554c9b8111","bdp_wmem","Mon Mar 13 2023 11:57:26 GMT-0700 (Pacific Daylight Time)","694802","Match,No Match","","null","","","","","","<div class='trialBorder'><div class='vertical-center'><img src='img/correct.jpg'></div><div class='respDiv'><div class='respDivL'>Match<br>(e)</div><div class='respDivR'><font style='color:orange'>No Match<br>(i)</font></div></div></div>","null","FEEDBACK","","","","","","","","","","",""
"html-keyboard-response","180","507522","0.0-7.0-1.29","63ea6fc5092518554c9b8111","bdp_wmem","Mon Mar 13 2023 11:57:26 GMT-0700 (Pacific Daylight Time)","694802","Match,No Match","","null","","","","","","<div class='trialBorder'><div class='vertical-center'><img src='img/fixation2_sml.jpg'</img></div></div>","null","FIX","","","","","","","","","","",""
"html-keyboard-response","181","510530","0.0-7.0-2.29","63ea6fc5092518554c9b8111","bdp_wmem","Mon Mar 13 2023 11:57:26 GMT-0700 (Pacific Daylight Time)","694802","Match,No Match","","null","","","","","","<div class='trialBorder'><div class='vertical-center'><img style='vertical-align:center; align:center' src='img/fixation2_sml.jpg'></div><div class='arrayDiv2'><div class='tl'><img class='introPic' src='trustrating_stim/white_mw012.bmp'><br><font color='red'><strong>Keep</strong></font></div><div class='tr'><img class='introPic' src='trustrating_stim/white_mw013.bmp'><br><font color='green'><strong>Share</strong></font></div></div></div>","null","ARRAY","2","trustrating_stim/white_mw012.bmp,trustrating_stim/white_mw013.bmp","0,1","Match","e","3000","","","","",""
"html-keyboard-response","182","514535","0.0-7.0-3.29","63ea6fc5092518554c9b8111","bdp_wmem","Mon Mar 13 2023 11:57:26 GMT-0700 (Pacific Daylight Time)","694802","Match,No Match","","null","","","","","","<div class='trialBorder'><div class='vertical-center'><img src='img/fixation2_sml.jpg'</img></div></div>","null","DELAY","","","","","","","","","","",""
"html-keyboard-response","183","515824","0.0-7.0-4.29","63ea6fc5092518554c9b8111","bdp_wmem","Mon Mar 13 2023 11:57:26 GMT-0700 (Pacific Daylight Time)","694802","Match,No Match","","1288","","","","","","<div class='trialBorder'><div class='targDiv'><div class='tc'><img class='introPic' src='trustrating_stim/white_mw013.bmp'><br><font color='green'><strong>Share</strong></font></div></div><div class='respDiv'><div class='respDivL'>Match<br>(e)</div><div class='respDivR'>No Match<br>(i)</div></div></div>","e","TARGET","2","trustrating_stim/white_mw012.bmp,trustrating_stim/white_mw013.bmp","0,1","Match","e","3000","trustrating_stim/white_mw013.bmp","green","Share","REAL","1"
"html-keyboard-response","184","516326","0.0-7.0-5.29","63ea6fc5092518554c9b8111","bdp_wmem","Mon Mar 13 2023 11:57:26 GMT-0700 (Pacific Daylight Time)","694802","Match,No Match","","null","","","","","","<div class='trialBorder'><div class='vertical-center'><img src='img/correct.jpg'></div><div class='respDiv'><div class='respDivL'><font style='color:orange'>Match<br>(e)</font></div><div class='respDivR'>No Match<br>(i)</div></div></div>","null","FEEDBACK","","","","","","","","","","",""
"html-keyboard-response","185","516834","0.0-7.0-1.30","63ea6fc5092518554c9b8111","bdp_wmem","Mon Mar 13 2023 11:57:26 GMT-0700 (Pacific Daylight Time)","694802","Match,No Match","","null","","","","","","<div class='trialBorder'><div class='vertical-center'><img src='img/fixation2_sml.jpg'</img></div></div>","null","FIX","","","","","","","","","","",""
"html-keyboard-response","186","518343","0.0-7.0-2.30","63ea6fc5092518554c9b8111","bdp_wmem","Mon Mar 13 2023 11:57:26 GMT-0700 (Pacific Daylight Time)","694802","Match,No Match","","null","","","","","","<div class='trialBorder'><div class='vertical-center'><img style='vertical-align:center; align:center' src='img/fixation2_sml.jpg'></div><div class='arrayDiv1'><div class='tc'><img class='introPic' src='trustrating_stim/white_mw085.bmp'><br><font color='red'><strong>Keep</strong></font></div></div></div>","null","ARRAY","1","trustrating_stim/white_mw085.bmp","0","noMatchOutcome","i","1500","","","","",""
"html-keyboard-response","187","522351","0.0-7.0-3.30","63ea6fc5092518554c9b8111","bdp_wmem","Mon Mar 13 2023 11:57:26 GMT-0700 (Pacific Daylight Time)","694802","Match,No Match","","null","","","","","","<div class='trialBorder'><div class='vertical-center'><img src='img/fixation2_sml.jpg'</img></div></div>","null","DELAY","","","","","","","","","","",""
