"trial_type","trial_index","time_elapsed","internal_node_id","subject_id","task","startTime","totalTime","labels","view_history","rt","event","trial","time","trialtype","success","stimulus","key_press","stimType","arraySize","arrayFaces","arrayOutcomes","matchType","corrResp","arrayDur","targFace","targCol","targOutcome","trialType","corr"
"pavlovia","0","4","0.0-0.0","5f17474ef0276309f4e1a31d","bdp_wmem","Tue May 11 2021 15:22:26 GMT-0400 (Eastern Daylight Time)","503227","Match,No Match","","","","","","","","","","","","","","","","","","","","",""
"instructions","1","1966","0.0-1.0","5f17474ef0276309f4e1a31d","bdp_wmem","Tue May 11 2021 15:22:26 GMT-0400 (Eastern Daylight Time)","503227","Match,No Match","[{""page_index"":0,""viewing_time"":1962}]","1962","","","","","","","","","","","","","","","","","","",""
"","","","","5f17474ef0276309f4e1a31d","bdp_wmem","Tue May 11 2021 15:22:26 GMT-0400 (Eastern Daylight Time)","503227","Match,No Match","","","fullscreenenter","2","3953","fullscreenenter","","","","","","","","","","","","","","",""
"fullscreen","2","4941","0.0-2.0","5f17474ef0276309f4e1a31d","bdp_wmem","Tue May 11 2021 15:22:26 GMT-0400 (Eastern Daylight Time)","503227","Match,No Match","","","","","","","true","","","","","","","","","","","","","",""
"instructions","3","26637","0.0-4.0","5f17474ef0276309f4e1a31d","bdp_wmem","Tue May 11 2021 15:22:26 GMT-0400 (Eastern Daylight Time)","503227","Match,No Match","[{""page_index"":0,""viewing_time"":9757},{""page_index"":1,""viewing_time"":2427},{""page_index"":2,""viewing_time"":1003},{""page_index"":3,""viewing_time"":1010},{""page_index"":4,""viewing_time"":7498}]","21695","","","","","","","","","","","","","","","","","","",""
"html-keyboard-response","4","27142","0.0-5.0-1.0","5f17474ef0276309f4e1a31d","bdp_wmem","Tue May 11 2021 15:22:26 GMT-0400 (Eastern Daylight Time)","503227","Match,No Match","","null","","","","","","<div class='trialBorder'><div class='vertical-center'><img src='img/fixation2_sml.jpg'</img></div></div>","null","FIX","","","","","","","","","","",""
"html-keyboard-response","5","30151","0.0-5.0-2.0","5f17474ef0276309f4e1a31d","bdp_wmem","Tue May 11 2021 15:22:26 GMT-0400 (Eastern Daylight Time)","503227","Match,No Match","","null","","","","","","<div class='trialBorder'><div class='vertical-center'><img style='vertical-align:center; align:center' src='img/fixation2_sml.jpg'></div><div class='arrayDiv2'><div class='tl'><img class='introPic' src='trustrating_stim/white_mw015.bmp'><br><font color='red'><strong>Keep</strong></font></div><div class='tr'><img class='introPic' src='trustrating_stim/white_mw091.bmp'><br><font color='green'><strong>Share</strong></font></div></div></div>","null","ARRAY","2","trustrating_stim/white_mw015.bmp,trustrating_stim/white_mw091.bmp","0,1","Match","e","3000","","","","",""
"html-keyboard-response","6","34160","0.0-5.0-3.0","5f17474ef0276309f4e1a31d","bdp_wmem","Tue May 11 2021 15:22:26 GMT-0400 (Eastern Daylight Time)","503227","Match,No Match","","null","","","","","","<div class='trialBorder'><div class='vertical-center'><img src='img/fixation2_sml.jpg'</img></div></div>","null","DELAY","","","","","","","","","","",""
"html-keyboard-response","7","35421","0.0-5.0-4.0","5f17474ef0276309f4e1a31d","bdp_wmem","Tue May 11 2021 15:22:26 GMT-0400 (Eastern Daylight Time)","503227","Match,No Match","","1259","","","","","","<div class='trialBorder'><div class='targDiv'><div class='tc'><img class='introPic' src='trustrating_stim/white_mw015.bmp'><br><font color='red'><strong>Keep</strong></font></div></div><div class='respDiv'><div class='respDivL'>Match<br>(e)</div><div class='respDivR'>No Match<br>(i)</div></div></div>","e","TARGET","2","trustrating_stim/white_mw015.bmp,trustrating_stim/white_mw091.bmp","0,1","Match","e","3000","trustrating_stim/white_mw015.bmp","red","Keep","PRACTICE","1"
"html-keyboard-response","8","35922","0.0-5.0-5.0","5f17474ef0276309f4e1a31d","bdp_wmem","Tue May 11 2021 15:22:26 GMT-0400 (Eastern Daylight Time)","503227","Match,No Match","","null","","","","","","<div class='trialBorder'><div class='vertical-center'><img src='img/correct.jpg'></div><div class='respDiv'><div class='respDivL'><font style='color:orange'>Match<br>(e)</font></div><div class='respDivR'>No Match<br>(i)</div></div></div>","null","FEEDBACK","","","","","","","","","","",""
"html-keyboard-response","9","36424","0.0-5.0-1.1","5f17474ef0276309f4e1a31d","bdp_wmem","Tue May 11 2021 15:22:26 GMT-0400 (Eastern Daylight Time)","503227","Match,No Match","","null","","","","","","<div class='trialBorder'><div class='vertical-center'><img src='img/fixation2_sml.jpg'</img></div></div>","null","FIX","","","","","","","","","","",""
"html-keyboard-response","10","39426","0.0-5.0-2.1","5f17474ef0276309f4e1a31d","bdp_wmem","Tue May 11 2021 15:22:26 GMT-0400 (Eastern Daylight Time)","503227","Match,No Match","","null","","","","","","<div class='trialBorder'><div class='vertical-center'><img style='vertical-align:center; align:center' src='img/fixation2_sml.jpg'></div><div class='arrayDiv2'><div class='tl'><img class='introPic' src='trustrating_stim/white_mw070.bmp'><br><font color='green'><strong>Share</strong></font></div><div class='tr'><img class='introPic' src='trustrating_stim/white_mw015.bmp'><br><font color='red'><strong>Keep</strong></font></div></div></div>","null","ARRAY","2","trustrating_stim/white_mw070.bmp,trustrating_stim/white_mw015.bmp","1,0","noMatchOutcome","i","3000","","","","",""
"html-keyboard-response","11","43428","0.0-5.0-3.1","5f17474ef0276309f4e1a31d","bdp_wmem","Tue May 11 2021 15:22:26 GMT-0400 (Eastern Daylight Time)","503227","Match,No Match","","null","","","","","","<div class='trialBorder'><div class='vertical-center'><img src='img/fixation2_sml.jpg'</img></div></div>","null","DELAY","","","","","","","","","","",""
"html-keyboard-response","12","44110","0.0-5.0-4.1","5f17474ef0276309f4e1a31d","bdp_wmem","Tue May 11 2021 15:22:26 GMT-0400 (Eastern Daylight Time)","503227","Match,No Match","","680","","","","","","<div class='trialBorder'><div class='targDiv'><div class='tc'><img class='introPic' src='trustrating_stim/white_mw070.bmp'><br><font color='red'><strong>Keep</strong></font></div></div><div class='respDiv'><div class='respDivL'>Match<br>(e)</div><div class='respDivR'>No Match<br>(i)</div></div></div>","i","TARGET","2","trustrating_stim/white_mw070.bmp,trustrating_stim/white_mw015.bmp","1,0","noMatchOutcome","i","3000","trustrating_stim/white_mw070.bmp","red","Keep","PRACTICE","1"
"html-keyboard-response","13","44611","0.0-5.0-5.1","5f17474ef0276309f4e1a31d","bdp_wmem","Tue May 11 2021 15:22:26 GMT-0400 (Eastern Daylight Time)","503227","Match,No Match","","null","","","","","","<div class='trialBorder'><div class='vertical-center'><img src='img/correct.jpg'></div><div class='respDiv'><div class='respDivL'>Match<br>(e)</div><div class='respDivR'><font style='color:orange'>No Match<br>(i)</font></div></div></div>","null","FEEDBACK","","","","","","","","","","",""
"html-keyboard-response","14","45114","0.0-5.0-1.2","5f17474ef0276309f4e1a31d","bdp_wmem","Tue May 11 2021 15:22:26 GMT-0400 (Eastern Daylight Time)","503227","Match,No Match","","null","","","","","","<div class='trialBorder'><div class='vertical-center'><img src='img/fixation2_sml.jpg'</img></div></div>","null","FIX","","","","","","","","","","",""
"html-keyboard-response","15","49618","0.0-5.0-2.2","5f17474ef0276309f4e1a31d","bdp_wmem","Tue May 11 2021 15:22:26 GMT-0400 (Eastern Daylight Time)","503227","Match,No Match","","null","","","","","","<div class='trialBorder'><div class='vertical-center'><img style='vertical-align:center; align:center' src='img/fixation2_sml.jpg'></div><div class='arrayDiv3'><div class='tl'><img class='introPic' src='trustrating_stim/white_mw013.bmp'><br><font color='red'><strong>Keep</strong></font></div><div class='tc'><img class='introPic' src='trustrating_stim/white_mw012.bmp'><br><font color='green'><strong>Share</strong></font></div><div class='tr'><img class='introPic' src='trustrating_stim/white_mw091.bmp'><br><font color='green'><strong>Share</strong></font></div></div></div>","null","ARRAY","3","trustrating_stim/white_mw013.bmp,trustrating_stim/white_mw012.bmp,trustrating_stim/white_mw091.bmp","0,1,1","noMatchOutcome","i","4500","","","","",""
"html-keyboard-response","16","53631","0.0-5.0-3.2","5f17474ef0276309f4e1a31d","bdp_wmem","Tue May 11 2021 15:22:26 GMT-0400 (Eastern Daylight Time)","503227","Match,No Match","","null","","","","","","<div class='trialBorder'><div class='vertical-center'><img src='img/fixation2_sml.jpg'</img></div></div>","null","DELAY","","","","","","","","","","",""
"html-keyboard-response","17","54289","0.0-5.0-4.2","5f17474ef0276309f4e1a31d","bdp_wmem","Tue May 11 2021 15:22:26 GMT-0400 (Eastern Daylight Time)","503227","Match,No Match","","655","","","","","","<div class='trialBorder'><div class='targDiv'><div class='tc'><img class='introPic' src='trustrating_stim/white_mw091.bmp'><br><font color='red'><strong>Keep</strong></font></div></div><div class='respDiv'><div class='respDivL'>Match<br>(e)</div><div class='respDivR'>No Match<br>(i)</div></div></div>","e","TARGET","3","trustrating_stim/white_mw013.bmp,trustrating_stim/white_mw012.bmp,trustrating_stim/white_mw091.bmp","0,1,1","noMatchOutcome","i","4500","trustrating_stim/white_mw091.bmp","red","Keep","PRACTICE","0"
"html-keyboard-response","18","54792","0.0-5.0-5.2","5f17474ef0276309f4e1a31d","bdp_wmem","Tue May 11 2021 15:22:26 GMT-0400 (Eastern Daylight Time)","503227","Match,No Match","","null","","","","","","<div class='trialBorder'><div class='vertical-center'><img src='img/error.jpg'></div><div class='respDiv'><div class='respDivL'><font style='color:orange'>Match<br>(e)</font></div><div class='respDivR'>No Match<br>(i)</div></div></div>","null","FEEDBACK","","","","","","","","","","",""
"html-keyboard-response","19","55295","0.0-5.0-1.3","5f17474ef0276309f4e1a31d","bdp_wmem","Tue May 11 2021 15:22:26 GMT-0400 (Eastern Daylight Time)","503227","Match,No Match","","null","","","","","","<div class='trialBorder'><div class='vertical-center'><img src='img/fixation2_sml.jpg'</img></div></div>","null","FIX","","","","","","","","","","",""
"html-keyboard-response","20","59800","0.0-5.0-2.3","5f17474ef0276309f4e1a31d","bdp_wmem","Tue May 11 2021 15:22:26 GMT-0400 (Eastern Daylight Time)","503227","Match,No Match","","null","","","","","","<div class='trialBorder'><div class='vertical-center'><img style='vertical-align:center; align:center' src='img/fixation2_sml.jpg'></div><div class='arrayDiv3'><div class='tl'><img class='introPic' src='trustrating_stim/white_00807_941205_fb_edt.bmp'><br><font color='red'><strong>Keep</strong></font></div><div class='tc'><img class='introPic' src='trustrating_stim/white_mw091.bmp'><br><font color='red'><strong>Keep</strong></font></div><div class='tr'><img class='introPic' src='trustrating_stim/white_mw040.bmp'><br><font color='green'><strong>Share</strong></font></div></div></div>","null","ARRAY","3","trustrating_stim/white_00807_941205_fb_edt.bmp,trustrating_stim/white_mw091.bmp,trustrating_stim/white_mw040.bmp","0,0,1","Match","e","4500","","","","",""
"html-keyboard-response","21","63801","0.0-5.0-3.3","5f17474ef0276309f4e1a31d","bdp_wmem","Tue May 11 2021 15:22:26 GMT-0400 (Eastern Daylight Time)","503227","Match,No Match","","null","","","","","","<div class='trialBorder'><div class='vertical-center'><img src='img/fixation2_sml.jpg'</img></div></div>","null","DELAY","","","","","","","","","","",""
"html-keyboard-response","22","64567","0.0-5.0-4.3","5f17474ef0276309f4e1a31d","bdp_wmem","Tue May 11 2021 15:22:26 GMT-0400 (Eastern Daylight Time)","503227","Match,No Match","","764","","","","","","<div class='trialBorder'><div class='targDiv'><div class='tc'><img class='introPic' src='trustrating_stim/white_00807_941205_fb_edt.bmp'><br><font color='red'><strong>Keep</strong></font></div></div><div class='respDiv'><div class='respDivL'>Match<br>(e)</div><div class='respDivR'>No Match<br>(i)</div></div></div>","e","TARGET","3","trustrating_stim/white_00807_941205_fb_edt.bmp,trustrating_stim/white_mw091.bmp,trustrating_stim/white_mw040.bmp","0,0,1","Match","e","4500","trustrating_stim/white_00807_941205_fb_edt.bmp","red","Keep","PRACTICE","1"
"html-keyboard-response","23","65073","0.0-5.0-5.3","5f17474ef0276309f4e1a31d","bdp_wmem","Tue May 11 2021 15:22:26 GMT-0400 (Eastern Daylight Time)","503227","Match,No Match","","null","","","","","","<div class='trialBorder'><div class='vertical-center'><img src='img/correct.jpg'></div><div class='respDiv'><div class='respDivL'><font style='color:orange'>Match<br>(e)</font></div><div class='respDivR'>No Match<br>(i)</div></div></div>","null","FEEDBACK","","","","","","","","","","",""
"html-keyboard-response","24","65577","0.0-5.0-1.4","5f17474ef0276309f4e1a31d","bdp_wmem","Tue May 11 2021 15:22:26 GMT-0400 (Eastern Daylight Time)","503227","Match,No Match","","null","","","","","","<div class='trialBorder'><div class='vertical-center'><img src='img/fixation2_sml.jpg'</img></div></div>","null","FIX","","","","","","","","","","",""
"html-keyboard-response","25","67080","0.0-5.0-2.4","5f17474ef0276309f4e1a31d","bdp_wmem","Tue May 11 2021 15:22:26 GMT-0400 (Eastern Daylight Time)","503227","Match,No Match","","null","","","","","","<div class='trialBorder'><div class='vertical-center'><img style='vertical-align:center; align:center' src='img/fixation2_sml.jpg'></div><div class='arrayDiv1'><div class='tc'><img class='introPic' src='trustrating_stim/white_mw091.bmp'><br><font color='red'><strong>Keep</strong></font></div></div></div>","null","ARRAY","1","trustrating_stim/white_mw091.bmp","0","Match","e","1500","","","","",""
"html-keyboard-response","26","71084","0.0-5.0-3.4","5f17474ef0276309f4e1a31d","bdp_wmem","Tue May 11 2021 15:22:26 GMT-0400 (Eastern Daylight Time)","503227","Match,No Match","","null","","","","","","<div class='trialBorder'><div class='vertical-center'><img src='img/fixation2_sml.jpg'</img></div></div>","null","DELAY","","","","","","","","","","",""
"html-keyboard-response","27","72512","0.0-5.0-4.4","5f17474ef0276309f4e1a31d","bdp_wmem","Tue May 11 2021 15:22:26 GMT-0400 (Eastern Daylight Time)","503227","Match,No Match","","1427","","","","","","<div class='trialBorder'><div class='targDiv'><div class='tc'><img class='introPic' src='trustrating_stim/white_mw091.bmp'><br><font color='red'><strong>Keep</strong></font></div></div><div class='respDiv'><div class='respDivL'>Match<br>(e)</div><div class='respDivR'>No Match<br>(i)</div></div></div>","i","TARGET","1","trustrating_stim/white_mw091.bmp","0","Match","e","1500","trustrating_stim/white_mw091.bmp","red","Keep","PRACTICE","0"
"html-keyboard-response","28","73018","0.0-5.0-5.4","5f17474ef0276309f4e1a31d","bdp_wmem","Tue May 11 2021 15:22:26 GMT-0400 (Eastern Daylight Time)","503227","Match,No Match","","null","","","","","","<div class='trialBorder'><div class='vertical-center'><img src='img/error.jpg'></div><div class='respDiv'><div class='respDivL'>Match<br>(e)</div><div class='respDivR'><font style='color:orange'>No Match<br>(i)</font></div></div></div>","null","FEEDBACK","","","","","","","","","","",""
"html-keyboard-response","29","73533","0.0-5.0-1.5","5f17474ef0276309f4e1a31d","bdp_wmem","Tue May 11 2021 15:22:26 GMT-0400 (Eastern Daylight Time)","503227","Match,No Match","","null","","","","","","<div class='trialBorder'><div class='vertical-center'><img src='img/fixation2_sml.jpg'</img></div></div>","null","FIX","","","","","","","","","","",""
"html-keyboard-response","30","75036","0.0-5.0-2.5","5f17474ef0276309f4e1a31d","bdp_wmem","Tue May 11 2021 15:22:26 GMT-0400 (Eastern Daylight Time)","503227","Match,No Match","","null","","","","","","<div class='trialBorder'><div class='vertical-center'><img style='vertical-align:center; align:center' src='img/fixation2_sml.jpg'></div><div class='arrayDiv1'><div class='tc'><img class='introPic' src='trustrating_stim/white_mw015.bmp'><br><font color='green'><strong>Share</strong></font></div></div></div>","null","ARRAY","1","trustrating_stim/white_mw015.bmp","1","noMatchFace","i","1500","","","","",""
"html-keyboard-response","31","79040","0.0-5.0-3.5","5f17474ef0276309f4e1a31d","bdp_wmem","Tue May 11 2021 15:22:26 GMT-0400 (Eastern Daylight Time)","503227","Match,No Match","","null","","","","","","<div class='trialBorder'><div class='vertical-center'><img src='img/fixation2_sml.jpg'</img></div></div>","null","DELAY","","","","","","","","","","",""
"html-keyboard-response","32","80174","0.0-5.0-4.5","5f17474ef0276309f4e1a31d","bdp_wmem","Tue May 11 2021 15:22:26 GMT-0400 (Eastern Daylight Time)","503227","Match,No Match","","1132","","","","","","<div class='trialBorder'><div class='targDiv'><div class='tc'><img class='introPic' src='trustrating_stim/white_mw040.bmp'><br><font color='green'><strong>Share</strong></font></div></div><div class='respDiv'><div class='respDivL'>Match<br>(e)</div><div class='respDivR'>No Match<br>(i)</div></div></div>","e","TARGET","1","trustrating_stim/white_mw015.bmp","1","noMatchFace","i","1500","trustrating_stim/white_mw040.bmp","green","Share","PRACTICE","0"
"html-keyboard-response","33","80675","0.0-5.0-5.5","5f17474ef0276309f4e1a31d","bdp_wmem","Tue May 11 2021 15:22:26 GMT-0400 (Eastern Daylight Time)","503227","Match,No Match","","null","","","","","","<div class='trialBorder'><div class='vertical-center'><img src='img/error.jpg'></div><div class='respDiv'><div class='respDivL'><font style='color:orange'>Match<br>(e)</font></div><div class='respDivR'>No Match<br>(i)</div></div></div>","null","FEEDBACK","","","","","","","","","","",""
"instructions","34","81788","0.0-6.0","5f17474ef0276309f4e1a31d","bdp_wmem","Tue May 11 2021 15:22:26 GMT-0400 (Eastern Daylight Time)","503227","Match,No Match","[{""page_index"":0,""viewing_time"":1112}]","1112","","","","","","","","","","","","","","","","","","",""
"html-keyboard-response","35","82302","0.0-7.0-1.0","5f17474ef0276309f4e1a31d","bdp_wmem","Tue May 11 2021 15:22:26 GMT-0400 (Eastern Daylight Time)","503227","Match,No Match","","null","","","","","","<div class='trialBorder'><div class='vertical-center'><img src='img/fixation2_sml.jpg'</img></div></div>","null","FIX","","","","","","","","","","",""
"html-keyboard-response","36","86806","0.0-7.0-2.0","5f17474ef0276309f4e1a31d","bdp_wmem","Tue May 11 2021 15:22:26 GMT-0400 (Eastern Daylight Time)","503227","Match,No Match","","null","","","","","","<div class='trialBorder'><div class='vertical-center'><img style='vertical-align:center; align:center' src='img/fixation2_sml.jpg'></div><div class='arrayDiv3'><div class='tl'><img class='introPic' src='trustrating_stim/white_00807_941205_fb_edt.bmp'><br><font color='red'><strong>Keep</strong></font></div><div class='tc'><img class='introPic' src='trustrating_stim/white_mw015.bmp'><br><font color='red'><strong>Keep</strong></font></div><div class='tr'><img class='introPic' src='trustrating_stim/white_mw003.bmp'><br><font color='green'><strong>Share</strong></font></div></div></div>","null","ARRAY","3","trustrating_stim/white_00807_941205_fb_edt.bmp,trustrating_stim/white_mw015.bmp,trustrating_stim/white_mw003.bmp","0,0,1","noMatchOutcome","i","4500","","","","",""
"html-keyboard-response","37","90809","0.0-7.0-3.0","5f17474ef0276309f4e1a31d","bdp_wmem","Tue May 11 2021 15:22:26 GMT-0400 (Eastern Daylight Time)","503227","Match,No Match","","null","","","","","","<div class='trialBorder'><div class='vertical-center'><img src='img/fixation2_sml.jpg'</img></div></div>","null","DELAY","","","","","","","","","","",""
"html-keyboard-response","38","91338","0.0-7.0-4.0","5f17474ef0276309f4e1a31d","bdp_wmem","Tue May 11 2021 15:22:26 GMT-0400 (Eastern Daylight Time)","503227","Match,No Match","","527","","","","","","<div class='trialBorder'><div class='targDiv'><div class='tc'><img class='introPic' src='trustrating_stim/white_00807_941205_fb_edt.bmp'><br><font color='green'><strong>Share</strong></font></div></div><div class='respDiv'><div class='respDivL'>Match<br>(e)</div><div class='respDivR'>No Match<br>(i)</div></div></div>","i","TARGET","3","trustrating_stim/white_00807_941205_fb_edt.bmp,trustrating_stim/white_mw015.bmp,trustrating_stim/white_mw003.bmp","0,0,1","noMatchOutcome","i","4500","trustrating_stim/white_00807_941205_fb_edt.bmp","green","Share","REAL","1"
"html-keyboard-response","39","91842","0.0-7.0-5.0","5f17474ef0276309f4e1a31d","bdp_wmem","Tue May 11 2021 15:22:26 GMT-0400 (Eastern Daylight Time)","503227","Match,No Match","","null","","","","","","<div class='trialBorder'><div class='vertical-center'><img src='img/correct.jpg'></div><div class='respDiv'><div class='respDivL'>Match<br>(e)</div><div class='respDivR'><font style='color:orange'>No Match<br>(i)</font></div></div></div>","null","FEEDBACK","","","","","","","","","","",""
"html-keyboard-response","40","92344","0.0-7.0-1.1","5f17474ef0276309f4e1a31d","bdp_wmem","Tue May 11 2021 15:22:26 GMT-0400 (Eastern Daylight Time)","503227","Match,No Match","","null","","","","","","<div class='trialBorder'><div class='vertical-center'><img src='img/fixation2_sml.jpg'</img></div></div>","null","FIX","","","","","","","","","","",""
"html-keyboard-response","41","93847","0.0-7.0-2.1","5f17474ef0276309f4e1a31d","bdp_wmem","Tue May 11 2021 15:22:26 GMT-0400 (Eastern Daylight Time)","503227","Match,No Match","","null","","","","","","<div class='trialBorder'><div class='vertical-center'><img style='vertical-align:center; align:center' src='img/fixation2_sml.jpg'></div><div class='arrayDiv1'><div class='tc'><img class='introPic' src='trustrating_stim/white_mw012.bmp'><br><font color='red'><strong>Keep</strong></font></div></div></div>","null","ARRAY","1","trustrating_stim/white_mw012.bmp","0","Match","e","1500","","","","",""
"html-keyboard-response","42","97850","0.0-7.0-3.1","5f17474ef0276309f4e1a31d","bdp_wmem","Tue May 11 2021 15:22:26 GMT-0400 (Eastern Daylight Time)","503227","Match,No Match","","null","","","","","","<div class='trialBorder'><div class='vertical-center'><img src='img/fixation2_sml.jpg'</img></div></div>","null","DELAY","","","","","","","","","","",""
"html-keyboard-response","43","98491","0.0-7.0-4.1","5f17474ef0276309f4e1a31d","bdp_wmem","Tue May 11 2021 15:22:26 GMT-0400 (Eastern Daylight Time)","503227","Match,No Match","","638","","","","","","<div class='trialBorder'><div class='targDiv'><div class='tc'><img class='introPic' src='trustrating_stim/white_mw012.bmp'><br><font color='red'><strong>Keep</strong></font></div></div><div class='respDiv'><div class='respDivL'>Match<br>(e)</div><div class='respDivR'>No Match<br>(i)</div></div></div>","i","TARGET","1","trustrating_stim/white_mw012.bmp","0","Match","e","1500","trustrating_stim/white_mw012.bmp","red","Keep","REAL","0"
"html-keyboard-response","44","98993","0.0-7.0-5.1","5f17474ef0276309f4e1a31d","bdp_wmem","Tue May 11 2021 15:22:26 GMT-0400 (Eastern Daylight Time)","503227","Match,No Match","","null","","","","","","<div class='trialBorder'><div class='vertical-center'><img src='img/error.jpg'></div><div class='respDiv'><div class='respDivL'>Match<br>(e)</div><div class='respDivR'><font style='color:orange'>No Match<br>(i)</font></div></div></div>","null","FEEDBACK","","","","","","","","","","",""
"html-keyboard-response","45","99499","0.0-7.0-1.2","5f17474ef0276309f4e1a31d","bdp_wmem","Tue May 11 2021 15:22:26 GMT-0400 (Eastern Daylight Time)","503227","Match,No Match","","null","","","","","","<div class='trialBorder'><div class='vertical-center'><img src='img/fixation2_sml.jpg'</img></div></div>","null","FIX","","","","","","","","","","",""
"html-keyboard-response","46","104014","0.0-7.0-2.2","5f17474ef0276309f4e1a31d","bdp_wmem","Tue May 11 2021 15:22:26 GMT-0400 (Eastern Daylight Time)","503227","Match,No Match","","null","","","","","","<div class='trialBorder'><div class='vertical-center'><img style='vertical-align:center; align:center' src='img/fixation2_sml.jpg'></div><div class='arrayDiv3'><div class='tl'><img class='introPic' src='trustrating_stim/white_00807_941205_fb_edt.bmp'><br><font color='green'><strong>Share</strong></font></div><div class='tc'><img class='introPic' src='trustrating_stim/white_00050_931230_fa_edt.bmp'><br><font color='green'><strong>Share</strong></font></div><div class='tr'><img class='introPic' src='trustrating_stim/white_mw033.bmp'><br><font color='red'><strong>Keep</strong></font></div></div></div>","null","ARRAY","3","trustrating_stim/white_00807_941205_fb_edt.bmp,trustrating_stim/white_00050_931230_fa_edt.bmp,trustrating_stim/white_mw033.bmp","1,1,0","Match","e","4500","","","","",""
"html-keyboard-response","47","108020","0.0-7.0-3.2","5f17474ef0276309f4e1a31d","bdp_wmem","Tue May 11 2021 15:22:26 GMT-0400 (Eastern Daylight Time)","503227","Match,No Match","","null","","","","","","<div class='trialBorder'><div class='vertical-center'><img src='img/fixation2_sml.jpg'</img></div></div>","null","DELAY","","","","","","","","","","",""
"html-keyboard-response","48","108332","0.0-7.0-4.2","5f17474ef0276309f4e1a31d","bdp_wmem","Tue May 11 2021 15:22:26 GMT-0400 (Eastern Daylight Time)","503227","Match,No Match","","310","","","","","","<div class='trialBorder'><div class='targDiv'><div class='tc'><img class='introPic' src='trustrating_stim/white_mw033.bmp'><br><font color='red'><strong>Keep</strong></font></div></div><div class='respDiv'><div class='respDivL'>Match<br>(e)</div><div class='respDivR'>No Match<br>(i)</div></div></div>","e","TARGET","3","trustrating_stim/white_00807_941205_fb_edt.bmp,trustrating_stim/white_00050_931230_fa_edt.bmp,trustrating_stim/white_mw033.bmp","1,1,0","Match","e","4500","trustrating_stim/white_mw033.bmp","red","Keep","REAL","1"
"html-keyboard-response","49","108837","0.0-7.0-5.2","5f17474ef0276309f4e1a31d","bdp_wmem","Tue May 11 2021 15:22:26 GMT-0400 (Eastern Daylight Time)","503227","Match,No Match","","null","","","","","","<div class='trialBorder'><div class='vertical-center'><img src='img/correct.jpg'></div><div class='respDiv'><div class='respDivL'><font style='color:orange'>Match<br>(e)</font></div><div class='respDivR'>No Match<br>(i)</div></div></div>","null","FEEDBACK","","","","","","","","","","",""
"html-keyboard-response","50","109341","0.0-7.0-1.3","5f17474ef0276309f4e1a31d","bdp_wmem","Tue May 11 2021 15:22:26 GMT-0400 (Eastern Daylight Time)","503227","Match,No Match","","null","","","","","","<div class='trialBorder'><div class='vertical-center'><img src='img/fixation2_sml.jpg'</img></div></div>","null","FIX","","","","","","","","","","",""
"html-keyboard-response","51","110843","0.0-7.0-2.3","5f17474ef0276309f4e1a31d","bdp_wmem","Tue May 11 2021 15:22:26 GMT-0400 (Eastern Daylight Time)","503227","Match,No Match","","null","","","","","","<div class='trialBorder'><div class='vertical-center'><img style='vertical-align:center; align:center' src='img/fixation2_sml.jpg'></div><div class='arrayDiv1'><div class='tc'><img class='introPic' src='trustrating_stim/white_mw033.bmp'><br><font color='green'><strong>Share</strong></font></div></div></div>","null","ARRAY","1","trustrating_stim/white_mw033.bmp","1","Match","e","1500","","","","",""
"html-keyboard-response","52","114848","0.0-7.0-3.3","5f17474ef0276309f4e1a31d","bdp_wmem","Tue May 11 2021 15:22:26 GMT-0400 (Eastern Daylight Time)","503227","Match,No Match","","null","","","","","","<div class='trialBorder'><div class='vertical-center'><img src='img/fixation2_sml.jpg'</img></div></div>","null","DELAY","","","","","","","","","","",""
"html-keyboard-response","53","115210","0.0-7.0-4.3","5f17474ef0276309f4e1a31d","bdp_wmem","Tue May 11 2021 15:22:26 GMT-0400 (Eastern Daylight Time)","503227","Match,No Match","","360","","","","","","<div class='trialBorder'><div class='targDiv'><div class='tc'><img class='introPic' src='trustrating_stim/white_mw033.bmp'><br><font color='green'><strong>Share</strong></font></div></div><div class='respDiv'><div class='respDivL'>Match<br>(e)</div><div class='respDivR'>No Match<br>(i)</div></div></div>","e","TARGET","1","trustrating_stim/white_mw033.bmp","1","Match","e","1500","trustrating_stim/white_mw033.bmp","green","Share","REAL","1"
"html-keyboard-response","54","115711","0.0-7.0-5.3","5f17474ef0276309f4e1a31d","bdp_wmem","Tue May 11 2021 15:22:26 GMT-0400 (Eastern Daylight Time)","503227","Match,No Match","","null","","","","","","<div class='trialBorder'><div class='vertical-center'><img src='img/correct.jpg'></div><div class='respDiv'><div class='respDivL'><font style='color:orange'>Match<br>(e)</font></div><div class='respDivR'>No Match<br>(i)</div></div></div>","null","FEEDBACK","","","","","","","","","","",""
"html-keyboard-response","55","116214","0.0-7.0-1.4","5f17474ef0276309f4e1a31d","bdp_wmem","Tue May 11 2021 15:22:26 GMT-0400 (Eastern Daylight Time)","503227","Match,No Match","","null","","","","","","<div class='trialBorder'><div class='vertical-center'><img src='img/fixation2_sml.jpg'</img></div></div>","null","FIX","","","","","","","","","","",""
"html-keyboard-response","56","120717","0.0-7.0-2.4","5f17474ef0276309f4e1a31d","bdp_wmem","Tue May 11 2021 15:22:26 GMT-0400 (Eastern Daylight Time)","503227","Match,No Match","","null","","","","","","<div class='trialBorder'><div class='vertical-center'><img style='vertical-align:center; align:center' src='img/fixation2_sml.jpg'></div><div class='arrayDiv3'><div class='tl'><img class='introPic' src='trustrating_stim/white_00050_931230_fa_edt.bmp'><br><font color='green'><strong>Share</strong></font></div><div class='tc'><img class='introPic' src='trustrating_stim/white_00807_941205_fb_edt.bmp'><br><font color='red'><strong>Keep</strong></font></div><div class='tr'><img class='introPic' src='trustrating_stim/white_mw015.bmp'><br><font color='red'><strong>Keep</strong></font></div></div></div>","null","ARRAY","3","trustrating_stim/white_00050_931230_fa_edt.bmp,trustrating_stim/white_00807_941205_fb_edt.bmp,trustrating_stim/white_mw015.bmp","1,0,0","noMatchFace","i","4500","","","","",""
"html-keyboard-response","57","124728","0.0-7.0-3.4","5f17474ef0276309f4e1a31d","bdp_wmem","Tue May 11 2021 15:22:26 GMT-0400 (Eastern Daylight Time)","503227","Match,No Match","","null","","","","","","<div class='trialBorder'><div class='vertical-center'><img src='img/fixation2_sml.jpg'</img></div></div>","null","DELAY","","","","","","","","","","",""
"html-keyboard-response","58","124972","0.0-7.0-4.4","5f17474ef0276309f4e1a31d","bdp_wmem","Tue May 11 2021 15:22:26 GMT-0400 (Eastern Daylight Time)","503227","Match,No Match","","242","","","","","","<div class='trialBorder'><div class='targDiv'><div class='tc'><img class='introPic' src='trustrating_stim/white_mw092.bmp'><br><font color='red'><strong>Keep</strong></font></div></div><div class='respDiv'><div class='respDivL'>Match<br>(e)</div><div class='respDivR'>No Match<br>(i)</div></div></div>","i","TARGET","3","trustrating_stim/white_00050_931230_fa_edt.bmp,trustrating_stim/white_00807_941205_fb_edt.bmp,trustrating_stim/white_mw015.bmp","1,0,0","noMatchFace","i","4500","trustrating_stim/white_mw092.bmp","red","Keep","REAL","1"
"html-keyboard-response","59","125485","0.0-7.0-5.4","5f17474ef0276309f4e1a31d","bdp_wmem","Tue May 11 2021 15:22:26 GMT-0400 (Eastern Daylight Time)","503227","Match,No Match","","null","","","","","","<div class='trialBorder'><div class='vertical-center'><img src='img/correct.jpg'></div><div class='respDiv'><div class='respDivL'>Match<br>(e)</div><div class='respDivR'><font style='color:orange'>No Match<br>(i)</font></div></div></div>","null","FEEDBACK","","","","","","","","","","",""
"html-keyboard-response","60","125987","0.0-7.0-1.5","5f17474ef0276309f4e1a31d","bdp_wmem","Tue May 11 2021 15:22:26 GMT-0400 (Eastern Daylight Time)","503227","Match,No Match","","null","","","","","","<div class='trialBorder'><div class='vertical-center'><img src='img/fixation2_sml.jpg'</img></div></div>","null","FIX","","","","","","","","","","",""
"html-keyboard-response","61","130489","0.0-7.0-2.5","5f17474ef0276309f4e1a31d","bdp_wmem","Tue May 11 2021 15:22:26 GMT-0400 (Eastern Daylight Time)","503227","Match,No Match","","null","","","","","","<div class='trialBorder'><div class='vertical-center'><img style='vertical-align:center; align:center' src='img/fixation2_sml.jpg'></div><div class='arrayDiv3'><div class='tl'><img class='introPic' src='trustrating_stim/white_mw091.bmp'><br><font color='green'><strong>Share</strong></font></div><div class='tc'><img class='introPic' src='trustrating_stim/white_mw015.bmp'><br><font color='red'><strong>Keep</strong></font></div><div class='tr'><img class='introPic' src='trustrating_stim/white_00050_931230_fa_edt.bmp'><br><font color='green'><strong>Share</strong></font></div></div></div>","null","ARRAY","3","trustrating_stim/white_mw091.bmp,trustrating_stim/white_mw015.bmp,trustrating_stim/white_00050_931230_fa_edt.bmp","1,0,1","Match","e","4500","","","","",""
"html-keyboard-response","62","134499","0.0-7.0-3.5","5f17474ef0276309f4e1a31d","bdp_wmem","Tue May 11 2021 15:22:26 GMT-0400 (Eastern Daylight Time)","503227","Match,No Match","","null","","","","","","<div class='trialBorder'><div class='vertical-center'><img src='img/fixation2_sml.jpg'</img></div></div>","null","DELAY","","","","","","","","","","",""
"html-keyboard-response","63","134861","0.0-7.0-4.5","5f17474ef0276309f4e1a31d","bdp_wmem","Tue May 11 2021 15:22:26 GMT-0400 (Eastern Daylight Time)","503227","Match,No Match","","360","","","","","","<div class='trialBorder'><div class='targDiv'><div class='tc'><img class='introPic' src='trustrating_stim/white_mw015.bmp'><br><font color='red'><strong>Keep</strong></font></div></div><div class='respDiv'><div class='respDivL'>Match<br>(e)</div><div class='respDivR'>No Match<br>(i)</div></div></div>","i","TARGET","3","trustrating_stim/white_mw091.bmp,trustrating_stim/white_mw015.bmp,trustrating_stim/white_00050_931230_fa_edt.bmp","1,0,1","Match","e","4500","trustrating_stim/white_mw015.bmp","red","Keep","REAL","0"
"html-keyboard-response","64","135364","0.0-7.0-5.5","5f17474ef0276309f4e1a31d","bdp_wmem","Tue May 11 2021 15:22:26 GMT-0400 (Eastern Daylight Time)","503227","Match,No Match","","null","","","","","","<div class='trialBorder'><div class='vertical-center'><img src='img/error.jpg'></div><div class='respDiv'><div class='respDivL'>Match<br>(e)</div><div class='respDivR'><font style='color:orange'>No Match<br>(i)</font></div></div></div>","null","FEEDBACK","","","","","","","","","","",""
"html-keyboard-response","65","135866","0.0-7.0-1.6","5f17474ef0276309f4e1a31d","bdp_wmem","Tue May 11 2021 15:22:26 GMT-0400 (Eastern Daylight Time)","503227","Match,No Match","","null","","","","","","<div class='trialBorder'><div class='vertical-center'><img src='img/fixation2_sml.jpg'</img></div></div>","null","FIX","","","","","","","","","","",""
"html-keyboard-response","66","137375","0.0-7.0-2.6","5f17474ef0276309f4e1a31d","bdp_wmem","Tue May 11 2021 15:22:26 GMT-0400 (Eastern Daylight Time)","503227","Match,No Match","","null","","","","","","<div class='trialBorder'><div class='vertical-center'><img style='vertical-align:center; align:center' src='img/fixation2_sml.jpg'></div><div class='arrayDiv1'><div class='tc'><img class='introPic' src='trustrating_stim/white_mw033.bmp'><br><font color='red'><strong>Keep</strong></font></div></div></div>","null","ARRAY","1","trustrating_stim/white_mw033.bmp","0","Match","e","1500","","","","",""
"html-keyboard-response","67","141381","0.0-7.0-3.6","5f17474ef0276309f4e1a31d","bdp_wmem","Tue May 11 2021 15:22:26 GMT-0400 (Eastern Daylight Time)","503227","Match,No Match","","null","","","","","","<div class='trialBorder'><div class='vertical-center'><img src='img/fixation2_sml.jpg'</img></div></div>","null","DELAY","","","","","","","","","","",""
"html-keyboard-response","68","141640","0.0-7.0-4.6","5f17474ef0276309f4e1a31d","bdp_wmem","Tue May 11 2021 15:22:26 GMT-0400 (Eastern Daylight Time)","503227","Match,No Match","","256","","","","","","<div class='trialBorder'><div class='targDiv'><div class='tc'><img class='introPic' src='trustrating_stim/white_mw033.bmp'><br><font color='red'><strong>Keep</strong></font></div></div><div class='respDiv'><div class='respDivL'>Match<br>(e)</div><div class='respDivR'>No Match<br>(i)</div></div></div>","e","TARGET","1","trustrating_stim/white_mw033.bmp","0","Match","e","1500","trustrating_stim/white_mw033.bmp","red","Keep","REAL","1"
"html-keyboard-response","69","142153","0.0-7.0-5.6","5f17474ef0276309f4e1a31d","bdp_wmem","Tue May 11 2021 15:22:26 GMT-0400 (Eastern Daylight Time)","503227","Match,No Match","","null","","","","","","<div class='trialBorder'><div class='vertical-center'><img src='img/correct.jpg'></div><div class='respDiv'><div class='respDivL'><font style='color:orange'>Match<br>(e)</font></div><div class='respDivR'>No Match<br>(i)</div></div></div>","null","FEEDBACK","","","","","","","","","","",""
"html-keyboard-response","70","142655","0.0-7.0-1.7","5f17474ef0276309f4e1a31d","bdp_wmem","Tue May 11 2021 15:22:26 GMT-0400 (Eastern Daylight Time)","503227","Match,No Match","","null","","","","","","<div class='trialBorder'><div class='vertical-center'><img src='img/fixation2_sml.jpg'</img></div></div>","null","FIX","","","","","","","","","","",""
"html-keyboard-response","71","145656","0.0-7.0-2.7","5f17474ef0276309f4e1a31d","bdp_wmem","Tue May 11 2021 15:22:26 GMT-0400 (Eastern Daylight Time)","503227","Match,No Match","","null","","","","","","<div class='trialBorder'><div class='vertical-center'><img style='vertical-align:center; align:center' src='img/fixation2_sml.jpg'></div><div class='arrayDiv2'><div class='tl'><img class='introPic' src='trustrating_stim/white_mw038.bmp'><br><font color='red'><strong>Keep</strong></font></div><div class='tr'><img class='introPic' src='trustrating_stim/white_mw012.bmp'><br><font color='green'><strong>Share</strong></font></div></div></div>","null","ARRAY","2","trustrating_stim/white_mw038.bmp,trustrating_stim/white_mw012.bmp","0,1","Match","e","3000","","","","",""
"html-keyboard-response","72","149668","0.0-7.0-3.7","5f17474ef0276309f4e1a31d","bdp_wmem","Tue May 11 2021 15:22:26 GMT-0400 (Eastern Daylight Time)","503227","Match,No Match","","null","","","","","","<div class='trialBorder'><div class='vertical-center'><img src='img/fixation2_sml.jpg'</img></div></div>","null","DELAY","","","","","","","","","","",""
"html-keyboard-response","73","149957","0.0-7.0-4.7","5f17474ef0276309f4e1a31d","bdp_wmem","Tue May 11 2021 15:22:26 GMT-0400 (Eastern Daylight Time)","503227","Match,No Match","","288","","","","","","<div class='trialBorder'><div class='targDiv'><div class='tc'><img class='introPic' src='trustrating_stim/white_mw038.bmp'><br><font color='red'><strong>Keep</strong></font></div></div><div class='respDiv'><div class='respDivL'>Match<br>(e)</div><div class='respDivR'>No Match<br>(i)</div></div></div>","i","TARGET","2","trustrating_stim/white_mw038.bmp,trustrating_stim/white_mw012.bmp","0,1","Match","e","3000","trustrating_stim/white_mw038.bmp","red","Keep","REAL","0"
"html-keyboard-response","74","150462","0.0-7.0-5.7","5f17474ef0276309f4e1a31d","bdp_wmem","Tue May 11 2021 15:22:26 GMT-0400 (Eastern Daylight Time)","503227","Match,No Match","","null","","","","","","<div class='trialBorder'><div class='vertical-center'><img src='img/error.jpg'></div><div class='respDiv'><div class='respDivL'>Match<br>(e)</div><div class='respDivR'><font style='color:orange'>No Match<br>(i)</font></div></div></div>","null","FEEDBACK","","","","","","","","","","",""
"html-keyboard-response","75","150964","0.0-7.0-1.8","5f17474ef0276309f4e1a31d","bdp_wmem","Tue May 11 2021 15:22:26 GMT-0400 (Eastern Daylight Time)","503227","Match,No Match","","null","","","","","","<div class='trialBorder'><div class='vertical-center'><img src='img/fixation2_sml.jpg'</img></div></div>","null","FIX","","","","","","","","","","",""
"html-keyboard-response","76","153975","0.0-7.0-2.8","5f17474ef0276309f4e1a31d","bdp_wmem","Tue May 11 2021 15:22:26 GMT-0400 (Eastern Daylight Time)","503227","Match,No Match","","null","","","","","","<div class='trialBorder'><div class='vertical-center'><img style='vertical-align:center; align:center' src='img/fixation2_sml.jpg'></div><div class='arrayDiv2'><div class='tl'><img class='introPic' src='trustrating_stim/white_mw003.bmp'><br><font color='green'><strong>Share</strong></font></div><div class='tr'><img class='introPic' src='trustrating_stim/white_00050_931230_fa_edt.bmp'><br><font color='red'><strong>Keep</strong></font></div></div></div>","null","ARRAY","2","trustrating_stim/white_mw003.bmp,trustrating_stim/white_00050_931230_fa_edt.bmp","1,0","noMatchOutcome","i","3000","","","","",""
"html-keyboard-response","77","157977","0.0-7.0-3.8","5f17474ef0276309f4e1a31d","bdp_wmem","Tue May 11 2021 15:22:26 GMT-0400 (Eastern Daylight Time)","503227","Match,No Match","","null","","","","","","<div class='trialBorder'><div class='vertical-center'><img src='img/fixation2_sml.jpg'</img></div></div>","null","DELAY","","","","","","","","","","",""
"html-keyboard-response","78","158271","0.0-7.0-4.8","5f17474ef0276309f4e1a31d","bdp_wmem","Tue May 11 2021 15:22:26 GMT-0400 (Eastern Daylight Time)","503227","Match,No Match","","292","","","","","","<div class='trialBorder'><div class='targDiv'><div class='tc'><img class='introPic' src='trustrating_stim/white_00050_931230_fa_edt.bmp'><br><font color='green'><strong>Share</strong></font></div></div><div class='respDiv'><div class='respDivL'>Match<br>(e)</div><div class='respDivR'>No Match<br>(i)</div></div></div>","e","TARGET","2","trustrating_stim/white_mw003.bmp,trustrating_stim/white_00050_931230_fa_edt.bmp","1,0","noMatchOutcome","i","3000","trustrating_stim/white_00050_931230_fa_edt.bmp","green","Share","REAL","0"
"html-keyboard-response","79","158775","0.0-7.0-5.8","5f17474ef0276309f4e1a31d","bdp_wmem","Tue May 11 2021 15:22:26 GMT-0400 (Eastern Daylight Time)","503227","Match,No Match","","null","","","","","","<div class='trialBorder'><div class='vertical-center'><img src='img/error.jpg'></div><div class='respDiv'><div class='respDivL'><font style='color:orange'>Match<br>(e)</font></div><div class='respDivR'>No Match<br>(i)</div></div></div>","null","FEEDBACK","","","","","","","","","","",""
"html-keyboard-response","80","159279","0.0-7.0-1.9","5f17474ef0276309f4e1a31d","bdp_wmem","Tue May 11 2021 15:22:26 GMT-0400 (Eastern Daylight Time)","503227","Match,No Match","","null","","","","","","<div class='trialBorder'><div class='vertical-center'><img src='img/fixation2_sml.jpg'</img></div></div>","null","FIX","","","","","","","","","","",""
"html-keyboard-response","81","162282","0.0-7.0-2.9","5f17474ef0276309f4e1a31d","bdp_wmem","Tue May 11 2021 15:22:26 GMT-0400 (Eastern Daylight Time)","503227","Match,No Match","","null","","","","","","<div class='trialBorder'><div class='vertical-center'><img style='vertical-align:center; align:center' src='img/fixation2_sml.jpg'></div><div class='arrayDiv2'><div class='tl'><img class='introPic' src='trustrating_stim/white_mw091.bmp'><br><font color='red'><strong>Keep</strong></font></div><div class='tr'><img class='introPic' src='trustrating_stim/white_mw033.bmp'><br><font color='green'><strong>Share</strong></font></div></div></div>","null","ARRAY","2","trustrating_stim/white_mw091.bmp,trustrating_stim/white_mw033.bmp","0,1","noMatchFace","i","3000","","","","",""
"html-keyboard-response","82","166294","0.0-7.0-3.9","5f17474ef0276309f4e1a31d","bdp_wmem","Tue May 11 2021 15:22:26 GMT-0400 (Eastern Daylight Time)","503227","Match,No Match","","null","","","","","","<div class='trialBorder'><div class='vertical-center'><img src='img/fixation2_sml.jpg'</img></div></div>","null","DELAY","","","","","","","","","","",""
"html-keyboard-response","83","166575","0.0-7.0-4.9","5f17474ef0276309f4e1a31d","bdp_wmem","Tue May 11 2021 15:22:26 GMT-0400 (Eastern Daylight Time)","503227","Match,No Match","","279","","","","","","<div class='trialBorder'><div class='targDiv'><div class='tc'><img class='introPic' src='trustrating_stim/white_mw092.bmp'><br><font color='green'><strong>Share</strong></font></div></div><div class='respDiv'><div class='respDivL'>Match<br>(e)</div><div class='respDivR'>No Match<br>(i)</div></div></div>","i","TARGET","2","trustrating_stim/white_mw091.bmp,trustrating_stim/white_mw033.bmp","0,1","noMatchFace","i","3000","trustrating_stim/white_mw092.bmp","green","Share","REAL","1"
"html-keyboard-response","84","167077","0.0-7.0-5.9","5f17474ef0276309f4e1a31d","bdp_wmem","Tue May 11 2021 15:22:26 GMT-0400 (Eastern Daylight Time)","503227","Match,No Match","","null","","","","","","<div class='trialBorder'><div class='vertical-center'><img src='img/correct.jpg'></div><div class='respDiv'><div class='respDivL'>Match<br>(e)</div><div class='respDivR'><font style='color:orange'>No Match<br>(i)</font></div></div></div>","null","FEEDBACK","","","","","","","","","","",""
"html-keyboard-response","85","167585","0.0-7.0-1.10","5f17474ef0276309f4e1a31d","bdp_wmem","Tue May 11 2021 15:22:26 GMT-0400 (Eastern Daylight Time)","503227","Match,No Match","","null","","","","","","<div class='trialBorder'><div class='vertical-center'><img src='img/fixation2_sml.jpg'</img></div></div>","null","FIX","","","","","","","","","","",""
"html-keyboard-response","86","172096","0.0-7.0-2.10","5f17474ef0276309f4e1a31d","bdp_wmem","Tue May 11 2021 15:22:26 GMT-0400 (Eastern Daylight Time)","503227","Match,No Match","","null","","","","","","<div class='trialBorder'><div class='vertical-center'><img style='vertical-align:center; align:center' src='img/fixation2_sml.jpg'></div><div class='arrayDiv3'><div class='tl'><img class='introPic' src='trustrating_stim/white_mw012.bmp'><br><font color='green'><strong>Share</strong></font></div><div class='tc'><img class='introPic' src='trustrating_stim/white_mw003.bmp'><br><font color='green'><strong>Share</strong></font></div><div class='tr'><img class='introPic' src='trustrating_stim/white_00807_941205_fb_edt.bmp'><br><font color='red'><strong>Keep</strong></font></div></div></div>","null","ARRAY","3","trustrating_stim/white_mw012.bmp,trustrating_stim/white_mw003.bmp,trustrating_stim/white_00807_941205_fb_edt.bmp","1,1,0","Match","e","4500","","","","",""
"html-keyboard-response","87","176097","0.0-7.0-3.10","5f17474ef0276309f4e1a31d","bdp_wmem","Tue May 11 2021 15:22:26 GMT-0400 (Eastern Daylight Time)","503227","Match,No Match","","null","","","","","","<div class='trialBorder'><div class='vertical-center'><img src='img/fixation2_sml.jpg'</img></div></div>","null","DELAY","","","","","","","","","","",""
"html-keyboard-response","88","176349","0.0-7.0-4.10","5f17474ef0276309f4e1a31d","bdp_wmem","Tue May 11 2021 15:22:26 GMT-0400 (Eastern Daylight Time)","503227","Match,No Match","","249","","","","","","<div class='trialBorder'><div class='targDiv'><div class='tc'><img class='introPic' src='trustrating_stim/white_mw012.bmp'><br><font color='green'><strong>Share</strong></font></div></div><div class='respDiv'><div class='respDivL'>Match<br>(e)</div><div class='respDivR'>No Match<br>(i)</div></div></div>","i","TARGET","3","trustrating_stim/white_mw012.bmp,trustrating_stim/white_mw003.bmp,trustrating_stim/white_00807_941205_fb_edt.bmp","1,1,0","Match","e","4500","trustrating_stim/white_mw012.bmp","green","Share","REAL","0"
"html-keyboard-response","89","176858","0.0-7.0-5.10","5f17474ef0276309f4e1a31d","bdp_wmem","Tue May 11 2021 15:22:26 GMT-0400 (Eastern Daylight Time)","503227","Match,No Match","","null","","","","","","<div class='trialBorder'><div class='vertical-center'><img src='img/error.jpg'></div><div class='respDiv'><div class='respDivL'>Match<br>(e)</div><div class='respDivR'><font style='color:orange'>No Match<br>(i)</font></div></div></div>","null","FEEDBACK","","","","","","","","","","",""
"html-keyboard-response","90","177371","0.0-7.0-1.11","5f17474ef0276309f4e1a31d","bdp_wmem","Tue May 11 2021 15:22:26 GMT-0400 (Eastern Daylight Time)","503227","Match,No Match","","null","","","","","","<div class='trialBorder'><div class='vertical-center'><img src='img/fixation2_sml.jpg'</img></div></div>","null","FIX","","","","","","","","","","",""
"html-keyboard-response","91","180375","0.0-7.0-2.11","5f17474ef0276309f4e1a31d","bdp_wmem","Tue May 11 2021 15:22:26 GMT-0400 (Eastern Daylight Time)","503227","Match,No Match","","null","","","","","","<div class='trialBorder'><div class='vertical-center'><img style='vertical-align:center; align:center' src='img/fixation2_sml.jpg'></div><div class='arrayDiv2'><div class='tl'><img class='introPic' src='trustrating_stim/white_mw033.bmp'><br><font color='red'><strong>Keep</strong></font></div><div class='tr'><img class='introPic' src='trustrating_stim/white_mw015.bmp'><br><font color='green'><strong>Share</strong></font></div></div></div>","null","ARRAY","2","trustrating_stim/white_mw033.bmp,trustrating_stim/white_mw015.bmp","0,1","noMatchFace","i","3000","","","","",""
"html-keyboard-response","92","184378","0.0-7.0-3.11","5f17474ef0276309f4e1a31d","bdp_wmem","Tue May 11 2021 15:22:26 GMT-0400 (Eastern Daylight Time)","503227","Match,No Match","","null","","","","","","<div class='trialBorder'><div class='vertical-center'><img src='img/fixation2_sml.jpg'</img></div></div>","null","DELAY","","","","","","","","","","",""
"html-keyboard-response","93","184613","0.0-7.0-4.11","5f17474ef0276309f4e1a31d","bdp_wmem","Tue May 11 2021 15:22:26 GMT-0400 (Eastern Daylight Time)","503227","Match,No Match","","234","","","","","","<div class='trialBorder'><div class='targDiv'><div class='tc'><img class='introPic' src='trustrating_stim/white_mw040.bmp'><br><font color='green'><strong>Share</strong></font></div></div><div class='respDiv'><div class='respDivL'>Match<br>(e)</div><div class='respDivR'>No Match<br>(i)</div></div></div>","i","TARGET","2","trustrating_stim/white_mw033.bmp,trustrating_stim/white_mw015.bmp","0,1","noMatchFace","i","3000","trustrating_stim/white_mw040.bmp","green","Share","REAL","1"
"html-keyboard-response","94","185119","0.0-7.0-5.11","5f17474ef0276309f4e1a31d","bdp_wmem","Tue May 11 2021 15:22:26 GMT-0400 (Eastern Daylight Time)","503227","Match,No Match","","null","","","","","","<div class='trialBorder'><div class='vertical-center'><img src='img/correct.jpg'></div><div class='respDiv'><div class='respDivL'>Match<br>(e)</div><div class='respDivR'><font style='color:orange'>No Match<br>(i)</font></div></div></div>","null","FEEDBACK","","","","","","","","","","",""
"html-keyboard-response","95","185623","0.0-7.0-1.12","5f17474ef0276309f4e1a31d","bdp_wmem","Tue May 11 2021 15:22:26 GMT-0400 (Eastern Daylight Time)","503227","Match,No Match","","null","","","","","","<div class='trialBorder'><div class='vertical-center'><img src='img/fixation2_sml.jpg'</img></div></div>","null","FIX","","","","","","","","","","",""
"html-keyboard-response","96","187129","0.0-7.0-2.12","5f17474ef0276309f4e1a31d","bdp_wmem","Tue May 11 2021 15:22:26 GMT-0400 (Eastern Daylight Time)","503227","Match,No Match","","null","","","","","","<div class='trialBorder'><div class='vertical-center'><img style='vertical-align:center; align:center' src='img/fixation2_sml.jpg'></div><div class='arrayDiv1'><div class='tc'><img class='introPic' src='trustrating_stim/white_mw012.bmp'><br><font color='green'><strong>Share</strong></font></div></div></div>","null","ARRAY","1","trustrating_stim/white_mw012.bmp","1","noMatchOutcome","i","1500","","","","",""
"html-keyboard-response","97","191132","0.0-7.0-3.12","5f17474ef0276309f4e1a31d","bdp_wmem","Tue May 11 2021 15:22:26 GMT-0400 (Eastern Daylight Time)","503227","Match,No Match","","null","","","","","","<div class='trialBorder'><div class='vertical-center'><img src='img/fixation2_sml.jpg'</img></div></div>","null","DELAY","","","","","","","","","","",""
"html-keyboard-response","98","191515","0.0-7.0-4.12","5f17474ef0276309f4e1a31d","bdp_wmem","Tue May 11 2021 15:22:26 GMT-0400 (Eastern Daylight Time)","503227","Match,No Match","","380","","","","","","<div class='trialBorder'><div class='targDiv'><div class='tc'><img class='introPic' src='trustrating_stim/white_mw012.bmp'><br><font color='red'><strong>Keep</strong></font></div></div><div class='respDiv'><div class='respDivL'>Match<br>(e)</div><div class='respDivR'>No Match<br>(i)</div></div></div>","e","TARGET","1","trustrating_stim/white_mw012.bmp","1","noMatchOutcome","i","1500","trustrating_stim/white_mw012.bmp","red","Keep","REAL","0"
"html-keyboard-response","99","192019","0.0-7.0-5.12","5f17474ef0276309f4e1a31d","bdp_wmem","Tue May 11 2021 15:22:26 GMT-0400 (Eastern Daylight Time)","503227","Match,No Match","","null","","","","","","<div class='trialBorder'><div class='vertical-center'><img src='img/error.jpg'></div><div class='respDiv'><div class='respDivL'><font style='color:orange'>Match<br>(e)</font></div><div class='respDivR'>No Match<br>(i)</div></div></div>","null","FEEDBACK","","","","","","","","","","",""
"html-keyboard-response","100","192531","0.0-7.0-1.13","5f17474ef0276309f4e1a31d","bdp_wmem","Tue May 11 2021 15:22:26 GMT-0400 (Eastern Daylight Time)","503227","Match,No Match","","null","","","","","","<div class='trialBorder'><div class='vertical-center'><img src='img/fixation2_sml.jpg'</img></div></div>","null","FIX","","","","","","","","","","",""
"html-keyboard-response","101","195543","0.0-7.0-2.13","5f17474ef0276309f4e1a31d","bdp_wmem","Tue May 11 2021 15:22:26 GMT-0400 (Eastern Daylight Time)","503227","Match,No Match","","null","","","","","","<div class='trialBorder'><div class='vertical-center'><img style='vertical-align:center; align:center' src='img/fixation2_sml.jpg'></div><div class='arrayDiv2'><div class='tl'><img class='introPic' src='trustrating_stim/white_mw092.bmp'><br><font color='red'><strong>Keep</strong></font></div><div class='tr'><img class='introPic' src='trustrating_stim/white_mw012.bmp'><br><font color='green'><strong>Share</strong></font></div></div></div>","null","ARRAY","2","trustrating_stim/white_mw092.bmp,trustrating_stim/white_mw012.bmp","0,1","noMatchFace","i","3000","","","","",""
"html-keyboard-response","102","199546","0.0-7.0-3.13","5f17474ef0276309f4e1a31d","bdp_wmem","Tue May 11 2021 15:22:26 GMT-0400 (Eastern Daylight Time)","503227","Match,No Match","","null","","","","","","<div class='trialBorder'><div class='vertical-center'><img src='img/fixation2_sml.jpg'</img></div></div>","null","DELAY","","","","","","","","","","",""
"html-keyboard-response","103","199959","0.0-7.0-4.13","5f17474ef0276309f4e1a31d","bdp_wmem","Tue May 11 2021 15:22:26 GMT-0400 (Eastern Daylight Time)","503227","Match,No Match","","411","","","","","","<div class='trialBorder'><div class='targDiv'><div class='tc'><img class='introPic' src='trustrating_stim/white_00050_931230_fa_edt.bmp'><br><font color='red'><strong>Keep</strong></font></div></div><div class='respDiv'><div class='respDivL'>Match<br>(e)</div><div class='respDivR'>No Match<br>(i)</div></div></div>","i","TARGET","2","trustrating_stim/white_mw092.bmp,trustrating_stim/white_mw012.bmp","0,1","noMatchFace","i","3000","trustrating_stim/white_00050_931230_fa_edt.bmp","red","Keep","REAL","1"
"html-keyboard-response","104","200461","0.0-7.0-5.13","5f17474ef0276309f4e1a31d","bdp_wmem","Tue May 11 2021 15:22:26 GMT-0400 (Eastern Daylight Time)","503227","Match,No Match","","null","","","","","","<div class='trialBorder'><div class='vertical-center'><img src='img/correct.jpg'></div><div class='respDiv'><div class='respDivL'>Match<br>(e)</div><div class='respDivR'><font style='color:orange'>No Match<br>(i)</font></div></div></div>","null","FEEDBACK","","","","","","","","","","",""
"html-keyboard-response","105","200970","0.0-7.0-1.14","5f17474ef0276309f4e1a31d","bdp_wmem","Tue May 11 2021 15:22:26 GMT-0400 (Eastern Daylight Time)","503227","Match,No Match","","null","","","","","","<div class='trialBorder'><div class='vertical-center'><img src='img/fixation2_sml.jpg'</img></div></div>","null","FIX","","","","","","","","","","",""
"html-keyboard-response","106","202480","0.0-7.0-2.14","5f17474ef0276309f4e1a31d","bdp_wmem","Tue May 11 2021 15:22:26 GMT-0400 (Eastern Daylight Time)","503227","Match,No Match","","null","","","","","","<div class='trialBorder'><div class='vertical-center'><img style='vertical-align:center; align:center' src='img/fixation2_sml.jpg'></div><div class='arrayDiv1'><div class='tc'><img class='introPic' src='trustrating_stim/white_mw070.bmp'><br><font color='red'><strong>Keep</strong></font></div></div></div>","null","ARRAY","1","trustrating_stim/white_mw070.bmp","0","noMatchOutcome","i","1500","","","","",""
"html-keyboard-response","107","206485","0.0-7.0-3.14","5f17474ef0276309f4e1a31d","bdp_wmem","Tue May 11 2021 15:22:26 GMT-0400 (Eastern Daylight Time)","503227","Match,No Match","","null","","","","","","<div class='trialBorder'><div class='vertical-center'><img src='img/fixation2_sml.jpg'</img></div></div>","null","DELAY","","","","","","","","","","",""
"html-keyboard-response","108","207097","0.0-7.0-4.14","5f17474ef0276309f4e1a31d","bdp_wmem","Tue May 11 2021 15:22:26 GMT-0400 (Eastern Daylight Time)","503227","Match,No Match","","610","","","","","","<div class='trialBorder'><div class='targDiv'><div class='tc'><img class='introPic' src='trustrating_stim/white_mw070.bmp'><br><font color='green'><strong>Share</strong></font></div></div><div class='respDiv'><div class='respDivL'>Match<br>(e)</div><div class='respDivR'>No Match<br>(i)</div></div></div>","i","TARGET","1","trustrating_stim/white_mw070.bmp","0","noMatchOutcome","i","1500","trustrating_stim/white_mw070.bmp","green","Share","REAL","1"
"html-keyboard-response","109","207607","0.0-7.0-5.14","5f17474ef0276309f4e1a31d","bdp_wmem","Tue May 11 2021 15:22:26 GMT-0400 (Eastern Daylight Time)","503227","Match,No Match","","null","","","","","","<div class='trialBorder'><div class='vertical-center'><img src='img/correct.jpg'></div><div class='respDiv'><div class='respDivL'>Match<br>(e)</div><div class='respDivR'><font style='color:orange'>No Match<br>(i)</font></div></div></div>","null","FEEDBACK","","","","","","","","","","",""
"html-keyboard-response","110","208110","0.0-7.0-1.15","5f17474ef0276309f4e1a31d","bdp_wmem","Tue May 11 2021 15:22:26 GMT-0400 (Eastern Daylight Time)","503227","Match,No Match","","null","","","","","","<div class='trialBorder'><div class='vertical-center'><img src='img/fixation2_sml.jpg'</img></div></div>","null","FIX","","","","","","","","","","",""
"html-keyboard-response","111","212624","0.0-7.0-2.15","5f17474ef0276309f4e1a31d","bdp_wmem","Tue May 11 2021 15:22:26 GMT-0400 (Eastern Daylight Time)","503227","Match,No Match","","null","","","","","","<div class='trialBorder'><div class='vertical-center'><img style='vertical-align:center; align:center' src='img/fixation2_sml.jpg'></div><div class='arrayDiv3'><div class='tl'><img class='introPic' src='trustrating_stim/white_mw033.bmp'><br><font color='green'><strong>Share</strong></font></div><div class='tc'><img class='introPic' src='trustrating_stim/white_mw070.bmp'><br><font color='red'><strong>Keep</strong></font></div><div class='tr'><img class='introPic' src='trustrating_stim/white_mw092.bmp'><br><font color='red'><strong>Keep</strong></font></div></div></div>","null","ARRAY","3","trustrating_stim/white_mw033.bmp,trustrating_stim/white_mw070.bmp,trustrating_stim/white_mw092.bmp","1,0,0","Match","e","4500","","","","",""
"html-keyboard-response","112","216637","0.0-7.0-3.15","5f17474ef0276309f4e1a31d","bdp_wmem","Tue May 11 2021 15:22:26 GMT-0400 (Eastern Daylight Time)","503227","Match,No Match","","null","","","","","","<div class='trialBorder'><div class='vertical-center'><img src='img/fixation2_sml.jpg'</img></div></div>","null","DELAY","","","","","","","","","","",""
"html-keyboard-response","113","217074","0.0-7.0-4.15","5f17474ef0276309f4e1a31d","bdp_wmem","Tue May 11 2021 15:22:26 GMT-0400 (Eastern Daylight Time)","503227","Match,No Match","","435","","","","","","<div class='trialBorder'><div class='targDiv'><div class='tc'><img class='introPic' src='trustrating_stim/white_mw070.bmp'><br><font color='red'><strong>Keep</strong></font></div></div><div class='respDiv'><div class='respDivL'>Match<br>(e)</div><div class='respDivR'>No Match<br>(i)</div></div></div>","e","TARGET","3","trustrating_stim/white_mw033.bmp,trustrating_stim/white_mw070.bmp,trustrating_stim/white_mw092.bmp","1,0,0","Match","e","4500","trustrating_stim/white_mw070.bmp","red","Keep","REAL","1"
"html-keyboard-response","114","217577","0.0-7.0-5.15","5f17474ef0276309f4e1a31d","bdp_wmem","Tue May 11 2021 15:22:26 GMT-0400 (Eastern Daylight Time)","503227","Match,No Match","","null","","","","","","<div class='trialBorder'><div class='vertical-center'><img src='img/correct.jpg'></div><div class='respDiv'><div class='respDivL'><font style='color:orange'>Match<br>(e)</font></div><div class='respDivR'>No Match<br>(i)</div></div></div>","null","FEEDBACK","","","","","","","","","","",""
"html-keyboard-response","115","218080","0.0-7.0-1.16","5f17474ef0276309f4e1a31d","bdp_wmem","Tue May 11 2021 15:22:26 GMT-0400 (Eastern Daylight Time)","503227","Match,No Match","","null","","","","","","<div class='trialBorder'><div class='vertical-center'><img src='img/fixation2_sml.jpg'</img></div></div>","null","FIX","","","","","","","","","","",""
"html-keyboard-response","116","219582","0.0-7.0-2.16","5f17474ef0276309f4e1a31d","bdp_wmem","Tue May 11 2021 15:22:26 GMT-0400 (Eastern Daylight Time)","503227","Match,No Match","","null","","","","","","<div class='trialBorder'><div class='vertical-center'><img style='vertical-align:center; align:center' src='img/fixation2_sml.jpg'></div><div class='arrayDiv1'><div class='tc'><img class='introPic' src='trustrating_stim/white_mw070.bmp'><br><font color='red'><strong>Keep</strong></font></div></div></div>","null","ARRAY","1","trustrating_stim/white_mw070.bmp","0","noMatchFace","i","1500","","","","",""
"html-keyboard-response","117","223589","0.0-7.0-3.16","5f17474ef0276309f4e1a31d","bdp_wmem","Tue May 11 2021 15:22:26 GMT-0400 (Eastern Daylight Time)","503227","Match,No Match","","null","","","","","","<div class='trialBorder'><div class='vertical-center'><img src='img/fixation2_sml.jpg'</img></div></div>","null","DELAY","","","","","","","","","","",""
"html-keyboard-response","118","224101","0.0-7.0-4.16","5f17474ef0276309f4e1a31d","bdp_wmem","Tue May 11 2021 15:22:26 GMT-0400 (Eastern Daylight Time)","503227","Match,No Match","","511","","","","","","<div class='trialBorder'><div class='targDiv'><div class='tc'><img class='introPic' src='trustrating_stim/white_mw091.bmp'><br><font color='red'><strong>Keep</strong></font></div></div><div class='respDiv'><div class='respDivL'>Match<br>(e)</div><div class='respDivR'>No Match<br>(i)</div></div></div>","e","TARGET","1","trustrating_stim/white_mw070.bmp","0","noMatchFace","i","1500","trustrating_stim/white_mw091.bmp","red","Keep","REAL","0"
"html-keyboard-response","119","224603","0.0-7.0-5.16","5f17474ef0276309f4e1a31d","bdp_wmem","Tue May 11 2021 15:22:26 GMT-0400 (Eastern Daylight Time)","503227","Match,No Match","","null","","","","","","<div class='trialBorder'><div class='vertical-center'><img src='img/error.jpg'></div><div class='respDiv'><div class='respDivL'><font style='color:orange'>Match<br>(e)</font></div><div class='respDivR'>No Match<br>(i)</div></div></div>","null","FEEDBACK","","","","","","","","","","",""
"html-keyboard-response","120","225106","0.0-7.0-1.17","5f17474ef0276309f4e1a31d","bdp_wmem","Tue May 11 2021 15:22:26 GMT-0400 (Eastern Daylight Time)","503227","Match,No Match","","null","","","","","","<div class='trialBorder'><div class='vertical-center'><img src='img/fixation2_sml.jpg'</img></div></div>","null","FIX","","","","","","","","","","",""
"html-keyboard-response","121","228109","0.0-7.0-2.17","5f17474ef0276309f4e1a31d","bdp_wmem","Tue May 11 2021 15:22:26 GMT-0400 (Eastern Daylight Time)","503227","Match,No Match","","null","","","","","","<div class='trialBorder'><div class='vertical-center'><img style='vertical-align:center; align:center' src='img/fixation2_sml.jpg'></div><div class='arrayDiv2'><div class='tl'><img class='introPic' src='trustrating_stim/white_mw015.bmp'><br><font color='red'><strong>Keep</strong></font></div><div class='tr'><img class='introPic' src='trustrating_stim/white_mw092.bmp'><br><font color='green'><strong>Share</strong></font></div></div></div>","null","ARRAY","2","trustrating_stim/white_mw015.bmp,trustrating_stim/white_mw092.bmp","0,1","Match","e","3000","","","","",""
"html-keyboard-response","122","232112","0.0-7.0-3.17","5f17474ef0276309f4e1a31d","bdp_wmem","Tue May 11 2021 15:22:26 GMT-0400 (Eastern Daylight Time)","503227","Match,No Match","","null","","","","","","<div class='trialBorder'><div class='vertical-center'><img src='img/fixation2_sml.jpg'</img></div></div>","null","DELAY","","","","","","","","","","",""
"html-keyboard-response","123","232718","0.0-7.0-4.17","5f17474ef0276309f4e1a31d","bdp_wmem","Tue May 11 2021 15:22:26 GMT-0400 (Eastern Daylight Time)","503227","Match,No Match","","604","","","","","","<div class='trialBorder'><div class='targDiv'><div class='tc'><img class='introPic' src='trustrating_stim/white_mw092.bmp'><br><font color='green'><strong>Share</strong></font></div></div><div class='respDiv'><div class='respDivL'>Match<br>(e)</div><div class='respDivR'>No Match<br>(i)</div></div></div>","i","TARGET","2","trustrating_stim/white_mw015.bmp,trustrating_stim/white_mw092.bmp","0,1","Match","e","3000","trustrating_stim/white_mw092.bmp","green","Share","REAL","0"
"html-keyboard-response","124","233220","0.0-7.0-5.17","5f17474ef0276309f4e1a31d","bdp_wmem","Tue May 11 2021 15:22:26 GMT-0400 (Eastern Daylight Time)","503227","Match,No Match","","null","","","","","","<div class='trialBorder'><div class='vertical-center'><img src='img/error.jpg'></div><div class='respDiv'><div class='respDivL'>Match<br>(e)</div><div class='respDivR'><font style='color:orange'>No Match<br>(i)</font></div></div></div>","null","FEEDBACK","","","","","","","","","","",""
"html-keyboard-response","125","233722","0.0-7.0-1.18","5f17474ef0276309f4e1a31d","bdp_wmem","Tue May 11 2021 15:22:26 GMT-0400 (Eastern Daylight Time)","503227","Match,No Match","","null","","","","","","<div class='trialBorder'><div class='vertical-center'><img src='img/fixation2_sml.jpg'</img></div></div>","null","FIX","","","","","","","","","","",""
"html-keyboard-response","126","238224","0.0-7.0-2.18","5f17474ef0276309f4e1a31d","bdp_wmem","Tue May 11 2021 15:22:26 GMT-0400 (Eastern Daylight Time)","503227","Match,No Match","","null","","","","","","<div class='trialBorder'><div class='vertical-center'><img style='vertical-align:center; align:center' src='img/fixation2_sml.jpg'></div><div class='arrayDiv3'><div class='tl'><img class='introPic' src='trustrating_stim/white_00807_941205_fb_edt.bmp'><br><font color='red'><strong>Keep</strong></font></div><div class='tc'><img class='introPic' src='trustrating_stim/white_mw012.bmp'><br><font color='red'><strong>Keep</strong></font></div><div class='tr'><img class='introPic' src='trustrating_stim/white_00050_931230_fa_edt.bmp'><br><font color='green'><strong>Share</strong></font></div></div></div>","null","ARRAY","3","trustrating_stim/white_00807_941205_fb_edt.bmp,trustrating_stim/white_mw012.bmp,trustrating_stim/white_00050_931230_fa_edt.bmp","0,0,1","Match","e","4500","","","","",""
"html-keyboard-response","127","242227","0.0-7.0-3.18","5f17474ef0276309f4e1a31d","bdp_wmem","Tue May 11 2021 15:22:26 GMT-0400 (Eastern Daylight Time)","503227","Match,No Match","","null","","","","","","<div class='trialBorder'><div class='vertical-center'><img src='img/fixation2_sml.jpg'</img></div></div>","null","DELAY","","","","","","","","","","",""
"html-keyboard-response","128","243000","0.0-7.0-4.18","5f17474ef0276309f4e1a31d","bdp_wmem","Tue May 11 2021 15:22:26 GMT-0400 (Eastern Daylight Time)","503227","Match,No Match","","771","","","","","","<div class='trialBorder'><div class='targDiv'><div class='tc'><img class='introPic' src='trustrating_stim/white_00050_931230_fa_edt.bmp'><br><font color='green'><strong>Share</strong></font></div></div><div class='respDiv'><div class='respDivL'>Match<br>(e)</div><div class='respDivR'>No Match<br>(i)</div></div></div>","e","TARGET","3","trustrating_stim/white_00807_941205_fb_edt.bmp,trustrating_stim/white_mw012.bmp,trustrating_stim/white_00050_931230_fa_edt.bmp","0,0,1","Match","e","4500","trustrating_stim/white_00050_931230_fa_edt.bmp","green","Share","REAL","1"
"html-keyboard-response","129","243502","0.0-7.0-5.18","5f17474ef0276309f4e1a31d","bdp_wmem","Tue May 11 2021 15:22:26 GMT-0400 (Eastern Daylight Time)","503227","Match,No Match","","null","","","","","","<div class='trialBorder'><div class='vertical-center'><img src='img/correct.jpg'></div><div class='respDiv'><div class='respDivL'><font style='color:orange'>Match<br>(e)</font></div><div class='respDivR'>No Match<br>(i)</div></div></div>","null","FEEDBACK","","","","","","","","","","",""
"html-keyboard-response","130","244005","0.0-7.0-1.19","5f17474ef0276309f4e1a31d","bdp_wmem","Tue May 11 2021 15:22:26 GMT-0400 (Eastern Daylight Time)","503227","Match,No Match","","null","","","","","","<div class='trialBorder'><div class='vertical-center'><img src='img/fixation2_sml.jpg'</img></div></div>","null","FIX","","","","","","","","","","",""
"html-keyboard-response","131","247018","0.0-7.0-2.19","5f17474ef0276309f4e1a31d","bdp_wmem","Tue May 11 2021 15:22:26 GMT-0400 (Eastern Daylight Time)","503227","Match,No Match","","null","","","","","","<div class='trialBorder'><div class='vertical-center'><img style='vertical-align:center; align:center' src='img/fixation2_sml.jpg'></div><div class='arrayDiv2'><div class='tl'><img class='introPic' src='trustrating_stim/white_mw092.bmp'><br><font color='green'><strong>Share</strong></font></div><div class='tr'><img class='introPic' src='trustrating_stim/white_mw033.bmp'><br><font color='red'><strong>Keep</strong></font></div></div></div>","null","ARRAY","2","trustrating_stim/white_mw092.bmp,trustrating_stim/white_mw033.bmp","1,0","noMatchFace","i","3000","","","","",""
"html-keyboard-response","132","251020","0.0-7.0-3.19","5f17474ef0276309f4e1a31d","bdp_wmem","Tue May 11 2021 15:22:26 GMT-0400 (Eastern Daylight Time)","503227","Match,No Match","","null","","","","","","<div class='trialBorder'><div class='vertical-center'><img src='img/fixation2_sml.jpg'</img></div></div>","null","DELAY","","","","","","","","","","",""
"html-keyboard-response","133","251862","0.0-7.0-4.19","5f17474ef0276309f4e1a31d","bdp_wmem","Tue May 11 2021 15:22:26 GMT-0400 (Eastern Daylight Time)","503227","Match,No Match","","840","","","","","","<div class='trialBorder'><div class='targDiv'><div class='tc'><img class='introPic' src='trustrating_stim/white_mw013.bmp'><br><font color='green'><strong>Share</strong></font></div></div><div class='respDiv'><div class='respDivL'>Match<br>(e)</div><div class='respDivR'>No Match<br>(i)</div></div></div>","i","TARGET","2","trustrating_stim/white_mw092.bmp,trustrating_stim/white_mw033.bmp","1,0","noMatchFace","i","3000","trustrating_stim/white_mw013.bmp","green","Share","REAL","1"
"html-keyboard-response","134","252363","0.0-7.0-5.19","5f17474ef0276309f4e1a31d","bdp_wmem","Tue May 11 2021 15:22:26 GMT-0400 (Eastern Daylight Time)","503227","Match,No Match","","null","","","","","","<div class='trialBorder'><div class='vertical-center'><img src='img/correct.jpg'></div><div class='respDiv'><div class='respDivL'>Match<br>(e)</div><div class='respDivR'><font style='color:orange'>No Match<br>(i)</font></div></div></div>","null","FEEDBACK","","","","","","","","","","",""
"html-keyboard-response","135","252865","0.0-7.0-1.20","5f17474ef0276309f4e1a31d","bdp_wmem","Tue May 11 2021 15:22:26 GMT-0400 (Eastern Daylight Time)","503227","Match,No Match","","null","","","","","","<div class='trialBorder'><div class='vertical-center'><img src='img/fixation2_sml.jpg'</img></div></div>","null","FIX","","","","","","","","","","",""
"html-keyboard-response","136","257371","0.0-7.0-2.20","5f17474ef0276309f4e1a31d","bdp_wmem","Tue May 11 2021 15:22:26 GMT-0400 (Eastern Daylight Time)","503227","Match,No Match","","null","","","","","","<div class='trialBorder'><div class='vertical-center'><img style='vertical-align:center; align:center' src='img/fixation2_sml.jpg'></div><div class='arrayDiv3'><div class='tl'><img class='introPic' src='trustrating_stim/white_mw038.bmp'><br><font color='red'><strong>Keep</strong></font></div><div class='tc'><img class='introPic' src='trustrating_stim/white_mw013.bmp'><br><font color='red'><strong>Keep</strong></font></div><div class='tr'><img class='introPic' src='trustrating_stim/white_mw033.bmp'><br><font color='green'><strong>Share</strong></font></div></div></div>","null","ARRAY","3","trustrating_stim/white_mw038.bmp,trustrating_stim/white_mw013.bmp,trustrating_stim/white_mw033.bmp","0,0,1","noMatchFace","i","4500","","","","",""
"html-keyboard-response","137","261373","0.0-7.0-3.20","5f17474ef0276309f4e1a31d","bdp_wmem","Tue May 11 2021 15:22:26 GMT-0400 (Eastern Daylight Time)","503227","Match,No Match","","null","","","","","","<div class='trialBorder'><div class='vertical-center'><img src='img/fixation2_sml.jpg'</img></div></div>","null","DELAY","","","","","","","","","","",""
"html-keyboard-response","138","262568","0.0-7.0-4.20","5f17474ef0276309f4e1a31d","bdp_wmem","Tue May 11 2021 15:22:26 GMT-0400 (Eastern Daylight Time)","503227","Match,No Match","","1193","","","","","","<div class='trialBorder'><div class='targDiv'><div class='tc'><img class='introPic' src='trustrating_stim/white_mw040.bmp'><br><font color='red'><strong>Keep</strong></font></div></div><div class='respDiv'><div class='respDivL'>Match<br>(e)</div><div class='respDivR'>No Match<br>(i)</div></div></div>","i","TARGET","3","trustrating_stim/white_mw038.bmp,trustrating_stim/white_mw013.bmp,trustrating_stim/white_mw033.bmp","0,0,1","noMatchFace","i","4500","trustrating_stim/white_mw040.bmp","red","Keep","REAL","1"
"html-keyboard-response","139","263070","0.0-7.0-5.20","5f17474ef0276309f4e1a31d","bdp_wmem","Tue May 11 2021 15:22:26 GMT-0400 (Eastern Daylight Time)","503227","Match,No Match","","null","","","","","","<div class='trialBorder'><div class='vertical-center'><img src='img/correct.jpg'></div><div class='respDiv'><div class='respDivL'>Match<br>(e)</div><div class='respDivR'><font style='color:orange'>No Match<br>(i)</font></div></div></div>","null","FEEDBACK","","","","","","","","","","",""
"html-keyboard-response","140","263574","0.0-7.0-1.21","5f17474ef0276309f4e1a31d","bdp_wmem","Tue May 11 2021 15:22:26 GMT-0400 (Eastern Daylight Time)","503227","Match,No Match","","null","","","","","","<div class='trialBorder'><div class='vertical-center'><img src='img/fixation2_sml.jpg'</img></div></div>","null","FIX","","","","","","","","","","",""
"html-keyboard-response","141","266577","0.0-7.0-2.21","5f17474ef0276309f4e1a31d","bdp_wmem","Tue May 11 2021 15:22:26 GMT-0400 (Eastern Daylight Time)","503227","Match,No Match","","null","","","","","","<div class='trialBorder'><div class='vertical-center'><img style='vertical-align:center; align:center' src='img/fixation2_sml.jpg'></div><div class='arrayDiv2'><div class='tl'><img class='introPic' src='trustrating_stim/white_mw092.bmp'><br><font color='green'><strong>Share</strong></font></div><div class='tr'><img class='introPic' src='trustrating_stim/white_mw015.bmp'><br><font color='red'><strong>Keep</strong></font></div></div></div>","null","ARRAY","2","trustrating_stim/white_mw092.bmp,trustrating_stim/white_mw015.bmp","1,0","Match","e","3000","","","","",""
"html-keyboard-response","142","270581","0.0-7.0-3.21","5f17474ef0276309f4e1a31d","bdp_wmem","Tue May 11 2021 15:22:26 GMT-0400 (Eastern Daylight Time)","503227","Match,No Match","","null","","","","","","<div class='trialBorder'><div class='vertical-center'><img src='img/fixation2_sml.jpg'</img></div></div>","null","DELAY","","","","","","","","","","",""
"html-keyboard-response","143","271356","0.0-7.0-4.21","5f17474ef0276309f4e1a31d","bdp_wmem","Tue May 11 2021 15:22:26 GMT-0400 (Eastern Daylight Time)","503227","Match,No Match","","774","","","","","","<div class='trialBorder'><div class='targDiv'><div class='tc'><img class='introPic' src='trustrating_stim/white_mw015.bmp'><br><font color='red'><strong>Keep</strong></font></div></div><div class='respDiv'><div class='respDivL'>Match<br>(e)</div><div class='respDivR'>No Match<br>(i)</div></div></div>","e","TARGET","2","trustrating_stim/white_mw092.bmp,trustrating_stim/white_mw015.bmp","1,0","Match","e","3000","trustrating_stim/white_mw015.bmp","red","Keep","REAL","1"
"html-keyboard-response","144","271863","0.0-7.0-5.21","5f17474ef0276309f4e1a31d","bdp_wmem","Tue May 11 2021 15:22:26 GMT-0400 (Eastern Daylight Time)","503227","Match,No Match","","null","","","","","","<div class='trialBorder'><div class='vertical-center'><img src='img/correct.jpg'></div><div class='respDiv'><div class='respDivL'><font style='color:orange'>Match<br>(e)</font></div><div class='respDivR'>No Match<br>(i)</div></div></div>","null","FEEDBACK","","","","","","","","","","",""
"html-keyboard-response","145","272376","0.0-7.0-1.22","5f17474ef0276309f4e1a31d","bdp_wmem","Tue May 11 2021 15:22:26 GMT-0400 (Eastern Daylight Time)","503227","Match,No Match","","null","","","","","","<div class='trialBorder'><div class='vertical-center'><img src='img/fixation2_sml.jpg'</img></div></div>","null","FIX","","","","","","","","","","",""
"html-keyboard-response","146","273885","0.0-7.0-2.22","5f17474ef0276309f4e1a31d","bdp_wmem","Tue May 11 2021 15:22:26 GMT-0400 (Eastern Daylight Time)","503227","Match,No Match","","null","","","","","","<div class='trialBorder'><div class='vertical-center'><img style='vertical-align:center; align:center' src='img/fixation2_sml.jpg'></div><div class='arrayDiv1'><div class='tc'><img class='introPic' src='trustrating_stim/white_00050_931230_fa_edt.bmp'><br><font color='red'><strong>Keep</strong></font></div></div></div>","null","ARRAY","1","trustrating_stim/white_00050_931230_fa_edt.bmp","0","Match","e","1500","","","","",""
"html-keyboard-response","147","277886","0.0-7.0-3.22","5f17474ef0276309f4e1a31d","bdp_wmem","Tue May 11 2021 15:22:26 GMT-0400 (Eastern Daylight Time)","503227","Match,No Match","","null","","","","","","<div class='trialBorder'><div class='vertical-center'><img src='img/fixation2_sml.jpg'</img></div></div>","null","DELAY","","","","","","","","","","",""
"html-keyboard-response","148","279098","0.0-7.0-4.22","5f17474ef0276309f4e1a31d","bdp_wmem","Tue May 11 2021 15:22:26 GMT-0400 (Eastern Daylight Time)","503227","Match,No Match","","1211","","","","","","<div class='trialBorder'><div class='targDiv'><div class='tc'><img class='introPic' src='trustrating_stim/white_00050_931230_fa_edt.bmp'><br><font color='red'><strong>Keep</strong></font></div></div><div class='respDiv'><div class='respDivL'>Match<br>(e)</div><div class='respDivR'>No Match<br>(i)</div></div></div>","i","TARGET","1","trustrating_stim/white_00050_931230_fa_edt.bmp","0","Match","e","1500","trustrating_stim/white_00050_931230_fa_edt.bmp","red","Keep","REAL","0"
"html-keyboard-response","149","279602","0.0-7.0-5.22","5f17474ef0276309f4e1a31d","bdp_wmem","Tue May 11 2021 15:22:26 GMT-0400 (Eastern Daylight Time)","503227","Match,No Match","","null","","","","","","<div class='trialBorder'><div class='vertical-center'><img src='img/error.jpg'></div><div class='respDiv'><div class='respDivL'>Match<br>(e)</div><div class='respDivR'><font style='color:orange'>No Match<br>(i)</font></div></div></div>","null","FEEDBACK","","","","","","","","","","",""
"html-keyboard-response","150","280112","0.0-7.0-1.23","5f17474ef0276309f4e1a31d","bdp_wmem","Tue May 11 2021 15:22:26 GMT-0400 (Eastern Daylight Time)","503227","Match,No Match","","null","","","","","","<div class='trialBorder'><div class='vertical-center'><img src='img/fixation2_sml.jpg'</img></div></div>","null","FIX","","","","","","","","","","",""
"html-keyboard-response","151","283114","0.0-7.0-2.23","5f17474ef0276309f4e1a31d","bdp_wmem","Tue May 11 2021 15:22:26 GMT-0400 (Eastern Daylight Time)","503227","Match,No Match","","null","","","","","","<div class='trialBorder'><div class='vertical-center'><img style='vertical-align:center; align:center' src='img/fixation2_sml.jpg'></div><div class='arrayDiv2'><div class='tl'><img class='introPic' src='trustrating_stim/white_mw013.bmp'><br><font color='green'><strong>Share</strong></font></div><div class='tr'><img class='introPic' src='trustrating_stim/white_mw038.bmp'><br><font color='red'><strong>Keep</strong></font></div></div></div>","null","ARRAY","2","trustrating_stim/white_mw013.bmp,trustrating_stim/white_mw038.bmp","1,0","Match","e","3000","","","","",""
"html-keyboard-response","152","287117","0.0-7.0-3.23","5f17474ef0276309f4e1a31d","bdp_wmem","Tue May 11 2021 15:22:26 GMT-0400 (Eastern Daylight Time)","503227","Match,No Match","","null","","","","","","<div class='trialBorder'><div class='vertical-center'><img src='img/fixation2_sml.jpg'</img></div></div>","null","DELAY","","","","","","","","","","",""
"html-keyboard-response","153","287827","0.0-7.0-4.23","5f17474ef0276309f4e1a31d","bdp_wmem","Tue May 11 2021 15:22:26 GMT-0400 (Eastern Daylight Time)","503227","Match,No Match","","709","","","","","","<div class='trialBorder'><div class='targDiv'><div class='tc'><img class='introPic' src='trustrating_stim/white_mw013.bmp'><br><font color='green'><strong>Share</strong></font></div></div><div class='respDiv'><div class='respDivL'>Match<br>(e)</div><div class='respDivR'>No Match<br>(i)</div></div></div>","e","TARGET","2","trustrating_stim/white_mw013.bmp,trustrating_stim/white_mw038.bmp","1,0","Match","e","3000","trustrating_stim/white_mw013.bmp","green","Share","REAL","1"
"html-keyboard-response","154","288335","0.0-7.0-5.23","5f17474ef0276309f4e1a31d","bdp_wmem","Tue May 11 2021 15:22:26 GMT-0400 (Eastern Daylight Time)","503227","Match,No Match","","null","","","","","","<div class='trialBorder'><div class='vertical-center'><img src='img/correct.jpg'></div><div class='respDiv'><div class='respDivL'><font style='color:orange'>Match<br>(e)</font></div><div class='respDivR'>No Match<br>(i)</div></div></div>","null","FEEDBACK","","","","","","","","","","",""
"html-keyboard-response","155","288840","0.0-7.0-1.24","5f17474ef0276309f4e1a31d","bdp_wmem","Tue May 11 2021 15:22:26 GMT-0400 (Eastern Daylight Time)","503227","Match,No Match","","null","","","","","","<div class='trialBorder'><div class='vertical-center'><img src='img/fixation2_sml.jpg'</img></div></div>","null","FIX","","","","","","","","","","",""
"html-keyboard-response","156","290343","0.0-7.0-2.24","5f17474ef0276309f4e1a31d","bdp_wmem","Tue May 11 2021 15:22:26 GMT-0400 (Eastern Daylight Time)","503227","Match,No Match","","null","","","","","","<div class='trialBorder'><div class='vertical-center'><img style='vertical-align:center; align:center' src='img/fixation2_sml.jpg'></div><div class='arrayDiv1'><div class='tc'><img class='introPic' src='trustrating_stim/white_00050_931230_fa_edt.bmp'><br><font color='red'><strong>Keep</strong></font></div></div></div>","null","ARRAY","1","trustrating_stim/white_00050_931230_fa_edt.bmp","0","noMatchFace","i","1500","","","","",""
"html-keyboard-response","157","294344","0.0-7.0-3.24","5f17474ef0276309f4e1a31d","bdp_wmem","Tue May 11 2021 15:22:26 GMT-0400 (Eastern Daylight Time)","503227","Match,No Match","","null","","","","","","<div class='trialBorder'><div class='vertical-center'><img src='img/fixation2_sml.jpg'</img></div></div>","null","DELAY","","","","","","","","","","",""
"html-keyboard-response","158","295016","0.0-7.0-4.24","5f17474ef0276309f4e1a31d","bdp_wmem","Tue May 11 2021 15:22:26 GMT-0400 (Eastern Daylight Time)","503227","Match,No Match","","670","","","","","","<div class='trialBorder'><div class='targDiv'><div class='tc'><img class='introPic' src='trustrating_stim/white_mw033.bmp'><br><font color='red'><strong>Keep</strong></font></div></div><div class='respDiv'><div class='respDivL'>Match<br>(e)</div><div class='respDivR'>No Match<br>(i)</div></div></div>","i","TARGET","1","trustrating_stim/white_00050_931230_fa_edt.bmp","0","noMatchFace","i","1500","trustrating_stim/white_mw033.bmp","red","Keep","REAL","1"
"html-keyboard-response","159","295520","0.0-7.0-5.24","5f17474ef0276309f4e1a31d","bdp_wmem","Tue May 11 2021 15:22:26 GMT-0400 (Eastern Daylight Time)","503227","Match,No Match","","null","","","","","","<div class='trialBorder'><div class='vertical-center'><img src='img/correct.jpg'></div><div class='respDiv'><div class='respDivL'>Match<br>(e)</div><div class='respDivR'><font style='color:orange'>No Match<br>(i)</font></div></div></div>","null","FEEDBACK","","","","","","","","","","",""
"html-keyboard-response","160","296025","0.0-7.0-1.25","5f17474ef0276309f4e1a31d","bdp_wmem","Tue May 11 2021 15:22:26 GMT-0400 (Eastern Daylight Time)","503227","Match,No Match","","null","","","","","","<div class='trialBorder'><div class='vertical-center'><img src='img/fixation2_sml.jpg'</img></div></div>","null","FIX","","","","","","","","","","",""
"html-keyboard-response","161","300528","0.0-7.0-2.25","5f17474ef0276309f4e1a31d","bdp_wmem","Tue May 11 2021 15:22:26 GMT-0400 (Eastern Daylight Time)","503227","Match,No Match","","null","","","","","","<div class='trialBorder'><div class='vertical-center'><img style='vertical-align:center; align:center' src='img/fixation2_sml.jpg'></div><div class='arrayDiv3'><div class='tl'><img class='introPic' src='trustrating_stim/white_mw092.bmp'><br><font color='green'><strong>Share</strong></font></div><div class='tc'><img class='introPic' src='trustrating_stim/white_mw015.bmp'><br><font color='red'><strong>Keep</strong></font></div><div class='tr'><img class='introPic' src='trustrating_stim/white_mw033.bmp'><br><font color='green'><strong>Share</strong></font></div></div></div>","null","ARRAY","3","trustrating_stim/white_mw092.bmp,trustrating_stim/white_mw015.bmp,trustrating_stim/white_mw033.bmp","1,0,1","Match","e","4500","","","","",""
"html-keyboard-response","162","304531","0.0-7.0-3.25","5f17474ef0276309f4e1a31d","bdp_wmem","Tue May 11 2021 15:22:26 GMT-0400 (Eastern Daylight Time)","503227","Match,No Match","","null","","","","","","<div class='trialBorder'><div class='vertical-center'><img src='img/fixation2_sml.jpg'</img></div></div>","null","DELAY","","","","","","","","","","",""
"html-keyboard-response","163","305127","0.0-7.0-4.25","5f17474ef0276309f4e1a31d","bdp_wmem","Tue May 11 2021 15:22:26 GMT-0400 (Eastern Daylight Time)","503227","Match,No Match","","593","","","","","","<div class='trialBorder'><div class='targDiv'><div class='tc'><img class='introPic' src='trustrating_stim/white_mw092.bmp'><br><font color='green'><strong>Share</strong></font></div></div><div class='respDiv'><div class='respDivL'>Match<br>(e)</div><div class='respDivR'>No Match<br>(i)</div></div></div>","e","TARGET","3","trustrating_stim/white_mw092.bmp,trustrating_stim/white_mw015.bmp,trustrating_stim/white_mw033.bmp","1,0,1","Match","e","4500","trustrating_stim/white_mw092.bmp","green","Share","REAL","1"
"html-keyboard-response","164","305638","0.0-7.0-5.25","5f17474ef0276309f4e1a31d","bdp_wmem","Tue May 11 2021 15:22:26 GMT-0400 (Eastern Daylight Time)","503227","Match,No Match","","null","","","","","","<div class='trialBorder'><div class='vertical-center'><img src='img/correct.jpg'></div><div class='respDiv'><div class='respDivL'><font style='color:orange'>Match<br>(e)</font></div><div class='respDivR'>No Match<br>(i)</div></div></div>","null","FEEDBACK","","","","","","","","","","",""
"html-keyboard-response","165","306152","0.0-7.0-1.26","5f17474ef0276309f4e1a31d","bdp_wmem","Tue May 11 2021 15:22:26 GMT-0400 (Eastern Daylight Time)","503227","Match,No Match","","null","","","","","","<div class='trialBorder'><div class='vertical-center'><img src='img/fixation2_sml.jpg'</img></div></div>","null","FIX","","","","","","","","","","",""
"html-keyboard-response","166","307658","0.0-7.0-2.26","5f17474ef0276309f4e1a31d","bdp_wmem","Tue May 11 2021 15:22:26 GMT-0400 (Eastern Daylight Time)","503227","Match,No Match","","null","","","","","","<div class='trialBorder'><div class='vertical-center'><img style='vertical-align:center; align:center' src='img/fixation2_sml.jpg'></div><div class='arrayDiv1'><div class='tc'><img class='introPic' src='trustrating_stim/white_mw013.bmp'><br><font color='green'><strong>Share</strong></font></div></div></div>","null","ARRAY","1","trustrating_stim/white_mw013.bmp","1","noMatchFace","i","1500","","","","",""
"html-keyboard-response","167","311661","0.0-7.0-3.26","5f17474ef0276309f4e1a31d","bdp_wmem","Tue May 11 2021 15:22:26 GMT-0400 (Eastern Daylight Time)","503227","Match,No Match","","null","","","","","","<div class='trialBorder'><div class='vertical-center'><img src='img/fixation2_sml.jpg'</img></div></div>","null","DELAY","","","","","","","","","","",""
"html-keyboard-response","168","312536","0.0-7.0-4.26","5f17474ef0276309f4e1a31d","bdp_wmem","Tue May 11 2021 15:22:26 GMT-0400 (Eastern Daylight Time)","503227","Match,No Match","","873","","","","","","<div class='trialBorder'><div class='targDiv'><div class='tc'><img class='introPic' src='trustrating_stim/white_mw003.bmp'><br><font color='green'><strong>Share</strong></font></div></div><div class='respDiv'><div class='respDivL'>Match<br>(e)</div><div class='respDivR'>No Match<br>(i)</div></div></div>","i","TARGET","1","trustrating_stim/white_mw013.bmp","1","noMatchFace","i","1500","trustrating_stim/white_mw003.bmp","green","Share","REAL","1"
"html-keyboard-response","169","313038","0.0-7.0-5.26","5f17474ef0276309f4e1a31d","bdp_wmem","Tue May 11 2021 15:22:26 GMT-0400 (Eastern Daylight Time)","503227","Match,No Match","","null","","","","","","<div class='trialBorder'><div class='vertical-center'><img src='img/correct.jpg'></div><div class='respDiv'><div class='respDivL'>Match<br>(e)</div><div class='respDivR'><font style='color:orange'>No Match<br>(i)</font></div></div></div>","null","FEEDBACK","","","","","","","","","","",""
"html-keyboard-response","170","313543","0.0-7.0-1.27","5f17474ef0276309f4e1a31d","bdp_wmem","Tue May 11 2021 15:22:26 GMT-0400 (Eastern Daylight Time)","503227","Match,No Match","","null","","","","","","<div class='trialBorder'><div class='vertical-center'><img src='img/fixation2_sml.jpg'</img></div></div>","null","FIX","","","","","","","","","","",""
"html-keyboard-response","171","315047","0.0-7.0-2.27","5f17474ef0276309f4e1a31d","bdp_wmem","Tue May 11 2021 15:22:26 GMT-0400 (Eastern Daylight Time)","503227","Match,No Match","","null","","","","","","<div class='trialBorder'><div class='vertical-center'><img style='vertical-align:center; align:center' src='img/fixation2_sml.jpg'></div><div class='arrayDiv1'><div class='tc'><img class='introPic' src='trustrating_stim/white_mw091.bmp'><br><font color='red'><strong>Keep</strong></font></div></div></div>","null","ARRAY","1","trustrating_stim/white_mw091.bmp","0","Match","e","1500","","","","",""
"html-keyboard-response","172","319049","0.0-7.0-3.27","5f17474ef0276309f4e1a31d","bdp_wmem","Tue May 11 2021 15:22:26 GMT-0400 (Eastern Daylight Time)","503227","Match,No Match","","null","","","","","","<div class='trialBorder'><div class='vertical-center'><img src='img/fixation2_sml.jpg'</img></div></div>","null","DELAY","","","","","","","","","","",""
"html-keyboard-response","173","319827","0.0-7.0-4.27","5f17474ef0276309f4e1a31d","bdp_wmem","Tue May 11 2021 15:22:26 GMT-0400 (Eastern Daylight Time)","503227","Match,No Match","","777","","","","","","<div class='trialBorder'><div class='targDiv'><div class='tc'><img class='introPic' src='trustrating_stim/white_mw091.bmp'><br><font color='red'><strong>Keep</strong></font></div></div><div class='respDiv'><div class='respDivL'>Match<br>(e)</div><div class='respDivR'>No Match<br>(i)</div></div></div>","i","TARGET","1","trustrating_stim/white_mw091.bmp","0","Match","e","1500","trustrating_stim/white_mw091.bmp","red","Keep","REAL","0"
"html-keyboard-response","174","320330","0.0-7.0-5.27","5f17474ef0276309f4e1a31d","bdp_wmem","Tue May 11 2021 15:22:26 GMT-0400 (Eastern Daylight Time)","503227","Match,No Match","","null","","","","","","<div class='trialBorder'><div class='vertical-center'><img src='img/error.jpg'></div><div class='respDiv'><div class='respDivL'>Match<br>(e)</div><div class='respDivR'><font style='color:orange'>No Match<br>(i)</font></div></div></div>","null","FEEDBACK","","","","","","","","","","",""
"html-keyboard-response","175","320835","0.0-7.0-1.28","5f17474ef0276309f4e1a31d","bdp_wmem","Tue May 11 2021 15:22:26 GMT-0400 (Eastern Daylight Time)","503227","Match,No Match","","null","","","","","","<div class='trialBorder'><div class='vertical-center'><img src='img/fixation2_sml.jpg'</img></div></div>","null","FIX","","","","","","","","","","",""
"html-keyboard-response","176","322340","0.0-7.0-2.28","5f17474ef0276309f4e1a31d","bdp_wmem","Tue May 11 2021 15:22:26 GMT-0400 (Eastern Daylight Time)","503227","Match,No Match","","null","","","","","","<div class='trialBorder'><div class='vertical-center'><img style='vertical-align:center; align:center' src='img/fixation2_sml.jpg'></div><div class='arrayDiv1'><div class='tc'><img class='introPic' src='trustrating_stim/white_mw092.bmp'><br><font color='green'><strong>Share</strong></font></div></div></div>","null","ARRAY","1","trustrating_stim/white_mw092.bmp","1","noMatchFace","i","1500","","","","",""
"html-keyboard-response","177","326349","0.0-7.0-3.28","5f17474ef0276309f4e1a31d","bdp_wmem","Tue May 11 2021 15:22:26 GMT-0400 (Eastern Daylight Time)","503227","Match,No Match","","null","","","","","","<div class='trialBorder'><div class='vertical-center'><img src='img/fixation2_sml.jpg'</img></div></div>","null","DELAY","","","","","","","","","","",""
"html-keyboard-response","178","326848","0.0-7.0-4.28","5f17474ef0276309f4e1a31d","bdp_wmem","Tue May 11 2021 15:22:26 GMT-0400 (Eastern Daylight Time)","503227","Match,No Match","","498","","","","","","<div class='trialBorder'><div class='targDiv'><div class='tc'><img class='introPic' src='trustrating_stim/white_mw070.bmp'><br><font color='green'><strong>Share</strong></font></div></div><div class='respDiv'><div class='respDivL'>Match<br>(e)</div><div class='respDivR'>No Match<br>(i)</div></div></div>","i","TARGET","1","trustrating_stim/white_mw092.bmp","1","noMatchFace","i","1500","trustrating_stim/white_mw070.bmp","green","Share","REAL","1"
"html-keyboard-response","179","327350","0.0-7.0-5.28","5f17474ef0276309f4e1a31d","bdp_wmem","Tue May 11 2021 15:22:26 GMT-0400 (Eastern Daylight Time)","503227","Match,No Match","","null","","","","","","<div class='trialBorder'><div class='vertical-center'><img src='img/correct.jpg'></div><div class='respDiv'><div class='respDivL'>Match<br>(e)</div><div class='respDivR'><font style='color:orange'>No Match<br>(i)</font></div></div></div>","null","FEEDBACK","","","","","","","","","","",""
"html-keyboard-response","180","327867","0.0-7.0-1.29","5f17474ef0276309f4e1a31d","bdp_wmem","Tue May 11 2021 15:22:26 GMT-0400 (Eastern Daylight Time)","503227","Match,No Match","","null","","","","","","<div class='trialBorder'><div class='vertical-center'><img src='img/fixation2_sml.jpg'</img></div></div>","null","FIX","","","","","","","","","","",""
"html-keyboard-response","181","330879","0.0-7.0-2.29","5f17474ef0276309f4e1a31d","bdp_wmem","Tue May 11 2021 15:22:26 GMT-0400 (Eastern Daylight Time)","503227","Match,No Match","","null","","","","","","<div class='trialBorder'><div class='vertical-center'><img style='vertical-align:center; align:center' src='img/fixation2_sml.jpg'></div><div class='arrayDiv2'><div class='tl'><img class='introPic' src='trustrating_stim/white_mw033.bmp'><br><font color='green'><strong>Share</strong></font></div><div class='tr'><img class='introPic' src='trustrating_stim/white_mw092.bmp'><br><font color='red'><strong>Keep</strong></font></div></div></div>","null","ARRAY","2","trustrating_stim/white_mw033.bmp,trustrating_stim/white_mw092.bmp","1,0","noMatchOutcome","i","3000","","","","",""
"html-keyboard-response","182","334886","0.0-7.0-3.29","5f17474ef0276309f4e1a31d","bdp_wmem","Tue May 11 2021 15:22:26 GMT-0400 (Eastern Daylight Time)","503227","Match,No Match","","null","","","","","","<div class='trialBorder'><div class='vertical-center'><img src='img/fixation2_sml.jpg'</img></div></div>","null","DELAY","","","","","","","","","","",""
"html-keyboard-response","183","338086","0.0-7.0-4.29","5f17474ef0276309f4e1a31d","bdp_wmem","Tue May 11 2021 15:22:26 GMT-0400 (Eastern Daylight Time)","503227","Match,No Match","","3199","","","","","","<div class='trialBorder'><div class='targDiv'><div class='tc'><img class='introPic' src='trustrating_stim/white_mw092.bmp'><br><font color='green'><strong>Share</strong></font></div></div><div class='respDiv'><div class='respDivL'>Match<br>(e)</div><div class='respDivR'>No Match<br>(i)</div></div></div>","e","TARGET","2","trustrating_stim/white_mw033.bmp,trustrating_stim/white_mw092.bmp","1,0","noMatchOutcome","i","3000","trustrating_stim/white_mw092.bmp","green","Share","REAL","0"
"html-keyboard-response","184","338598","0.0-7.0-5.29","5f17474ef0276309f4e1a31d","bdp_wmem","Tue May 11 2021 15:22:26 GMT-0400 (Eastern Daylight Time)","503227","Match,No Match","","null","","","","","","<div class='trialBorder'><div class='vertical-center'><img src='img/error.jpg'></div><div class='respDiv'><div class='respDivL'><font style='color:orange'>Match<br>(e)</font></div><div class='respDivR'>No Match<br>(i)</div></div></div>","null","FEEDBACK","","","","","","","","","","",""
"html-keyboard-response","185","339101","0.0-7.0-1.30","5f17474ef0276309f4e1a31d","bdp_wmem","Tue May 11 2021 15:22:26 GMT-0400 (Eastern Daylight Time)","503227","Match,No Match","","null","","","","","","<div class='trialBorder'><div class='vertical-center'><img src='img/fixation2_sml.jpg'</img></div></div>","null","FIX","","","","","","","","","","",""
"html-keyboard-response","186","342106","0.0-7.0-2.30","5f17474ef0276309f4e1a31d","bdp_wmem","Tue May 11 2021 15:22:26 GMT-0400 (Eastern Daylight Time)","503227","Match,No Match","","null","","","","","","<div class='trialBorder'><div class='vertical-center'><img style='vertical-align:center; align:center' src='img/fixation2_sml.jpg'></div><div class='arrayDiv2'><div class='tl'><img class='introPic' src='trustrating_stim/white_mw033.bmp'><br><font color='green'><strong>Share</strong></font></div><div class='tr'><img class='introPic' src='trustrating_stim/white_mw040.bmp'><br><font color='red'><strong>Keep</strong></font></div></div></div>","null","ARRAY","2","trustrating_stim/white_mw033.bmp,trustrating_stim/white_mw040.bmp","1,0","Match","e","3000","","","","",""
"html-keyboard-response","187","346115","0.0-7.0-3.30","5f17474ef0276309f4e1a31d","bdp_wmem","Tue May 11 2021 15:22:26 GMT-0400 (Eastern Daylight Time)","503227","Match,No Match","","null","","","","","","<div class='trialBorder'><div class='vertical-center'><img src='img/fixation2_sml.jpg'</img></div></div>","null","DELAY","","","","","","","","","","",""
