"trial_type","trial_index","time_elapsed","internal_node_id","subject_id","task","startTime","totalTime","labels","view_history","rt","event","trial","time","trialtype","success","stimulus","key_press","stimType","arraySize","arrayFaces","arrayOutcomes","matchType","corrResp","arrayDur","targFace","targCol","targOutcome","trialType","corr"
"pavlovia","0","3","0.0-0.0","63cedc8a97a0bb604736baea","bdp_wmem","Wed Mar 15 2023 13:34:36 GMT-0600 (Mountain Daylight Time)","620189","Match,No Match","","","","","","","","","","","","","","","","","","","","",""
"instructions","1","50285","0.0-1.0","63cedc8a97a0bb604736baea","bdp_wmem","Wed Mar 15 2023 13:34:36 GMT-0600 (Mountain Daylight Time)","620189","Match,No Match","[{""page_index"":0,""viewing_time"":50281}]","50282","","","","","","","","","","","","","","","","","","",""
"","","","","63cedc8a97a0bb604736baea","bdp_wmem","Wed Mar 15 2023 13:34:36 GMT-0600 (Mountain Daylight Time)","620189","Match,No Match","","","fullscreenenter","2","52064","fullscreenenter","","","","","","","","","","","","","","",""
"fullscreen","2","53053","0.0-2.0","63cedc8a97a0bb604736baea","bdp_wmem","Wed Mar 15 2023 13:34:36 GMT-0600 (Mountain Daylight Time)","620189","Match,No Match","","","","","","","true","","","","","","","","","","","","","",""
"instructions","3","111901","0.0-4.0","63cedc8a97a0bb604736baea","bdp_wmem","Wed Mar 15 2023 13:34:36 GMT-0600 (Mountain Daylight Time)","620189","Match,No Match","[{""page_index"":0,""viewing_time"":19082},{""page_index"":1,""viewing_time"":24563},{""page_index"":2,""viewing_time"":10841},{""page_index"":3,""viewing_time"":2855},{""page_index"":4,""viewing_time"":1506}]","58847","","","","","","","","","","","","","","","","","","",""
"html-keyboard-response","4","112406","0.0-5.0-1.0","63cedc8a97a0bb604736baea","bdp_wmem","Wed Mar 15 2023 13:34:36 GMT-0600 (Mountain Daylight Time)","620189","Match,No Match","","null","","","","","","<div class='trialBorder'><div class='vertical-center'><img src='img/fixation2_sml.jpg'</img></div></div>","null","FIX","","","","","","","","","","",""
"html-keyboard-response","5","115418","0.0-5.0-2.0","63cedc8a97a0bb604736baea","bdp_wmem","Wed Mar 15 2023 13:34:36 GMT-0600 (Mountain Daylight Time)","620189","Match,No Match","","null","","","","","","<div class='trialBorder'><div class='vertical-center'><img style='vertical-align:center; align:center' src='img/fixation2_sml.jpg'></div><div class='arrayDiv2'><div class='tl'><img class='introPic' src='trustrating_stim/white_mw040.bmp'><br><font color='green'><strong>Share</strong></font></div><div class='tr'><img class='introPic' src='trustrating_stim/white_mw085.bmp'><br><font color='red'><strong>Keep</strong></font></div></div></div>","null","ARRAY","2","trustrating_stim/white_mw040.bmp,trustrating_stim/white_mw085.bmp","1,0","Match","e","3000","","","","",""
"html-keyboard-response","6","119424","0.0-5.0-3.0","63cedc8a97a0bb604736baea","bdp_wmem","Wed Mar 15 2023 13:34:36 GMT-0600 (Mountain Daylight Time)","620189","Match,No Match","","null","","","","","","<div class='trialBorder'><div class='vertical-center'><img src='img/fixation2_sml.jpg'</img></div></div>","null","DELAY","","","","","","","","","","",""
"html-keyboard-response","7","121245","0.0-5.0-4.0","63cedc8a97a0bb604736baea","bdp_wmem","Wed Mar 15 2023 13:34:36 GMT-0600 (Mountain Daylight Time)","620189","Match,No Match","","1820","","","","","","<div class='trialBorder'><div class='targDiv'><div class='tc'><img class='introPic' src='trustrating_stim/white_mw040.bmp'><br><font color='green'><strong>Share</strong></font></div></div><div class='respDiv'><div class='respDivL'>Match<br>(e)</div><div class='respDivR'>No Match<br>(i)</div></div></div>","e","TARGET","2","trustrating_stim/white_mw040.bmp,trustrating_stim/white_mw085.bmp","1,0","Match","e","3000","trustrating_stim/white_mw040.bmp","green","Share","PRACTICE","1"
"html-keyboard-response","8","121752","0.0-5.0-5.0","63cedc8a97a0bb604736baea","bdp_wmem","Wed Mar 15 2023 13:34:36 GMT-0600 (Mountain Daylight Time)","620189","Match,No Match","","null","","","","","","<div class='trialBorder'><div class='vertical-center'><img src='img/correct.jpg'></div><div class='respDiv'><div class='respDivL'><font style='color:orange'>Match<br>(e)</font></div><div class='respDivR'>No Match<br>(i)</div></div></div>","null","FEEDBACK","","","","","","","","","","",""
"html-keyboard-response","9","122256","0.0-5.0-1.1","63cedc8a97a0bb604736baea","bdp_wmem","Wed Mar 15 2023 13:34:36 GMT-0600 (Mountain Daylight Time)","620189","Match,No Match","","null","","","","","","<div class='trialBorder'><div class='vertical-center'><img src='img/fixation2_sml.jpg'</img></div></div>","null","FIX","","","","","","","","","","",""
"html-keyboard-response","10","123760","0.0-5.0-2.1","63cedc8a97a0bb604736baea","bdp_wmem","Wed Mar 15 2023 13:34:36 GMT-0600 (Mountain Daylight Time)","620189","Match,No Match","","null","","","","","","<div class='trialBorder'><div class='vertical-center'><img style='vertical-align:center; align:center' src='img/fixation2_sml.jpg'></div><div class='arrayDiv1'><div class='tc'><img class='introPic' src='trustrating_stim/white_mw003.bmp'><br><font color='red'><strong>Keep</strong></font></div></div></div>","null","ARRAY","1","trustrating_stim/white_mw003.bmp","0","noMatchFace","i","1500","","","","",""
"html-keyboard-response","11","127766","0.0-5.0-3.1","63cedc8a97a0bb604736baea","bdp_wmem","Wed Mar 15 2023 13:34:36 GMT-0600 (Mountain Daylight Time)","620189","Match,No Match","","null","","","","","","<div class='trialBorder'><div class='vertical-center'><img src='img/fixation2_sml.jpg'</img></div></div>","null","DELAY","","","","","","","","","","",""
"html-keyboard-response","12","129273","0.0-5.0-4.1","63cedc8a97a0bb604736baea","bdp_wmem","Wed Mar 15 2023 13:34:36 GMT-0600 (Mountain Daylight Time)","620189","Match,No Match","","1506","","","","","","<div class='trialBorder'><div class='targDiv'><div class='tc'><img class='introPic' src='trustrating_stim/white_mw085.bmp'><br><font color='red'><strong>Keep</strong></font></div></div><div class='respDiv'><div class='respDivL'>Match<br>(e)</div><div class='respDivR'>No Match<br>(i)</div></div></div>","i","TARGET","1","trustrating_stim/white_mw003.bmp","0","noMatchFace","i","1500","trustrating_stim/white_mw085.bmp","red","Keep","PRACTICE","1"
"html-keyboard-response","13","129774","0.0-5.0-5.1","63cedc8a97a0bb604736baea","bdp_wmem","Wed Mar 15 2023 13:34:36 GMT-0600 (Mountain Daylight Time)","620189","Match,No Match","","null","","","","","","<div class='trialBorder'><div class='vertical-center'><img src='img/correct.jpg'></div><div class='respDiv'><div class='respDivL'>Match<br>(e)</div><div class='respDivR'><font style='color:orange'>No Match<br>(i)</font></div></div></div>","null","FEEDBACK","","","","","","","","","","",""
"html-keyboard-response","14","130280","0.0-5.0-1.2","63cedc8a97a0bb604736baea","bdp_wmem","Wed Mar 15 2023 13:34:36 GMT-0600 (Mountain Daylight Time)","620189","Match,No Match","","null","","","","","","<div class='trialBorder'><div class='vertical-center'><img src='img/fixation2_sml.jpg'</img></div></div>","null","FIX","","","","","","","","","","",""
"html-keyboard-response","15","134784","0.0-5.0-2.2","63cedc8a97a0bb604736baea","bdp_wmem","Wed Mar 15 2023 13:34:36 GMT-0600 (Mountain Daylight Time)","620189","Match,No Match","","null","","","","","","<div class='trialBorder'><div class='vertical-center'><img style='vertical-align:center; align:center' src='img/fixation2_sml.jpg'></div><div class='arrayDiv3'><div class='tl'><img class='introPic' src='trustrating_stim/white_mw040.bmp'><br><font color='green'><strong>Share</strong></font></div><div class='tc'><img class='introPic' src='trustrating_stim/white_mw013.bmp'><br><font color='red'><strong>Keep</strong></font></div><div class='tr'><img class='introPic' src='trustrating_stim/white_mw003.bmp'><br><font color='red'><strong>Keep</strong></font></div></div></div>","null","ARRAY","3","trustrating_stim/white_mw040.bmp,trustrating_stim/white_mw013.bmp,trustrating_stim/white_mw003.bmp","1,0,0","Match","e","4500","","","","",""
"html-keyboard-response","16","138790","0.0-5.0-3.2","63cedc8a97a0bb604736baea","bdp_wmem","Wed Mar 15 2023 13:34:36 GMT-0600 (Mountain Daylight Time)","620189","Match,No Match","","null","","","","","","<div class='trialBorder'><div class='vertical-center'><img src='img/fixation2_sml.jpg'</img></div></div>","null","DELAY","","","","","","","","","","",""
"html-keyboard-response","17","139788","0.0-5.0-4.2","63cedc8a97a0bb604736baea","bdp_wmem","Wed Mar 15 2023 13:34:36 GMT-0600 (Mountain Daylight Time)","620189","Match,No Match","","997","","","","","","<div class='trialBorder'><div class='targDiv'><div class='tc'><img class='introPic' src='trustrating_stim/white_mw040.bmp'><br><font color='green'><strong>Share</strong></font></div></div><div class='respDiv'><div class='respDivL'>Match<br>(e)</div><div class='respDivR'>No Match<br>(i)</div></div></div>","e","TARGET","3","trustrating_stim/white_mw040.bmp,trustrating_stim/white_mw013.bmp,trustrating_stim/white_mw003.bmp","1,0,0","Match","e","4500","trustrating_stim/white_mw040.bmp","green","Share","PRACTICE","1"
"html-keyboard-response","18","140298","0.0-5.0-5.2","63cedc8a97a0bb604736baea","bdp_wmem","Wed Mar 15 2023 13:34:36 GMT-0600 (Mountain Daylight Time)","620189","Match,No Match","","null","","","","","","<div class='trialBorder'><div class='vertical-center'><img src='img/correct.jpg'></div><div class='respDiv'><div class='respDivL'><font style='color:orange'>Match<br>(e)</font></div><div class='respDivR'>No Match<br>(i)</div></div></div>","null","FEEDBACK","","","","","","","","","","",""
"html-keyboard-response","19","140808","0.0-5.0-1.3","63cedc8a97a0bb604736baea","bdp_wmem","Wed Mar 15 2023 13:34:36 GMT-0600 (Mountain Daylight Time)","620189","Match,No Match","","null","","","","","","<div class='trialBorder'><div class='vertical-center'><img src='img/fixation2_sml.jpg'</img></div></div>","null","FIX","","","","","","","","","","",""
"html-keyboard-response","20","143817","0.0-5.0-2.3","63cedc8a97a0bb604736baea","bdp_wmem","Wed Mar 15 2023 13:34:36 GMT-0600 (Mountain Daylight Time)","620189","Match,No Match","","null","","","","","","<div class='trialBorder'><div class='vertical-center'><img style='vertical-align:center; align:center' src='img/fixation2_sml.jpg'></div><div class='arrayDiv2'><div class='tl'><img class='introPic' src='trustrating_stim/white_mw091.bmp'><br><font color='red'><strong>Keep</strong></font></div><div class='tr'><img class='introPic' src='trustrating_stim/white_mw012.bmp'><br><font color='green'><strong>Share</strong></font></div></div></div>","null","ARRAY","2","trustrating_stim/white_mw091.bmp,trustrating_stim/white_mw012.bmp","0,1","noMatchFace","i","3000","","","","",""
"html-keyboard-response","21","147823","0.0-5.0-3.3","63cedc8a97a0bb604736baea","bdp_wmem","Wed Mar 15 2023 13:34:36 GMT-0600 (Mountain Daylight Time)","620189","Match,No Match","","null","","","","","","<div class='trialBorder'><div class='vertical-center'><img src='img/fixation2_sml.jpg'</img></div></div>","null","DELAY","","","","","","","","","","",""
"html-keyboard-response","22","148465","0.0-5.0-4.3","63cedc8a97a0bb604736baea","bdp_wmem","Wed Mar 15 2023 13:34:36 GMT-0600 (Mountain Daylight Time)","620189","Match,No Match","","641","","","","","","<div class='trialBorder'><div class='targDiv'><div class='tc'><img class='introPic' src='trustrating_stim/white_mw078.bmp'><br><font color='green'><strong>Share</strong></font></div></div><div class='respDiv'><div class='respDivL'>Match<br>(e)</div><div class='respDivR'>No Match<br>(i)</div></div></div>","i","TARGET","2","trustrating_stim/white_mw091.bmp,trustrating_stim/white_mw012.bmp","0,1","noMatchFace","i","3000","trustrating_stim/white_mw078.bmp","green","Share","PRACTICE","1"
"html-keyboard-response","23","148970","0.0-5.0-5.3","63cedc8a97a0bb604736baea","bdp_wmem","Wed Mar 15 2023 13:34:36 GMT-0600 (Mountain Daylight Time)","620189","Match,No Match","","null","","","","","","<div class='trialBorder'><div class='vertical-center'><img src='img/correct.jpg'></div><div class='respDiv'><div class='respDivL'>Match<br>(e)</div><div class='respDivR'><font style='color:orange'>No Match<br>(i)</font></div></div></div>","null","FEEDBACK","","","","","","","","","","",""
"html-keyboard-response","24","149483","0.0-5.0-1.4","63cedc8a97a0bb604736baea","bdp_wmem","Wed Mar 15 2023 13:34:36 GMT-0600 (Mountain Daylight Time)","620189","Match,No Match","","null","","","","","","<div class='trialBorder'><div class='vertical-center'><img src='img/fixation2_sml.jpg'</img></div></div>","null","FIX","","","","","","","","","","",""
"html-keyboard-response","25","153994","0.0-5.0-2.4","63cedc8a97a0bb604736baea","bdp_wmem","Wed Mar 15 2023 13:34:36 GMT-0600 (Mountain Daylight Time)","620189","Match,No Match","","null","","","","","","<div class='trialBorder'><div class='vertical-center'><img style='vertical-align:center; align:center' src='img/fixation2_sml.jpg'></div><div class='arrayDiv3'><div class='tl'><img class='introPic' src='trustrating_stim/white_mw003.bmp'><br><font color='green'><strong>Share</strong></font></div><div class='tc'><img class='introPic' src='trustrating_stim/white_mw038.bmp'><br><font color='green'><strong>Share</strong></font></div><div class='tr'><img class='introPic' src='trustrating_stim/white_mw091.bmp'><br><font color='red'><strong>Keep</strong></font></div></div></div>","null","ARRAY","3","trustrating_stim/white_mw003.bmp,trustrating_stim/white_mw038.bmp,trustrating_stim/white_mw091.bmp","1,1,0","noMatchOutcome","i","4500","","","","",""
"html-keyboard-response","26","157999","0.0-5.0-3.4","63cedc8a97a0bb604736baea","bdp_wmem","Wed Mar 15 2023 13:34:36 GMT-0600 (Mountain Daylight Time)","620189","Match,No Match","","null","","","","","","<div class='trialBorder'><div class='vertical-center'><img src='img/fixation2_sml.jpg'</img></div></div>","null","DELAY","","","","","","","","","","",""
"html-keyboard-response","27","159289","0.0-5.0-4.4","63cedc8a97a0bb604736baea","bdp_wmem","Wed Mar 15 2023 13:34:36 GMT-0600 (Mountain Daylight Time)","620189","Match,No Match","","1290","","","","","","<div class='trialBorder'><div class='targDiv'><div class='tc'><img class='introPic' src='trustrating_stim/white_mw038.bmp'><br><font color='red'><strong>Keep</strong></font></div></div><div class='respDiv'><div class='respDivL'>Match<br>(e)</div><div class='respDivR'>No Match<br>(i)</div></div></div>","i","TARGET","3","trustrating_stim/white_mw003.bmp,trustrating_stim/white_mw038.bmp,trustrating_stim/white_mw091.bmp","1,1,0","noMatchOutcome","i","4500","trustrating_stim/white_mw038.bmp","red","Keep","PRACTICE","1"
"html-keyboard-response","28","159793","0.0-5.0-5.4","63cedc8a97a0bb604736baea","bdp_wmem","Wed Mar 15 2023 13:34:36 GMT-0600 (Mountain Daylight Time)","620189","Match,No Match","","null","","","","","","<div class='trialBorder'><div class='vertical-center'><img src='img/correct.jpg'></div><div class='respDiv'><div class='respDivL'>Match<br>(e)</div><div class='respDivR'><font style='color:orange'>No Match<br>(i)</font></div></div></div>","null","FEEDBACK","","","","","","","","","","",""
"html-keyboard-response","29","160298","0.0-5.0-1.5","63cedc8a97a0bb604736baea","bdp_wmem","Wed Mar 15 2023 13:34:36 GMT-0600 (Mountain Daylight Time)","620189","Match,No Match","","null","","","","","","<div class='trialBorder'><div class='vertical-center'><img src='img/fixation2_sml.jpg'</img></div></div>","null","FIX","","","","","","","","","","",""
"html-keyboard-response","30","161808","0.0-5.0-2.5","63cedc8a97a0bb604736baea","bdp_wmem","Wed Mar 15 2023 13:34:36 GMT-0600 (Mountain Daylight Time)","620189","Match,No Match","","null","","","","","","<div class='trialBorder'><div class='vertical-center'><img style='vertical-align:center; align:center' src='img/fixation2_sml.jpg'></div><div class='arrayDiv1'><div class='tc'><img class='introPic' src='trustrating_stim/white_mw092.bmp'><br><font color='green'><strong>Share</strong></font></div></div></div>","null","ARRAY","1","trustrating_stim/white_mw092.bmp","1","Match","e","1500","","","","",""
"html-keyboard-response","31","165819","0.0-5.0-3.5","63cedc8a97a0bb604736baea","bdp_wmem","Wed Mar 15 2023 13:34:36 GMT-0600 (Mountain Daylight Time)","620189","Match,No Match","","null","","","","","","<div class='trialBorder'><div class='vertical-center'><img src='img/fixation2_sml.jpg'</img></div></div>","null","DELAY","","","","","","","","","","",""
"html-keyboard-response","32","166775","0.0-5.0-4.5","63cedc8a97a0bb604736baea","bdp_wmem","Wed Mar 15 2023 13:34:36 GMT-0600 (Mountain Daylight Time)","620189","Match,No Match","","955","","","","","","<div class='trialBorder'><div class='targDiv'><div class='tc'><img class='introPic' src='trustrating_stim/white_mw092.bmp'><br><font color='green'><strong>Share</strong></font></div></div><div class='respDiv'><div class='respDivL'>Match<br>(e)</div><div class='respDivR'>No Match<br>(i)</div></div></div>","i","TARGET","1","trustrating_stim/white_mw092.bmp","1","Match","e","1500","trustrating_stim/white_mw092.bmp","green","Share","PRACTICE","0"
"html-keyboard-response","33","167282","0.0-5.0-5.5","63cedc8a97a0bb604736baea","bdp_wmem","Wed Mar 15 2023 13:34:36 GMT-0600 (Mountain Daylight Time)","620189","Match,No Match","","null","","","","","","<div class='trialBorder'><div class='vertical-center'><img src='img/error.jpg'></div><div class='respDiv'><div class='respDivL'>Match<br>(e)</div><div class='respDivR'><font style='color:orange'>No Match<br>(i)</font></div></div></div>","null","FEEDBACK","","","","","","","","","","",""
"instructions","34","181359","0.0-6.0","63cedc8a97a0bb604736baea","bdp_wmem","Wed Mar 15 2023 13:34:36 GMT-0600 (Mountain Daylight Time)","620189","Match,No Match","[{""page_index"":0,""viewing_time"":14077}]","14077","","","","","","","","","","","","","","","","","","",""
"html-keyboard-response","35","181864","0.0-7.0-1.0","63cedc8a97a0bb604736baea","bdp_wmem","Wed Mar 15 2023 13:34:36 GMT-0600 (Mountain Daylight Time)","620189","Match,No Match","","null","","","","","","<div class='trialBorder'><div class='vertical-center'><img src='img/fixation2_sml.jpg'</img></div></div>","null","FIX","","","","","","","","","","",""
"html-keyboard-response","36","184871","0.0-7.0-2.0","63cedc8a97a0bb604736baea","bdp_wmem","Wed Mar 15 2023 13:34:36 GMT-0600 (Mountain Daylight Time)","620189","Match,No Match","","null","","","","","","<div class='trialBorder'><div class='vertical-center'><img style='vertical-align:center; align:center' src='img/fixation2_sml.jpg'></div><div class='arrayDiv2'><div class='tl'><img class='introPic' src='trustrating_stim/white_mw040.bmp'><br><font color='green'><strong>Share</strong></font></div><div class='tr'><img class='introPic' src='trustrating_stim/white_mw091.bmp'><br><font color='red'><strong>Keep</strong></font></div></div></div>","null","ARRAY","2","trustrating_stim/white_mw040.bmp,trustrating_stim/white_mw091.bmp","1,0","noMatchFace","i","3000","","","","",""
"html-keyboard-response","37","188883","0.0-7.0-3.0","63cedc8a97a0bb604736baea","bdp_wmem","Wed Mar 15 2023 13:34:36 GMT-0600 (Mountain Daylight Time)","620189","Match,No Match","","null","","","","","","<div class='trialBorder'><div class='vertical-center'><img src='img/fixation2_sml.jpg'</img></div></div>","null","DELAY","","","","","","","","","","",""
"html-keyboard-response","38","189610","0.0-7.0-4.0","63cedc8a97a0bb604736baea","bdp_wmem","Wed Mar 15 2023 13:34:36 GMT-0600 (Mountain Daylight Time)","620189","Match,No Match","","726","","","","","","<div class='trialBorder'><div class='targDiv'><div class='tc'><img class='introPic' src='trustrating_stim/white_mw085.bmp'><br><font color='green'><strong>Share</strong></font></div></div><div class='respDiv'><div class='respDivL'>Match<br>(e)</div><div class='respDivR'>No Match<br>(i)</div></div></div>","e","TARGET","2","trustrating_stim/white_mw040.bmp,trustrating_stim/white_mw091.bmp","1,0","noMatchFace","i","3000","trustrating_stim/white_mw085.bmp","green","Share","REAL","0"
"html-keyboard-response","39","190113","0.0-7.0-5.0","63cedc8a97a0bb604736baea","bdp_wmem","Wed Mar 15 2023 13:34:36 GMT-0600 (Mountain Daylight Time)","620189","Match,No Match","","null","","","","","","<div class='trialBorder'><div class='vertical-center'><img src='img/error.jpg'></div><div class='respDiv'><div class='respDivL'><font style='color:orange'>Match<br>(e)</font></div><div class='respDivR'>No Match<br>(i)</div></div></div>","null","FEEDBACK","","","","","","","","","","",""
"html-keyboard-response","40","190618","0.0-7.0-1.1","63cedc8a97a0bb604736baea","bdp_wmem","Wed Mar 15 2023 13:34:36 GMT-0600 (Mountain Daylight Time)","620189","Match,No Match","","null","","","","","","<div class='trialBorder'><div class='vertical-center'><img src='img/fixation2_sml.jpg'</img></div></div>","null","FIX","","","","","","","","","","",""
"html-keyboard-response","41","192130","0.0-7.0-2.1","63cedc8a97a0bb604736baea","bdp_wmem","Wed Mar 15 2023 13:34:36 GMT-0600 (Mountain Daylight Time)","620189","Match,No Match","","null","","","","","","<div class='trialBorder'><div class='vertical-center'><img style='vertical-align:center; align:center' src='img/fixation2_sml.jpg'></div><div class='arrayDiv1'><div class='tc'><img class='introPic' src='trustrating_stim/white_mw070.bmp'><br><font color='red'><strong>Keep</strong></font></div></div></div>","null","ARRAY","1","trustrating_stim/white_mw070.bmp","0","Match","e","1500","","","","",""
"html-keyboard-response","42","196139","0.0-7.0-3.1","63cedc8a97a0bb604736baea","bdp_wmem","Wed Mar 15 2023 13:34:36 GMT-0600 (Mountain Daylight Time)","620189","Match,No Match","","null","","","","","","<div class='trialBorder'><div class='vertical-center'><img src='img/fixation2_sml.jpg'</img></div></div>","null","DELAY","","","","","","","","","","",""
"html-keyboard-response","43","196811","0.0-7.0-4.1","63cedc8a97a0bb604736baea","bdp_wmem","Wed Mar 15 2023 13:34:36 GMT-0600 (Mountain Daylight Time)","620189","Match,No Match","","671","","","","","","<div class='trialBorder'><div class='targDiv'><div class='tc'><img class='introPic' src='trustrating_stim/white_mw070.bmp'><br><font color='red'><strong>Keep</strong></font></div></div><div class='respDiv'><div class='respDivL'>Match<br>(e)</div><div class='respDivR'>No Match<br>(i)</div></div></div>","i","TARGET","1","trustrating_stim/white_mw070.bmp","0","Match","e","1500","trustrating_stim/white_mw070.bmp","red","Keep","REAL","0"
"html-keyboard-response","44","197320","0.0-7.0-5.1","63cedc8a97a0bb604736baea","bdp_wmem","Wed Mar 15 2023 13:34:36 GMT-0600 (Mountain Daylight Time)","620189","Match,No Match","","null","","","","","","<div class='trialBorder'><div class='vertical-center'><img src='img/error.jpg'></div><div class='respDiv'><div class='respDivL'>Match<br>(e)</div><div class='respDivR'><font style='color:orange'>No Match<br>(i)</font></div></div></div>","null","FEEDBACK","","","","","","","","","","",""
"html-keyboard-response","45","197828","0.0-7.0-1.2","63cedc8a97a0bb604736baea","bdp_wmem","Wed Mar 15 2023 13:34:36 GMT-0600 (Mountain Daylight Time)","620189","Match,No Match","","null","","","","","","<div class='trialBorder'><div class='vertical-center'><img src='img/fixation2_sml.jpg'</img></div></div>","null","FIX","","","","","","","","","","",""
"html-keyboard-response","46","200835","0.0-7.0-2.2","63cedc8a97a0bb604736baea","bdp_wmem","Wed Mar 15 2023 13:34:36 GMT-0600 (Mountain Daylight Time)","620189","Match,No Match","","null","","","","","","<div class='trialBorder'><div class='vertical-center'><img style='vertical-align:center; align:center' src='img/fixation2_sml.jpg'></div><div class='arrayDiv2'><div class='tl'><img class='introPic' src='trustrating_stim/white_mw091.bmp'><br><font color='red'><strong>Keep</strong></font></div><div class='tr'><img class='introPic' src='trustrating_stim/white_mw092.bmp'><br><font color='green'><strong>Share</strong></font></div></div></div>","null","ARRAY","2","trustrating_stim/white_mw091.bmp,trustrating_stim/white_mw092.bmp","0,1","noMatchOutcome","i","3000","","","","",""
"html-keyboard-response","47","204841","0.0-7.0-3.2","63cedc8a97a0bb604736baea","bdp_wmem","Wed Mar 15 2023 13:34:36 GMT-0600 (Mountain Daylight Time)","620189","Match,No Match","","null","","","","","","<div class='trialBorder'><div class='vertical-center'><img src='img/fixation2_sml.jpg'</img></div></div>","null","DELAY","","","","","","","","","","",""
"html-keyboard-response","48","205554","0.0-7.0-4.2","63cedc8a97a0bb604736baea","bdp_wmem","Wed Mar 15 2023 13:34:36 GMT-0600 (Mountain Daylight Time)","620189","Match,No Match","","712","","","","","","<div class='trialBorder'><div class='targDiv'><div class='tc'><img class='introPic' src='trustrating_stim/white_mw091.bmp'><br><font color='green'><strong>Share</strong></font></div></div><div class='respDiv'><div class='respDivL'>Match<br>(e)</div><div class='respDivR'>No Match<br>(i)</div></div></div>","i","TARGET","2","trustrating_stim/white_mw091.bmp,trustrating_stim/white_mw092.bmp","0,1","noMatchOutcome","i","3000","trustrating_stim/white_mw091.bmp","green","Share","REAL","1"
"html-keyboard-response","49","206060","0.0-7.0-5.2","63cedc8a97a0bb604736baea","bdp_wmem","Wed Mar 15 2023 13:34:36 GMT-0600 (Mountain Daylight Time)","620189","Match,No Match","","null","","","","","","<div class='trialBorder'><div class='vertical-center'><img src='img/correct.jpg'></div><div class='respDiv'><div class='respDivL'>Match<br>(e)</div><div class='respDivR'><font style='color:orange'>No Match<br>(i)</font></div></div></div>","null","FEEDBACK","","","","","","","","","","",""
"html-keyboard-response","50","206571","0.0-7.0-1.3","63cedc8a97a0bb604736baea","bdp_wmem","Wed Mar 15 2023 13:34:36 GMT-0600 (Mountain Daylight Time)","620189","Match,No Match","","null","","","","","","<div class='trialBorder'><div class='vertical-center'><img src='img/fixation2_sml.jpg'</img></div></div>","null","FIX","","","","","","","","","","",""
"html-keyboard-response","51","211081","0.0-7.0-2.3","63cedc8a97a0bb604736baea","bdp_wmem","Wed Mar 15 2023 13:34:36 GMT-0600 (Mountain Daylight Time)","620189","Match,No Match","","null","","","","","","<div class='trialBorder'><div class='vertical-center'><img style='vertical-align:center; align:center' src='img/fixation2_sml.jpg'></div><div class='arrayDiv3'><div class='tl'><img class='introPic' src='trustrating_stim/white_mw003.bmp'><br><font color='green'><strong>Share</strong></font></div><div class='tc'><img class='introPic' src='trustrating_stim/white_mw038.bmp'><br><font color='green'><strong>Share</strong></font></div><div class='tr'><img class='introPic' src='trustrating_stim/white_mw078.bmp'><br><font color='red'><strong>Keep</strong></font></div></div></div>","null","ARRAY","3","trustrating_stim/white_mw003.bmp,trustrating_stim/white_mw038.bmp,trustrating_stim/white_mw078.bmp","1,1,0","Match","e","4500","","","","",""
"html-keyboard-response","52","215093","0.0-7.0-3.3","63cedc8a97a0bb604736baea","bdp_wmem","Wed Mar 15 2023 13:34:36 GMT-0600 (Mountain Daylight Time)","620189","Match,No Match","","null","","","","","","<div class='trialBorder'><div class='vertical-center'><img src='img/fixation2_sml.jpg'</img></div></div>","null","DELAY","","","","","","","","","","",""
"html-keyboard-response","53","216009","0.0-7.0-4.3","63cedc8a97a0bb604736baea","bdp_wmem","Wed Mar 15 2023 13:34:36 GMT-0600 (Mountain Daylight Time)","620189","Match,No Match","","915","","","","","","<div class='trialBorder'><div class='targDiv'><div class='tc'><img class='introPic' src='trustrating_stim/white_mw003.bmp'><br><font color='green'><strong>Share</strong></font></div></div><div class='respDiv'><div class='respDivL'>Match<br>(e)</div><div class='respDivR'>No Match<br>(i)</div></div></div>","i","TARGET","3","trustrating_stim/white_mw003.bmp,trustrating_stim/white_mw038.bmp,trustrating_stim/white_mw078.bmp","1,1,0","Match","e","4500","trustrating_stim/white_mw003.bmp","green","Share","REAL","0"
"html-keyboard-response","54","216515","0.0-7.0-5.3","63cedc8a97a0bb604736baea","bdp_wmem","Wed Mar 15 2023 13:34:36 GMT-0600 (Mountain Daylight Time)","620189","Match,No Match","","null","","","","","","<div class='trialBorder'><div class='vertical-center'><img src='img/error.jpg'></div><div class='respDiv'><div class='respDivL'>Match<br>(e)</div><div class='respDivR'><font style='color:orange'>No Match<br>(i)</font></div></div></div>","null","FEEDBACK","","","","","","","","","","",""
"html-keyboard-response","55","217019","0.0-7.0-1.4","63cedc8a97a0bb604736baea","bdp_wmem","Wed Mar 15 2023 13:34:36 GMT-0600 (Mountain Daylight Time)","620189","Match,No Match","","null","","","","","","<div class='trialBorder'><div class='vertical-center'><img src='img/fixation2_sml.jpg'</img></div></div>","null","FIX","","","","","","","","","","",""
"html-keyboard-response","56","221525","0.0-7.0-2.4","63cedc8a97a0bb604736baea","bdp_wmem","Wed Mar 15 2023 13:34:36 GMT-0600 (Mountain Daylight Time)","620189","Match,No Match","","null","","","","","","<div class='trialBorder'><div class='vertical-center'><img style='vertical-align:center; align:center' src='img/fixation2_sml.jpg'></div><div class='arrayDiv3'><div class='tl'><img class='introPic' src='trustrating_stim/white_mw092.bmp'><br><font color='green'><strong>Share</strong></font></div><div class='tc'><img class='introPic' src='trustrating_stim/white_mw003.bmp'><br><font color='red'><strong>Keep</strong></font></div><div class='tr'><img class='introPic' src='trustrating_stim/white_mw070.bmp'><br><font color='red'><strong>Keep</strong></font></div></div></div>","null","ARRAY","3","trustrating_stim/white_mw092.bmp,trustrating_stim/white_mw003.bmp,trustrating_stim/white_mw070.bmp","1,0,0","noMatchOutcome","i","4500","","","","",""
"html-keyboard-response","57","225531","0.0-7.0-3.4","63cedc8a97a0bb604736baea","bdp_wmem","Wed Mar 15 2023 13:34:36 GMT-0600 (Mountain Daylight Time)","620189","Match,No Match","","null","","","","","","<div class='trialBorder'><div class='vertical-center'><img src='img/fixation2_sml.jpg'</img></div></div>","null","DELAY","","","","","","","","","","",""
"html-keyboard-response","58","225993","0.0-7.0-4.4","63cedc8a97a0bb604736baea","bdp_wmem","Wed Mar 15 2023 13:34:36 GMT-0600 (Mountain Daylight Time)","620189","Match,No Match","","460","","","","","","<div class='trialBorder'><div class='targDiv'><div class='tc'><img class='introPic' src='trustrating_stim/white_mw070.bmp'><br><font color='green'><strong>Share</strong></font></div></div><div class='respDiv'><div class='respDivL'>Match<br>(e)</div><div class='respDivR'>No Match<br>(i)</div></div></div>","e","TARGET","3","trustrating_stim/white_mw092.bmp,trustrating_stim/white_mw003.bmp,trustrating_stim/white_mw070.bmp","1,0,0","noMatchOutcome","i","4500","trustrating_stim/white_mw070.bmp","green","Share","REAL","0"
"html-keyboard-response","59","226500","0.0-7.0-5.4","63cedc8a97a0bb604736baea","bdp_wmem","Wed Mar 15 2023 13:34:36 GMT-0600 (Mountain Daylight Time)","620189","Match,No Match","","null","","","","","","<div class='trialBorder'><div class='vertical-center'><img src='img/error.jpg'></div><div class='respDiv'><div class='respDivL'><font style='color:orange'>Match<br>(e)</font></div><div class='respDivR'>No Match<br>(i)</div></div></div>","null","FEEDBACK","","","","","","","","","","",""
"html-keyboard-response","60","227011","0.0-7.0-1.5","63cedc8a97a0bb604736baea","bdp_wmem","Wed Mar 15 2023 13:34:36 GMT-0600 (Mountain Daylight Time)","620189","Match,No Match","","null","","","","","","<div class='trialBorder'><div class='vertical-center'><img src='img/fixation2_sml.jpg'</img></div></div>","null","FIX","","","","","","","","","","",""
"html-keyboard-response","61","231516","0.0-7.0-2.5","63cedc8a97a0bb604736baea","bdp_wmem","Wed Mar 15 2023 13:34:36 GMT-0600 (Mountain Daylight Time)","620189","Match,No Match","","null","","","","","","<div class='trialBorder'><div class='vertical-center'><img style='vertical-align:center; align:center' src='img/fixation2_sml.jpg'></div><div class='arrayDiv3'><div class='tl'><img class='introPic' src='trustrating_stim/white_mw070.bmp'><br><font color='red'><strong>Keep</strong></font></div><div class='tc'><img class='introPic' src='trustrating_stim/white_mw038.bmp'><br><font color='green'><strong>Share</strong></font></div><div class='tr'><img class='introPic' src='trustrating_stim/white_mw040.bmp'><br><font color='green'><strong>Share</strong></font></div></div></div>","null","ARRAY","3","trustrating_stim/white_mw070.bmp,trustrating_stim/white_mw038.bmp,trustrating_stim/white_mw040.bmp","0,1,1","Match","e","4500","","","","",""
"html-keyboard-response","62","235521","0.0-7.0-3.5","63cedc8a97a0bb604736baea","bdp_wmem","Wed Mar 15 2023 13:34:36 GMT-0600 (Mountain Daylight Time)","620189","Match,No Match","","null","","","","","","<div class='trialBorder'><div class='vertical-center'><img src='img/fixation2_sml.jpg'</img></div></div>","null","DELAY","","","","","","","","","","",""
"html-keyboard-response","63","236363","0.0-7.0-4.5","63cedc8a97a0bb604736baea","bdp_wmem","Wed Mar 15 2023 13:34:36 GMT-0600 (Mountain Daylight Time)","620189","Match,No Match","","840","","","","","","<div class='trialBorder'><div class='targDiv'><div class='tc'><img class='introPic' src='trustrating_stim/white_mw038.bmp'><br><font color='green'><strong>Share</strong></font></div></div><div class='respDiv'><div class='respDivL'>Match<br>(e)</div><div class='respDivR'>No Match<br>(i)</div></div></div>","e","TARGET","3","trustrating_stim/white_mw070.bmp,trustrating_stim/white_mw038.bmp,trustrating_stim/white_mw040.bmp","0,1,1","Match","e","4500","trustrating_stim/white_mw038.bmp","green","Share","REAL","1"
"html-keyboard-response","64","236868","0.0-7.0-5.5","63cedc8a97a0bb604736baea","bdp_wmem","Wed Mar 15 2023 13:34:36 GMT-0600 (Mountain Daylight Time)","620189","Match,No Match","","null","","","","","","<div class='trialBorder'><div class='vertical-center'><img src='img/correct.jpg'></div><div class='respDiv'><div class='respDivL'><font style='color:orange'>Match<br>(e)</font></div><div class='respDivR'>No Match<br>(i)</div></div></div>","null","FEEDBACK","","","","","","","","","","",""
"html-keyboard-response","65","237372","0.0-7.0-1.6","63cedc8a97a0bb604736baea","bdp_wmem","Wed Mar 15 2023 13:34:36 GMT-0600 (Mountain Daylight Time)","620189","Match,No Match","","null","","","","","","<div class='trialBorder'><div class='vertical-center'><img src='img/fixation2_sml.jpg'</img></div></div>","null","FIX","","","","","","","","","","",""
"html-keyboard-response","66","240380","0.0-7.0-2.6","63cedc8a97a0bb604736baea","bdp_wmem","Wed Mar 15 2023 13:34:36 GMT-0600 (Mountain Daylight Time)","620189","Match,No Match","","null","","","","","","<div class='trialBorder'><div class='vertical-center'><img style='vertical-align:center; align:center' src='img/fixation2_sml.jpg'></div><div class='arrayDiv2'><div class='tl'><img class='introPic' src='trustrating_stim/white_mw042.bmp'><br><font color='red'><strong>Keep</strong></font></div><div class='tr'><img class='introPic' src='trustrating_stim/white_mw091.bmp'><br><font color='green'><strong>Share</strong></font></div></div></div>","null","ARRAY","2","trustrating_stim/white_mw042.bmp,trustrating_stim/white_mw091.bmp","0,1","noMatchOutcome","i","3000","","","","",""
"html-keyboard-response","67","244386","0.0-7.0-3.6","63cedc8a97a0bb604736baea","bdp_wmem","Wed Mar 15 2023 13:34:36 GMT-0600 (Mountain Daylight Time)","620189","Match,No Match","","null","","","","","","<div class='trialBorder'><div class='vertical-center'><img src='img/fixation2_sml.jpg'</img></div></div>","null","DELAY","","","","","","","","","","",""
"html-keyboard-response","68","244875","0.0-7.0-4.6","63cedc8a97a0bb604736baea","bdp_wmem","Wed Mar 15 2023 13:34:36 GMT-0600 (Mountain Daylight Time)","620189","Match,No Match","","488","","","","","","<div class='trialBorder'><div class='targDiv'><div class='tc'><img class='introPic' src='trustrating_stim/white_mw091.bmp'><br><font color='red'><strong>Keep</strong></font></div></div><div class='respDiv'><div class='respDivL'>Match<br>(e)</div><div class='respDivR'>No Match<br>(i)</div></div></div>","i","TARGET","2","trustrating_stim/white_mw042.bmp,trustrating_stim/white_mw091.bmp","0,1","noMatchOutcome","i","3000","trustrating_stim/white_mw091.bmp","red","Keep","REAL","1"
"html-keyboard-response","69","245378","0.0-7.0-5.6","63cedc8a97a0bb604736baea","bdp_wmem","Wed Mar 15 2023 13:34:36 GMT-0600 (Mountain Daylight Time)","620189","Match,No Match","","null","","","","","","<div class='trialBorder'><div class='vertical-center'><img src='img/correct.jpg'></div><div class='respDiv'><div class='respDivL'>Match<br>(e)</div><div class='respDivR'><font style='color:orange'>No Match<br>(i)</font></div></div></div>","null","FEEDBACK","","","","","","","","","","",""
"html-keyboard-response","70","245883","0.0-7.0-1.7","63cedc8a97a0bb604736baea","bdp_wmem","Wed Mar 15 2023 13:34:36 GMT-0600 (Mountain Daylight Time)","620189","Match,No Match","","null","","","","","","<div class='trialBorder'><div class='vertical-center'><img src='img/fixation2_sml.jpg'</img></div></div>","null","FIX","","","","","","","","","","",""
"html-keyboard-response","71","247387","0.0-7.0-2.7","63cedc8a97a0bb604736baea","bdp_wmem","Wed Mar 15 2023 13:34:36 GMT-0600 (Mountain Daylight Time)","620189","Match,No Match","","null","","","","","","<div class='trialBorder'><div class='vertical-center'><img style='vertical-align:center; align:center' src='img/fixation2_sml.jpg'></div><div class='arrayDiv1'><div class='tc'><img class='introPic' src='trustrating_stim/white_mw070.bmp'><br><font color='red'><strong>Keep</strong></font></div></div></div>","null","ARRAY","1","trustrating_stim/white_mw070.bmp","0","noMatchOutcome","i","1500","","","","",""
"html-keyboard-response","72","251399","0.0-7.0-3.7","63cedc8a97a0bb604736baea","bdp_wmem","Wed Mar 15 2023 13:34:36 GMT-0600 (Mountain Daylight Time)","620189","Match,No Match","","null","","","","","","<div class='trialBorder'><div class='vertical-center'><img src='img/fixation2_sml.jpg'</img></div></div>","null","DELAY","","","","","","","","","","",""
"html-keyboard-response","73","252011","0.0-7.0-4.7","63cedc8a97a0bb604736baea","bdp_wmem","Wed Mar 15 2023 13:34:36 GMT-0600 (Mountain Daylight Time)","620189","Match,No Match","","610","","","","","","<div class='trialBorder'><div class='targDiv'><div class='tc'><img class='introPic' src='trustrating_stim/white_mw070.bmp'><br><font color='green'><strong>Share</strong></font></div></div><div class='respDiv'><div class='respDivL'>Match<br>(e)</div><div class='respDivR'>No Match<br>(i)</div></div></div>","e","TARGET","1","trustrating_stim/white_mw070.bmp","0","noMatchOutcome","i","1500","trustrating_stim/white_mw070.bmp","green","Share","REAL","0"
"html-keyboard-response","74","252513","0.0-7.0-5.7","63cedc8a97a0bb604736baea","bdp_wmem","Wed Mar 15 2023 13:34:36 GMT-0600 (Mountain Daylight Time)","620189","Match,No Match","","null","","","","","","<div class='trialBorder'><div class='vertical-center'><img src='img/error.jpg'></div><div class='respDiv'><div class='respDivL'><font style='color:orange'>Match<br>(e)</font></div><div class='respDivR'>No Match<br>(i)</div></div></div>","null","FEEDBACK","","","","","","","","","","",""
"html-keyboard-response","75","253017","0.0-7.0-1.8","63cedc8a97a0bb604736baea","bdp_wmem","Wed Mar 15 2023 13:34:36 GMT-0600 (Mountain Daylight Time)","620189","Match,No Match","","null","","","","","","<div class='trialBorder'><div class='vertical-center'><img src='img/fixation2_sml.jpg'</img></div></div>","null","FIX","","","","","","","","","","",""
"html-keyboard-response","76","256025","0.0-7.0-2.8","63cedc8a97a0bb604736baea","bdp_wmem","Wed Mar 15 2023 13:34:36 GMT-0600 (Mountain Daylight Time)","620189","Match,No Match","","null","","","","","","<div class='trialBorder'><div class='vertical-center'><img style='vertical-align:center; align:center' src='img/fixation2_sml.jpg'></div><div class='arrayDiv2'><div class='tl'><img class='introPic' src='trustrating_stim/white_mw010.bmp'><br><font color='red'><strong>Keep</strong></font></div><div class='tr'><img class='introPic' src='trustrating_stim/white_mw070.bmp'><br><font color='green'><strong>Share</strong></font></div></div></div>","null","ARRAY","2","trustrating_stim/white_mw010.bmp,trustrating_stim/white_mw070.bmp","0,1","noMatchFace","i","3000","","","","",""
"html-keyboard-response","77","260036","0.0-7.0-3.8","63cedc8a97a0bb604736baea","bdp_wmem","Wed Mar 15 2023 13:34:36 GMT-0600 (Mountain Daylight Time)","620189","Match,No Match","","null","","","","","","<div class='trialBorder'><div class='vertical-center'><img src='img/fixation2_sml.jpg'</img></div></div>","null","DELAY","","","","","","","","","","",""
"html-keyboard-response","78","261159","0.0-7.0-4.8","63cedc8a97a0bb604736baea","bdp_wmem","Wed Mar 15 2023 13:34:36 GMT-0600 (Mountain Daylight Time)","620189","Match,No Match","","1122","","","","","","<div class='trialBorder'><div class='targDiv'><div class='tc'><img class='introPic' src='trustrating_stim/white_mw091.bmp'><br><font color='green'><strong>Share</strong></font></div></div><div class='respDiv'><div class='respDivL'>Match<br>(e)</div><div class='respDivR'>No Match<br>(i)</div></div></div>","i","TARGET","2","trustrating_stim/white_mw010.bmp,trustrating_stim/white_mw070.bmp","0,1","noMatchFace","i","3000","trustrating_stim/white_mw091.bmp","green","Share","REAL","1"
"html-keyboard-response","79","261667","0.0-7.0-5.8","63cedc8a97a0bb604736baea","bdp_wmem","Wed Mar 15 2023 13:34:36 GMT-0600 (Mountain Daylight Time)","620189","Match,No Match","","null","","","","","","<div class='trialBorder'><div class='vertical-center'><img src='img/correct.jpg'></div><div class='respDiv'><div class='respDivL'>Match<br>(e)</div><div class='respDivR'><font style='color:orange'>No Match<br>(i)</font></div></div></div>","null","FEEDBACK","","","","","","","","","","",""
"html-keyboard-response","80","262173","0.0-7.0-1.9","63cedc8a97a0bb604736baea","bdp_wmem","Wed Mar 15 2023 13:34:36 GMT-0600 (Mountain Daylight Time)","620189","Match,No Match","","null","","","","","","<div class='trialBorder'><div class='vertical-center'><img src='img/fixation2_sml.jpg'</img></div></div>","null","FIX","","","","","","","","","","",""
"html-keyboard-response","81","266683","0.0-7.0-2.9","63cedc8a97a0bb604736baea","bdp_wmem","Wed Mar 15 2023 13:34:36 GMT-0600 (Mountain Daylight Time)","620189","Match,No Match","","null","","","","","","<div class='trialBorder'><div class='vertical-center'><img style='vertical-align:center; align:center' src='img/fixation2_sml.jpg'></div><div class='arrayDiv3'><div class='tl'><img class='introPic' src='trustrating_stim/white_mw013.bmp'><br><font color='green'><strong>Share</strong></font></div><div class='tc'><img class='introPic' src='trustrating_stim/white_mw012.bmp'><br><font color='green'><strong>Share</strong></font></div><div class='tr'><img class='introPic' src='trustrating_stim/white_mw042.bmp'><br><font color='red'><strong>Keep</strong></font></div></div></div>","null","ARRAY","3","trustrating_stim/white_mw013.bmp,trustrating_stim/white_mw012.bmp,trustrating_stim/white_mw042.bmp","1,1,0","Match","e","4500","","","","",""
"html-keyboard-response","82","270695","0.0-7.0-3.9","63cedc8a97a0bb604736baea","bdp_wmem","Wed Mar 15 2023 13:34:36 GMT-0600 (Mountain Daylight Time)","620189","Match,No Match","","null","","","","","","<div class='trialBorder'><div class='vertical-center'><img src='img/fixation2_sml.jpg'</img></div></div>","null","DELAY","","","","","","","","","","",""
"html-keyboard-response","83","271463","0.0-7.0-4.9","63cedc8a97a0bb604736baea","bdp_wmem","Wed Mar 15 2023 13:34:36 GMT-0600 (Mountain Daylight Time)","620189","Match,No Match","","766","","","","","","<div class='trialBorder'><div class='targDiv'><div class='tc'><img class='introPic' src='trustrating_stim/white_mw012.bmp'><br><font color='green'><strong>Share</strong></font></div></div><div class='respDiv'><div class='respDivL'>Match<br>(e)</div><div class='respDivR'>No Match<br>(i)</div></div></div>","e","TARGET","3","trustrating_stim/white_mw013.bmp,trustrating_stim/white_mw012.bmp,trustrating_stim/white_mw042.bmp","1,1,0","Match","e","4500","trustrating_stim/white_mw012.bmp","green","Share","REAL","1"
"html-keyboard-response","84","271974","0.0-7.0-5.9","63cedc8a97a0bb604736baea","bdp_wmem","Wed Mar 15 2023 13:34:36 GMT-0600 (Mountain Daylight Time)","620189","Match,No Match","","null","","","","","","<div class='trialBorder'><div class='vertical-center'><img src='img/correct.jpg'></div><div class='respDiv'><div class='respDivL'><font style='color:orange'>Match<br>(e)</font></div><div class='respDivR'>No Match<br>(i)</div></div></div>","null","FEEDBACK","","","","","","","","","","",""
"html-keyboard-response","85","272483","0.0-7.0-1.10","63cedc8a97a0bb604736baea","bdp_wmem","Wed Mar 15 2023 13:34:36 GMT-0600 (Mountain Daylight Time)","620189","Match,No Match","","null","","","","","","<div class='trialBorder'><div class='vertical-center'><img src='img/fixation2_sml.jpg'</img></div></div>","null","FIX","","","","","","","","","","",""
"html-keyboard-response","86","275495","0.0-7.0-2.10","63cedc8a97a0bb604736baea","bdp_wmem","Wed Mar 15 2023 13:34:36 GMT-0600 (Mountain Daylight Time)","620189","Match,No Match","","null","","","","","","<div class='trialBorder'><div class='vertical-center'><img style='vertical-align:center; align:center' src='img/fixation2_sml.jpg'></div><div class='arrayDiv2'><div class='tl'><img class='introPic' src='trustrating_stim/white_mw078.bmp'><br><font color='red'><strong>Keep</strong></font></div><div class='tr'><img class='introPic' src='trustrating_stim/white_mw038.bmp'><br><font color='green'><strong>Share</strong></font></div></div></div>","null","ARRAY","2","trustrating_stim/white_mw078.bmp,trustrating_stim/white_mw038.bmp","0,1","Match","e","3000","","","","",""
"html-keyboard-response","87","279501","0.0-7.0-3.10","63cedc8a97a0bb604736baea","bdp_wmem","Wed Mar 15 2023 13:34:36 GMT-0600 (Mountain Daylight Time)","620189","Match,No Match","","null","","","","","","<div class='trialBorder'><div class='vertical-center'><img src='img/fixation2_sml.jpg'</img></div></div>","null","DELAY","","","","","","","","","","",""
"html-keyboard-response","88","280084","0.0-7.0-4.10","63cedc8a97a0bb604736baea","bdp_wmem","Wed Mar 15 2023 13:34:36 GMT-0600 (Mountain Daylight Time)","620189","Match,No Match","","582","","","","","","<div class='trialBorder'><div class='targDiv'><div class='tc'><img class='introPic' src='trustrating_stim/white_mw038.bmp'><br><font color='green'><strong>Share</strong></font></div></div><div class='respDiv'><div class='respDivL'>Match<br>(e)</div><div class='respDivR'>No Match<br>(i)</div></div></div>","e","TARGET","2","trustrating_stim/white_mw078.bmp,trustrating_stim/white_mw038.bmp","0,1","Match","e","3000","trustrating_stim/white_mw038.bmp","green","Share","REAL","1"
"html-keyboard-response","89","280587","0.0-7.0-5.10","63cedc8a97a0bb604736baea","bdp_wmem","Wed Mar 15 2023 13:34:36 GMT-0600 (Mountain Daylight Time)","620189","Match,No Match","","null","","","","","","<div class='trialBorder'><div class='vertical-center'><img src='img/correct.jpg'></div><div class='respDiv'><div class='respDivL'><font style='color:orange'>Match<br>(e)</font></div><div class='respDivR'>No Match<br>(i)</div></div></div>","null","FEEDBACK","","","","","","","","","","",""
"html-keyboard-response","90","281092","0.0-7.0-1.11","63cedc8a97a0bb604736baea","bdp_wmem","Wed Mar 15 2023 13:34:36 GMT-0600 (Mountain Daylight Time)","620189","Match,No Match","","null","","","","","","<div class='trialBorder'><div class='vertical-center'><img src='img/fixation2_sml.jpg'</img></div></div>","null","FIX","","","","","","","","","","",""
"html-keyboard-response","91","284099","0.0-7.0-2.11","63cedc8a97a0bb604736baea","bdp_wmem","Wed Mar 15 2023 13:34:36 GMT-0600 (Mountain Daylight Time)","620189","Match,No Match","","null","","","","","","<div class='trialBorder'><div class='vertical-center'><img style='vertical-align:center; align:center' src='img/fixation2_sml.jpg'></div><div class='arrayDiv2'><div class='tl'><img class='introPic' src='trustrating_stim/white_mw070.bmp'><br><font color='red'><strong>Keep</strong></font></div><div class='tr'><img class='introPic' src='trustrating_stim/white_mw092.bmp'><br><font color='green'><strong>Share</strong></font></div></div></div>","null","ARRAY","2","trustrating_stim/white_mw070.bmp,trustrating_stim/white_mw092.bmp","0,1","Match","e","3000","","","","",""
"html-keyboard-response","92","288110","0.0-7.0-3.11","63cedc8a97a0bb604736baea","bdp_wmem","Wed Mar 15 2023 13:34:36 GMT-0600 (Mountain Daylight Time)","620189","Match,No Match","","null","","","","","","<div class='trialBorder'><div class='vertical-center'><img src='img/fixation2_sml.jpg'</img></div></div>","null","DELAY","","","","","","","","","","",""
"html-keyboard-response","93","290438","0.0-7.0-4.11","63cedc8a97a0bb604736baea","bdp_wmem","Wed Mar 15 2023 13:34:36 GMT-0600 (Mountain Daylight Time)","620189","Match,No Match","","2327","","","","","","<div class='trialBorder'><div class='targDiv'><div class='tc'><img class='introPic' src='trustrating_stim/white_mw092.bmp'><br><font color='green'><strong>Share</strong></font></div></div><div class='respDiv'><div class='respDivL'>Match<br>(e)</div><div class='respDivR'>No Match<br>(i)</div></div></div>","i","TARGET","2","trustrating_stim/white_mw070.bmp,trustrating_stim/white_mw092.bmp","0,1","Match","e","3000","trustrating_stim/white_mw092.bmp","green","Share","REAL","0"
"html-keyboard-response","94","290943","0.0-7.0-5.11","63cedc8a97a0bb604736baea","bdp_wmem","Wed Mar 15 2023 13:34:36 GMT-0600 (Mountain Daylight Time)","620189","Match,No Match","","null","","","","","","<div class='trialBorder'><div class='vertical-center'><img src='img/error.jpg'></div><div class='respDiv'><div class='respDivL'>Match<br>(e)</div><div class='respDivR'><font style='color:orange'>No Match<br>(i)</font></div></div></div>","null","FEEDBACK","","","","","","","","","","",""
"html-keyboard-response","95","291452","0.0-7.0-1.12","63cedc8a97a0bb604736baea","bdp_wmem","Wed Mar 15 2023 13:34:36 GMT-0600 (Mountain Daylight Time)","620189","Match,No Match","","null","","","","","","<div class='trialBorder'><div class='vertical-center'><img src='img/fixation2_sml.jpg'</img></div></div>","null","FIX","","","","","","","","","","",""
"html-keyboard-response","96","294460","0.0-7.0-2.12","63cedc8a97a0bb604736baea","bdp_wmem","Wed Mar 15 2023 13:34:36 GMT-0600 (Mountain Daylight Time)","620189","Match,No Match","","null","","","","","","<div class='trialBorder'><div class='vertical-center'><img style='vertical-align:center; align:center' src='img/fixation2_sml.jpg'></div><div class='arrayDiv2'><div class='tl'><img class='introPic' src='trustrating_stim/white_mw091.bmp'><br><font color='green'><strong>Share</strong></font></div><div class='tr'><img class='introPic' src='trustrating_stim/white_mw003.bmp'><br><font color='red'><strong>Keep</strong></font></div></div></div>","null","ARRAY","2","trustrating_stim/white_mw091.bmp,trustrating_stim/white_mw003.bmp","1,0","Match","e","3000","","","","",""
"html-keyboard-response","97","298467","0.0-7.0-3.12","63cedc8a97a0bb604736baea","bdp_wmem","Wed Mar 15 2023 13:34:36 GMT-0600 (Mountain Daylight Time)","620189","Match,No Match","","null","","","","","","<div class='trialBorder'><div class='vertical-center'><img src='img/fixation2_sml.jpg'</img></div></div>","null","DELAY","","","","","","","","","","",""
"html-keyboard-response","98","299087","0.0-7.0-4.12","63cedc8a97a0bb604736baea","bdp_wmem","Wed Mar 15 2023 13:34:36 GMT-0600 (Mountain Daylight Time)","620189","Match,No Match","","619","","","","","","<div class='trialBorder'><div class='targDiv'><div class='tc'><img class='introPic' src='trustrating_stim/white_mw003.bmp'><br><font color='red'><strong>Keep</strong></font></div></div><div class='respDiv'><div class='respDivL'>Match<br>(e)</div><div class='respDivR'>No Match<br>(i)</div></div></div>","e","TARGET","2","trustrating_stim/white_mw091.bmp,trustrating_stim/white_mw003.bmp","1,0","Match","e","3000","trustrating_stim/white_mw003.bmp","red","Keep","REAL","1"
"html-keyboard-response","99","299599","0.0-7.0-5.12","63cedc8a97a0bb604736baea","bdp_wmem","Wed Mar 15 2023 13:34:36 GMT-0600 (Mountain Daylight Time)","620189","Match,No Match","","null","","","","","","<div class='trialBorder'><div class='vertical-center'><img src='img/correct.jpg'></div><div class='respDiv'><div class='respDivL'><font style='color:orange'>Match<br>(e)</font></div><div class='respDivR'>No Match<br>(i)</div></div></div>","null","FEEDBACK","","","","","","","","","","",""
"html-keyboard-response","100","300109","0.0-7.0-1.13","63cedc8a97a0bb604736baea","bdp_wmem","Wed Mar 15 2023 13:34:36 GMT-0600 (Mountain Daylight Time)","620189","Match,No Match","","null","","","","","","<div class='trialBorder'><div class='vertical-center'><img src='img/fixation2_sml.jpg'</img></div></div>","null","FIX","","","","","","","","","","",""
"html-keyboard-response","101","304620","0.0-7.0-2.13","63cedc8a97a0bb604736baea","bdp_wmem","Wed Mar 15 2023 13:34:36 GMT-0600 (Mountain Daylight Time)","620189","Match,No Match","","null","","","","","","<div class='trialBorder'><div class='vertical-center'><img style='vertical-align:center; align:center' src='img/fixation2_sml.jpg'></div><div class='arrayDiv3'><div class='tl'><img class='introPic' src='trustrating_stim/white_mw092.bmp'><br><font color='green'><strong>Share</strong></font></div><div class='tc'><img class='introPic' src='trustrating_stim/white_mw003.bmp'><br><font color='red'><strong>Keep</strong></font></div><div class='tr'><img class='introPic' src='trustrating_stim/white_mw070.bmp'><br><font color='green'><strong>Share</strong></font></div></div></div>","null","ARRAY","3","trustrating_stim/white_mw092.bmp,trustrating_stim/white_mw003.bmp,trustrating_stim/white_mw070.bmp","1,0,1","Match","e","4500","","","","",""
"html-keyboard-response","102","308631","0.0-7.0-3.13","63cedc8a97a0bb604736baea","bdp_wmem","Wed Mar 15 2023 13:34:36 GMT-0600 (Mountain Daylight Time)","620189","Match,No Match","","null","","","","","","<div class='trialBorder'><div class='vertical-center'><img src='img/fixation2_sml.jpg'</img></div></div>","null","DELAY","","","","","","","","","","",""
"html-keyboard-response","103","309733","0.0-7.0-4.13","63cedc8a97a0bb604736baea","bdp_wmem","Wed Mar 15 2023 13:34:36 GMT-0600 (Mountain Daylight Time)","620189","Match,No Match","","1099","","","","","","<div class='trialBorder'><div class='targDiv'><div class='tc'><img class='introPic' src='trustrating_stim/white_mw003.bmp'><br><font color='red'><strong>Keep</strong></font></div></div><div class='respDiv'><div class='respDivL'>Match<br>(e)</div><div class='respDivR'>No Match<br>(i)</div></div></div>","i","TARGET","3","trustrating_stim/white_mw092.bmp,trustrating_stim/white_mw003.bmp,trustrating_stim/white_mw070.bmp","1,0,1","Match","e","4500","trustrating_stim/white_mw003.bmp","red","Keep","REAL","0"
"html-keyboard-response","104","310239","0.0-7.0-5.13","63cedc8a97a0bb604736baea","bdp_wmem","Wed Mar 15 2023 13:34:36 GMT-0600 (Mountain Daylight Time)","620189","Match,No Match","","null","","","","","","<div class='trialBorder'><div class='vertical-center'><img src='img/error.jpg'></div><div class='respDiv'><div class='respDivL'>Match<br>(e)</div><div class='respDivR'><font style='color:orange'>No Match<br>(i)</font></div></div></div>","null","FEEDBACK","","","","","","","","","","",""
"html-keyboard-response","105","310750","0.0-7.0-1.14","63cedc8a97a0bb604736baea","bdp_wmem","Wed Mar 15 2023 13:34:36 GMT-0600 (Mountain Daylight Time)","620189","Match,No Match","","null","","","","","","<div class='trialBorder'><div class='vertical-center'><img src='img/fixation2_sml.jpg'</img></div></div>","null","FIX","","","","","","","","","","",""
"html-keyboard-response","106","315260","0.0-7.0-2.14","63cedc8a97a0bb604736baea","bdp_wmem","Wed Mar 15 2023 13:34:36 GMT-0600 (Mountain Daylight Time)","620189","Match,No Match","","null","","","","","","<div class='trialBorder'><div class='vertical-center'><img style='vertical-align:center; align:center' src='img/fixation2_sml.jpg'></div><div class='arrayDiv3'><div class='tl'><img class='introPic' src='trustrating_stim/white_mw070.bmp'><br><font color='green'><strong>Share</strong></font></div><div class='tc'><img class='introPic' src='trustrating_stim/white_mw010.bmp'><br><font color='red'><strong>Keep</strong></font></div><div class='tr'><img class='introPic' src='trustrating_stim/white_mw078.bmp'><br><font color='green'><strong>Share</strong></font></div></div></div>","null","ARRAY","3","trustrating_stim/white_mw070.bmp,trustrating_stim/white_mw010.bmp,trustrating_stim/white_mw078.bmp","1,0,1","noMatchFace","i","4500","","","","",""
"html-keyboard-response","107","319272","0.0-7.0-3.14","63cedc8a97a0bb604736baea","bdp_wmem","Wed Mar 15 2023 13:34:36 GMT-0600 (Mountain Daylight Time)","620189","Match,No Match","","null","","","","","","<div class='trialBorder'><div class='vertical-center'><img src='img/fixation2_sml.jpg'</img></div></div>","null","DELAY","","","","","","","","","","",""
"html-keyboard-response","108","319653","0.0-7.0-4.14","63cedc8a97a0bb604736baea","bdp_wmem","Wed Mar 15 2023 13:34:36 GMT-0600 (Mountain Daylight Time)","620189","Match,No Match","","380","","","","","","<div class='trialBorder'><div class='targDiv'><div class='tc'><img class='introPic' src='trustrating_stim/white_mw091.bmp'><br><font color='green'><strong>Share</strong></font></div></div><div class='respDiv'><div class='respDivL'>Match<br>(e)</div><div class='respDivR'>No Match<br>(i)</div></div></div>","e","TARGET","3","trustrating_stim/white_mw070.bmp,trustrating_stim/white_mw010.bmp,trustrating_stim/white_mw078.bmp","1,0,1","noMatchFace","i","4500","trustrating_stim/white_mw091.bmp","green","Share","REAL","0"
"html-keyboard-response","109","320156","0.0-7.0-5.14","63cedc8a97a0bb604736baea","bdp_wmem","Wed Mar 15 2023 13:34:36 GMT-0600 (Mountain Daylight Time)","620189","Match,No Match","","null","","","","","","<div class='trialBorder'><div class='vertical-center'><img src='img/error.jpg'></div><div class='respDiv'><div class='respDivL'><font style='color:orange'>Match<br>(e)</font></div><div class='respDivR'>No Match<br>(i)</div></div></div>","null","FEEDBACK","","","","","","","","","","",""
"html-keyboard-response","110","320660","0.0-7.0-1.15","63cedc8a97a0bb604736baea","bdp_wmem","Wed Mar 15 2023 13:34:36 GMT-0600 (Mountain Daylight Time)","620189","Match,No Match","","null","","","","","","<div class='trialBorder'><div class='vertical-center'><img src='img/fixation2_sml.jpg'</img></div></div>","null","FIX","","","","","","","","","","",""
"html-keyboard-response","111","322163","0.0-7.0-2.15","63cedc8a97a0bb604736baea","bdp_wmem","Wed Mar 15 2023 13:34:36 GMT-0600 (Mountain Daylight Time)","620189","Match,No Match","","null","","","","","","<div class='trialBorder'><div class='vertical-center'><img style='vertical-align:center; align:center' src='img/fixation2_sml.jpg'></div><div class='arrayDiv1'><div class='tc'><img class='introPic' src='trustrating_stim/white_mw078.bmp'><br><font color='red'><strong>Keep</strong></font></div></div></div>","null","ARRAY","1","trustrating_stim/white_mw078.bmp","0","noMatchFace","i","1500","","","","",""
"html-keyboard-response","112","326175","0.0-7.0-3.15","63cedc8a97a0bb604736baea","bdp_wmem","Wed Mar 15 2023 13:34:36 GMT-0600 (Mountain Daylight Time)","620189","Match,No Match","","null","","","","","","<div class='trialBorder'><div class='vertical-center'><img src='img/fixation2_sml.jpg'</img></div></div>","null","DELAY","","","","","","","","","","",""
"html-keyboard-response","113","326545","0.0-7.0-4.15","63cedc8a97a0bb604736baea","bdp_wmem","Wed Mar 15 2023 13:34:36 GMT-0600 (Mountain Daylight Time)","620189","Match,No Match","","369","","","","","","<div class='trialBorder'><div class='targDiv'><div class='tc'><img class='introPic' src='trustrating_stim/white_mw091.bmp'><br><font color='red'><strong>Keep</strong></font></div></div><div class='respDiv'><div class='respDivL'>Match<br>(e)</div><div class='respDivR'>No Match<br>(i)</div></div></div>","e","TARGET","1","trustrating_stim/white_mw078.bmp","0","noMatchFace","i","1500","trustrating_stim/white_mw091.bmp","red","Keep","REAL","0"
"html-keyboard-response","114","327051","0.0-7.0-5.15","63cedc8a97a0bb604736baea","bdp_wmem","Wed Mar 15 2023 13:34:36 GMT-0600 (Mountain Daylight Time)","620189","Match,No Match","","null","","","","","","<div class='trialBorder'><div class='vertical-center'><img src='img/error.jpg'></div><div class='respDiv'><div class='respDivL'><font style='color:orange'>Match<br>(e)</font></div><div class='respDivR'>No Match<br>(i)</div></div></div>","null","FEEDBACK","","","","","","","","","","",""
"html-keyboard-response","115","327556","0.0-7.0-1.16","63cedc8a97a0bb604736baea","bdp_wmem","Wed Mar 15 2023 13:34:36 GMT-0600 (Mountain Daylight Time)","620189","Match,No Match","","null","","","","","","<div class='trialBorder'><div class='vertical-center'><img src='img/fixation2_sml.jpg'</img></div></div>","null","FIX","","","","","","","","","","",""
"html-keyboard-response","116","332061","0.0-7.0-2.16","63cedc8a97a0bb604736baea","bdp_wmem","Wed Mar 15 2023 13:34:36 GMT-0600 (Mountain Daylight Time)","620189","Match,No Match","","null","","","","","","<div class='trialBorder'><div class='vertical-center'><img style='vertical-align:center; align:center' src='img/fixation2_sml.jpg'></div><div class='arrayDiv3'><div class='tl'><img class='introPic' src='trustrating_stim/white_mw003.bmp'><br><font color='red'><strong>Keep</strong></font></div><div class='tc'><img class='introPic' src='trustrating_stim/white_mw013.bmp'><br><font color='red'><strong>Keep</strong></font></div><div class='tr'><img class='introPic' src='trustrating_stim/white_mw091.bmp'><br><font color='green'><strong>Share</strong></font></div></div></div>","null","ARRAY","3","trustrating_stim/white_mw003.bmp,trustrating_stim/white_mw013.bmp,trustrating_stim/white_mw091.bmp","0,0,1","noMatchFace","i","4500","","","","",""
"html-keyboard-response","117","336072","0.0-7.0-3.16","63cedc8a97a0bb604736baea","bdp_wmem","Wed Mar 15 2023 13:34:36 GMT-0600 (Mountain Daylight Time)","620189","Match,No Match","","null","","","","","","<div class='trialBorder'><div class='vertical-center'><img src='img/fixation2_sml.jpg'</img></div></div>","null","DELAY","","","","","","","","","","",""
"html-keyboard-response","118","336777","0.0-7.0-4.16","63cedc8a97a0bb604736baea","bdp_wmem","Wed Mar 15 2023 13:34:36 GMT-0600 (Mountain Daylight Time)","620189","Match,No Match","","703","","","","","","<div class='trialBorder'><div class='targDiv'><div class='tc'><img class='introPic' src='trustrating_stim/white_mw012.bmp'><br><font color='red'><strong>Keep</strong></font></div></div><div class='respDiv'><div class='respDivL'>Match<br>(e)</div><div class='respDivR'>No Match<br>(i)</div></div></div>","i","TARGET","3","trustrating_stim/white_mw003.bmp,trustrating_stim/white_mw013.bmp,trustrating_stim/white_mw091.bmp","0,0,1","noMatchFace","i","4500","trustrating_stim/white_mw012.bmp","red","Keep","REAL","1"
"html-keyboard-response","119","337286","0.0-7.0-5.16","63cedc8a97a0bb604736baea","bdp_wmem","Wed Mar 15 2023 13:34:36 GMT-0600 (Mountain Daylight Time)","620189","Match,No Match","","null","","","","","","<div class='trialBorder'><div class='vertical-center'><img src='img/correct.jpg'></div><div class='respDiv'><div class='respDivL'>Match<br>(e)</div><div class='respDivR'><font style='color:orange'>No Match<br>(i)</font></div></div></div>","null","FEEDBACK","","","","","","","","","","",""
"html-keyboard-response","120","337790","0.0-7.0-1.17","63cedc8a97a0bb604736baea","bdp_wmem","Wed Mar 15 2023 13:34:36 GMT-0600 (Mountain Daylight Time)","620189","Match,No Match","","null","","","","","","<div class='trialBorder'><div class='vertical-center'><img src='img/fixation2_sml.jpg'</img></div></div>","null","FIX","","","","","","","","","","",""
"html-keyboard-response","121","342296","0.0-7.0-2.17","63cedc8a97a0bb604736baea","bdp_wmem","Wed Mar 15 2023 13:34:36 GMT-0600 (Mountain Daylight Time)","620189","Match,No Match","","null","","","","","","<div class='trialBorder'><div class='vertical-center'><img style='vertical-align:center; align:center' src='img/fixation2_sml.jpg'></div><div class='arrayDiv3'><div class='tl'><img class='introPic' src='trustrating_stim/white_mw010.bmp'><br><font color='red'><strong>Keep</strong></font></div><div class='tc'><img class='introPic' src='trustrating_stim/white_mw042.bmp'><br><font color='green'><strong>Share</strong></font></div><div class='tr'><img class='introPic' src='trustrating_stim/white_mw013.bmp'><br><font color='green'><strong>Share</strong></font></div></div></div>","null","ARRAY","3","trustrating_stim/white_mw010.bmp,trustrating_stim/white_mw042.bmp,trustrating_stim/white_mw013.bmp","0,1,1","noMatchOutcome","i","4500","","","","",""
"html-keyboard-response","122","346301","0.0-7.0-3.17","63cedc8a97a0bb604736baea","bdp_wmem","Wed Mar 15 2023 13:34:36 GMT-0600 (Mountain Daylight Time)","620189","Match,No Match","","null","","","","","","<div class='trialBorder'><div class='vertical-center'><img src='img/fixation2_sml.jpg'</img></div></div>","null","DELAY","","","","","","","","","","",""
"html-keyboard-response","123","347391","0.0-7.0-4.17","63cedc8a97a0bb604736baea","bdp_wmem","Wed Mar 15 2023 13:34:36 GMT-0600 (Mountain Daylight Time)","620189","Match,No Match","","1089","","","","","","<div class='trialBorder'><div class='targDiv'><div class='tc'><img class='introPic' src='trustrating_stim/white_mw010.bmp'><br><font color='green'><strong>Share</strong></font></div></div><div class='respDiv'><div class='respDivL'>Match<br>(e)</div><div class='respDivR'>No Match<br>(i)</div></div></div>","e","TARGET","3","trustrating_stim/white_mw010.bmp,trustrating_stim/white_mw042.bmp,trustrating_stim/white_mw013.bmp","0,1,1","noMatchOutcome","i","4500","trustrating_stim/white_mw010.bmp","green","Share","REAL","0"
"html-keyboard-response","124","347893","0.0-7.0-5.17","63cedc8a97a0bb604736baea","bdp_wmem","Wed Mar 15 2023 13:34:36 GMT-0600 (Mountain Daylight Time)","620189","Match,No Match","","null","","","","","","<div class='trialBorder'><div class='vertical-center'><img src='img/error.jpg'></div><div class='respDiv'><div class='respDivL'><font style='color:orange'>Match<br>(e)</font></div><div class='respDivR'>No Match<br>(i)</div></div></div>","null","FEEDBACK","","","","","","","","","","",""
"html-keyboard-response","125","348397","0.0-7.0-1.18","63cedc8a97a0bb604736baea","bdp_wmem","Wed Mar 15 2023 13:34:36 GMT-0600 (Mountain Daylight Time)","620189","Match,No Match","","null","","","","","","<div class='trialBorder'><div class='vertical-center'><img src='img/fixation2_sml.jpg'</img></div></div>","null","FIX","","","","","","","","","","",""
"html-keyboard-response","126","349900","0.0-7.0-2.18","63cedc8a97a0bb604736baea","bdp_wmem","Wed Mar 15 2023 13:34:36 GMT-0600 (Mountain Daylight Time)","620189","Match,No Match","","null","","","","","","<div class='trialBorder'><div class='vertical-center'><img style='vertical-align:center; align:center' src='img/fixation2_sml.jpg'></div><div class='arrayDiv1'><div class='tc'><img class='introPic' src='trustrating_stim/white_mw085.bmp'><br><font color='red'><strong>Keep</strong></font></div></div></div>","null","ARRAY","1","trustrating_stim/white_mw085.bmp","0","Match","e","1500","","","","",""
"html-keyboard-response","127","353912","0.0-7.0-3.18","63cedc8a97a0bb604736baea","bdp_wmem","Wed Mar 15 2023 13:34:36 GMT-0600 (Mountain Daylight Time)","620189","Match,No Match","","null","","","","","","<div class='trialBorder'><div class='vertical-center'><img src='img/fixation2_sml.jpg'</img></div></div>","null","DELAY","","","","","","","","","","",""
"html-keyboard-response","128","357289","0.0-7.0-4.18","63cedc8a97a0bb604736baea","bdp_wmem","Wed Mar 15 2023 13:34:36 GMT-0600 (Mountain Daylight Time)","620189","Match,No Match","","3376","","","","","","<div class='trialBorder'><div class='targDiv'><div class='tc'><img class='introPic' src='trustrating_stim/white_mw085.bmp'><br><font color='red'><strong>Keep</strong></font></div></div><div class='respDiv'><div class='respDivL'>Match<br>(e)</div><div class='respDivR'>No Match<br>(i)</div></div></div>","e","TARGET","1","trustrating_stim/white_mw085.bmp","0","Match","e","1500","trustrating_stim/white_mw085.bmp","red","Keep","REAL","1"
"html-keyboard-response","129","357801","0.0-7.0-5.18","63cedc8a97a0bb604736baea","bdp_wmem","Wed Mar 15 2023 13:34:36 GMT-0600 (Mountain Daylight Time)","620189","Match,No Match","","null","","","","","","<div class='trialBorder'><div class='vertical-center'><img src='img/correct.jpg'></div><div class='respDiv'><div class='respDivL'><font style='color:orange'>Match<br>(e)</font></div><div class='respDivR'>No Match<br>(i)</div></div></div>","null","FEEDBACK","","","","","","","","","","",""
"html-keyboard-response","130","358310","0.0-7.0-1.19","63cedc8a97a0bb604736baea","bdp_wmem","Wed Mar 15 2023 13:34:36 GMT-0600 (Mountain Daylight Time)","620189","Match,No Match","","null","","","","","","<div class='trialBorder'><div class='vertical-center'><img src='img/fixation2_sml.jpg'</img></div></div>","null","FIX","","","","","","","","","","",""
"html-keyboard-response","131","361319","0.0-7.0-2.19","63cedc8a97a0bb604736baea","bdp_wmem","Wed Mar 15 2023 13:34:36 GMT-0600 (Mountain Daylight Time)","620189","Match,No Match","","null","","","","","","<div class='trialBorder'><div class='vertical-center'><img style='vertical-align:center; align:center' src='img/fixation2_sml.jpg'></div><div class='arrayDiv2'><div class='tl'><img class='introPic' src='trustrating_stim/white_mw038.bmp'><br><font color='red'><strong>Keep</strong></font></div><div class='tr'><img class='introPic' src='trustrating_stim/white_mw013.bmp'><br><font color='green'><strong>Share</strong></font></div></div></div>","null","ARRAY","2","trustrating_stim/white_mw038.bmp,trustrating_stim/white_mw013.bmp","0,1","Match","e","3000","","","","",""
"html-keyboard-response","132","365325","0.0-7.0-3.19","63cedc8a97a0bb604736baea","bdp_wmem","Wed Mar 15 2023 13:34:36 GMT-0600 (Mountain Daylight Time)","620189","Match,No Match","","null","","","","","","<div class='trialBorder'><div class='vertical-center'><img src='img/fixation2_sml.jpg'</img></div></div>","null","DELAY","","","","","","","","","","",""
"html-keyboard-response","133","367629","0.0-7.0-4.19","63cedc8a97a0bb604736baea","bdp_wmem","Wed Mar 15 2023 13:34:36 GMT-0600 (Mountain Daylight Time)","620189","Match,No Match","","2303","","","","","","<div class='trialBorder'><div class='targDiv'><div class='tc'><img class='introPic' src='trustrating_stim/white_mw013.bmp'><br><font color='green'><strong>Share</strong></font></div></div><div class='respDiv'><div class='respDivL'>Match<br>(e)</div><div class='respDivR'>No Match<br>(i)</div></div></div>","i","TARGET","2","trustrating_stim/white_mw038.bmp,trustrating_stim/white_mw013.bmp","0,1","Match","e","3000","trustrating_stim/white_mw013.bmp","green","Share","REAL","0"
"html-keyboard-response","134","368134","0.0-7.0-5.19","63cedc8a97a0bb604736baea","bdp_wmem","Wed Mar 15 2023 13:34:36 GMT-0600 (Mountain Daylight Time)","620189","Match,No Match","","null","","","","","","<div class='trialBorder'><div class='vertical-center'><img src='img/error.jpg'></div><div class='respDiv'><div class='respDivL'>Match<br>(e)</div><div class='respDivR'><font style='color:orange'>No Match<br>(i)</font></div></div></div>","null","FEEDBACK","","","","","","","","","","",""
"html-keyboard-response","135","368639","0.0-7.0-1.20","63cedc8a97a0bb604736baea","bdp_wmem","Wed Mar 15 2023 13:34:36 GMT-0600 (Mountain Daylight Time)","620189","Match,No Match","","null","","","","","","<div class='trialBorder'><div class='vertical-center'><img src='img/fixation2_sml.jpg'</img></div></div>","null","FIX","","","","","","","","","","",""
"html-keyboard-response","136","373150","0.0-7.0-2.20","63cedc8a97a0bb604736baea","bdp_wmem","Wed Mar 15 2023 13:34:36 GMT-0600 (Mountain Daylight Time)","620189","Match,No Match","","null","","","","","","<div class='trialBorder'><div class='vertical-center'><img style='vertical-align:center; align:center' src='img/fixation2_sml.jpg'></div><div class='arrayDiv3'><div class='tl'><img class='introPic' src='trustrating_stim/white_mw042.bmp'><br><font color='green'><strong>Share</strong></font></div><div class='tc'><img class='introPic' src='trustrating_stim/white_mw078.bmp'><br><font color='green'><strong>Share</strong></font></div><div class='tr'><img class='introPic' src='trustrating_stim/white_mw003.bmp'><br><font color='red'><strong>Keep</strong></font></div></div></div>","null","ARRAY","3","trustrating_stim/white_mw042.bmp,trustrating_stim/white_mw078.bmp,trustrating_stim/white_mw003.bmp","1,1,0","Match","e","4500","","","","",""
"html-keyboard-response","137","377161","0.0-7.0-3.20","63cedc8a97a0bb604736baea","bdp_wmem","Wed Mar 15 2023 13:34:36 GMT-0600 (Mountain Daylight Time)","620189","Match,No Match","","null","","","","","","<div class='trialBorder'><div class='vertical-center'><img src='img/fixation2_sml.jpg'</img></div></div>","null","DELAY","","","","","","","","","","",""
"html-keyboard-response","138","378989","0.0-7.0-4.20","63cedc8a97a0bb604736baea","bdp_wmem","Wed Mar 15 2023 13:34:36 GMT-0600 (Mountain Daylight Time)","620189","Match,No Match","","1827","","","","","","<div class='trialBorder'><div class='targDiv'><div class='tc'><img class='introPic' src='trustrating_stim/white_mw003.bmp'><br><font color='red'><strong>Keep</strong></font></div></div><div class='respDiv'><div class='respDivL'>Match<br>(e)</div><div class='respDivR'>No Match<br>(i)</div></div></div>","e","TARGET","3","trustrating_stim/white_mw042.bmp,trustrating_stim/white_mw078.bmp,trustrating_stim/white_mw003.bmp","1,1,0","Match","e","4500","trustrating_stim/white_mw003.bmp","red","Keep","REAL","1"
"html-keyboard-response","139","379494","0.0-7.0-5.20","63cedc8a97a0bb604736baea","bdp_wmem","Wed Mar 15 2023 13:34:36 GMT-0600 (Mountain Daylight Time)","620189","Match,No Match","","null","","","","","","<div class='trialBorder'><div class='vertical-center'><img src='img/correct.jpg'></div><div class='respDiv'><div class='respDivL'><font style='color:orange'>Match<br>(e)</font></div><div class='respDivR'>No Match<br>(i)</div></div></div>","null","FEEDBACK","","","","","","","","","","",""
"html-keyboard-response","140","380000","0.0-7.0-1.21","63cedc8a97a0bb604736baea","bdp_wmem","Wed Mar 15 2023 13:34:36 GMT-0600 (Mountain Daylight Time)","620189","Match,No Match","","null","","","","","","<div class='trialBorder'><div class='vertical-center'><img src='img/fixation2_sml.jpg'</img></div></div>","null","FIX","","","","","","","","","","",""
"html-keyboard-response","141","384511","0.0-7.0-2.21","63cedc8a97a0bb604736baea","bdp_wmem","Wed Mar 15 2023 13:34:36 GMT-0600 (Mountain Daylight Time)","620189","Match,No Match","","null","","","","","","<div class='trialBorder'><div class='vertical-center'><img style='vertical-align:center; align:center' src='img/fixation2_sml.jpg'></div><div class='arrayDiv3'><div class='tl'><img class='introPic' src='trustrating_stim/white_mw091.bmp'><br><font color='green'><strong>Share</strong></font></div><div class='tc'><img class='introPic' src='trustrating_stim/white_mw010.bmp'><br><font color='red'><strong>Keep</strong></font></div><div class='tr'><img class='introPic' src='trustrating_stim/white_mw085.bmp'><br><font color='green'><strong>Share</strong></font></div></div></div>","null","ARRAY","3","trustrating_stim/white_mw091.bmp,trustrating_stim/white_mw010.bmp,trustrating_stim/white_mw085.bmp","1,0,1","noMatchFace","i","4500","","","","",""
"html-keyboard-response","142","388522","0.0-7.0-3.21","63cedc8a97a0bb604736baea","bdp_wmem","Wed Mar 15 2023 13:34:36 GMT-0600 (Mountain Daylight Time)","620189","Match,No Match","","null","","","","","","<div class='trialBorder'><div class='vertical-center'><img src='img/fixation2_sml.jpg'</img></div></div>","null","DELAY","","","","","","","","","","",""
"html-keyboard-response","143","388810","0.0-7.0-4.21","63cedc8a97a0bb604736baea","bdp_wmem","Wed Mar 15 2023 13:34:36 GMT-0600 (Mountain Daylight Time)","620189","Match,No Match","","287","","","","","","<div class='trialBorder'><div class='targDiv'><div class='tc'><img class='introPic' src='trustrating_stim/white_mw012.bmp'><br><font color='red'><strong>Keep</strong></font></div></div><div class='respDiv'><div class='respDivL'>Match<br>(e)</div><div class='respDivR'>No Match<br>(i)</div></div></div>","e","TARGET","3","trustrating_stim/white_mw091.bmp,trustrating_stim/white_mw010.bmp,trustrating_stim/white_mw085.bmp","1,0,1","noMatchFace","i","4500","trustrating_stim/white_mw012.bmp","red","Keep","REAL","0"
"html-keyboard-response","144","389318","0.0-7.0-5.21","63cedc8a97a0bb604736baea","bdp_wmem","Wed Mar 15 2023 13:34:36 GMT-0600 (Mountain Daylight Time)","620189","Match,No Match","","null","","","","","","<div class='trialBorder'><div class='vertical-center'><img src='img/error.jpg'></div><div class='respDiv'><div class='respDivL'><font style='color:orange'>Match<br>(e)</font></div><div class='respDivR'>No Match<br>(i)</div></div></div>","null","FEEDBACK","","","","","","","","","","",""
"html-keyboard-response","145","389822","0.0-7.0-1.22","63cedc8a97a0bb604736baea","bdp_wmem","Wed Mar 15 2023 13:34:36 GMT-0600 (Mountain Daylight Time)","620189","Match,No Match","","null","","","","","","<div class='trialBorder'><div class='vertical-center'><img src='img/fixation2_sml.jpg'</img></div></div>","null","FIX","","","","","","","","","","",""
"html-keyboard-response","146","392829","0.0-7.0-2.22","63cedc8a97a0bb604736baea","bdp_wmem","Wed Mar 15 2023 13:34:36 GMT-0600 (Mountain Daylight Time)","620189","Match,No Match","","null","","","","","","<div class='trialBorder'><div class='vertical-center'><img style='vertical-align:center; align:center' src='img/fixation2_sml.jpg'></div><div class='arrayDiv2'><div class='tl'><img class='introPic' src='trustrating_stim/white_mw078.bmp'><br><font color='green'><strong>Share</strong></font></div><div class='tr'><img class='introPic' src='trustrating_stim/white_mw012.bmp'><br><font color='red'><strong>Keep</strong></font></div></div></div>","null","ARRAY","2","trustrating_stim/white_mw078.bmp,trustrating_stim/white_mw012.bmp","1,0","noMatchFace","i","3000","","","","",""
"html-keyboard-response","147","396841","0.0-7.0-3.22","63cedc8a97a0bb604736baea","bdp_wmem","Wed Mar 15 2023 13:34:36 GMT-0600 (Mountain Daylight Time)","620189","Match,No Match","","null","","","","","","<div class='trialBorder'><div class='vertical-center'><img src='img/fixation2_sml.jpg'</img></div></div>","null","DELAY","","","","","","","","","","",""
"html-keyboard-response","148","397619","0.0-7.0-4.22","63cedc8a97a0bb604736baea","bdp_wmem","Wed Mar 15 2023 13:34:36 GMT-0600 (Mountain Daylight Time)","620189","Match,No Match","","776","","","","","","<div class='trialBorder'><div class='targDiv'><div class='tc'><img class='introPic' src='trustrating_stim/white_mw092.bmp'><br><font color='green'><strong>Share</strong></font></div></div><div class='respDiv'><div class='respDivL'>Match<br>(e)</div><div class='respDivR'>No Match<br>(i)</div></div></div>","e","TARGET","2","trustrating_stim/white_mw078.bmp,trustrating_stim/white_mw012.bmp","1,0","noMatchFace","i","3000","trustrating_stim/white_mw092.bmp","green","Share","REAL","0"
"html-keyboard-response","149","398130","0.0-7.0-5.22","63cedc8a97a0bb604736baea","bdp_wmem","Wed Mar 15 2023 13:34:36 GMT-0600 (Mountain Daylight Time)","620189","Match,No Match","","null","","","","","","<div class='trialBorder'><div class='vertical-center'><img src='img/error.jpg'></div><div class='respDiv'><div class='respDivL'><font style='color:orange'>Match<br>(e)</font></div><div class='respDivR'>No Match<br>(i)</div></div></div>","null","FEEDBACK","","","","","","","","","","",""
"html-keyboard-response","150","398636","0.0-7.0-1.23","63cedc8a97a0bb604736baea","bdp_wmem","Wed Mar 15 2023 13:34:36 GMT-0600 (Mountain Daylight Time)","620189","Match,No Match","","null","","","","","","<div class='trialBorder'><div class='vertical-center'><img src='img/fixation2_sml.jpg'</img></div></div>","null","FIX","","","","","","","","","","",""
"html-keyboard-response","151","400144","0.0-7.0-2.23","63cedc8a97a0bb604736baea","bdp_wmem","Wed Mar 15 2023 13:34:36 GMT-0600 (Mountain Daylight Time)","620189","Match,No Match","","null","","","","","","<div class='trialBorder'><div class='vertical-center'><img style='vertical-align:center; align:center' src='img/fixation2_sml.jpg'></div><div class='arrayDiv1'><div class='tc'><img class='introPic' src='trustrating_stim/white_mw078.bmp'><br><font color='green'><strong>Share</strong></font></div></div></div>","null","ARRAY","1","trustrating_stim/white_mw078.bmp","1","noMatchFace","i","1500","","","","",""
"html-keyboard-response","152","404153","0.0-7.0-3.23","63cedc8a97a0bb604736baea","bdp_wmem","Wed Mar 15 2023 13:34:36 GMT-0600 (Mountain Daylight Time)","620189","Match,No Match","","null","","","","","","<div class='trialBorder'><div class='vertical-center'><img src='img/fixation2_sml.jpg'</img></div></div>","null","DELAY","","","","","","","","","","",""
"html-keyboard-response","153","404827","0.0-7.0-4.23","63cedc8a97a0bb604736baea","bdp_wmem","Wed Mar 15 2023 13:34:36 GMT-0600 (Mountain Daylight Time)","620189","Match,No Match","","673","","","","","","<div class='trialBorder'><div class='targDiv'><div class='tc'><img class='introPic' src='trustrating_stim/white_mw003.bmp'><br><font color='green'><strong>Share</strong></font></div></div><div class='respDiv'><div class='respDivL'>Match<br>(e)</div><div class='respDivR'>No Match<br>(i)</div></div></div>","e","TARGET","1","trustrating_stim/white_mw078.bmp","1","noMatchFace","i","1500","trustrating_stim/white_mw003.bmp","green","Share","REAL","0"
"html-keyboard-response","154","405336","0.0-7.0-5.23","63cedc8a97a0bb604736baea","bdp_wmem","Wed Mar 15 2023 13:34:36 GMT-0600 (Mountain Daylight Time)","620189","Match,No Match","","null","","","","","","<div class='trialBorder'><div class='vertical-center'><img src='img/error.jpg'></div><div class='respDiv'><div class='respDivL'><font style='color:orange'>Match<br>(e)</font></div><div class='respDivR'>No Match<br>(i)</div></div></div>","null","FEEDBACK","","","","","","","","","","",""
"html-keyboard-response","155","405839","0.0-7.0-1.24","63cedc8a97a0bb604736baea","bdp_wmem","Wed Mar 15 2023 13:34:36 GMT-0600 (Mountain Daylight Time)","620189","Match,No Match","","null","","","","","","<div class='trialBorder'><div class='vertical-center'><img src='img/fixation2_sml.jpg'</img></div></div>","null","FIX","","","","","","","","","","",""
"html-keyboard-response","156","408846","0.0-7.0-2.24","63cedc8a97a0bb604736baea","bdp_wmem","Wed Mar 15 2023 13:34:36 GMT-0600 (Mountain Daylight Time)","620189","Match,No Match","","null","","","","","","<div class='trialBorder'><div class='vertical-center'><img style='vertical-align:center; align:center' src='img/fixation2_sml.jpg'></div><div class='arrayDiv2'><div class='tl'><img class='introPic' src='trustrating_stim/white_mw078.bmp'><br><font color='red'><strong>Keep</strong></font></div><div class='tr'><img class='introPic' src='trustrating_stim/white_mw092.bmp'><br><font color='green'><strong>Share</strong></font></div></div></div>","null","ARRAY","2","trustrating_stim/white_mw078.bmp,trustrating_stim/white_mw092.bmp","0,1","Match","e","3000","","","","",""
"html-keyboard-response","157","412857","0.0-7.0-3.24","63cedc8a97a0bb604736baea","bdp_wmem","Wed Mar 15 2023 13:34:36 GMT-0600 (Mountain Daylight Time)","620189","Match,No Match","","null","","","","","","<div class='trialBorder'><div class='vertical-center'><img src='img/fixation2_sml.jpg'</img></div></div>","null","DELAY","","","","","","","","","","",""
"html-keyboard-response","158","413169","0.0-7.0-4.24","63cedc8a97a0bb604736baea","bdp_wmem","Wed Mar 15 2023 13:34:36 GMT-0600 (Mountain Daylight Time)","620189","Match,No Match","","311","","","","","","<div class='trialBorder'><div class='targDiv'><div class='tc'><img class='introPic' src='trustrating_stim/white_mw092.bmp'><br><font color='green'><strong>Share</strong></font></div></div><div class='respDiv'><div class='respDivL'>Match<br>(e)</div><div class='respDivR'>No Match<br>(i)</div></div></div>","e","TARGET","2","trustrating_stim/white_mw078.bmp,trustrating_stim/white_mw092.bmp","0,1","Match","e","3000","trustrating_stim/white_mw092.bmp","green","Share","REAL","1"
"html-keyboard-response","159","413670","0.0-7.0-5.24","63cedc8a97a0bb604736baea","bdp_wmem","Wed Mar 15 2023 13:34:36 GMT-0600 (Mountain Daylight Time)","620189","Match,No Match","","null","","","","","","<div class='trialBorder'><div class='vertical-center'><img src='img/correct.jpg'></div><div class='respDiv'><div class='respDivL'><font style='color:orange'>Match<br>(e)</font></div><div class='respDivR'>No Match<br>(i)</div></div></div>","null","FEEDBACK","","","","","","","","","","",""
"html-keyboard-response","160","414175","0.0-7.0-1.25","63cedc8a97a0bb604736baea","bdp_wmem","Wed Mar 15 2023 13:34:36 GMT-0600 (Mountain Daylight Time)","620189","Match,No Match","","null","","","","","","<div class='trialBorder'><div class='vertical-center'><img src='img/fixation2_sml.jpg'</img></div></div>","null","FIX","","","","","","","","","","",""
"html-keyboard-response","161","415679","0.0-7.0-2.25","63cedc8a97a0bb604736baea","bdp_wmem","Wed Mar 15 2023 13:34:36 GMT-0600 (Mountain Daylight Time)","620189","Match,No Match","","null","","","","","","<div class='trialBorder'><div class='vertical-center'><img style='vertical-align:center; align:center' src='img/fixation2_sml.jpg'></div><div class='arrayDiv1'><div class='tc'><img class='introPic' src='trustrating_stim/white_mw092.bmp'><br><font color='red'><strong>Keep</strong></font></div></div></div>","null","ARRAY","1","trustrating_stim/white_mw092.bmp","0","noMatchOutcome","i","1500","","","","",""
"html-keyboard-response","162","419690","0.0-7.0-3.25","63cedc8a97a0bb604736baea","bdp_wmem","Wed Mar 15 2023 13:34:36 GMT-0600 (Mountain Daylight Time)","620189","Match,No Match","","null","","","","","","<div class='trialBorder'><div class='vertical-center'><img src='img/fixation2_sml.jpg'</img></div></div>","null","DELAY","","","","","","","","","","",""
"html-keyboard-response","163","419970","0.0-7.0-4.25","63cedc8a97a0bb604736baea","bdp_wmem","Wed Mar 15 2023 13:34:36 GMT-0600 (Mountain Daylight Time)","620189","Match,No Match","","279","","","","","","<div class='trialBorder'><div class='targDiv'><div class='tc'><img class='introPic' src='trustrating_stim/white_mw092.bmp'><br><font color='green'><strong>Share</strong></font></div></div><div class='respDiv'><div class='respDivL'>Match<br>(e)</div><div class='respDivR'>No Match<br>(i)</div></div></div>","e","TARGET","1","trustrating_stim/white_mw092.bmp","0","noMatchOutcome","i","1500","trustrating_stim/white_mw092.bmp","green","Share","REAL","0"
"html-keyboard-response","164","420474","0.0-7.0-5.25","63cedc8a97a0bb604736baea","bdp_wmem","Wed Mar 15 2023 13:34:36 GMT-0600 (Mountain Daylight Time)","620189","Match,No Match","","null","","","","","","<div class='trialBorder'><div class='vertical-center'><img src='img/error.jpg'></div><div class='respDiv'><div class='respDivL'><font style='color:orange'>Match<br>(e)</font></div><div class='respDivR'>No Match<br>(i)</div></div></div>","null","FEEDBACK","","","","","","","","","","",""
"html-keyboard-response","165","420984","0.0-7.0-1.26","63cedc8a97a0bb604736baea","bdp_wmem","Wed Mar 15 2023 13:34:36 GMT-0600 (Mountain Daylight Time)","620189","Match,No Match","","null","","","","","","<div class='trialBorder'><div class='vertical-center'><img src='img/fixation2_sml.jpg'</img></div></div>","null","FIX","","","","","","","","","","",""
"html-keyboard-response","166","423991","0.0-7.0-2.26","63cedc8a97a0bb604736baea","bdp_wmem","Wed Mar 15 2023 13:34:36 GMT-0600 (Mountain Daylight Time)","620189","Match,No Match","","null","","","","","","<div class='trialBorder'><div class='vertical-center'><img style='vertical-align:center; align:center' src='img/fixation2_sml.jpg'></div><div class='arrayDiv2'><div class='tl'><img class='introPic' src='trustrating_stim/white_mw091.bmp'><br><font color='red'><strong>Keep</strong></font></div><div class='tr'><img class='introPic' src='trustrating_stim/white_mw013.bmp'><br><font color='green'><strong>Share</strong></font></div></div></div>","null","ARRAY","2","trustrating_stim/white_mw091.bmp,trustrating_stim/white_mw013.bmp","0,1","noMatchOutcome","i","3000","","","","",""
"html-keyboard-response","167","428003","0.0-7.0-3.26","63cedc8a97a0bb604736baea","bdp_wmem","Wed Mar 15 2023 13:34:36 GMT-0600 (Mountain Daylight Time)","620189","Match,No Match","","null","","","","","","<div class='trialBorder'><div class='vertical-center'><img src='img/fixation2_sml.jpg'</img></div></div>","null","DELAY","","","","","","","","","","",""
"html-keyboard-response","168","429374","0.0-7.0-4.26","63cedc8a97a0bb604736baea","bdp_wmem","Wed Mar 15 2023 13:34:36 GMT-0600 (Mountain Daylight Time)","620189","Match,No Match","","1370","","","","","","<div class='trialBorder'><div class='targDiv'><div class='tc'><img class='introPic' src='trustrating_stim/white_mw091.bmp'><br><font color='green'><strong>Share</strong></font></div></div><div class='respDiv'><div class='respDivL'>Match<br>(e)</div><div class='respDivR'>No Match<br>(i)</div></div></div>","i","TARGET","2","trustrating_stim/white_mw091.bmp,trustrating_stim/white_mw013.bmp","0,1","noMatchOutcome","i","3000","trustrating_stim/white_mw091.bmp","green","Share","REAL","1"
"html-keyboard-response","169","429882","0.0-7.0-5.26","63cedc8a97a0bb604736baea","bdp_wmem","Wed Mar 15 2023 13:34:36 GMT-0600 (Mountain Daylight Time)","620189","Match,No Match","","null","","","","","","<div class='trialBorder'><div class='vertical-center'><img src='img/correct.jpg'></div><div class='respDiv'><div class='respDivL'>Match<br>(e)</div><div class='respDivR'><font style='color:orange'>No Match<br>(i)</font></div></div></div>","null","FEEDBACK","","","","","","","","","","",""
"html-keyboard-response","170","430395","0.0-7.0-1.27","63cedc8a97a0bb604736baea","bdp_wmem","Wed Mar 15 2023 13:34:36 GMT-0600 (Mountain Daylight Time)","620189","Match,No Match","","null","","","","","","<div class='trialBorder'><div class='vertical-center'><img src='img/fixation2_sml.jpg'</img></div></div>","null","FIX","","","","","","","","","","",""
"html-keyboard-response","171","431904","0.0-7.0-2.27","63cedc8a97a0bb604736baea","bdp_wmem","Wed Mar 15 2023 13:34:36 GMT-0600 (Mountain Daylight Time)","620189","Match,No Match","","null","","","","","","<div class='trialBorder'><div class='vertical-center'><img style='vertical-align:center; align:center' src='img/fixation2_sml.jpg'></div><div class='arrayDiv1'><div class='tc'><img class='introPic' src='trustrating_stim/white_mw070.bmp'><br><font color='green'><strong>Share</strong></font></div></div></div>","null","ARRAY","1","trustrating_stim/white_mw070.bmp","1","Match","e","1500","","","","",""
"html-keyboard-response","172","435915","0.0-7.0-3.27","63cedc8a97a0bb604736baea","bdp_wmem","Wed Mar 15 2023 13:34:36 GMT-0600 (Mountain Daylight Time)","620189","Match,No Match","","null","","","","","","<div class='trialBorder'><div class='vertical-center'><img src='img/fixation2_sml.jpg'</img></div></div>","null","DELAY","","","","","","","","","","",""
"html-keyboard-response","173","438972","0.0-7.0-4.27","63cedc8a97a0bb604736baea","bdp_wmem","Wed Mar 15 2023 13:34:36 GMT-0600 (Mountain Daylight Time)","620189","Match,No Match","","3055","","","","","","<div class='trialBorder'><div class='targDiv'><div class='tc'><img class='introPic' src='trustrating_stim/white_mw070.bmp'><br><font color='green'><strong>Share</strong></font></div></div><div class='respDiv'><div class='respDivL'>Match<br>(e)</div><div class='respDivR'>No Match<br>(i)</div></div></div>","e","TARGET","1","trustrating_stim/white_mw070.bmp","1","Match","e","1500","trustrating_stim/white_mw070.bmp","green","Share","REAL","1"
"html-keyboard-response","174","439480","0.0-7.0-5.27","63cedc8a97a0bb604736baea","bdp_wmem","Wed Mar 15 2023 13:34:36 GMT-0600 (Mountain Daylight Time)","620189","Match,No Match","","null","","","","","","<div class='trialBorder'><div class='vertical-center'><img src='img/correct.jpg'></div><div class='respDiv'><div class='respDivL'><font style='color:orange'>Match<br>(e)</font></div><div class='respDivR'>No Match<br>(i)</div></div></div>","null","FEEDBACK","","","","","","","","","","",""
"html-keyboard-response","175","439983","0.0-7.0-1.28","63cedc8a97a0bb604736baea","bdp_wmem","Wed Mar 15 2023 13:34:36 GMT-0600 (Mountain Daylight Time)","620189","Match,No Match","","null","","","","","","<div class='trialBorder'><div class='vertical-center'><img src='img/fixation2_sml.jpg'</img></div></div>","null","FIX","","","","","","","","","","",""
"html-keyboard-response","176","441488","0.0-7.0-2.28","63cedc8a97a0bb604736baea","bdp_wmem","Wed Mar 15 2023 13:34:36 GMT-0600 (Mountain Daylight Time)","620189","Match,No Match","","null","","","","","","<div class='trialBorder'><div class='vertical-center'><img style='vertical-align:center; align:center' src='img/fixation2_sml.jpg'></div><div class='arrayDiv1'><div class='tc'><img class='introPic' src='trustrating_stim/white_mw078.bmp'><br><font color='green'><strong>Share</strong></font></div></div></div>","null","ARRAY","1","trustrating_stim/white_mw078.bmp","1","Match","e","1500","","","","",""
"html-keyboard-response","177","445500","0.0-7.0-3.28","63cedc8a97a0bb604736baea","bdp_wmem","Wed Mar 15 2023 13:34:36 GMT-0600 (Mountain Daylight Time)","620189","Match,No Match","","null","","","","","","<div class='trialBorder'><div class='vertical-center'><img src='img/fixation2_sml.jpg'</img></div></div>","null","DELAY","","","","","","","","","","",""
"html-keyboard-response","178","446143","0.0-7.0-4.28","63cedc8a97a0bb604736baea","bdp_wmem","Wed Mar 15 2023 13:34:36 GMT-0600 (Mountain Daylight Time)","620189","Match,No Match","","642","","","","","","<div class='trialBorder'><div class='targDiv'><div class='tc'><img class='introPic' src='trustrating_stim/white_mw078.bmp'><br><font color='green'><strong>Share</strong></font></div></div><div class='respDiv'><div class='respDivL'>Match<br>(e)</div><div class='respDivR'>No Match<br>(i)</div></div></div>","e","TARGET","1","trustrating_stim/white_mw078.bmp","1","Match","e","1500","trustrating_stim/white_mw078.bmp","green","Share","REAL","1"
"html-keyboard-response","179","446649","0.0-7.0-5.28","63cedc8a97a0bb604736baea","bdp_wmem","Wed Mar 15 2023 13:34:36 GMT-0600 (Mountain Daylight Time)","620189","Match,No Match","","null","","","","","","<div class='trialBorder'><div class='vertical-center'><img src='img/correct.jpg'></div><div class='respDiv'><div class='respDivL'><font style='color:orange'>Match<br>(e)</font></div><div class='respDivR'>No Match<br>(i)</div></div></div>","null","FEEDBACK","","","","","","","","","","",""
"html-keyboard-response","180","447154","0.0-7.0-1.29","63cedc8a97a0bb604736baea","bdp_wmem","Wed Mar 15 2023 13:34:36 GMT-0600 (Mountain Daylight Time)","620189","Match,No Match","","null","","","","","","<div class='trialBorder'><div class='vertical-center'><img src='img/fixation2_sml.jpg'</img></div></div>","null","FIX","","","","","","","","","","",""
"html-keyboard-response","181","448664","0.0-7.0-2.29","63cedc8a97a0bb604736baea","bdp_wmem","Wed Mar 15 2023 13:34:36 GMT-0600 (Mountain Daylight Time)","620189","Match,No Match","","null","","","","","","<div class='trialBorder'><div class='vertical-center'><img style='vertical-align:center; align:center' src='img/fixation2_sml.jpg'></div><div class='arrayDiv1'><div class='tc'><img class='introPic' src='trustrating_stim/white_mw085.bmp'><br><font color='red'><strong>Keep</strong></font></div></div></div>","null","ARRAY","1","trustrating_stim/white_mw085.bmp","0","Match","e","1500","","","","",""
"html-keyboard-response","182","452675","0.0-7.0-3.29","63cedc8a97a0bb604736baea","bdp_wmem","Wed Mar 15 2023 13:34:36 GMT-0600 (Mountain Daylight Time)","620189","Match,No Match","","null","","","","","","<div class='trialBorder'><div class='vertical-center'><img src='img/fixation2_sml.jpg'</img></div></div>","null","DELAY","","","","","","","","","","",""
"html-keyboard-response","183","453112","0.0-7.0-4.29","63cedc8a97a0bb604736baea","bdp_wmem","Wed Mar 15 2023 13:34:36 GMT-0600 (Mountain Daylight Time)","620189","Match,No Match","","436","","","","","","<div class='trialBorder'><div class='targDiv'><div class='tc'><img class='introPic' src='trustrating_stim/white_mw085.bmp'><br><font color='red'><strong>Keep</strong></font></div></div><div class='respDiv'><div class='respDivL'>Match<br>(e)</div><div class='respDivR'>No Match<br>(i)</div></div></div>","e","TARGET","1","trustrating_stim/white_mw085.bmp","0","Match","e","1500","trustrating_stim/white_mw085.bmp","red","Keep","REAL","1"
"html-keyboard-response","184","453615","0.0-7.0-5.29","63cedc8a97a0bb604736baea","bdp_wmem","Wed Mar 15 2023 13:34:36 GMT-0600 (Mountain Daylight Time)","620189","Match,No Match","","null","","","","","","<div class='trialBorder'><div class='vertical-center'><img src='img/correct.jpg'></div><div class='respDiv'><div class='respDivL'><font style='color:orange'>Match<br>(e)</font></div><div class='respDivR'>No Match<br>(i)</div></div></div>","null","FEEDBACK","","","","","","","","","","",""
"html-keyboard-response","185","454120","0.0-7.0-1.30","63cedc8a97a0bb604736baea","bdp_wmem","Wed Mar 15 2023 13:34:36 GMT-0600 (Mountain Daylight Time)","620189","Match,No Match","","null","","","","","","<div class='trialBorder'><div class='vertical-center'><img src='img/fixation2_sml.jpg'</img></div></div>","null","FIX","","","","","","","","","","",""
"html-keyboard-response","186","455624","0.0-7.0-2.30","63cedc8a97a0bb604736baea","bdp_wmem","Wed Mar 15 2023 13:34:36 GMT-0600 (Mountain Daylight Time)","620189","Match,No Match","","null","","","","","","<div class='trialBorder'><div class='vertical-center'><img style='vertical-align:center; align:center' src='img/fixation2_sml.jpg'></div><div class='arrayDiv1'><div class='tc'><img class='introPic' src='trustrating_stim/white_mw070.bmp'><br><font color='red'><strong>Keep</strong></font></div></div></div>","null","ARRAY","1","trustrating_stim/white_mw070.bmp","0","noMatchOutcome","i","1500","","","","",""
"html-keyboard-response","187","459635","0.0-7.0-3.30","63cedc8a97a0bb604736baea","bdp_wmem","Wed Mar 15 2023 13:34:36 GMT-0600 (Mountain Daylight Time)","620189","Match,No Match","","null","","","","","","<div class='trialBorder'><div class='vertical-center'><img src='img/fixation2_sml.jpg'</img></div></div>","null","DELAY","","","","","","","","","","",""
