"trial_type","trial_index","time_elapsed","internal_node_id","subject_id","task","startTime","totalTime","labels","view_history","rt","event","trial","time","trialtype","success","numBlurs","stimulus","key_press","stimType","arraySize","arrayFaces","arrayOutcomes","matchType","corrResp","arrayDur","targFace","targCol","targOutcome","trialType","corr"
"pavlovia","0","2","0.0-0.0","610075c1ef04d1f734032f69","bdp_wmem","Tue Mar 14 2023 00:41:26 GMT-0400 (Eastern Daylight Time)","548810","Match,No Match","","","","","","","","","","","","","","","","","","","","","",""
"instructions","1","4649","0.0-1.0","610075c1ef04d1f734032f69","bdp_wmem","Tue Mar 14 2023 00:41:26 GMT-0400 (Eastern Daylight Time)","548810","Match,No Match","[{""page_index"":0,""viewing_time"":4647}]","4647","","","","","","","","","","","","","","","","","","","",""
"","","","","610075c1ef04d1f734032f69","bdp_wmem","Tue Mar 14 2023 00:41:26 GMT-0400 (Eastern Daylight Time)","548810","Match,No Match","","","fullscreenenter","2","5960","fullscreenenter","","","","","","","","","","","","","","","",""
"fullscreen","2","6946","0.0-2.0","610075c1ef04d1f734032f69","bdp_wmem","Tue Mar 14 2023 00:41:26 GMT-0400 (Eastern Daylight Time)","548810","Match,No Match","","","","","","","true","","","","","","","","","","","","","","",""
"","","","","610075c1ef04d1f734032f69","bdp_wmem","Tue Mar 14 2023 00:41:26 GMT-0400 (Eastern Daylight Time)","548810","Match,No Match","","","blur","3","19836","blurevent","","1","","","","","","","","","","","","","",""
"","","","","610075c1ef04d1f734032f69","bdp_wmem","Tue Mar 14 2023 00:41:26 GMT-0400 (Eastern Daylight Time)","548810","Match,No Match","","","focus","3","21004","focusevent","","","","","","","","","","","","","","","",""
"instructions","3","46620","0.0-4.0","610075c1ef04d1f734032f69","bdp_wmem","Tue Mar 14 2023 00:41:26 GMT-0400 (Eastern Daylight Time)","548810","Match,No Match","[{""page_index"":0,""viewing_time"":14643},{""page_index"":1,""viewing_time"":16541},{""page_index"":2,""viewing_time"":6156},{""page_index"":3,""viewing_time"":1746},{""page_index"":4,""viewing_time"":584}]","39670","","","","","","","","","","","","","","","","","","","",""
"html-keyboard-response","4","47124","0.0-5.0-1.0","610075c1ef04d1f734032f69","bdp_wmem","Tue Mar 14 2023 00:41:26 GMT-0400 (Eastern Daylight Time)","548810","Match,No Match","","null","","","","","","","<div class='trialBorder'><div class='vertical-center'><img src='img/fixation2_sml.jpg'</img></div></div>","null","FIX","","","","","","","","","","",""
"html-keyboard-response","5","51628","0.0-5.0-2.0","610075c1ef04d1f734032f69","bdp_wmem","Tue Mar 14 2023 00:41:26 GMT-0400 (Eastern Daylight Time)","548810","Match,No Match","","null","","","","","","","<div class='trialBorder'><div class='vertical-center'><img style='vertical-align:center; align:center' src='img/fixation2_sml.jpg'></div><div class='arrayDiv3'><div class='tl'><img class='introPic' src='trustrating_stim/white_mw091.bmp'><br><font color='red'><strong>Keep</strong></font></div><div class='tc'><img class='introPic' src='trustrating_stim/white_mw085.bmp'><br><font color='green'><strong>Share</strong></font></div><div class='tr'><img class='introPic' src='trustrating_stim/white_mw040.bmp'><br><font color='green'><strong>Share</strong></font></div></div></div>","null","ARRAY","3","trustrating_stim/white_mw091.bmp,trustrating_stim/white_mw085.bmp,trustrating_stim/white_mw040.bmp","0,1,1","Match","e","4500","","","","",""
"html-keyboard-response","6","55631","0.0-5.0-3.0","610075c1ef04d1f734032f69","bdp_wmem","Tue Mar 14 2023 00:41:26 GMT-0400 (Eastern Daylight Time)","548810","Match,No Match","","null","","","","","","","<div class='trialBorder'><div class='vertical-center'><img src='img/fixation2_sml.jpg'</img></div></div>","null","DELAY","","","","","","","","","","",""
"html-keyboard-response","7","57239","0.0-5.0-4.0","610075c1ef04d1f734032f69","bdp_wmem","Tue Mar 14 2023 00:41:26 GMT-0400 (Eastern Daylight Time)","548810","Match,No Match","","1605","","","","","","","<div class='trialBorder'><div class='targDiv'><div class='tc'><img class='introPic' src='trustrating_stim/white_mw091.bmp'><br><font color='red'><strong>Keep</strong></font></div></div><div class='respDiv'><div class='respDivL'>Match<br>(e)</div><div class='respDivR'>No Match<br>(i)</div></div></div>","e","TARGET","3","trustrating_stim/white_mw091.bmp,trustrating_stim/white_mw085.bmp,trustrating_stim/white_mw040.bmp","0,1,1","Match","e","4500","trustrating_stim/white_mw091.bmp","red","Keep","PRACTICE","1"
"html-keyboard-response","8","57741","0.0-5.0-5.0","610075c1ef04d1f734032f69","bdp_wmem","Tue Mar 14 2023 00:41:26 GMT-0400 (Eastern Daylight Time)","548810","Match,No Match","","null","","","","","","","<div class='trialBorder'><div class='vertical-center'><img src='img/correct.jpg'></div><div class='respDiv'><div class='respDivL'><font style='color:orange'>Match<br>(e)</font></div><div class='respDivR'>No Match<br>(i)</div></div></div>","null","FEEDBACK","","","","","","","","","","",""
"html-keyboard-response","9","58244","0.0-5.0-1.1","610075c1ef04d1f734032f69","bdp_wmem","Tue Mar 14 2023 00:41:26 GMT-0400 (Eastern Daylight Time)","548810","Match,No Match","","null","","","","","","","<div class='trialBorder'><div class='vertical-center'><img src='img/fixation2_sml.jpg'</img></div></div>","null","FIX","","","","","","","","","","",""
"html-keyboard-response","10","61246","0.0-5.0-2.1","610075c1ef04d1f734032f69","bdp_wmem","Tue Mar 14 2023 00:41:26 GMT-0400 (Eastern Daylight Time)","548810","Match,No Match","","null","","","","","","","<div class='trialBorder'><div class='vertical-center'><img style='vertical-align:center; align:center' src='img/fixation2_sml.jpg'></div><div class='arrayDiv2'><div class='tl'><img class='introPic' src='trustrating_stim/white_mw040.bmp'><br><font color='green'><strong>Share</strong></font></div><div class='tr'><img class='introPic' src='trustrating_stim/white_mw013.bmp'><br><font color='red'><strong>Keep</strong></font></div></div></div>","null","ARRAY","2","trustrating_stim/white_mw040.bmp,trustrating_stim/white_mw013.bmp","1,0","Match","e","3000","","","","",""
"html-keyboard-response","11","65248","0.0-5.0-3.1","610075c1ef04d1f734032f69","bdp_wmem","Tue Mar 14 2023 00:41:26 GMT-0400 (Eastern Daylight Time)","548810","Match,No Match","","null","","","","","","","<div class='trialBorder'><div class='vertical-center'><img src='img/fixation2_sml.jpg'</img></div></div>","null","DELAY","","","","","","","","","","",""
"html-keyboard-response","12","65946","0.0-5.0-4.1","610075c1ef04d1f734032f69","bdp_wmem","Tue Mar 14 2023 00:41:26 GMT-0400 (Eastern Daylight Time)","548810","Match,No Match","","697","","","","","","","<div class='trialBorder'><div class='targDiv'><div class='tc'><img class='introPic' src='trustrating_stim/white_mw013.bmp'><br><font color='red'><strong>Keep</strong></font></div></div><div class='respDiv'><div class='respDivL'>Match<br>(e)</div><div class='respDivR'>No Match<br>(i)</div></div></div>","i","TARGET","2","trustrating_stim/white_mw040.bmp,trustrating_stim/white_mw013.bmp","1,0","Match","e","3000","trustrating_stim/white_mw013.bmp","red","Keep","PRACTICE","0"
"html-keyboard-response","13","66447","0.0-5.0-5.1","610075c1ef04d1f734032f69","bdp_wmem","Tue Mar 14 2023 00:41:26 GMT-0400 (Eastern Daylight Time)","548810","Match,No Match","","null","","","","","","","<div class='trialBorder'><div class='vertical-center'><img src='img/error.jpg'></div><div class='respDiv'><div class='respDivL'>Match<br>(e)</div><div class='respDivR'><font style='color:orange'>No Match<br>(i)</font></div></div></div>","null","FEEDBACK","","","","","","","","","","",""
"html-keyboard-response","14","66949","0.0-5.0-1.2","610075c1ef04d1f734032f69","bdp_wmem","Tue Mar 14 2023 00:41:26 GMT-0400 (Eastern Daylight Time)","548810","Match,No Match","","null","","","","","","","<div class='trialBorder'><div class='vertical-center'><img src='img/fixation2_sml.jpg'</img></div></div>","null","FIX","","","","","","","","","","",""
"html-keyboard-response","15","71452","0.0-5.0-2.2","610075c1ef04d1f734032f69","bdp_wmem","Tue Mar 14 2023 00:41:26 GMT-0400 (Eastern Daylight Time)","548810","Match,No Match","","null","","","","","","","<div class='trialBorder'><div class='vertical-center'><img style='vertical-align:center; align:center' src='img/fixation2_sml.jpg'></div><div class='arrayDiv3'><div class='tl'><img class='introPic' src='trustrating_stim/white_mw042.bmp'><br><font color='green'><strong>Share</strong></font></div><div class='tc'><img class='introPic' src='trustrating_stim/white_mw010.bmp'><br><font color='red'><strong>Keep</strong></font></div><div class='tr'><img class='introPic' src='trustrating_stim/white_mw040.bmp'><br><font color='green'><strong>Share</strong></font></div></div></div>","null","ARRAY","3","trustrating_stim/white_mw042.bmp,trustrating_stim/white_mw010.bmp,trustrating_stim/white_mw040.bmp","1,0,1","noMatchOutcome","i","4500","","","","",""
"html-keyboard-response","16","75454","0.0-5.0-3.2","610075c1ef04d1f734032f69","bdp_wmem","Tue Mar 14 2023 00:41:26 GMT-0400 (Eastern Daylight Time)","548810","Match,No Match","","null","","","","","","","<div class='trialBorder'><div class='vertical-center'><img src='img/fixation2_sml.jpg'</img></div></div>","null","DELAY","","","","","","","","","","",""
"html-keyboard-response","17","76886","0.0-5.0-4.2","610075c1ef04d1f734032f69","bdp_wmem","Tue Mar 14 2023 00:41:26 GMT-0400 (Eastern Daylight Time)","548810","Match,No Match","","1429","","","","","","","<div class='trialBorder'><div class='targDiv'><div class='tc'><img class='introPic' src='trustrating_stim/white_mw010.bmp'><br><font color='green'><strong>Share</strong></font></div></div><div class='respDiv'><div class='respDivL'>Match<br>(e)</div><div class='respDivR'>No Match<br>(i)</div></div></div>","e","TARGET","3","trustrating_stim/white_mw042.bmp,trustrating_stim/white_mw010.bmp,trustrating_stim/white_mw040.bmp","1,0,1","noMatchOutcome","i","4500","trustrating_stim/white_mw010.bmp","green","Share","PRACTICE","0"
"html-keyboard-response","18","77388","0.0-5.0-5.2","610075c1ef04d1f734032f69","bdp_wmem","Tue Mar 14 2023 00:41:26 GMT-0400 (Eastern Daylight Time)","548810","Match,No Match","","null","","","","","","","<div class='trialBorder'><div class='vertical-center'><img src='img/error.jpg'></div><div class='respDiv'><div class='respDivL'><font style='color:orange'>Match<br>(e)</font></div><div class='respDivR'>No Match<br>(i)</div></div></div>","null","FEEDBACK","","","","","","","","","","",""
"html-keyboard-response","19","77889","0.0-5.0-1.3","610075c1ef04d1f734032f69","bdp_wmem","Tue Mar 14 2023 00:41:26 GMT-0400 (Eastern Daylight Time)","548810","Match,No Match","","null","","","","","","","<div class='trialBorder'><div class='vertical-center'><img src='img/fixation2_sml.jpg'</img></div></div>","null","FIX","","","","","","","","","","",""
"html-keyboard-response","20","80892","0.0-5.0-2.3","610075c1ef04d1f734032f69","bdp_wmem","Tue Mar 14 2023 00:41:26 GMT-0400 (Eastern Daylight Time)","548810","Match,No Match","","null","","","","","","","<div class='trialBorder'><div class='vertical-center'><img style='vertical-align:center; align:center' src='img/fixation2_sml.jpg'></div><div class='arrayDiv2'><div class='tl'><img class='introPic' src='trustrating_stim/white_mw085.bmp'><br><font color='green'><strong>Share</strong></font></div><div class='tr'><img class='introPic' src='trustrating_stim/white_mw092.bmp'><br><font color='red'><strong>Keep</strong></font></div></div></div>","null","ARRAY","2","trustrating_stim/white_mw085.bmp,trustrating_stim/white_mw092.bmp","1,0","noMatchOutcome","i","3000","","","","",""
"html-keyboard-response","21","84893","0.0-5.0-3.3","610075c1ef04d1f734032f69","bdp_wmem","Tue Mar 14 2023 00:41:26 GMT-0400 (Eastern Daylight Time)","548810","Match,No Match","","null","","","","","","","<div class='trialBorder'><div class='vertical-center'><img src='img/fixation2_sml.jpg'</img></div></div>","null","DELAY","","","","","","","","","","",""
"html-keyboard-response","22","89748","0.0-5.0-4.3","610075c1ef04d1f734032f69","bdp_wmem","Tue Mar 14 2023 00:41:26 GMT-0400 (Eastern Daylight Time)","548810","Match,No Match","","4854","","","","","","","<div class='trialBorder'><div class='targDiv'><div class='tc'><img class='introPic' src='trustrating_stim/white_mw085.bmp'><br><font color='red'><strong>Keep</strong></font></div></div><div class='respDiv'><div class='respDivL'>Match<br>(e)</div><div class='respDivR'>No Match<br>(i)</div></div></div>","i","TARGET","2","trustrating_stim/white_mw085.bmp,trustrating_stim/white_mw092.bmp","1,0","noMatchOutcome","i","3000","trustrating_stim/white_mw085.bmp","red","Keep","PRACTICE","1"
"html-keyboard-response","23","90250","0.0-5.0-5.3","610075c1ef04d1f734032f69","bdp_wmem","Tue Mar 14 2023 00:41:26 GMT-0400 (Eastern Daylight Time)","548810","Match,No Match","","null","","","","","","","<div class='trialBorder'><div class='vertical-center'><img src='img/correct.jpg'></div><div class='respDiv'><div class='respDivL'>Match<br>(e)</div><div class='respDivR'><font style='color:orange'>No Match<br>(i)</font></div></div></div>","null","FEEDBACK","","","","","","","","","","",""
"html-keyboard-response","24","90753","0.0-5.0-1.4","610075c1ef04d1f734032f69","bdp_wmem","Tue Mar 14 2023 00:41:26 GMT-0400 (Eastern Daylight Time)","548810","Match,No Match","","null","","","","","","","<div class='trialBorder'><div class='vertical-center'><img src='img/fixation2_sml.jpg'</img></div></div>","null","FIX","","","","","","","","","","",""
"html-keyboard-response","25","92256","0.0-5.0-2.4","610075c1ef04d1f734032f69","bdp_wmem","Tue Mar 14 2023 00:41:26 GMT-0400 (Eastern Daylight Time)","548810","Match,No Match","","null","","","","","","","<div class='trialBorder'><div class='vertical-center'><img style='vertical-align:center; align:center' src='img/fixation2_sml.jpg'></div><div class='arrayDiv1'><div class='tc'><img class='introPic' src='trustrating_stim/white_mw012.bmp'><br><font color='green'><strong>Share</strong></font></div></div></div>","null","ARRAY","1","trustrating_stim/white_mw012.bmp","1","Match","e","1500","","","","",""
"html-keyboard-response","26","96258","0.0-5.0-3.4","610075c1ef04d1f734032f69","bdp_wmem","Tue Mar 14 2023 00:41:26 GMT-0400 (Eastern Daylight Time)","548810","Match,No Match","","null","","","","","","","<div class='trialBorder'><div class='vertical-center'><img src='img/fixation2_sml.jpg'</img></div></div>","null","DELAY","","","","","","","","","","",""
"html-keyboard-response","27","97247","0.0-5.0-4.4","610075c1ef04d1f734032f69","bdp_wmem","Tue Mar 14 2023 00:41:26 GMT-0400 (Eastern Daylight Time)","548810","Match,No Match","","987","","","","","","","<div class='trialBorder'><div class='targDiv'><div class='tc'><img class='introPic' src='trustrating_stim/white_mw012.bmp'><br><font color='green'><strong>Share</strong></font></div></div><div class='respDiv'><div class='respDivL'>Match<br>(e)</div><div class='respDivR'>No Match<br>(i)</div></div></div>","e","TARGET","1","trustrating_stim/white_mw012.bmp","1","Match","e","1500","trustrating_stim/white_mw012.bmp","green","Share","PRACTICE","1"
"html-keyboard-response","28","97748","0.0-5.0-5.4","610075c1ef04d1f734032f69","bdp_wmem","Tue Mar 14 2023 00:41:26 GMT-0400 (Eastern Daylight Time)","548810","Match,No Match","","null","","","","","","","<div class='trialBorder'><div class='vertical-center'><img src='img/correct.jpg'></div><div class='respDiv'><div class='respDivL'><font style='color:orange'>Match<br>(e)</font></div><div class='respDivR'>No Match<br>(i)</div></div></div>","null","FEEDBACK","","","","","","","","","","",""
"html-keyboard-response","29","98250","0.0-5.0-1.5","610075c1ef04d1f734032f69","bdp_wmem","Tue Mar 14 2023 00:41:26 GMT-0400 (Eastern Daylight Time)","548810","Match,No Match","","null","","","","","","","<div class='trialBorder'><div class='vertical-center'><img src='img/fixation2_sml.jpg'</img></div></div>","null","FIX","","","","","","","","","","",""
"html-keyboard-response","30","99753","0.0-5.0-2.5","610075c1ef04d1f734032f69","bdp_wmem","Tue Mar 14 2023 00:41:26 GMT-0400 (Eastern Daylight Time)","548810","Match,No Match","","null","","","","","","","<div class='trialBorder'><div class='vertical-center'><img style='vertical-align:center; align:center' src='img/fixation2_sml.jpg'></div><div class='arrayDiv1'><div class='tc'><img class='introPic' src='trustrating_stim/white_mw012.bmp'><br><font color='red'><strong>Keep</strong></font></div></div></div>","null","ARRAY","1","trustrating_stim/white_mw012.bmp","0","noMatchFace","i","1500","","","","",""
"html-keyboard-response","31","103754","0.0-5.0-3.5","610075c1ef04d1f734032f69","bdp_wmem","Tue Mar 14 2023 00:41:26 GMT-0400 (Eastern Daylight Time)","548810","Match,No Match","","null","","","","","","","<div class='trialBorder'><div class='vertical-center'><img src='img/fixation2_sml.jpg'</img></div></div>","null","DELAY","","","","","","","","","","",""
"html-keyboard-response","32","104876","0.0-5.0-4.5","610075c1ef04d1f734032f69","bdp_wmem","Tue Mar 14 2023 00:41:26 GMT-0400 (Eastern Daylight Time)","548810","Match,No Match","","1119","","","","","","","<div class='trialBorder'><div class='targDiv'><div class='tc'><img class='introPic' src='trustrating_stim/white_mw091.bmp'><br><font color='red'><strong>Keep</strong></font></div></div><div class='respDiv'><div class='respDivL'>Match<br>(e)</div><div class='respDivR'>No Match<br>(i)</div></div></div>","i","TARGET","1","trustrating_stim/white_mw012.bmp","0","noMatchFace","i","1500","trustrating_stim/white_mw091.bmp","red","Keep","PRACTICE","1"
"html-keyboard-response","33","105377","0.0-5.0-5.5","610075c1ef04d1f734032f69","bdp_wmem","Tue Mar 14 2023 00:41:26 GMT-0400 (Eastern Daylight Time)","548810","Match,No Match","","null","","","","","","","<div class='trialBorder'><div class='vertical-center'><img src='img/correct.jpg'></div><div class='respDiv'><div class='respDivL'>Match<br>(e)</div><div class='respDivR'><font style='color:orange'>No Match<br>(i)</font></div></div></div>","null","FEEDBACK","","","","","","","","","","",""
"instructions","34","107299","0.0-6.0","610075c1ef04d1f734032f69","bdp_wmem","Tue Mar 14 2023 00:41:26 GMT-0400 (Eastern Daylight Time)","548810","Match,No Match","[{""page_index"":0,""viewing_time"":1922}]","1922","","","","","","","","","","","","","","","","","","","",""
"html-keyboard-response","35","107802","0.0-7.0-1.0","610075c1ef04d1f734032f69","bdp_wmem","Tue Mar 14 2023 00:41:26 GMT-0400 (Eastern Daylight Time)","548810","Match,No Match","","null","","","","","","","<div class='trialBorder'><div class='vertical-center'><img src='img/fixation2_sml.jpg'</img></div></div>","null","FIX","","","","","","","","","","",""
"html-keyboard-response","36","112303","0.0-7.0-2.0","610075c1ef04d1f734032f69","bdp_wmem","Tue Mar 14 2023 00:41:26 GMT-0400 (Eastern Daylight Time)","548810","Match,No Match","","null","","","","","","","<div class='trialBorder'><div class='vertical-center'><img style='vertical-align:center; align:center' src='img/fixation2_sml.jpg'></div><div class='arrayDiv3'><div class='tl'><img class='introPic' src='trustrating_stim/white_mw013.bmp'><br><font color='green'><strong>Share</strong></font></div><div class='tc'><img class='introPic' src='trustrating_stim/white_mw092.bmp'><br><font color='red'><strong>Keep</strong></font></div><div class='tr'><img class='introPic' src='trustrating_stim/white_mw040.bmp'><br><font color='red'><strong>Keep</strong></font></div></div></div>","null","ARRAY","3","trustrating_stim/white_mw013.bmp,trustrating_stim/white_mw092.bmp,trustrating_stim/white_mw040.bmp","1,0,0","noMatchOutcome","i","4500","","","","",""
"html-keyboard-response","37","116305","0.0-7.0-3.0","610075c1ef04d1f734032f69","bdp_wmem","Tue Mar 14 2023 00:41:26 GMT-0400 (Eastern Daylight Time)","548810","Match,No Match","","null","","","","","","","<div class='trialBorder'><div class='vertical-center'><img src='img/fixation2_sml.jpg'</img></div></div>","null","DELAY","","","","","","","","","","",""
"html-keyboard-response","38","119255","0.0-7.0-4.0","610075c1ef04d1f734032f69","bdp_wmem","Tue Mar 14 2023 00:41:26 GMT-0400 (Eastern Daylight Time)","548810","Match,No Match","","2950","","","","","","","<div class='trialBorder'><div class='targDiv'><div class='tc'><img class='introPic' src='trustrating_stim/white_mw040.bmp'><br><font color='green'><strong>Share</strong></font></div></div><div class='respDiv'><div class='respDivL'>Match<br>(e)</div><div class='respDivR'>No Match<br>(i)</div></div></div>","e","TARGET","3","trustrating_stim/white_mw013.bmp,trustrating_stim/white_mw092.bmp,trustrating_stim/white_mw040.bmp","1,0,0","noMatchOutcome","i","4500","trustrating_stim/white_mw040.bmp","green","Share","REAL","0"
"html-keyboard-response","39","119757","0.0-7.0-5.0","610075c1ef04d1f734032f69","bdp_wmem","Tue Mar 14 2023 00:41:26 GMT-0400 (Eastern Daylight Time)","548810","Match,No Match","","null","","","","","","","<div class='trialBorder'><div class='vertical-center'><img src='img/error.jpg'></div><div class='respDiv'><div class='respDivL'><font style='color:orange'>Match<br>(e)</font></div><div class='respDivR'>No Match<br>(i)</div></div></div>","null","FEEDBACK","","","","","","","","","","",""
"html-keyboard-response","40","120259","0.0-7.0-1.1","610075c1ef04d1f734032f69","bdp_wmem","Tue Mar 14 2023 00:41:26 GMT-0400 (Eastern Daylight Time)","548810","Match,No Match","","null","","","","","","","<div class='trialBorder'><div class='vertical-center'><img src='img/fixation2_sml.jpg'</img></div></div>","null","FIX","","","","","","","","","","",""
"html-keyboard-response","41","124762","0.0-7.0-2.1","610075c1ef04d1f734032f69","bdp_wmem","Tue Mar 14 2023 00:41:26 GMT-0400 (Eastern Daylight Time)","548810","Match,No Match","","null","","","","","","","<div class='trialBorder'><div class='vertical-center'><img style='vertical-align:center; align:center' src='img/fixation2_sml.jpg'></div><div class='arrayDiv3'><div class='tl'><img class='introPic' src='trustrating_stim/white_mw078.bmp'><br><font color='green'><strong>Share</strong></font></div><div class='tc'><img class='introPic' src='trustrating_stim/white_mw038.bmp'><br><font color='green'><strong>Share</strong></font></div><div class='tr'><img class='introPic' src='trustrating_stim/white_mw012.bmp'><br><font color='red'><strong>Keep</strong></font></div></div></div>","null","ARRAY","3","trustrating_stim/white_mw078.bmp,trustrating_stim/white_mw038.bmp,trustrating_stim/white_mw012.bmp","1,1,0","noMatchOutcome","i","4500","","","","",""
"html-keyboard-response","42","128764","0.0-7.0-3.1","610075c1ef04d1f734032f69","bdp_wmem","Tue Mar 14 2023 00:41:26 GMT-0400 (Eastern Daylight Time)","548810","Match,No Match","","null","","","","","","","<div class='trialBorder'><div class='vertical-center'><img src='img/fixation2_sml.jpg'</img></div></div>","null","DELAY","","","","","","","","","","",""
"html-keyboard-response","43","130725","0.0-7.0-4.1","610075c1ef04d1f734032f69","bdp_wmem","Tue Mar 14 2023 00:41:26 GMT-0400 (Eastern Daylight Time)","548810","Match,No Match","","1958","","","","","","","<div class='trialBorder'><div class='targDiv'><div class='tc'><img class='introPic' src='trustrating_stim/white_mw012.bmp'><br><font color='green'><strong>Share</strong></font></div></div><div class='respDiv'><div class='respDivL'>Match<br>(e)</div><div class='respDivR'>No Match<br>(i)</div></div></div>","i","TARGET","3","trustrating_stim/white_mw078.bmp,trustrating_stim/white_mw038.bmp,trustrating_stim/white_mw012.bmp","1,1,0","noMatchOutcome","i","4500","trustrating_stim/white_mw012.bmp","green","Share","REAL","1"
"html-keyboard-response","44","131226","0.0-7.0-5.1","610075c1ef04d1f734032f69","bdp_wmem","Tue Mar 14 2023 00:41:26 GMT-0400 (Eastern Daylight Time)","548810","Match,No Match","","null","","","","","","","<div class='trialBorder'><div class='vertical-center'><img src='img/correct.jpg'></div><div class='respDiv'><div class='respDivL'>Match<br>(e)</div><div class='respDivR'><font style='color:orange'>No Match<br>(i)</font></div></div></div>","null","FEEDBACK","","","","","","","","","","",""
"html-keyboard-response","45","131729","0.0-7.0-1.2","610075c1ef04d1f734032f69","bdp_wmem","Tue Mar 14 2023 00:41:26 GMT-0400 (Eastern Daylight Time)","548810","Match,No Match","","null","","","","","","","<div class='trialBorder'><div class='vertical-center'><img src='img/fixation2_sml.jpg'</img></div></div>","null","FIX","","","","","","","","","","",""
"html-keyboard-response","46","133231","0.0-7.0-2.2","610075c1ef04d1f734032f69","bdp_wmem","Tue Mar 14 2023 00:41:26 GMT-0400 (Eastern Daylight Time)","548810","Match,No Match","","null","","","","","","","<div class='trialBorder'><div class='vertical-center'><img style='vertical-align:center; align:center' src='img/fixation2_sml.jpg'></div><div class='arrayDiv1'><div class='tc'><img class='introPic' src='trustrating_stim/white_mw013.bmp'><br><font color='green'><strong>Share</strong></font></div></div></div>","null","ARRAY","1","trustrating_stim/white_mw013.bmp","1","Match","e","1500","","","","",""
"html-keyboard-response","47","137233","0.0-7.0-3.2","610075c1ef04d1f734032f69","bdp_wmem","Tue Mar 14 2023 00:41:26 GMT-0400 (Eastern Daylight Time)","548810","Match,No Match","","null","","","","","","","<div class='trialBorder'><div class='vertical-center'><img src='img/fixation2_sml.jpg'</img></div></div>","null","DELAY","","","","","","","","","","",""
"html-keyboard-response","48","138073","0.0-7.0-4.2","610075c1ef04d1f734032f69","bdp_wmem","Tue Mar 14 2023 00:41:26 GMT-0400 (Eastern Daylight Time)","548810","Match,No Match","","838","","","","","","","<div class='trialBorder'><div class='targDiv'><div class='tc'><img class='introPic' src='trustrating_stim/white_mw013.bmp'><br><font color='green'><strong>Share</strong></font></div></div><div class='respDiv'><div class='respDivL'>Match<br>(e)</div><div class='respDivR'>No Match<br>(i)</div></div></div>","e","TARGET","1","trustrating_stim/white_mw013.bmp","1","Match","e","1500","trustrating_stim/white_mw013.bmp","green","Share","REAL","1"
"html-keyboard-response","49","138575","0.0-7.0-5.2","610075c1ef04d1f734032f69","bdp_wmem","Tue Mar 14 2023 00:41:26 GMT-0400 (Eastern Daylight Time)","548810","Match,No Match","","null","","","","","","","<div class='trialBorder'><div class='vertical-center'><img src='img/correct.jpg'></div><div class='respDiv'><div class='respDivL'><font style='color:orange'>Match<br>(e)</font></div><div class='respDivR'>No Match<br>(i)</div></div></div>","null","FEEDBACK","","","","","","","","","","",""
"html-keyboard-response","50","139076","0.0-7.0-1.3","610075c1ef04d1f734032f69","bdp_wmem","Tue Mar 14 2023 00:41:26 GMT-0400 (Eastern Daylight Time)","548810","Match,No Match","","null","","","","","","","<div class='trialBorder'><div class='vertical-center'><img src='img/fixation2_sml.jpg'</img></div></div>","null","FIX","","","","","","","","","","",""
"html-keyboard-response","51","142079","0.0-7.0-2.3","610075c1ef04d1f734032f69","bdp_wmem","Tue Mar 14 2023 00:41:26 GMT-0400 (Eastern Daylight Time)","548810","Match,No Match","","null","","","","","","","<div class='trialBorder'><div class='vertical-center'><img style='vertical-align:center; align:center' src='img/fixation2_sml.jpg'></div><div class='arrayDiv2'><div class='tl'><img class='introPic' src='trustrating_stim/white_mw010.bmp'><br><font color='green'><strong>Share</strong></font></div><div class='tr'><img class='introPic' src='trustrating_stim/white_mw091.bmp'><br><font color='red'><strong>Keep</strong></font></div></div></div>","null","ARRAY","2","trustrating_stim/white_mw010.bmp,trustrating_stim/white_mw091.bmp","1,0","Match","e","3000","","","","",""
"html-keyboard-response","52","146080","0.0-7.0-3.3","610075c1ef04d1f734032f69","bdp_wmem","Tue Mar 14 2023 00:41:26 GMT-0400 (Eastern Daylight Time)","548810","Match,No Match","","null","","","","","","","<div class='trialBorder'><div class='vertical-center'><img src='img/fixation2_sml.jpg'</img></div></div>","null","DELAY","","","","","","","","","","",""
"html-keyboard-response","53","148078","0.0-7.0-4.3","610075c1ef04d1f734032f69","bdp_wmem","Tue Mar 14 2023 00:41:26 GMT-0400 (Eastern Daylight Time)","548810","Match,No Match","","1996","","","","","","","<div class='trialBorder'><div class='targDiv'><div class='tc'><img class='introPic' src='trustrating_stim/white_mw091.bmp'><br><font color='red'><strong>Keep</strong></font></div></div><div class='respDiv'><div class='respDivL'>Match<br>(e)</div><div class='respDivR'>No Match<br>(i)</div></div></div>","e","TARGET","2","trustrating_stim/white_mw010.bmp,trustrating_stim/white_mw091.bmp","1,0","Match","e","3000","trustrating_stim/white_mw091.bmp","red","Keep","REAL","1"
"html-keyboard-response","54","148580","0.0-7.0-5.3","610075c1ef04d1f734032f69","bdp_wmem","Tue Mar 14 2023 00:41:26 GMT-0400 (Eastern Daylight Time)","548810","Match,No Match","","null","","","","","","","<div class='trialBorder'><div class='vertical-center'><img src='img/correct.jpg'></div><div class='respDiv'><div class='respDivL'><font style='color:orange'>Match<br>(e)</font></div><div class='respDivR'>No Match<br>(i)</div></div></div>","null","FEEDBACK","","","","","","","","","","",""
"html-keyboard-response","55","149082","0.0-7.0-1.4","610075c1ef04d1f734032f69","bdp_wmem","Tue Mar 14 2023 00:41:26 GMT-0400 (Eastern Daylight Time)","548810","Match,No Match","","null","","","","","","","<div class='trialBorder'><div class='vertical-center'><img src='img/fixation2_sml.jpg'</img></div></div>","null","FIX","","","","","","","","","","",""
"html-keyboard-response","56","150585","0.0-7.0-2.4","610075c1ef04d1f734032f69","bdp_wmem","Tue Mar 14 2023 00:41:26 GMT-0400 (Eastern Daylight Time)","548810","Match,No Match","","null","","","","","","","<div class='trialBorder'><div class='vertical-center'><img style='vertical-align:center; align:center' src='img/fixation2_sml.jpg'></div><div class='arrayDiv1'><div class='tc'><img class='introPic' src='trustrating_stim/white_mw085.bmp'><br><font color='green'><strong>Share</strong></font></div></div></div>","null","ARRAY","1","trustrating_stim/white_mw085.bmp","1","Match","e","1500","","","","",""
"html-keyboard-response","57","154587","0.0-7.0-3.4","610075c1ef04d1f734032f69","bdp_wmem","Tue Mar 14 2023 00:41:26 GMT-0400 (Eastern Daylight Time)","548810","Match,No Match","","null","","","","","","","<div class='trialBorder'><div class='vertical-center'><img src='img/fixation2_sml.jpg'</img></div></div>","null","DELAY","","","","","","","","","","",""
"html-keyboard-response","58","155476","0.0-7.0-4.4","610075c1ef04d1f734032f69","bdp_wmem","Tue Mar 14 2023 00:41:26 GMT-0400 (Eastern Daylight Time)","548810","Match,No Match","","887","","","","","","","<div class='trialBorder'><div class='targDiv'><div class='tc'><img class='introPic' src='trustrating_stim/white_mw085.bmp'><br><font color='green'><strong>Share</strong></font></div></div><div class='respDiv'><div class='respDivL'>Match<br>(e)</div><div class='respDivR'>No Match<br>(i)</div></div></div>","e","TARGET","1","trustrating_stim/white_mw085.bmp","1","Match","e","1500","trustrating_stim/white_mw085.bmp","green","Share","REAL","1"
"html-keyboard-response","59","155979","0.0-7.0-5.4","610075c1ef04d1f734032f69","bdp_wmem","Tue Mar 14 2023 00:41:26 GMT-0400 (Eastern Daylight Time)","548810","Match,No Match","","null","","","","","","","<div class='trialBorder'><div class='vertical-center'><img src='img/correct.jpg'></div><div class='respDiv'><div class='respDivL'><font style='color:orange'>Match<br>(e)</font></div><div class='respDivR'>No Match<br>(i)</div></div></div>","null","FEEDBACK","","","","","","","","","","",""
"html-keyboard-response","60","156481","0.0-7.0-1.5","610075c1ef04d1f734032f69","bdp_wmem","Tue Mar 14 2023 00:41:26 GMT-0400 (Eastern Daylight Time)","548810","Match,No Match","","null","","","","","","","<div class='trialBorder'><div class='vertical-center'><img src='img/fixation2_sml.jpg'</img></div></div>","null","FIX","","","","","","","","","","",""
"html-keyboard-response","61","159483","0.0-7.0-2.5","610075c1ef04d1f734032f69","bdp_wmem","Tue Mar 14 2023 00:41:26 GMT-0400 (Eastern Daylight Time)","548810","Match,No Match","","null","","","","","","","<div class='trialBorder'><div class='vertical-center'><img style='vertical-align:center; align:center' src='img/fixation2_sml.jpg'></div><div class='arrayDiv2'><div class='tl'><img class='introPic' src='trustrating_stim/white_mw092.bmp'><br><font color='red'><strong>Keep</strong></font></div><div class='tr'><img class='introPic' src='trustrating_stim/white_mw042.bmp'><br><font color='green'><strong>Share</strong></font></div></div></div>","null","ARRAY","2","trustrating_stim/white_mw092.bmp,trustrating_stim/white_mw042.bmp","0,1","noMatchOutcome","i","3000","","","","",""
"html-keyboard-response","62","163484","0.0-7.0-3.5","610075c1ef04d1f734032f69","bdp_wmem","Tue Mar 14 2023 00:41:26 GMT-0400 (Eastern Daylight Time)","548810","Match,No Match","","null","","","","","","","<div class='trialBorder'><div class='vertical-center'><img src='img/fixation2_sml.jpg'</img></div></div>","null","DELAY","","","","","","","","","","",""
"html-keyboard-response","63","165949","0.0-7.0-4.5","610075c1ef04d1f734032f69","bdp_wmem","Tue Mar 14 2023 00:41:26 GMT-0400 (Eastern Daylight Time)","548810","Match,No Match","","2464","","","","","","","<div class='trialBorder'><div class='targDiv'><div class='tc'><img class='introPic' src='trustrating_stim/white_mw042.bmp'><br><font color='red'><strong>Keep</strong></font></div></div><div class='respDiv'><div class='respDivL'>Match<br>(e)</div><div class='respDivR'>No Match<br>(i)</div></div></div>","i","TARGET","2","trustrating_stim/white_mw092.bmp,trustrating_stim/white_mw042.bmp","0,1","noMatchOutcome","i","3000","trustrating_stim/white_mw042.bmp","red","Keep","REAL","1"
"html-keyboard-response","64","166450","0.0-7.0-5.5","610075c1ef04d1f734032f69","bdp_wmem","Tue Mar 14 2023 00:41:26 GMT-0400 (Eastern Daylight Time)","548810","Match,No Match","","null","","","","","","","<div class='trialBorder'><div class='vertical-center'><img src='img/correct.jpg'></div><div class='respDiv'><div class='respDivL'>Match<br>(e)</div><div class='respDivR'><font style='color:orange'>No Match<br>(i)</font></div></div></div>","null","FEEDBACK","","","","","","","","","","",""
"html-keyboard-response","65","166953","0.0-7.0-1.6","610075c1ef04d1f734032f69","bdp_wmem","Tue Mar 14 2023 00:41:26 GMT-0400 (Eastern Daylight Time)","548810","Match,No Match","","null","","","","","","","<div class='trialBorder'><div class='vertical-center'><img src='img/fixation2_sml.jpg'</img></div></div>","null","FIX","","","","","","","","","","",""
"html-keyboard-response","66","171454","0.0-7.0-2.6","610075c1ef04d1f734032f69","bdp_wmem","Tue Mar 14 2023 00:41:26 GMT-0400 (Eastern Daylight Time)","548810","Match,No Match","","null","","","","","","","<div class='trialBorder'><div class='vertical-center'><img style='vertical-align:center; align:center' src='img/fixation2_sml.jpg'></div><div class='arrayDiv3'><div class='tl'><img class='introPic' src='trustrating_stim/white_mw012.bmp'><br><font color='red'><strong>Keep</strong></font></div><div class='tc'><img class='introPic' src='trustrating_stim/white_mw091.bmp'><br><font color='green'><strong>Share</strong></font></div><div class='tr'><img class='introPic' src='trustrating_stim/white_mw003.bmp'><br><font color='red'><strong>Keep</strong></font></div></div></div>","null","ARRAY","3","trustrating_stim/white_mw012.bmp,trustrating_stim/white_mw091.bmp,trustrating_stim/white_mw003.bmp","0,1,0","Match","e","4500","","","","",""
"html-keyboard-response","67","175456","0.0-7.0-3.6","610075c1ef04d1f734032f69","bdp_wmem","Tue Mar 14 2023 00:41:26 GMT-0400 (Eastern Daylight Time)","548810","Match,No Match","","null","","","","","","","<div class='trialBorder'><div class='vertical-center'><img src='img/fixation2_sml.jpg'</img></div></div>","null","DELAY","","","","","","","","","","",""
"html-keyboard-response","68","177109","0.0-7.0-4.6","610075c1ef04d1f734032f69","bdp_wmem","Tue Mar 14 2023 00:41:26 GMT-0400 (Eastern Daylight Time)","548810","Match,No Match","","1651","","","","","","","<div class='trialBorder'><div class='targDiv'><div class='tc'><img class='introPic' src='trustrating_stim/white_mw012.bmp'><br><font color='red'><strong>Keep</strong></font></div></div><div class='respDiv'><div class='respDivL'>Match<br>(e)</div><div class='respDivR'>No Match<br>(i)</div></div></div>","e","TARGET","3","trustrating_stim/white_mw012.bmp,trustrating_stim/white_mw091.bmp,trustrating_stim/white_mw003.bmp","0,1,0","Match","e","4500","trustrating_stim/white_mw012.bmp","red","Keep","REAL","1"
"html-keyboard-response","69","177611","0.0-7.0-5.6","610075c1ef04d1f734032f69","bdp_wmem","Tue Mar 14 2023 00:41:26 GMT-0400 (Eastern Daylight Time)","548810","Match,No Match","","null","","","","","","","<div class='trialBorder'><div class='vertical-center'><img src='img/correct.jpg'></div><div class='respDiv'><div class='respDivL'><font style='color:orange'>Match<br>(e)</font></div><div class='respDivR'>No Match<br>(i)</div></div></div>","null","FEEDBACK","","","","","","","","","","",""
"html-keyboard-response","70","178112","0.0-7.0-1.7","610075c1ef04d1f734032f69","bdp_wmem","Tue Mar 14 2023 00:41:26 GMT-0400 (Eastern Daylight Time)","548810","Match,No Match","","null","","","","","","","<div class='trialBorder'><div class='vertical-center'><img src='img/fixation2_sml.jpg'</img></div></div>","null","FIX","","","","","","","","","","",""
"html-keyboard-response","71","182615","0.0-7.0-2.7","610075c1ef04d1f734032f69","bdp_wmem","Tue Mar 14 2023 00:41:26 GMT-0400 (Eastern Daylight Time)","548810","Match,No Match","","null","","","","","","","<div class='trialBorder'><div class='vertical-center'><img style='vertical-align:center; align:center' src='img/fixation2_sml.jpg'></div><div class='arrayDiv3'><div class='tl'><img class='introPic' src='trustrating_stim/white_mw085.bmp'><br><font color='green'><strong>Share</strong></font></div><div class='tc'><img class='introPic' src='trustrating_stim/white_mw092.bmp'><br><font color='green'><strong>Share</strong></font></div><div class='tr'><img class='introPic' src='trustrating_stim/white_mw040.bmp'><br><font color='red'><strong>Keep</strong></font></div></div></div>","null","ARRAY","3","trustrating_stim/white_mw085.bmp,trustrating_stim/white_mw092.bmp,trustrating_stim/white_mw040.bmp","1,1,0","noMatchFace","i","4500","","","","",""
"html-keyboard-response","72","186618","0.0-7.0-3.7","610075c1ef04d1f734032f69","bdp_wmem","Tue Mar 14 2023 00:41:26 GMT-0400 (Eastern Daylight Time)","548810","Match,No Match","","null","","","","","","","<div class='trialBorder'><div class='vertical-center'><img src='img/fixation2_sml.jpg'</img></div></div>","null","DELAY","","","","","","","","","","",""
"html-keyboard-response","73","187735","0.0-7.0-4.7","610075c1ef04d1f734032f69","bdp_wmem","Tue Mar 14 2023 00:41:26 GMT-0400 (Eastern Daylight Time)","548810","Match,No Match","","1115","","","","","","","<div class='trialBorder'><div class='targDiv'><div class='tc'><img class='introPic' src='trustrating_stim/white_mw078.bmp'><br><font color='red'><strong>Keep</strong></font></div></div><div class='respDiv'><div class='respDivL'>Match<br>(e)</div><div class='respDivR'>No Match<br>(i)</div></div></div>","i","TARGET","3","trustrating_stim/white_mw085.bmp,trustrating_stim/white_mw092.bmp,trustrating_stim/white_mw040.bmp","1,1,0","noMatchFace","i","4500","trustrating_stim/white_mw078.bmp","red","Keep","REAL","1"
"html-keyboard-response","74","188236","0.0-7.0-5.7","610075c1ef04d1f734032f69","bdp_wmem","Tue Mar 14 2023 00:41:26 GMT-0400 (Eastern Daylight Time)","548810","Match,No Match","","null","","","","","","","<div class='trialBorder'><div class='vertical-center'><img src='img/correct.jpg'></div><div class='respDiv'><div class='respDivL'>Match<br>(e)</div><div class='respDivR'><font style='color:orange'>No Match<br>(i)</font></div></div></div>","null","FEEDBACK","","","","","","","","","","",""
"html-keyboard-response","75","188737","0.0-7.0-1.8","610075c1ef04d1f734032f69","bdp_wmem","Tue Mar 14 2023 00:41:26 GMT-0400 (Eastern Daylight Time)","548810","Match,No Match","","null","","","","","","","<div class='trialBorder'><div class='vertical-center'><img src='img/fixation2_sml.jpg'</img></div></div>","null","FIX","","","","","","","","","","",""
"html-keyboard-response","76","191740","0.0-7.0-2.8","610075c1ef04d1f734032f69","bdp_wmem","Tue Mar 14 2023 00:41:26 GMT-0400 (Eastern Daylight Time)","548810","Match,No Match","","null","","","","","","","<div class='trialBorder'><div class='vertical-center'><img style='vertical-align:center; align:center' src='img/fixation2_sml.jpg'></div><div class='arrayDiv2'><div class='tl'><img class='introPic' src='trustrating_stim/white_mw091.bmp'><br><font color='red'><strong>Keep</strong></font></div><div class='tr'><img class='introPic' src='trustrating_stim/white_mw070.bmp'><br><font color='green'><strong>Share</strong></font></div></div></div>","null","ARRAY","2","trustrating_stim/white_mw091.bmp,trustrating_stim/white_mw070.bmp","0,1","noMatchFace","i","3000","","","","",""
"html-keyboard-response","77","195742","0.0-7.0-3.8","610075c1ef04d1f734032f69","bdp_wmem","Tue Mar 14 2023 00:41:26 GMT-0400 (Eastern Daylight Time)","548810","Match,No Match","","null","","","","","","","<div class='trialBorder'><div class='vertical-center'><img src='img/fixation2_sml.jpg'</img></div></div>","null","DELAY","","","","","","","","","","",""
"html-keyboard-response","78","196759","0.0-7.0-4.8","610075c1ef04d1f734032f69","bdp_wmem","Tue Mar 14 2023 00:41:26 GMT-0400 (Eastern Daylight Time)","548810","Match,No Match","","1015","","","","","","","<div class='trialBorder'><div class='targDiv'><div class='tc'><img class='introPic' src='trustrating_stim/white_mw038.bmp'><br><font color='green'><strong>Share</strong></font></div></div><div class='respDiv'><div class='respDivL'>Match<br>(e)</div><div class='respDivR'>No Match<br>(i)</div></div></div>","i","TARGET","2","trustrating_stim/white_mw091.bmp,trustrating_stim/white_mw070.bmp","0,1","noMatchFace","i","3000","trustrating_stim/white_mw038.bmp","green","Share","REAL","1"
"html-keyboard-response","79","197261","0.0-7.0-5.8","610075c1ef04d1f734032f69","bdp_wmem","Tue Mar 14 2023 00:41:26 GMT-0400 (Eastern Daylight Time)","548810","Match,No Match","","null","","","","","","","<div class='trialBorder'><div class='vertical-center'><img src='img/correct.jpg'></div><div class='respDiv'><div class='respDivL'>Match<br>(e)</div><div class='respDivR'><font style='color:orange'>No Match<br>(i)</font></div></div></div>","null","FEEDBACK","","","","","","","","","","",""
"html-keyboard-response","80","197762","0.0-7.0-1.9","610075c1ef04d1f734032f69","bdp_wmem","Tue Mar 14 2023 00:41:26 GMT-0400 (Eastern Daylight Time)","548810","Match,No Match","","null","","","","","","","<div class='trialBorder'><div class='vertical-center'><img src='img/fixation2_sml.jpg'</img></div></div>","null","FIX","","","","","","","","","","",""
"html-keyboard-response","81","199264","0.0-7.0-2.9","610075c1ef04d1f734032f69","bdp_wmem","Tue Mar 14 2023 00:41:26 GMT-0400 (Eastern Daylight Time)","548810","Match,No Match","","null","","","","","","","<div class='trialBorder'><div class='vertical-center'><img style='vertical-align:center; align:center' src='img/fixation2_sml.jpg'></div><div class='arrayDiv1'><div class='tc'><img class='introPic' src='trustrating_stim/white_mw040.bmp'><br><font color='green'><strong>Share</strong></font></div></div></div>","null","ARRAY","1","trustrating_stim/white_mw040.bmp","1","noMatchOutcome","i","1500","","","","",""
"html-keyboard-response","82","203267","0.0-7.0-3.9","610075c1ef04d1f734032f69","bdp_wmem","Tue Mar 14 2023 00:41:26 GMT-0400 (Eastern Daylight Time)","548810","Match,No Match","","null","","","","","","","<div class='trialBorder'><div class='vertical-center'><img src='img/fixation2_sml.jpg'</img></div></div>","null","DELAY","","","","","","","","","","",""
"html-keyboard-response","83","204406","0.0-7.0-4.9","610075c1ef04d1f734032f69","bdp_wmem","Tue Mar 14 2023 00:41:26 GMT-0400 (Eastern Daylight Time)","548810","Match,No Match","","1139","","","","","","","<div class='trialBorder'><div class='targDiv'><div class='tc'><img class='introPic' src='trustrating_stim/white_mw040.bmp'><br><font color='red'><strong>Keep</strong></font></div></div><div class='respDiv'><div class='respDivL'>Match<br>(e)</div><div class='respDivR'>No Match<br>(i)</div></div></div>","i","TARGET","1","trustrating_stim/white_mw040.bmp","1","noMatchOutcome","i","1500","trustrating_stim/white_mw040.bmp","red","Keep","REAL","1"
"html-keyboard-response","84","204908","0.0-7.0-5.9","610075c1ef04d1f734032f69","bdp_wmem","Tue Mar 14 2023 00:41:26 GMT-0400 (Eastern Daylight Time)","548810","Match,No Match","","null","","","","","","","<div class='trialBorder'><div class='vertical-center'><img src='img/correct.jpg'></div><div class='respDiv'><div class='respDivL'>Match<br>(e)</div><div class='respDivR'><font style='color:orange'>No Match<br>(i)</font></div></div></div>","null","FEEDBACK","","","","","","","","","","",""
"html-keyboard-response","85","205408","0.0-7.0-1.10","610075c1ef04d1f734032f69","bdp_wmem","Tue Mar 14 2023 00:41:26 GMT-0400 (Eastern Daylight Time)","548810","Match,No Match","","null","","","","","","","<div class='trialBorder'><div class='vertical-center'><img src='img/fixation2_sml.jpg'</img></div></div>","null","FIX","","","","","","","","","","",""
"html-keyboard-response","86","209911","0.0-7.0-2.10","610075c1ef04d1f734032f69","bdp_wmem","Tue Mar 14 2023 00:41:26 GMT-0400 (Eastern Daylight Time)","548810","Match,No Match","","null","","","","","","","<div class='trialBorder'><div class='vertical-center'><img style='vertical-align:center; align:center' src='img/fixation2_sml.jpg'></div><div class='arrayDiv3'><div class='tl'><img class='introPic' src='trustrating_stim/white_mw091.bmp'><br><font color='green'><strong>Share</strong></font></div><div class='tc'><img class='introPic' src='trustrating_stim/white_mw070.bmp'><br><font color='green'><strong>Share</strong></font></div><div class='tr'><img class='introPic' src='trustrating_stim/white_mw085.bmp'><br><font color='red'><strong>Keep</strong></font></div></div></div>","null","ARRAY","3","trustrating_stim/white_mw091.bmp,trustrating_stim/white_mw070.bmp,trustrating_stim/white_mw085.bmp","1,1,0","Match","e","4500","","","","",""
"html-keyboard-response","87","213913","0.0-7.0-3.10","610075c1ef04d1f734032f69","bdp_wmem","Tue Mar 14 2023 00:41:26 GMT-0400 (Eastern Daylight Time)","548810","Match,No Match","","null","","","","","","","<div class='trialBorder'><div class='vertical-center'><img src='img/fixation2_sml.jpg'</img></div></div>","null","DELAY","","","","","","","","","","",""
"html-keyboard-response","88","216312","0.0-7.0-4.10","610075c1ef04d1f734032f69","bdp_wmem","Tue Mar 14 2023 00:41:26 GMT-0400 (Eastern Daylight Time)","548810","Match,No Match","","2397","","","","","","","<div class='trialBorder'><div class='targDiv'><div class='tc'><img class='introPic' src='trustrating_stim/white_mw091.bmp'><br><font color='green'><strong>Share</strong></font></div></div><div class='respDiv'><div class='respDivL'>Match<br>(e)</div><div class='respDivR'>No Match<br>(i)</div></div></div>","e","TARGET","3","trustrating_stim/white_mw091.bmp,trustrating_stim/white_mw070.bmp,trustrating_stim/white_mw085.bmp","1,1,0","Match","e","4500","trustrating_stim/white_mw091.bmp","green","Share","REAL","1"
"html-keyboard-response","89","216814","0.0-7.0-5.10","610075c1ef04d1f734032f69","bdp_wmem","Tue Mar 14 2023 00:41:26 GMT-0400 (Eastern Daylight Time)","548810","Match,No Match","","null","","","","","","","<div class='trialBorder'><div class='vertical-center'><img src='img/correct.jpg'></div><div class='respDiv'><div class='respDivL'><font style='color:orange'>Match<br>(e)</font></div><div class='respDivR'>No Match<br>(i)</div></div></div>","null","FEEDBACK","","","","","","","","","","",""
"html-keyboard-response","90","217315","0.0-7.0-1.11","610075c1ef04d1f734032f69","bdp_wmem","Tue Mar 14 2023 00:41:26 GMT-0400 (Eastern Daylight Time)","548810","Match,No Match","","null","","","","","","","<div class='trialBorder'><div class='vertical-center'><img src='img/fixation2_sml.jpg'</img></div></div>","null","FIX","","","","","","","","","","",""
"html-keyboard-response","91","218818","0.0-7.0-2.11","610075c1ef04d1f734032f69","bdp_wmem","Tue Mar 14 2023 00:41:26 GMT-0400 (Eastern Daylight Time)","548810","Match,No Match","","null","","","","","","","<div class='trialBorder'><div class='vertical-center'><img style='vertical-align:center; align:center' src='img/fixation2_sml.jpg'></div><div class='arrayDiv1'><div class='tc'><img class='introPic' src='trustrating_stim/white_mw070.bmp'><br><font color='green'><strong>Share</strong></font></div></div></div>","null","ARRAY","1","trustrating_stim/white_mw070.bmp","1","noMatchFace","i","1500","","","","",""
"html-keyboard-response","92","222819","0.0-7.0-3.11","610075c1ef04d1f734032f69","bdp_wmem","Tue Mar 14 2023 00:41:26 GMT-0400 (Eastern Daylight Time)","548810","Match,No Match","","null","","","","","","","<div class='trialBorder'><div class='vertical-center'><img src='img/fixation2_sml.jpg'</img></div></div>","null","DELAY","","","","","","","","","","",""
"html-keyboard-response","93","223949","0.0-7.0-4.11","610075c1ef04d1f734032f69","bdp_wmem","Tue Mar 14 2023 00:41:26 GMT-0400 (Eastern Daylight Time)","548810","Match,No Match","","1129","","","","","","","<div class='trialBorder'><div class='targDiv'><div class='tc'><img class='introPic' src='trustrating_stim/white_mw042.bmp'><br><font color='green'><strong>Share</strong></font></div></div><div class='respDiv'><div class='respDivL'>Match<br>(e)</div><div class='respDivR'>No Match<br>(i)</div></div></div>","i","TARGET","1","trustrating_stim/white_mw070.bmp","1","noMatchFace","i","1500","trustrating_stim/white_mw042.bmp","green","Share","REAL","1"
"html-keyboard-response","94","224451","0.0-7.0-5.11","610075c1ef04d1f734032f69","bdp_wmem","Tue Mar 14 2023 00:41:26 GMT-0400 (Eastern Daylight Time)","548810","Match,No Match","","null","","","","","","","<div class='trialBorder'><div class='vertical-center'><img src='img/correct.jpg'></div><div class='respDiv'><div class='respDivL'>Match<br>(e)</div><div class='respDivR'><font style='color:orange'>No Match<br>(i)</font></div></div></div>","null","FEEDBACK","","","","","","","","","","",""
"html-keyboard-response","95","224952","0.0-7.0-1.12","610075c1ef04d1f734032f69","bdp_wmem","Tue Mar 14 2023 00:41:26 GMT-0400 (Eastern Daylight Time)","548810","Match,No Match","","null","","","","","","","<div class='trialBorder'><div class='vertical-center'><img src='img/fixation2_sml.jpg'</img></div></div>","null","FIX","","","","","","","","","","",""
"html-keyboard-response","96","226454","0.0-7.0-2.12","610075c1ef04d1f734032f69","bdp_wmem","Tue Mar 14 2023 00:41:26 GMT-0400 (Eastern Daylight Time)","548810","Match,No Match","","null","","","","","","","<div class='trialBorder'><div class='vertical-center'><img style='vertical-align:center; align:center' src='img/fixation2_sml.jpg'></div><div class='arrayDiv1'><div class='tc'><img class='introPic' src='trustrating_stim/white_mw012.bmp'><br><font color='green'><strong>Share</strong></font></div></div></div>","null","ARRAY","1","trustrating_stim/white_mw012.bmp","1","noMatchOutcome","i","1500","","","","",""
"html-keyboard-response","97","230456","0.0-7.0-3.12","610075c1ef04d1f734032f69","bdp_wmem","Tue Mar 14 2023 00:41:26 GMT-0400 (Eastern Daylight Time)","548810","Match,No Match","","null","","","","","","","<div class='trialBorder'><div class='vertical-center'><img src='img/fixation2_sml.jpg'</img></div></div>","null","DELAY","","","","","","","","","","",""
"html-keyboard-response","98","231304","0.0-7.0-4.12","610075c1ef04d1f734032f69","bdp_wmem","Tue Mar 14 2023 00:41:26 GMT-0400 (Eastern Daylight Time)","548810","Match,No Match","","845","","","","","","","<div class='trialBorder'><div class='targDiv'><div class='tc'><img class='introPic' src='trustrating_stim/white_mw012.bmp'><br><font color='red'><strong>Keep</strong></font></div></div><div class='respDiv'><div class='respDivL'>Match<br>(e)</div><div class='respDivR'>No Match<br>(i)</div></div></div>","i","TARGET","1","trustrating_stim/white_mw012.bmp","1","noMatchOutcome","i","1500","trustrating_stim/white_mw012.bmp","red","Keep","REAL","1"
"html-keyboard-response","99","231805","0.0-7.0-5.12","610075c1ef04d1f734032f69","bdp_wmem","Tue Mar 14 2023 00:41:26 GMT-0400 (Eastern Daylight Time)","548810","Match,No Match","","null","","","","","","","<div class='trialBorder'><div class='vertical-center'><img src='img/correct.jpg'></div><div class='respDiv'><div class='respDivL'>Match<br>(e)</div><div class='respDivR'><font style='color:orange'>No Match<br>(i)</font></div></div></div>","null","FEEDBACK","","","","","","","","","","",""
"html-keyboard-response","100","232307","0.0-7.0-1.13","610075c1ef04d1f734032f69","bdp_wmem","Tue Mar 14 2023 00:41:26 GMT-0400 (Eastern Daylight Time)","548810","Match,No Match","","null","","","","","","","<div class='trialBorder'><div class='vertical-center'><img src='img/fixation2_sml.jpg'</img></div></div>","null","FIX","","","","","","","","","","",""
"html-keyboard-response","101","235309","0.0-7.0-2.13","610075c1ef04d1f734032f69","bdp_wmem","Tue Mar 14 2023 00:41:26 GMT-0400 (Eastern Daylight Time)","548810","Match,No Match","","null","","","","","","","<div class='trialBorder'><div class='vertical-center'><img style='vertical-align:center; align:center' src='img/fixation2_sml.jpg'></div><div class='arrayDiv2'><div class='tl'><img class='introPic' src='trustrating_stim/white_mw091.bmp'><br><font color='green'><strong>Share</strong></font></div><div class='tr'><img class='introPic' src='trustrating_stim/white_mw042.bmp'><br><font color='red'><strong>Keep</strong></font></div></div></div>","null","ARRAY","2","trustrating_stim/white_mw091.bmp,trustrating_stim/white_mw042.bmp","1,0","Match","e","3000","","","","",""
"html-keyboard-response","102","239311","0.0-7.0-3.13","610075c1ef04d1f734032f69","bdp_wmem","Tue Mar 14 2023 00:41:26 GMT-0400 (Eastern Daylight Time)","548810","Match,No Match","","null","","","","","","","<div class='trialBorder'><div class='vertical-center'><img src='img/fixation2_sml.jpg'</img></div></div>","null","DELAY","","","","","","","","","","",""
"html-keyboard-response","103","240158","0.0-7.0-4.13","610075c1ef04d1f734032f69","bdp_wmem","Tue Mar 14 2023 00:41:26 GMT-0400 (Eastern Daylight Time)","548810","Match,No Match","","844","","","","","","","<div class='trialBorder'><div class='targDiv'><div class='tc'><img class='introPic' src='trustrating_stim/white_mw091.bmp'><br><font color='green'><strong>Share</strong></font></div></div><div class='respDiv'><div class='respDivL'>Match<br>(e)</div><div class='respDivR'>No Match<br>(i)</div></div></div>","e","TARGET","2","trustrating_stim/white_mw091.bmp,trustrating_stim/white_mw042.bmp","1,0","Match","e","3000","trustrating_stim/white_mw091.bmp","green","Share","REAL","1"
"html-keyboard-response","104","240659","0.0-7.0-5.13","610075c1ef04d1f734032f69","bdp_wmem","Tue Mar 14 2023 00:41:26 GMT-0400 (Eastern Daylight Time)","548810","Match,No Match","","null","","","","","","","<div class='trialBorder'><div class='vertical-center'><img src='img/correct.jpg'></div><div class='respDiv'><div class='respDivL'><font style='color:orange'>Match<br>(e)</font></div><div class='respDivR'>No Match<br>(i)</div></div></div>","null","FEEDBACK","","","","","","","","","","",""
"html-keyboard-response","105","241162","0.0-7.0-1.14","610075c1ef04d1f734032f69","bdp_wmem","Tue Mar 14 2023 00:41:26 GMT-0400 (Eastern Daylight Time)","548810","Match,No Match","","null","","","","","","","<div class='trialBorder'><div class='vertical-center'><img src='img/fixation2_sml.jpg'</img></div></div>","null","FIX","","","","","","","","","","",""
"html-keyboard-response","106","244164","0.0-7.0-2.14","610075c1ef04d1f734032f69","bdp_wmem","Tue Mar 14 2023 00:41:26 GMT-0400 (Eastern Daylight Time)","548810","Match,No Match","","null","","","","","","","<div class='trialBorder'><div class='vertical-center'><img style='vertical-align:center; align:center' src='img/fixation2_sml.jpg'></div><div class='arrayDiv2'><div class='tl'><img class='introPic' src='trustrating_stim/white_mw003.bmp'><br><font color='green'><strong>Share</strong></font></div><div class='tr'><img class='introPic' src='trustrating_stim/white_mw091.bmp'><br><font color='red'><strong>Keep</strong></font></div></div></div>","null","ARRAY","2","trustrating_stim/white_mw003.bmp,trustrating_stim/white_mw091.bmp","1,0","Match","e","3000","","","","",""
"html-keyboard-response","107","248166","0.0-7.0-3.14","610075c1ef04d1f734032f69","bdp_wmem","Tue Mar 14 2023 00:41:26 GMT-0400 (Eastern Daylight Time)","548810","Match,No Match","","null","","","","","","","<div class='trialBorder'><div class='vertical-center'><img src='img/fixation2_sml.jpg'</img></div></div>","null","DELAY","","","","","","","","","","",""
"html-keyboard-response","108","249033","0.0-7.0-4.14","610075c1ef04d1f734032f69","bdp_wmem","Tue Mar 14 2023 00:41:26 GMT-0400 (Eastern Daylight Time)","548810","Match,No Match","","865","","","","","","","<div class='trialBorder'><div class='targDiv'><div class='tc'><img class='introPic' src='trustrating_stim/white_mw003.bmp'><br><font color='green'><strong>Share</strong></font></div></div><div class='respDiv'><div class='respDivL'>Match<br>(e)</div><div class='respDivR'>No Match<br>(i)</div></div></div>","e","TARGET","2","trustrating_stim/white_mw003.bmp,trustrating_stim/white_mw091.bmp","1,0","Match","e","3000","trustrating_stim/white_mw003.bmp","green","Share","REAL","1"
"html-keyboard-response","109","249536","0.0-7.0-5.14","610075c1ef04d1f734032f69","bdp_wmem","Tue Mar 14 2023 00:41:26 GMT-0400 (Eastern Daylight Time)","548810","Match,No Match","","null","","","","","","","<div class='trialBorder'><div class='vertical-center'><img src='img/correct.jpg'></div><div class='respDiv'><div class='respDivL'><font style='color:orange'>Match<br>(e)</font></div><div class='respDivR'>No Match<br>(i)</div></div></div>","null","FEEDBACK","","","","","","","","","","",""
"html-keyboard-response","110","250038","0.0-7.0-1.15","610075c1ef04d1f734032f69","bdp_wmem","Tue Mar 14 2023 00:41:26 GMT-0400 (Eastern Daylight Time)","548810","Match,No Match","","null","","","","","","","<div class='trialBorder'><div class='vertical-center'><img src='img/fixation2_sml.jpg'</img></div></div>","null","FIX","","","","","","","","","","",""
"html-keyboard-response","111","251541","0.0-7.0-2.15","610075c1ef04d1f734032f69","bdp_wmem","Tue Mar 14 2023 00:41:26 GMT-0400 (Eastern Daylight Time)","548810","Match,No Match","","null","","","","","","","<div class='trialBorder'><div class='vertical-center'><img style='vertical-align:center; align:center' src='img/fixation2_sml.jpg'></div><div class='arrayDiv1'><div class='tc'><img class='introPic' src='trustrating_stim/white_mw038.bmp'><br><font color='green'><strong>Share</strong></font></div></div></div>","null","ARRAY","1","trustrating_stim/white_mw038.bmp","1","noMatchFace","i","1500","","","","",""
"html-keyboard-response","112","255543","0.0-7.0-3.15","610075c1ef04d1f734032f69","bdp_wmem","Tue Mar 14 2023 00:41:26 GMT-0400 (Eastern Daylight Time)","548810","Match,No Match","","null","","","","","","","<div class='trialBorder'><div class='vertical-center'><img src='img/fixation2_sml.jpg'</img></div></div>","null","DELAY","","","","","","","","","","",""
"html-keyboard-response","113","256181","0.0-7.0-4.15","610075c1ef04d1f734032f69","bdp_wmem","Tue Mar 14 2023 00:41:26 GMT-0400 (Eastern Daylight Time)","548810","Match,No Match","","636","","","","","","","<div class='trialBorder'><div class='targDiv'><div class='tc'><img class='introPic' src='trustrating_stim/white_mw010.bmp'><br><font color='green'><strong>Share</strong></font></div></div><div class='respDiv'><div class='respDivL'>Match<br>(e)</div><div class='respDivR'>No Match<br>(i)</div></div></div>","i","TARGET","1","trustrating_stim/white_mw038.bmp","1","noMatchFace","i","1500","trustrating_stim/white_mw010.bmp","green","Share","REAL","1"
"html-keyboard-response","114","256683","0.0-7.0-5.15","610075c1ef04d1f734032f69","bdp_wmem","Tue Mar 14 2023 00:41:26 GMT-0400 (Eastern Daylight Time)","548810","Match,No Match","","null","","","","","","","<div class='trialBorder'><div class='vertical-center'><img src='img/correct.jpg'></div><div class='respDiv'><div class='respDivL'>Match<br>(e)</div><div class='respDivR'><font style='color:orange'>No Match<br>(i)</font></div></div></div>","null","FEEDBACK","","","","","","","","","","",""
"html-keyboard-response","115","257185","0.0-7.0-1.16","610075c1ef04d1f734032f69","bdp_wmem","Tue Mar 14 2023 00:41:26 GMT-0400 (Eastern Daylight Time)","548810","Match,No Match","","null","","","","","","","<div class='trialBorder'><div class='vertical-center'><img src='img/fixation2_sml.jpg'</img></div></div>","null","FIX","","","","","","","","","","",""
"html-keyboard-response","116","261687","0.0-7.0-2.16","610075c1ef04d1f734032f69","bdp_wmem","Tue Mar 14 2023 00:41:26 GMT-0400 (Eastern Daylight Time)","548810","Match,No Match","","null","","","","","","","<div class='trialBorder'><div class='vertical-center'><img style='vertical-align:center; align:center' src='img/fixation2_sml.jpg'></div><div class='arrayDiv3'><div class='tl'><img class='introPic' src='trustrating_stim/white_mw040.bmp'><br><font color='green'><strong>Share</strong></font></div><div class='tc'><img class='introPic' src='trustrating_stim/white_mw085.bmp'><br><font color='red'><strong>Keep</strong></font></div><div class='tr'><img class='introPic' src='trustrating_stim/white_mw038.bmp'><br><font color='red'><strong>Keep</strong></font></div></div></div>","null","ARRAY","3","trustrating_stim/white_mw040.bmp,trustrating_stim/white_mw085.bmp,trustrating_stim/white_mw038.bmp","1,0,0","Match","e","4500","","","","",""
"html-keyboard-response","117","265689","0.0-7.0-3.16","610075c1ef04d1f734032f69","bdp_wmem","Tue Mar 14 2023 00:41:26 GMT-0400 (Eastern Daylight Time)","548810","Match,No Match","","null","","","","","","","<div class='trialBorder'><div class='vertical-center'><img src='img/fixation2_sml.jpg'</img></div></div>","null","DELAY","","","","","","","","","","",""
"html-keyboard-response","118","266301","0.0-7.0-4.16","610075c1ef04d1f734032f69","bdp_wmem","Tue Mar 14 2023 00:41:26 GMT-0400 (Eastern Daylight Time)","548810","Match,No Match","","610","","","","","","","<div class='trialBorder'><div class='targDiv'><div class='tc'><img class='introPic' src='trustrating_stim/white_mw040.bmp'><br><font color='green'><strong>Share</strong></font></div></div><div class='respDiv'><div class='respDivL'>Match<br>(e)</div><div class='respDivR'>No Match<br>(i)</div></div></div>","e","TARGET","3","trustrating_stim/white_mw040.bmp,trustrating_stim/white_mw085.bmp,trustrating_stim/white_mw038.bmp","1,0,0","Match","e","4500","trustrating_stim/white_mw040.bmp","green","Share","REAL","1"
"html-keyboard-response","119","266803","0.0-7.0-5.16","610075c1ef04d1f734032f69","bdp_wmem","Tue Mar 14 2023 00:41:26 GMT-0400 (Eastern Daylight Time)","548810","Match,No Match","","null","","","","","","","<div class='trialBorder'><div class='vertical-center'><img src='img/correct.jpg'></div><div class='respDiv'><div class='respDivL'><font style='color:orange'>Match<br>(e)</font></div><div class='respDivR'>No Match<br>(i)</div></div></div>","null","FEEDBACK","","","","","","","","","","",""
"html-keyboard-response","120","267305","0.0-7.0-1.17","610075c1ef04d1f734032f69","bdp_wmem","Tue Mar 14 2023 00:41:26 GMT-0400 (Eastern Daylight Time)","548810","Match,No Match","","null","","","","","","","<div class='trialBorder'><div class='vertical-center'><img src='img/fixation2_sml.jpg'</img></div></div>","null","FIX","","","","","","","","","","",""
"html-keyboard-response","121","270307","0.0-7.0-2.17","610075c1ef04d1f734032f69","bdp_wmem","Tue Mar 14 2023 00:41:26 GMT-0400 (Eastern Daylight Time)","548810","Match,No Match","","null","","","","","","","<div class='trialBorder'><div class='vertical-center'><img style='vertical-align:center; align:center' src='img/fixation2_sml.jpg'></div><div class='arrayDiv2'><div class='tl'><img class='introPic' src='trustrating_stim/white_mw010.bmp'><br><font color='green'><strong>Share</strong></font></div><div class='tr'><img class='introPic' src='trustrating_stim/white_mw085.bmp'><br><font color='red'><strong>Keep</strong></font></div></div></div>","null","ARRAY","2","trustrating_stim/white_mw010.bmp,trustrating_stim/white_mw085.bmp","1,0","Match","e","3000","","","","",""
"html-keyboard-response","122","274308","0.0-7.0-3.17","610075c1ef04d1f734032f69","bdp_wmem","Tue Mar 14 2023 00:41:26 GMT-0400 (Eastern Daylight Time)","548810","Match,No Match","","null","","","","","","","<div class='trialBorder'><div class='vertical-center'><img src='img/fixation2_sml.jpg'</img></div></div>","null","DELAY","","","","","","","","","","",""
"html-keyboard-response","123","274936","0.0-7.0-4.17","610075c1ef04d1f734032f69","bdp_wmem","Tue Mar 14 2023 00:41:26 GMT-0400 (Eastern Daylight Time)","548810","Match,No Match","","626","","","","","","","<div class='trialBorder'><div class='targDiv'><div class='tc'><img class='introPic' src='trustrating_stim/white_mw010.bmp'><br><font color='green'><strong>Share</strong></font></div></div><div class='respDiv'><div class='respDivL'>Match<br>(e)</div><div class='respDivR'>No Match<br>(i)</div></div></div>","e","TARGET","2","trustrating_stim/white_mw010.bmp,trustrating_stim/white_mw085.bmp","1,0","Match","e","3000","trustrating_stim/white_mw010.bmp","green","Share","REAL","1"
"html-keyboard-response","124","275439","0.0-7.0-5.17","610075c1ef04d1f734032f69","bdp_wmem","Tue Mar 14 2023 00:41:26 GMT-0400 (Eastern Daylight Time)","548810","Match,No Match","","null","","","","","","","<div class='trialBorder'><div class='vertical-center'><img src='img/correct.jpg'></div><div class='respDiv'><div class='respDivL'><font style='color:orange'>Match<br>(e)</font></div><div class='respDivR'>No Match<br>(i)</div></div></div>","null","FEEDBACK","","","","","","","","","","",""
"html-keyboard-response","125","275940","0.0-7.0-1.18","610075c1ef04d1f734032f69","bdp_wmem","Tue Mar 14 2023 00:41:26 GMT-0400 (Eastern Daylight Time)","548810","Match,No Match","","null","","","","","","","<div class='trialBorder'><div class='vertical-center'><img src='img/fixation2_sml.jpg'</img></div></div>","null","FIX","","","","","","","","","","",""
"html-keyboard-response","126","277443","0.0-7.0-2.18","610075c1ef04d1f734032f69","bdp_wmem","Tue Mar 14 2023 00:41:26 GMT-0400 (Eastern Daylight Time)","548810","Match,No Match","","null","","","","","","","<div class='trialBorder'><div class='vertical-center'><img style='vertical-align:center; align:center' src='img/fixation2_sml.jpg'></div><div class='arrayDiv1'><div class='tc'><img class='introPic' src='trustrating_stim/white_mw091.bmp'><br><font color='green'><strong>Share</strong></font></div></div></div>","null","ARRAY","1","trustrating_stim/white_mw091.bmp","1","Match","e","1500","","","","",""
"html-keyboard-response","127","281445","0.0-7.0-3.18","610075c1ef04d1f734032f69","bdp_wmem","Tue Mar 14 2023 00:41:26 GMT-0400 (Eastern Daylight Time)","548810","Match,No Match","","null","","","","","","","<div class='trialBorder'><div class='vertical-center'><img src='img/fixation2_sml.jpg'</img></div></div>","null","DELAY","","","","","","","","","","",""
"html-keyboard-response","128","282059","0.0-7.0-4.18","610075c1ef04d1f734032f69","bdp_wmem","Tue Mar 14 2023 00:41:26 GMT-0400 (Eastern Daylight Time)","548810","Match,No Match","","613","","","","","","","<div class='trialBorder'><div class='targDiv'><div class='tc'><img class='introPic' src='trustrating_stim/white_mw091.bmp'><br><font color='green'><strong>Share</strong></font></div></div><div class='respDiv'><div class='respDivL'>Match<br>(e)</div><div class='respDivR'>No Match<br>(i)</div></div></div>","e","TARGET","1","trustrating_stim/white_mw091.bmp","1","Match","e","1500","trustrating_stim/white_mw091.bmp","green","Share","REAL","1"
"html-keyboard-response","129","282560","0.0-7.0-5.18","610075c1ef04d1f734032f69","bdp_wmem","Tue Mar 14 2023 00:41:26 GMT-0400 (Eastern Daylight Time)","548810","Match,No Match","","null","","","","","","","<div class='trialBorder'><div class='vertical-center'><img src='img/correct.jpg'></div><div class='respDiv'><div class='respDivL'><font style='color:orange'>Match<br>(e)</font></div><div class='respDivR'>No Match<br>(i)</div></div></div>","null","FEEDBACK","","","","","","","","","","",""
"html-keyboard-response","130","283061","0.0-7.0-1.19","610075c1ef04d1f734032f69","bdp_wmem","Tue Mar 14 2023 00:41:26 GMT-0400 (Eastern Daylight Time)","548810","Match,No Match","","null","","","","","","","<div class='trialBorder'><div class='vertical-center'><img src='img/fixation2_sml.jpg'</img></div></div>","null","FIX","","","","","","","","","","",""
"html-keyboard-response","131","284563","0.0-7.0-2.19","610075c1ef04d1f734032f69","bdp_wmem","Tue Mar 14 2023 00:41:26 GMT-0400 (Eastern Daylight Time)","548810","Match,No Match","","null","","","","","","","<div class='trialBorder'><div class='vertical-center'><img style='vertical-align:center; align:center' src='img/fixation2_sml.jpg'></div><div class='arrayDiv1'><div class='tc'><img class='introPic' src='trustrating_stim/white_mw013.bmp'><br><font color='red'><strong>Keep</strong></font></div></div></div>","null","ARRAY","1","trustrating_stim/white_mw013.bmp","0","noMatchOutcome","i","1500","","","","",""
"html-keyboard-response","132","288565","0.0-7.0-3.19","610075c1ef04d1f734032f69","bdp_wmem","Tue Mar 14 2023 00:41:26 GMT-0400 (Eastern Daylight Time)","548810","Match,No Match","","null","","","","","","","<div class='trialBorder'><div class='vertical-center'><img src='img/fixation2_sml.jpg'</img></div></div>","null","DELAY","","","","","","","","","","",""
"html-keyboard-response","133","289214","0.0-7.0-4.19","610075c1ef04d1f734032f69","bdp_wmem","Tue Mar 14 2023 00:41:26 GMT-0400 (Eastern Daylight Time)","548810","Match,No Match","","646","","","","","","","<div class='trialBorder'><div class='targDiv'><div class='tc'><img class='introPic' src='trustrating_stim/white_mw013.bmp'><br><font color='green'><strong>Share</strong></font></div></div><div class='respDiv'><div class='respDivL'>Match<br>(e)</div><div class='respDivR'>No Match<br>(i)</div></div></div>","i","TARGET","1","trustrating_stim/white_mw013.bmp","0","noMatchOutcome","i","1500","trustrating_stim/white_mw013.bmp","green","Share","REAL","1"
"html-keyboard-response","134","289716","0.0-7.0-5.19","610075c1ef04d1f734032f69","bdp_wmem","Tue Mar 14 2023 00:41:26 GMT-0400 (Eastern Daylight Time)","548810","Match,No Match","","null","","","","","","","<div class='trialBorder'><div class='vertical-center'><img src='img/correct.jpg'></div><div class='respDiv'><div class='respDivL'>Match<br>(e)</div><div class='respDivR'><font style='color:orange'>No Match<br>(i)</font></div></div></div>","null","FEEDBACK","","","","","","","","","","",""
"html-keyboard-response","135","290219","0.0-7.0-1.20","610075c1ef04d1f734032f69","bdp_wmem","Tue Mar 14 2023 00:41:26 GMT-0400 (Eastern Daylight Time)","548810","Match,No Match","","null","","","","","","","<div class='trialBorder'><div class='vertical-center'><img src='img/fixation2_sml.jpg'</img></div></div>","null","FIX","","","","","","","","","","",""
"html-keyboard-response","136","291721","0.0-7.0-2.20","610075c1ef04d1f734032f69","bdp_wmem","Tue Mar 14 2023 00:41:26 GMT-0400 (Eastern Daylight Time)","548810","Match,No Match","","null","","","","","","","<div class='trialBorder'><div class='vertical-center'><img style='vertical-align:center; align:center' src='img/fixation2_sml.jpg'></div><div class='arrayDiv1'><div class='tc'><img class='introPic' src='trustrating_stim/white_mw078.bmp'><br><font color='red'><strong>Keep</strong></font></div></div></div>","null","ARRAY","1","trustrating_stim/white_mw078.bmp","0","noMatchFace","i","1500","","","","",""
"html-keyboard-response","137","295723","0.0-7.0-3.20","610075c1ef04d1f734032f69","bdp_wmem","Tue Mar 14 2023 00:41:26 GMT-0400 (Eastern Daylight Time)","548810","Match,No Match","","null","","","","","","","<div class='trialBorder'><div class='vertical-center'><img src='img/fixation2_sml.jpg'</img></div></div>","null","DELAY","","","","","","","","","","",""
"html-keyboard-response","138","296256","0.0-7.0-4.20","610075c1ef04d1f734032f69","bdp_wmem","Tue Mar 14 2023 00:41:26 GMT-0400 (Eastern Daylight Time)","548810","Match,No Match","","531","","","","","","","<div class='trialBorder'><div class='targDiv'><div class='tc'><img class='introPic' src='trustrating_stim/white_mw042.bmp'><br><font color='red'><strong>Keep</strong></font></div></div><div class='respDiv'><div class='respDivL'>Match<br>(e)</div><div class='respDivR'>No Match<br>(i)</div></div></div>","i","TARGET","1","trustrating_stim/white_mw078.bmp","0","noMatchFace","i","1500","trustrating_stim/white_mw042.bmp","red","Keep","REAL","1"
"html-keyboard-response","139","296758","0.0-7.0-5.20","610075c1ef04d1f734032f69","bdp_wmem","Tue Mar 14 2023 00:41:26 GMT-0400 (Eastern Daylight Time)","548810","Match,No Match","","null","","","","","","","<div class='trialBorder'><div class='vertical-center'><img src='img/correct.jpg'></div><div class='respDiv'><div class='respDivL'>Match<br>(e)</div><div class='respDivR'><font style='color:orange'>No Match<br>(i)</font></div></div></div>","null","FEEDBACK","","","","","","","","","","",""
"html-keyboard-response","140","297259","0.0-7.0-1.21","610075c1ef04d1f734032f69","bdp_wmem","Tue Mar 14 2023 00:41:26 GMT-0400 (Eastern Daylight Time)","548810","Match,No Match","","null","","","","","","","<div class='trialBorder'><div class='vertical-center'><img src='img/fixation2_sml.jpg'</img></div></div>","null","FIX","","","","","","","","","","",""
"html-keyboard-response","141","300262","0.0-7.0-2.21","610075c1ef04d1f734032f69","bdp_wmem","Tue Mar 14 2023 00:41:26 GMT-0400 (Eastern Daylight Time)","548810","Match,No Match","","null","","","","","","","<div class='trialBorder'><div class='vertical-center'><img style='vertical-align:center; align:center' src='img/fixation2_sml.jpg'></div><div class='arrayDiv2'><div class='tl'><img class='introPic' src='trustrating_stim/white_mw078.bmp'><br><font color='red'><strong>Keep</strong></font></div><div class='tr'><img class='introPic' src='trustrating_stim/white_mw040.bmp'><br><font color='green'><strong>Share</strong></font></div></div></div>","null","ARRAY","2","trustrating_stim/white_mw078.bmp,trustrating_stim/white_mw040.bmp","0,1","noMatchFace","i","3000","","","","",""
"html-keyboard-response","142","304263","0.0-7.0-3.21","610075c1ef04d1f734032f69","bdp_wmem","Tue Mar 14 2023 00:41:26 GMT-0400 (Eastern Daylight Time)","548810","Match,No Match","","null","","","","","","","<div class='trialBorder'><div class='vertical-center'><img src='img/fixation2_sml.jpg'</img></div></div>","null","DELAY","","","","","","","","","","",""
"html-keyboard-response","143","304877","0.0-7.0-4.21","610075c1ef04d1f734032f69","bdp_wmem","Tue Mar 14 2023 00:41:26 GMT-0400 (Eastern Daylight Time)","548810","Match,No Match","","612","","","","","","","<div class='trialBorder'><div class='targDiv'><div class='tc'><img class='introPic' src='trustrating_stim/white_mw085.bmp'><br><font color='red'><strong>Keep</strong></font></div></div><div class='respDiv'><div class='respDivL'>Match<br>(e)</div><div class='respDivR'>No Match<br>(i)</div></div></div>","i","TARGET","2","trustrating_stim/white_mw078.bmp,trustrating_stim/white_mw040.bmp","0,1","noMatchFace","i","3000","trustrating_stim/white_mw085.bmp","red","Keep","REAL","1"
"html-keyboard-response","144","305378","0.0-7.0-5.21","610075c1ef04d1f734032f69","bdp_wmem","Tue Mar 14 2023 00:41:26 GMT-0400 (Eastern Daylight Time)","548810","Match,No Match","","null","","","","","","","<div class='trialBorder'><div class='vertical-center'><img src='img/correct.jpg'></div><div class='respDiv'><div class='respDivL'>Match<br>(e)</div><div class='respDivR'><font style='color:orange'>No Match<br>(i)</font></div></div></div>","null","FEEDBACK","","","","","","","","","","",""
"html-keyboard-response","145","305880","0.0-7.0-1.22","610075c1ef04d1f734032f69","bdp_wmem","Tue Mar 14 2023 00:41:26 GMT-0400 (Eastern Daylight Time)","548810","Match,No Match","","null","","","","","","","<div class='trialBorder'><div class='vertical-center'><img src='img/fixation2_sml.jpg'</img></div></div>","null","FIX","","","","","","","","","","",""
"html-keyboard-response","146","307381","0.0-7.0-2.22","610075c1ef04d1f734032f69","bdp_wmem","Tue Mar 14 2023 00:41:26 GMT-0400 (Eastern Daylight Time)","548810","Match,No Match","","null","","","","","","","<div class='trialBorder'><div class='vertical-center'><img style='vertical-align:center; align:center' src='img/fixation2_sml.jpg'></div><div class='arrayDiv1'><div class='tc'><img class='introPic' src='trustrating_stim/white_mw042.bmp'><br><font color='green'><strong>Share</strong></font></div></div></div>","null","ARRAY","1","trustrating_stim/white_mw042.bmp","1","noMatchOutcome","i","1500","","","","",""
"html-keyboard-response","147","311383","0.0-7.0-3.22","610075c1ef04d1f734032f69","bdp_wmem","Tue Mar 14 2023 00:41:26 GMT-0400 (Eastern Daylight Time)","548810","Match,No Match","","null","","","","","","","<div class='trialBorder'><div class='vertical-center'><img src='img/fixation2_sml.jpg'</img></div></div>","null","DELAY","","","","","","","","","","",""
"html-keyboard-response","148","311840","0.0-7.0-4.22","610075c1ef04d1f734032f69","bdp_wmem","Tue Mar 14 2023 00:41:26 GMT-0400 (Eastern Daylight Time)","548810","Match,No Match","","454","","","","","","","<div class='trialBorder'><div class='targDiv'><div class='tc'><img class='introPic' src='trustrating_stim/white_mw042.bmp'><br><font color='red'><strong>Keep</strong></font></div></div><div class='respDiv'><div class='respDivL'>Match<br>(e)</div><div class='respDivR'>No Match<br>(i)</div></div></div>","i","TARGET","1","trustrating_stim/white_mw042.bmp","1","noMatchOutcome","i","1500","trustrating_stim/white_mw042.bmp","red","Keep","REAL","1"
"html-keyboard-response","149","312341","0.0-7.0-5.22","610075c1ef04d1f734032f69","bdp_wmem","Tue Mar 14 2023 00:41:26 GMT-0400 (Eastern Daylight Time)","548810","Match,No Match","","null","","","","","","","<div class='trialBorder'><div class='vertical-center'><img src='img/correct.jpg'></div><div class='respDiv'><div class='respDivL'>Match<br>(e)</div><div class='respDivR'><font style='color:orange'>No Match<br>(i)</font></div></div></div>","null","FEEDBACK","","","","","","","","","","",""
"html-keyboard-response","150","312843","0.0-7.0-1.23","610075c1ef04d1f734032f69","bdp_wmem","Tue Mar 14 2023 00:41:26 GMT-0400 (Eastern Daylight Time)","548810","Match,No Match","","null","","","","","","","<div class='trialBorder'><div class='vertical-center'><img src='img/fixation2_sml.jpg'</img></div></div>","null","FIX","","","","","","","","","","",""
"html-keyboard-response","151","315844","0.0-7.0-2.23","610075c1ef04d1f734032f69","bdp_wmem","Tue Mar 14 2023 00:41:26 GMT-0400 (Eastern Daylight Time)","548810","Match,No Match","","null","","","","","","","<div class='trialBorder'><div class='vertical-center'><img style='vertical-align:center; align:center' src='img/fixation2_sml.jpg'></div><div class='arrayDiv2'><div class='tl'><img class='introPic' src='trustrating_stim/white_mw003.bmp'><br><font color='green'><strong>Share</strong></font></div><div class='tr'><img class='introPic' src='trustrating_stim/white_mw085.bmp'><br><font color='red'><strong>Keep</strong></font></div></div></div>","null","ARRAY","2","trustrating_stim/white_mw003.bmp,trustrating_stim/white_mw085.bmp","1,0","noMatchOutcome","i","3000","","","","",""
"html-keyboard-response","152","319846","0.0-7.0-3.23","610075c1ef04d1f734032f69","bdp_wmem","Tue Mar 14 2023 00:41:26 GMT-0400 (Eastern Daylight Time)","548810","Match,No Match","","null","","","","","","","<div class='trialBorder'><div class='vertical-center'><img src='img/fixation2_sml.jpg'</img></div></div>","null","DELAY","","","","","","","","","","",""
"html-keyboard-response","153","321290","0.0-7.0-4.23","610075c1ef04d1f734032f69","bdp_wmem","Tue Mar 14 2023 00:41:26 GMT-0400 (Eastern Daylight Time)","548810","Match,No Match","","1442","","","","","","","<div class='trialBorder'><div class='targDiv'><div class='tc'><img class='introPic' src='trustrating_stim/white_mw003.bmp'><br><font color='red'><strong>Keep</strong></font></div></div><div class='respDiv'><div class='respDivL'>Match<br>(e)</div><div class='respDivR'>No Match<br>(i)</div></div></div>","i","TARGET","2","trustrating_stim/white_mw003.bmp,trustrating_stim/white_mw085.bmp","1,0","noMatchOutcome","i","3000","trustrating_stim/white_mw003.bmp","red","Keep","REAL","1"
"html-keyboard-response","154","321792","0.0-7.0-5.23","610075c1ef04d1f734032f69","bdp_wmem","Tue Mar 14 2023 00:41:26 GMT-0400 (Eastern Daylight Time)","548810","Match,No Match","","null","","","","","","","<div class='trialBorder'><div class='vertical-center'><img src='img/correct.jpg'></div><div class='respDiv'><div class='respDivL'>Match<br>(e)</div><div class='respDivR'><font style='color:orange'>No Match<br>(i)</font></div></div></div>","null","FEEDBACK","","","","","","","","","","",""
"html-keyboard-response","155","322293","0.0-7.0-1.24","610075c1ef04d1f734032f69","bdp_wmem","Tue Mar 14 2023 00:41:26 GMT-0400 (Eastern Daylight Time)","548810","Match,No Match","","null","","","","","","","<div class='trialBorder'><div class='vertical-center'><img src='img/fixation2_sml.jpg'</img></div></div>","null","FIX","","","","","","","","","","",""
"html-keyboard-response","156","326796","0.0-7.0-2.24","610075c1ef04d1f734032f69","bdp_wmem","Tue Mar 14 2023 00:41:26 GMT-0400 (Eastern Daylight Time)","548810","Match,No Match","","null","","","","","","","<div class='trialBorder'><div class='vertical-center'><img style='vertical-align:center; align:center' src='img/fixation2_sml.jpg'></div><div class='arrayDiv3'><div class='tl'><img class='introPic' src='trustrating_stim/white_mw010.bmp'><br><font color='green'><strong>Share</strong></font></div><div class='tc'><img class='introPic' src='trustrating_stim/white_mw012.bmp'><br><font color='green'><strong>Share</strong></font></div><div class='tr'><img class='introPic' src='trustrating_stim/white_mw070.bmp'><br><font color='red'><strong>Keep</strong></font></div></div></div>","null","ARRAY","3","trustrating_stim/white_mw010.bmp,trustrating_stim/white_mw012.bmp,trustrating_stim/white_mw070.bmp","1,1,0","Match","e","4500","","","","",""
"html-keyboard-response","157","330797","0.0-7.0-3.24","610075c1ef04d1f734032f69","bdp_wmem","Tue Mar 14 2023 00:41:26 GMT-0400 (Eastern Daylight Time)","548810","Match,No Match","","null","","","","","","","<div class='trialBorder'><div class='vertical-center'><img src='img/fixation2_sml.jpg'</img></div></div>","null","DELAY","","","","","","","","","","",""
"html-keyboard-response","158","332001","0.0-7.0-4.24","610075c1ef04d1f734032f69","bdp_wmem","Tue Mar 14 2023 00:41:26 GMT-0400 (Eastern Daylight Time)","548810","Match,No Match","","1201","","","","","","","<div class='trialBorder'><div class='targDiv'><div class='tc'><img class='introPic' src='trustrating_stim/white_mw010.bmp'><br><font color='green'><strong>Share</strong></font></div></div><div class='respDiv'><div class='respDivL'>Match<br>(e)</div><div class='respDivR'>No Match<br>(i)</div></div></div>","e","TARGET","3","trustrating_stim/white_mw010.bmp,trustrating_stim/white_mw012.bmp,trustrating_stim/white_mw070.bmp","1,1,0","Match","e","4500","trustrating_stim/white_mw010.bmp","green","Share","REAL","1"
"html-keyboard-response","159","332504","0.0-7.0-5.24","610075c1ef04d1f734032f69","bdp_wmem","Tue Mar 14 2023 00:41:26 GMT-0400 (Eastern Daylight Time)","548810","Match,No Match","","null","","","","","","","<div class='trialBorder'><div class='vertical-center'><img src='img/correct.jpg'></div><div class='respDiv'><div class='respDivL'><font style='color:orange'>Match<br>(e)</font></div><div class='respDivR'>No Match<br>(i)</div></div></div>","null","FEEDBACK","","","","","","","","","","",""
"html-keyboard-response","160","333005","0.0-7.0-1.25","610075c1ef04d1f734032f69","bdp_wmem","Tue Mar 14 2023 00:41:26 GMT-0400 (Eastern Daylight Time)","548810","Match,No Match","","null","","","","","","","<div class='trialBorder'><div class='vertical-center'><img src='img/fixation2_sml.jpg'</img></div></div>","null","FIX","","","","","","","","","","",""
"html-keyboard-response","161","336008","0.0-7.0-2.25","610075c1ef04d1f734032f69","bdp_wmem","Tue Mar 14 2023 00:41:26 GMT-0400 (Eastern Daylight Time)","548810","Match,No Match","","null","","","","","","","<div class='trialBorder'><div class='vertical-center'><img style='vertical-align:center; align:center' src='img/fixation2_sml.jpg'></div><div class='arrayDiv2'><div class='tl'><img class='introPic' src='trustrating_stim/white_mw091.bmp'><br><font color='red'><strong>Keep</strong></font></div><div class='tr'><img class='introPic' src='trustrating_stim/white_mw012.bmp'><br><font color='green'><strong>Share</strong></font></div></div></div>","null","ARRAY","2","trustrating_stim/white_mw091.bmp,trustrating_stim/white_mw012.bmp","0,1","noMatchOutcome","i","3000","","","","",""
"html-keyboard-response","162","340009","0.0-7.0-3.25","610075c1ef04d1f734032f69","bdp_wmem","Tue Mar 14 2023 00:41:26 GMT-0400 (Eastern Daylight Time)","548810","Match,No Match","","null","","","","","","","<div class='trialBorder'><div class='vertical-center'><img src='img/fixation2_sml.jpg'</img></div></div>","null","DELAY","","","","","","","","","","",""
"html-keyboard-response","163","341166","0.0-7.0-4.25","610075c1ef04d1f734032f69","bdp_wmem","Tue Mar 14 2023 00:41:26 GMT-0400 (Eastern Daylight Time)","548810","Match,No Match","","1155","","","","","","","<div class='trialBorder'><div class='targDiv'><div class='tc'><img class='introPic' src='trustrating_stim/white_mw012.bmp'><br><font color='red'><strong>Keep</strong></font></div></div><div class='respDiv'><div class='respDivL'>Match<br>(e)</div><div class='respDivR'>No Match<br>(i)</div></div></div>","i","TARGET","2","trustrating_stim/white_mw091.bmp,trustrating_stim/white_mw012.bmp","0,1","noMatchOutcome","i","3000","trustrating_stim/white_mw012.bmp","red","Keep","REAL","1"
"html-keyboard-response","164","341668","0.0-7.0-5.25","610075c1ef04d1f734032f69","bdp_wmem","Tue Mar 14 2023 00:41:26 GMT-0400 (Eastern Daylight Time)","548810","Match,No Match","","null","","","","","","","<div class='trialBorder'><div class='vertical-center'><img src='img/correct.jpg'></div><div class='respDiv'><div class='respDivL'>Match<br>(e)</div><div class='respDivR'><font style='color:orange'>No Match<br>(i)</font></div></div></div>","null","FEEDBACK","","","","","","","","","","",""
"html-keyboard-response","165","342170","0.0-7.0-1.26","610075c1ef04d1f734032f69","bdp_wmem","Tue Mar 14 2023 00:41:26 GMT-0400 (Eastern Daylight Time)","548810","Match,No Match","","null","","","","","","","<div class='trialBorder'><div class='vertical-center'><img src='img/fixation2_sml.jpg'</img></div></div>","null","FIX","","","","","","","","","","",""
"html-keyboard-response","166","343672","0.0-7.0-2.26","610075c1ef04d1f734032f69","bdp_wmem","Tue Mar 14 2023 00:41:26 GMT-0400 (Eastern Daylight Time)","548810","Match,No Match","","null","","","","","","","<div class='trialBorder'><div class='vertical-center'><img style='vertical-align:center; align:center' src='img/fixation2_sml.jpg'></div><div class='arrayDiv1'><div class='tc'><img class='introPic' src='trustrating_stim/white_mw070.bmp'><br><font color='red'><strong>Keep</strong></font></div></div></div>","null","ARRAY","1","trustrating_stim/white_mw070.bmp","0","Match","e","1500","","","","",""
"html-keyboard-response","167","347673","0.0-7.0-3.26","610075c1ef04d1f734032f69","bdp_wmem","Tue Mar 14 2023 00:41:26 GMT-0400 (Eastern Daylight Time)","548810","Match,No Match","","null","","","","","","","<div class='trialBorder'><div class='vertical-center'><img src='img/fixation2_sml.jpg'</img></div></div>","null","DELAY","","","","","","","","","","",""
"html-keyboard-response","168","349107","0.0-7.0-4.26","610075c1ef04d1f734032f69","bdp_wmem","Tue Mar 14 2023 00:41:26 GMT-0400 (Eastern Daylight Time)","548810","Match,No Match","","1432","","","","","","","<div class='trialBorder'><div class='targDiv'><div class='tc'><img class='introPic' src='trustrating_stim/white_mw070.bmp'><br><font color='red'><strong>Keep</strong></font></div></div><div class='respDiv'><div class='respDivL'>Match<br>(e)</div><div class='respDivR'>No Match<br>(i)</div></div></div>","e","TARGET","1","trustrating_stim/white_mw070.bmp","0","Match","e","1500","trustrating_stim/white_mw070.bmp","red","Keep","REAL","1"
"html-keyboard-response","169","349609","0.0-7.0-5.26","610075c1ef04d1f734032f69","bdp_wmem","Tue Mar 14 2023 00:41:26 GMT-0400 (Eastern Daylight Time)","548810","Match,No Match","","null","","","","","","","<div class='trialBorder'><div class='vertical-center'><img src='img/correct.jpg'></div><div class='respDiv'><div class='respDivL'><font style='color:orange'>Match<br>(e)</font></div><div class='respDivR'>No Match<br>(i)</div></div></div>","null","FEEDBACK","","","","","","","","","","",""
"html-keyboard-response","170","350111","0.0-7.0-1.27","610075c1ef04d1f734032f69","bdp_wmem","Tue Mar 14 2023 00:41:26 GMT-0400 (Eastern Daylight Time)","548810","Match,No Match","","null","","","","","","","<div class='trialBorder'><div class='vertical-center'><img src='img/fixation2_sml.jpg'</img></div></div>","null","FIX","","","","","","","","","","",""
"html-keyboard-response","171","351613","0.0-7.0-2.27","610075c1ef04d1f734032f69","bdp_wmem","Tue Mar 14 2023 00:41:26 GMT-0400 (Eastern Daylight Time)","548810","Match,No Match","","null","","","","","","","<div class='trialBorder'><div class='vertical-center'><img style='vertical-align:center; align:center' src='img/fixation2_sml.jpg'></div><div class='arrayDiv1'><div class='tc'><img class='introPic' src='trustrating_stim/white_mw078.bmp'><br><font color='red'><strong>Keep</strong></font></div></div></div>","null","ARRAY","1","trustrating_stim/white_mw078.bmp","0","Match","e","1500","","","","",""
"html-keyboard-response","172","355615","0.0-7.0-3.27","610075c1ef04d1f734032f69","bdp_wmem","Tue Mar 14 2023 00:41:26 GMT-0400 (Eastern Daylight Time)","548810","Match,No Match","","null","","","","","","","<div class='trialBorder'><div class='vertical-center'><img src='img/fixation2_sml.jpg'</img></div></div>","null","DELAY","","","","","","","","","","",""
"html-keyboard-response","173","357463","0.0-7.0-4.27","610075c1ef04d1f734032f69","bdp_wmem","Tue Mar 14 2023 00:41:26 GMT-0400 (Eastern Daylight Time)","548810","Match,No Match","","1846","","","","","","","<div class='trialBorder'><div class='targDiv'><div class='tc'><img class='introPic' src='trustrating_stim/white_mw078.bmp'><br><font color='red'><strong>Keep</strong></font></div></div><div class='respDiv'><div class='respDivL'>Match<br>(e)</div><div class='respDivR'>No Match<br>(i)</div></div></div>","e","TARGET","1","trustrating_stim/white_mw078.bmp","0","Match","e","1500","trustrating_stim/white_mw078.bmp","red","Keep","REAL","1"
"html-keyboard-response","174","357965","0.0-7.0-5.27","610075c1ef04d1f734032f69","bdp_wmem","Tue Mar 14 2023 00:41:26 GMT-0400 (Eastern Daylight Time)","548810","Match,No Match","","null","","","","","","","<div class='trialBorder'><div class='vertical-center'><img src='img/correct.jpg'></div><div class='respDiv'><div class='respDivL'><font style='color:orange'>Match<br>(e)</font></div><div class='respDivR'>No Match<br>(i)</div></div></div>","null","FEEDBACK","","","","","","","","","","",""
"html-keyboard-response","175","358467","0.0-7.0-1.28","610075c1ef04d1f734032f69","bdp_wmem","Tue Mar 14 2023 00:41:26 GMT-0400 (Eastern Daylight Time)","548810","Match,No Match","","null","","","","","","","<div class='trialBorder'><div class='vertical-center'><img src='img/fixation2_sml.jpg'</img></div></div>","null","FIX","","","","","","","","","","",""
"html-keyboard-response","176","362969","0.0-7.0-2.28","610075c1ef04d1f734032f69","bdp_wmem","Tue Mar 14 2023 00:41:26 GMT-0400 (Eastern Daylight Time)","548810","Match,No Match","","null","","","","","","","<div class='trialBorder'><div class='vertical-center'><img style='vertical-align:center; align:center' src='img/fixation2_sml.jpg'></div><div class='arrayDiv3'><div class='tl'><img class='introPic' src='trustrating_stim/white_mw092.bmp'><br><font color='green'><strong>Share</strong></font></div><div class='tc'><img class='introPic' src='trustrating_stim/white_mw010.bmp'><br><font color='green'><strong>Share</strong></font></div><div class='tr'><img class='introPic' src='trustrating_stim/white_mw003.bmp'><br><font color='red'><strong>Keep</strong></font></div></div></div>","null","ARRAY","3","trustrating_stim/white_mw092.bmp,trustrating_stim/white_mw010.bmp,trustrating_stim/white_mw003.bmp","1,1,0","noMatchOutcome","i","4500","","","","",""
"html-keyboard-response","177","366971","0.0-7.0-3.28","610075c1ef04d1f734032f69","bdp_wmem","Tue Mar 14 2023 00:41:26 GMT-0400 (Eastern Daylight Time)","548810","Match,No Match","","null","","","","","","","<div class='trialBorder'><div class='vertical-center'><img src='img/fixation2_sml.jpg'</img></div></div>","null","DELAY","","","","","","","","","","",""
"html-keyboard-response","178","368913","0.0-7.0-4.28","610075c1ef04d1f734032f69","bdp_wmem","Tue Mar 14 2023 00:41:26 GMT-0400 (Eastern Daylight Time)","548810","Match,No Match","","1940","","","","","","","<div class='trialBorder'><div class='targDiv'><div class='tc'><img class='introPic' src='trustrating_stim/white_mw092.bmp'><br><font color='red'><strong>Keep</strong></font></div></div><div class='respDiv'><div class='respDivL'>Match<br>(e)</div><div class='respDivR'>No Match<br>(i)</div></div></div>","i","TARGET","3","trustrating_stim/white_mw092.bmp,trustrating_stim/white_mw010.bmp,trustrating_stim/white_mw003.bmp","1,1,0","noMatchOutcome","i","4500","trustrating_stim/white_mw092.bmp","red","Keep","REAL","1"
"html-keyboard-response","179","369415","0.0-7.0-5.28","610075c1ef04d1f734032f69","bdp_wmem","Tue Mar 14 2023 00:41:26 GMT-0400 (Eastern Daylight Time)","548810","Match,No Match","","null","","","","","","","<div class='trialBorder'><div class='vertical-center'><img src='img/correct.jpg'></div><div class='respDiv'><div class='respDivL'>Match<br>(e)</div><div class='respDivR'><font style='color:orange'>No Match<br>(i)</font></div></div></div>","null","FEEDBACK","","","","","","","","","","",""
"html-keyboard-response","180","369918","0.0-7.0-1.29","610075c1ef04d1f734032f69","bdp_wmem","Tue Mar 14 2023 00:41:26 GMT-0400 (Eastern Daylight Time)","548810","Match,No Match","","null","","","","","","","<div class='trialBorder'><div class='vertical-center'><img src='img/fixation2_sml.jpg'</img></div></div>","null","FIX","","","","","","","","","","",""
"html-keyboard-response","181","371419","0.0-7.0-2.29","610075c1ef04d1f734032f69","bdp_wmem","Tue Mar 14 2023 00:41:26 GMT-0400 (Eastern Daylight Time)","548810","Match,No Match","","null","","","","","","","<div class='trialBorder'><div class='vertical-center'><img style='vertical-align:center; align:center' src='img/fixation2_sml.jpg'></div><div class='arrayDiv1'><div class='tc'><img class='introPic' src='trustrating_stim/white_mw010.bmp'><br><font color='green'><strong>Share</strong></font></div></div></div>","null","ARRAY","1","trustrating_stim/white_mw010.bmp","1","noMatchFace","i","1500","","","","",""
"html-keyboard-response","182","375421","0.0-7.0-3.29","610075c1ef04d1f734032f69","bdp_wmem","Tue Mar 14 2023 00:41:26 GMT-0400 (Eastern Daylight Time)","548810","Match,No Match","","null","","","","","","","<div class='trialBorder'><div class='vertical-center'><img src='img/fixation2_sml.jpg'</img></div></div>","null","DELAY","","","","","","","","","","",""
"html-keyboard-response","183","376082","0.0-7.0-4.29","610075c1ef04d1f734032f69","bdp_wmem","Tue Mar 14 2023 00:41:26 GMT-0400 (Eastern Daylight Time)","548810","Match,No Match","","661","","","","","","","<div class='trialBorder'><div class='targDiv'><div class='tc'><img class='introPic' src='trustrating_stim/white_mw070.bmp'><br><font color='green'><strong>Share</strong></font></div></div><div class='respDiv'><div class='respDivL'>Match<br>(e)</div><div class='respDivR'>No Match<br>(i)</div></div></div>","i","TARGET","1","trustrating_stim/white_mw010.bmp","1","noMatchFace","i","1500","trustrating_stim/white_mw070.bmp","green","Share","REAL","1"
"html-keyboard-response","184","376584","0.0-7.0-5.29","610075c1ef04d1f734032f69","bdp_wmem","Tue Mar 14 2023 00:41:26 GMT-0400 (Eastern Daylight Time)","548810","Match,No Match","","null","","","","","","","<div class='trialBorder'><div class='vertical-center'><img src='img/correct.jpg'></div><div class='respDiv'><div class='respDivL'>Match<br>(e)</div><div class='respDivR'><font style='color:orange'>No Match<br>(i)</font></div></div></div>","null","FEEDBACK","","","","","","","","","","",""
"html-keyboard-response","185","377086","0.0-7.0-1.30","610075c1ef04d1f734032f69","bdp_wmem","Tue Mar 14 2023 00:41:26 GMT-0400 (Eastern Daylight Time)","548810","Match,No Match","","null","","","","","","","<div class='trialBorder'><div class='vertical-center'><img src='img/fixation2_sml.jpg'</img></div></div>","null","FIX","","","","","","","","","","",""
"html-keyboard-response","186","380088","0.0-7.0-2.30","610075c1ef04d1f734032f69","bdp_wmem","Tue Mar 14 2023 00:41:26 GMT-0400 (Eastern Daylight Time)","548810","Match,No Match","","null","","","","","","","<div class='trialBorder'><div class='vertical-center'><img style='vertical-align:center; align:center' src='img/fixation2_sml.jpg'></div><div class='arrayDiv2'><div class='tl'><img class='introPic' src='trustrating_stim/white_mw092.bmp'><br><font color='green'><strong>Share</strong></font></div><div class='tr'><img class='introPic' src='trustrating_stim/white_mw003.bmp'><br><font color='red'><strong>Keep</strong></font></div></div></div>","null","ARRAY","2","trustrating_stim/white_mw092.bmp,trustrating_stim/white_mw003.bmp","1,0","Match","e","3000","","","","",""
"html-keyboard-response","187","384091","0.0-7.0-3.30","610075c1ef04d1f734032f69","bdp_wmem","Tue Mar 14 2023 00:41:26 GMT-0400 (Eastern Daylight Time)","548810","Match,No Match","","null","","","","","","","<div class='trialBorder'><div class='vertical-center'><img src='img/fixation2_sml.jpg'</img></div></div>","null","DELAY","","","","","","","","","","",""
