"trial_type","trial_index","time_elapsed","internal_node_id","subject_id","task","startTime","totalTime","labels","view_history","rt","event","trial","time","trialtype","success","stimulus","key_press","stimType","arraySize","arrayFaces","arrayOutcomes","matchType","corrResp","arrayDur","targFace","targCol","targOutcome","trialType","corr"
"pavlovia","0","3","0.0-0.0","605fb0818ad4067b3d99ece0","bdp_wmem","Tue Mar 14 2023 20:32:08 GMT-0400 (Eastern Daylight Time)","576036","Match,No Match","","","","","","","","","","","","","","","","","","","","",""
"instructions","1","1395","0.0-1.0","605fb0818ad4067b3d99ece0","bdp_wmem","Tue Mar 14 2023 20:32:08 GMT-0400 (Eastern Daylight Time)","576036","Match,No Match","[{""page_index"":0,""viewing_time"":1390}]","1391","","","","","","","","","","","","","","","","","","",""
"","","","","605fb0818ad4067b3d99ece0","bdp_wmem","Tue Mar 14 2023 20:32:08 GMT-0400 (Eastern Daylight Time)","576036","Match,No Match","","","fullscreenenter","2","2709","fullscreenenter","","","","","","","","","","","","","","",""
"fullscreen","2","3702","0.0-2.0","605fb0818ad4067b3d99ece0","bdp_wmem","Tue Mar 14 2023 20:32:08 GMT-0400 (Eastern Daylight Time)","576036","Match,No Match","","","","","","","true","","","","","","","","","","","","","",""
"instructions","3","80134","0.0-4.0","605fb0818ad4067b3d99ece0","bdp_wmem","Tue Mar 14 2023 20:32:08 GMT-0400 (Eastern Daylight Time)","576036","Match,No Match","[{""page_index"":0,""viewing_time"":22144},{""page_index"":1,""viewing_time"":16455},{""page_index"":2,""viewing_time"":25621},{""page_index"":3,""viewing_time"":5851},{""page_index"":4,""viewing_time"":6360}]","76431","","","","","","","","","","","","","","","","","","",""
"html-keyboard-response","4","80638","0.0-5.0-1.0","605fb0818ad4067b3d99ece0","bdp_wmem","Tue Mar 14 2023 20:32:08 GMT-0400 (Eastern Daylight Time)","576036","Match,No Match","","null","","","","","","<div class='trialBorder'><div class='vertical-center'><img src='img/fixation2_sml.jpg'</img></div></div>","null","FIX","","","","","","","","","","",""
"html-keyboard-response","5","85141","0.0-5.0-2.0","605fb0818ad4067b3d99ece0","bdp_wmem","Tue Mar 14 2023 20:32:08 GMT-0400 (Eastern Daylight Time)","576036","Match,No Match","","null","","","","","","<div class='trialBorder'><div class='vertical-center'><img style='vertical-align:center; align:center' src='img/fixation2_sml.jpg'></div><div class='arrayDiv3'><div class='tl'><img class='introPic' src='trustrating_stim/white_mw091.bmp'><br><font color='green'><strong>Share</strong></font></div><div class='tc'><img class='introPic' src='trustrating_stim/white_mw012.bmp'><br><font color='red'><strong>Keep</strong></font></div><div class='tr'><img class='introPic' src='trustrating_stim/white_mw040.bmp'><br><font color='red'><strong>Keep</strong></font></div></div></div>","null","ARRAY","3","trustrating_stim/white_mw091.bmp,trustrating_stim/white_mw012.bmp,trustrating_stim/white_mw040.bmp","1,0,0","Match","e","4500","","","","",""
"html-keyboard-response","6","89144","0.0-5.0-3.0","605fb0818ad4067b3d99ece0","bdp_wmem","Tue Mar 14 2023 20:32:08 GMT-0400 (Eastern Daylight Time)","576036","Match,No Match","","null","","","","","","<div class='trialBorder'><div class='vertical-center'><img src='img/fixation2_sml.jpg'</img></div></div>","null","DELAY","","","","","","","","","","",""
"html-keyboard-response","7","92418","0.0-5.0-4.0","605fb0818ad4067b3d99ece0","bdp_wmem","Tue Mar 14 2023 20:32:08 GMT-0400 (Eastern Daylight Time)","576036","Match,No Match","","3272","","","","","","<div class='trialBorder'><div class='targDiv'><div class='tc'><img class='introPic' src='trustrating_stim/white_mw012.bmp'><br><font color='red'><strong>Keep</strong></font></div></div><div class='respDiv'><div class='respDivL'>Match<br>(e)</div><div class='respDivR'>No Match<br>(i)</div></div></div>","e","TARGET","3","trustrating_stim/white_mw091.bmp,trustrating_stim/white_mw012.bmp,trustrating_stim/white_mw040.bmp","1,0,0","Match","e","4500","trustrating_stim/white_mw012.bmp","red","Keep","PRACTICE","1"
"html-keyboard-response","8","92919","0.0-5.0-5.0","605fb0818ad4067b3d99ece0","bdp_wmem","Tue Mar 14 2023 20:32:08 GMT-0400 (Eastern Daylight Time)","576036","Match,No Match","","null","","","","","","<div class='trialBorder'><div class='vertical-center'><img src='img/correct.jpg'></div><div class='respDiv'><div class='respDivL'><font style='color:orange'>Match<br>(e)</font></div><div class='respDivR'>No Match<br>(i)</div></div></div>","null","FEEDBACK","","","","","","","","","","",""
"html-keyboard-response","9","93421","0.0-5.0-1.1","605fb0818ad4067b3d99ece0","bdp_wmem","Tue Mar 14 2023 20:32:08 GMT-0400 (Eastern Daylight Time)","576036","Match,No Match","","null","","","","","","<div class='trialBorder'><div class='vertical-center'><img src='img/fixation2_sml.jpg'</img></div></div>","null","FIX","","","","","","","","","","",""
"html-keyboard-response","10","94922","0.0-5.0-2.1","605fb0818ad4067b3d99ece0","bdp_wmem","Tue Mar 14 2023 20:32:08 GMT-0400 (Eastern Daylight Time)","576036","Match,No Match","","null","","","","","","<div class='trialBorder'><div class='vertical-center'><img style='vertical-align:center; align:center' src='img/fixation2_sml.jpg'></div><div class='arrayDiv1'><div class='tc'><img class='introPic' src='trustrating_stim/white_mw085.bmp'><br><font color='red'><strong>Keep</strong></font></div></div></div>","null","ARRAY","1","trustrating_stim/white_mw085.bmp","0","Match","e","1500","","","","",""
"html-keyboard-response","11","98924","0.0-5.0-3.1","605fb0818ad4067b3d99ece0","bdp_wmem","Tue Mar 14 2023 20:32:08 GMT-0400 (Eastern Daylight Time)","576036","Match,No Match","","null","","","","","","<div class='trialBorder'><div class='vertical-center'><img src='img/fixation2_sml.jpg'</img></div></div>","null","DELAY","","","","","","","","","","",""
"html-keyboard-response","12","100420","0.0-5.0-4.1","605fb0818ad4067b3d99ece0","bdp_wmem","Tue Mar 14 2023 20:32:08 GMT-0400 (Eastern Daylight Time)","576036","Match,No Match","","1494","","","","","","<div class='trialBorder'><div class='targDiv'><div class='tc'><img class='introPic' src='trustrating_stim/white_mw085.bmp'><br><font color='red'><strong>Keep</strong></font></div></div><div class='respDiv'><div class='respDivL'>Match<br>(e)</div><div class='respDivR'>No Match<br>(i)</div></div></div>","e","TARGET","1","trustrating_stim/white_mw085.bmp","0","Match","e","1500","trustrating_stim/white_mw085.bmp","red","Keep","PRACTICE","1"
"html-keyboard-response","13","100921","0.0-5.0-5.1","605fb0818ad4067b3d99ece0","bdp_wmem","Tue Mar 14 2023 20:32:08 GMT-0400 (Eastern Daylight Time)","576036","Match,No Match","","null","","","","","","<div class='trialBorder'><div class='vertical-center'><img src='img/correct.jpg'></div><div class='respDiv'><div class='respDivL'><font style='color:orange'>Match<br>(e)</font></div><div class='respDivR'>No Match<br>(i)</div></div></div>","null","FEEDBACK","","","","","","","","","","",""
"html-keyboard-response","14","101423","0.0-5.0-1.2","605fb0818ad4067b3d99ece0","bdp_wmem","Tue Mar 14 2023 20:32:08 GMT-0400 (Eastern Daylight Time)","576036","Match,No Match","","null","","","","","","<div class='trialBorder'><div class='vertical-center'><img src='img/fixation2_sml.jpg'</img></div></div>","null","FIX","","","","","","","","","","",""
"html-keyboard-response","15","105925","0.0-5.0-2.2","605fb0818ad4067b3d99ece0","bdp_wmem","Tue Mar 14 2023 20:32:08 GMT-0400 (Eastern Daylight Time)","576036","Match,No Match","","null","","","","","","<div class='trialBorder'><div class='vertical-center'><img style='vertical-align:center; align:center' src='img/fixation2_sml.jpg'></div><div class='arrayDiv3'><div class='tl'><img class='introPic' src='trustrating_stim/white_mw038.bmp'><br><font color='green'><strong>Share</strong></font></div><div class='tc'><img class='introPic' src='trustrating_stim/white_mw091.bmp'><br><font color='red'><strong>Keep</strong></font></div><div class='tr'><img class='introPic' src='trustrating_stim/white_mw012.bmp'><br><font color='red'><strong>Keep</strong></font></div></div></div>","null","ARRAY","3","trustrating_stim/white_mw038.bmp,trustrating_stim/white_mw091.bmp,trustrating_stim/white_mw012.bmp","1,0,0","noMatchOutcome","i","4500","","","","",""
"html-keyboard-response","16","109927","0.0-5.0-3.2","605fb0818ad4067b3d99ece0","bdp_wmem","Tue Mar 14 2023 20:32:08 GMT-0400 (Eastern Daylight Time)","576036","Match,No Match","","null","","","","","","<div class='trialBorder'><div class='vertical-center'><img src='img/fixation2_sml.jpg'</img></div></div>","null","DELAY","","","","","","","","","","",""
"html-keyboard-response","17","112999","0.0-5.0-4.2","605fb0818ad4067b3d99ece0","bdp_wmem","Tue Mar 14 2023 20:32:08 GMT-0400 (Eastern Daylight Time)","576036","Match,No Match","","3071","","","","","","<div class='trialBorder'><div class='targDiv'><div class='tc'><img class='introPic' src='trustrating_stim/white_mw091.bmp'><br><font color='green'><strong>Share</strong></font></div></div><div class='respDiv'><div class='respDivL'>Match<br>(e)</div><div class='respDivR'>No Match<br>(i)</div></div></div>","i","TARGET","3","trustrating_stim/white_mw038.bmp,trustrating_stim/white_mw091.bmp,trustrating_stim/white_mw012.bmp","1,0,0","noMatchOutcome","i","4500","trustrating_stim/white_mw091.bmp","green","Share","PRACTICE","1"
"html-keyboard-response","18","113501","0.0-5.0-5.2","605fb0818ad4067b3d99ece0","bdp_wmem","Tue Mar 14 2023 20:32:08 GMT-0400 (Eastern Daylight Time)","576036","Match,No Match","","null","","","","","","<div class='trialBorder'><div class='vertical-center'><img src='img/correct.jpg'></div><div class='respDiv'><div class='respDivL'>Match<br>(e)</div><div class='respDivR'><font style='color:orange'>No Match<br>(i)</font></div></div></div>","null","FEEDBACK","","","","","","","","","","",""
"html-keyboard-response","19","114003","0.0-5.0-1.3","605fb0818ad4067b3d99ece0","bdp_wmem","Tue Mar 14 2023 20:32:08 GMT-0400 (Eastern Daylight Time)","576036","Match,No Match","","null","","","","","","<div class='trialBorder'><div class='vertical-center'><img src='img/fixation2_sml.jpg'</img></div></div>","null","FIX","","","","","","","","","","",""
"html-keyboard-response","20","117005","0.0-5.0-2.3","605fb0818ad4067b3d99ece0","bdp_wmem","Tue Mar 14 2023 20:32:08 GMT-0400 (Eastern Daylight Time)","576036","Match,No Match","","null","","","","","","<div class='trialBorder'><div class='vertical-center'><img style='vertical-align:center; align:center' src='img/fixation2_sml.jpg'></div><div class='arrayDiv2'><div class='tl'><img class='introPic' src='trustrating_stim/white_mw070.bmp'><br><font color='green'><strong>Share</strong></font></div><div class='tr'><img class='introPic' src='trustrating_stim/white_mw038.bmp'><br><font color='red'><strong>Keep</strong></font></div></div></div>","null","ARRAY","2","trustrating_stim/white_mw070.bmp,trustrating_stim/white_mw038.bmp","1,0","noMatchFace","i","3000","","","","",""
"html-keyboard-response","21","121006","0.0-5.0-3.3","605fb0818ad4067b3d99ece0","bdp_wmem","Tue Mar 14 2023 20:32:08 GMT-0400 (Eastern Daylight Time)","576036","Match,No Match","","null","","","","","","<div class='trialBorder'><div class='vertical-center'><img src='img/fixation2_sml.jpg'</img></div></div>","null","DELAY","","","","","","","","","","",""
"html-keyboard-response","22","122439","0.0-5.0-4.3","605fb0818ad4067b3d99ece0","bdp_wmem","Tue Mar 14 2023 20:32:08 GMT-0400 (Eastern Daylight Time)","576036","Match,No Match","","1432","","","","","","<div class='trialBorder'><div class='targDiv'><div class='tc'><img class='introPic' src='trustrating_stim/white_mw078.bmp'><br><font color='green'><strong>Share</strong></font></div></div><div class='respDiv'><div class='respDivL'>Match<br>(e)</div><div class='respDivR'>No Match<br>(i)</div></div></div>","i","TARGET","2","trustrating_stim/white_mw070.bmp,trustrating_stim/white_mw038.bmp","1,0","noMatchFace","i","3000","trustrating_stim/white_mw078.bmp","green","Share","PRACTICE","1"
"html-keyboard-response","23","122940","0.0-5.0-5.3","605fb0818ad4067b3d99ece0","bdp_wmem","Tue Mar 14 2023 20:32:08 GMT-0400 (Eastern Daylight Time)","576036","Match,No Match","","null","","","","","","<div class='trialBorder'><div class='vertical-center'><img src='img/correct.jpg'></div><div class='respDiv'><div class='respDivL'>Match<br>(e)</div><div class='respDivR'><font style='color:orange'>No Match<br>(i)</font></div></div></div>","null","FEEDBACK","","","","","","","","","","",""
"html-keyboard-response","24","123442","0.0-5.0-1.4","605fb0818ad4067b3d99ece0","bdp_wmem","Tue Mar 14 2023 20:32:08 GMT-0400 (Eastern Daylight Time)","576036","Match,No Match","","null","","","","","","<div class='trialBorder'><div class='vertical-center'><img src='img/fixation2_sml.jpg'</img></div></div>","null","FIX","","","","","","","","","","",""
"html-keyboard-response","25","124945","0.0-5.0-2.4","605fb0818ad4067b3d99ece0","bdp_wmem","Tue Mar 14 2023 20:32:08 GMT-0400 (Eastern Daylight Time)","576036","Match,No Match","","null","","","","","","<div class='trialBorder'><div class='vertical-center'><img style='vertical-align:center; align:center' src='img/fixation2_sml.jpg'></div><div class='arrayDiv1'><div class='tc'><img class='introPic' src='trustrating_stim/white_mw070.bmp'><br><font color='green'><strong>Share</strong></font></div></div></div>","null","ARRAY","1","trustrating_stim/white_mw070.bmp","1","noMatchFace","i","1500","","","","",""
"html-keyboard-response","26","128946","0.0-5.0-3.4","605fb0818ad4067b3d99ece0","bdp_wmem","Tue Mar 14 2023 20:32:08 GMT-0400 (Eastern Daylight Time)","576036","Match,No Match","","null","","","","","","<div class='trialBorder'><div class='vertical-center'><img src='img/fixation2_sml.jpg'</img></div></div>","null","DELAY","","","","","","","","","","",""
"html-keyboard-response","27","130048","0.0-5.0-4.4","605fb0818ad4067b3d99ece0","bdp_wmem","Tue Mar 14 2023 20:32:08 GMT-0400 (Eastern Daylight Time)","576036","Match,No Match","","1100","","","","","","<div class='trialBorder'><div class='targDiv'><div class='tc'><img class='introPic' src='trustrating_stim/white_mw040.bmp'><br><font color='green'><strong>Share</strong></font></div></div><div class='respDiv'><div class='respDivL'>Match<br>(e)</div><div class='respDivR'>No Match<br>(i)</div></div></div>","i","TARGET","1","trustrating_stim/white_mw070.bmp","1","noMatchFace","i","1500","trustrating_stim/white_mw040.bmp","green","Share","PRACTICE","1"
"html-keyboard-response","28","130549","0.0-5.0-5.4","605fb0818ad4067b3d99ece0","bdp_wmem","Tue Mar 14 2023 20:32:08 GMT-0400 (Eastern Daylight Time)","576036","Match,No Match","","null","","","","","","<div class='trialBorder'><div class='vertical-center'><img src='img/correct.jpg'></div><div class='respDiv'><div class='respDivL'>Match<br>(e)</div><div class='respDivR'><font style='color:orange'>No Match<br>(i)</font></div></div></div>","null","FEEDBACK","","","","","","","","","","",""
"html-keyboard-response","29","131051","0.0-5.0-1.5","605fb0818ad4067b3d99ece0","bdp_wmem","Tue Mar 14 2023 20:32:08 GMT-0400 (Eastern Daylight Time)","576036","Match,No Match","","null","","","","","","<div class='trialBorder'><div class='vertical-center'><img src='img/fixation2_sml.jpg'</img></div></div>","null","FIX","","","","","","","","","","",""
"html-keyboard-response","30","134053","0.0-5.0-2.5","605fb0818ad4067b3d99ece0","bdp_wmem","Tue Mar 14 2023 20:32:08 GMT-0400 (Eastern Daylight Time)","576036","Match,No Match","","null","","","","","","<div class='trialBorder'><div class='vertical-center'><img style='vertical-align:center; align:center' src='img/fixation2_sml.jpg'></div><div class='arrayDiv2'><div class='tl'><img class='introPic' src='trustrating_stim/white_mw003.bmp'><br><font color='green'><strong>Share</strong></font></div><div class='tr'><img class='introPic' src='trustrating_stim/white_mw085.bmp'><br><font color='red'><strong>Keep</strong></font></div></div></div>","null","ARRAY","2","trustrating_stim/white_mw003.bmp,trustrating_stim/white_mw085.bmp","1,0","Match","e","3000","","","","",""
"html-keyboard-response","31","138054","0.0-5.0-3.5","605fb0818ad4067b3d99ece0","bdp_wmem","Tue Mar 14 2023 20:32:08 GMT-0400 (Eastern Daylight Time)","576036","Match,No Match","","null","","","","","","<div class='trialBorder'><div class='vertical-center'><img src='img/fixation2_sml.jpg'</img></div></div>","null","DELAY","","","","","","","","","","",""
"html-keyboard-response","32","139581","0.0-5.0-4.5","605fb0818ad4067b3d99ece0","bdp_wmem","Tue Mar 14 2023 20:32:08 GMT-0400 (Eastern Daylight Time)","576036","Match,No Match","","1526","","","","","","<div class='trialBorder'><div class='targDiv'><div class='tc'><img class='introPic' src='trustrating_stim/white_mw003.bmp'><br><font color='green'><strong>Share</strong></font></div></div><div class='respDiv'><div class='respDivL'>Match<br>(e)</div><div class='respDivR'>No Match<br>(i)</div></div></div>","e","TARGET","2","trustrating_stim/white_mw003.bmp,trustrating_stim/white_mw085.bmp","1,0","Match","e","3000","trustrating_stim/white_mw003.bmp","green","Share","PRACTICE","1"
"html-keyboard-response","33","140083","0.0-5.0-5.5","605fb0818ad4067b3d99ece0","bdp_wmem","Tue Mar 14 2023 20:32:08 GMT-0400 (Eastern Daylight Time)","576036","Match,No Match","","null","","","","","","<div class='trialBorder'><div class='vertical-center'><img src='img/correct.jpg'></div><div class='respDiv'><div class='respDivL'><font style='color:orange'>Match<br>(e)</font></div><div class='respDivR'>No Match<br>(i)</div></div></div>","null","FEEDBACK","","","","","","","","","","",""
"instructions","34","142582","0.0-6.0","605fb0818ad4067b3d99ece0","bdp_wmem","Tue Mar 14 2023 20:32:08 GMT-0400 (Eastern Daylight Time)","576036","Match,No Match","[{""page_index"":0,""viewing_time"":2499}]","2499","","","","","","","","","","","","","","","","","","",""
"html-keyboard-response","35","143085","0.0-7.0-1.0","605fb0818ad4067b3d99ece0","bdp_wmem","Tue Mar 14 2023 20:32:08 GMT-0400 (Eastern Daylight Time)","576036","Match,No Match","","null","","","","","","<div class='trialBorder'><div class='vertical-center'><img src='img/fixation2_sml.jpg'</img></div></div>","null","FIX","","","","","","","","","","",""
"html-keyboard-response","36","146087","0.0-7.0-2.0","605fb0818ad4067b3d99ece0","bdp_wmem","Tue Mar 14 2023 20:32:08 GMT-0400 (Eastern Daylight Time)","576036","Match,No Match","","null","","","","","","<div class='trialBorder'><div class='vertical-center'><img style='vertical-align:center; align:center' src='img/fixation2_sml.jpg'></div><div class='arrayDiv2'><div class='tl'><img class='introPic' src='trustrating_stim/white_mw092.bmp'><br><font color='green'><strong>Share</strong></font></div><div class='tr'><img class='introPic' src='trustrating_stim/white_mw085.bmp'><br><font color='red'><strong>Keep</strong></font></div></div></div>","null","ARRAY","2","trustrating_stim/white_mw092.bmp,trustrating_stim/white_mw085.bmp","1,0","Match","e","3000","","","","",""
"html-keyboard-response","37","150088","0.0-7.0-3.0","605fb0818ad4067b3d99ece0","bdp_wmem","Tue Mar 14 2023 20:32:08 GMT-0400 (Eastern Daylight Time)","576036","Match,No Match","","null","","","","","","<div class='trialBorder'><div class='vertical-center'><img src='img/fixation2_sml.jpg'</img></div></div>","null","DELAY","","","","","","","","","","",""
"html-keyboard-response","38","152088","0.0-7.0-4.0","605fb0818ad4067b3d99ece0","bdp_wmem","Tue Mar 14 2023 20:32:08 GMT-0400 (Eastern Daylight Time)","576036","Match,No Match","","1999","","","","","","<div class='trialBorder'><div class='targDiv'><div class='tc'><img class='introPic' src='trustrating_stim/white_mw085.bmp'><br><font color='red'><strong>Keep</strong></font></div></div><div class='respDiv'><div class='respDivL'>Match<br>(e)</div><div class='respDivR'>No Match<br>(i)</div></div></div>","e","TARGET","2","trustrating_stim/white_mw092.bmp,trustrating_stim/white_mw085.bmp","1,0","Match","e","3000","trustrating_stim/white_mw085.bmp","red","Keep","REAL","1"
"html-keyboard-response","39","152590","0.0-7.0-5.0","605fb0818ad4067b3d99ece0","bdp_wmem","Tue Mar 14 2023 20:32:08 GMT-0400 (Eastern Daylight Time)","576036","Match,No Match","","null","","","","","","<div class='trialBorder'><div class='vertical-center'><img src='img/correct.jpg'></div><div class='respDiv'><div class='respDivL'><font style='color:orange'>Match<br>(e)</font></div><div class='respDivR'>No Match<br>(i)</div></div></div>","null","FEEDBACK","","","","","","","","","","",""
"html-keyboard-response","40","153091","0.0-7.0-1.1","605fb0818ad4067b3d99ece0","bdp_wmem","Tue Mar 14 2023 20:32:08 GMT-0400 (Eastern Daylight Time)","576036","Match,No Match","","null","","","","","","<div class='trialBorder'><div class='vertical-center'><img src='img/fixation2_sml.jpg'</img></div></div>","null","FIX","","","","","","","","","","",""
"html-keyboard-response","41","156093","0.0-7.0-2.1","605fb0818ad4067b3d99ece0","bdp_wmem","Tue Mar 14 2023 20:32:08 GMT-0400 (Eastern Daylight Time)","576036","Match,No Match","","null","","","","","","<div class='trialBorder'><div class='vertical-center'><img style='vertical-align:center; align:center' src='img/fixation2_sml.jpg'></div><div class='arrayDiv2'><div class='tl'><img class='introPic' src='trustrating_stim/white_mw085.bmp'><br><font color='red'><strong>Keep</strong></font></div><div class='tr'><img class='introPic' src='trustrating_stim/white_mw003.bmp'><br><font color='green'><strong>Share</strong></font></div></div></div>","null","ARRAY","2","trustrating_stim/white_mw085.bmp,trustrating_stim/white_mw003.bmp","0,1","Match","e","3000","","","","",""
"html-keyboard-response","42","160094","0.0-7.0-3.1","605fb0818ad4067b3d99ece0","bdp_wmem","Tue Mar 14 2023 20:32:08 GMT-0400 (Eastern Daylight Time)","576036","Match,No Match","","null","","","","","","<div class='trialBorder'><div class='vertical-center'><img src='img/fixation2_sml.jpg'</img></div></div>","null","DELAY","","","","","","","","","","",""
"html-keyboard-response","43","161499","0.0-7.0-4.1","605fb0818ad4067b3d99ece0","bdp_wmem","Tue Mar 14 2023 20:32:08 GMT-0400 (Eastern Daylight Time)","576036","Match,No Match","","1404","","","","","","<div class='trialBorder'><div class='targDiv'><div class='tc'><img class='introPic' src='trustrating_stim/white_mw085.bmp'><br><font color='red'><strong>Keep</strong></font></div></div><div class='respDiv'><div class='respDivL'>Match<br>(e)</div><div class='respDivR'>No Match<br>(i)</div></div></div>","e","TARGET","2","trustrating_stim/white_mw085.bmp,trustrating_stim/white_mw003.bmp","0,1","Match","e","3000","trustrating_stim/white_mw085.bmp","red","Keep","REAL","1"
"html-keyboard-response","44","162002","0.0-7.0-5.1","605fb0818ad4067b3d99ece0","bdp_wmem","Tue Mar 14 2023 20:32:08 GMT-0400 (Eastern Daylight Time)","576036","Match,No Match","","null","","","","","","<div class='trialBorder'><div class='vertical-center'><img src='img/correct.jpg'></div><div class='respDiv'><div class='respDivL'><font style='color:orange'>Match<br>(e)</font></div><div class='respDivR'>No Match<br>(i)</div></div></div>","null","FEEDBACK","","","","","","","","","","",""
"html-keyboard-response","45","162504","0.0-7.0-1.2","605fb0818ad4067b3d99ece0","bdp_wmem","Tue Mar 14 2023 20:32:08 GMT-0400 (Eastern Daylight Time)","576036","Match,No Match","","null","","","","","","<div class='trialBorder'><div class='vertical-center'><img src='img/fixation2_sml.jpg'</img></div></div>","null","FIX","","","","","","","","","","",""
"html-keyboard-response","46","165506","0.0-7.0-2.2","605fb0818ad4067b3d99ece0","bdp_wmem","Tue Mar 14 2023 20:32:08 GMT-0400 (Eastern Daylight Time)","576036","Match,No Match","","null","","","","","","<div class='trialBorder'><div class='vertical-center'><img style='vertical-align:center; align:center' src='img/fixation2_sml.jpg'></div><div class='arrayDiv2'><div class='tl'><img class='introPic' src='trustrating_stim/white_mw085.bmp'><br><font color='red'><strong>Keep</strong></font></div><div class='tr'><img class='introPic' src='trustrating_stim/white_mw012.bmp'><br><font color='green'><strong>Share</strong></font></div></div></div>","null","ARRAY","2","trustrating_stim/white_mw085.bmp,trustrating_stim/white_mw012.bmp","0,1","noMatchOutcome","i","3000","","","","",""
"html-keyboard-response","47","169508","0.0-7.0-3.2","605fb0818ad4067b3d99ece0","bdp_wmem","Tue Mar 14 2023 20:32:08 GMT-0400 (Eastern Daylight Time)","576036","Match,No Match","","null","","","","","","<div class='trialBorder'><div class='vertical-center'><img src='img/fixation2_sml.jpg'</img></div></div>","null","DELAY","","","","","","","","","","",""
"html-keyboard-response","48","170691","0.0-7.0-4.2","605fb0818ad4067b3d99ece0","bdp_wmem","Tue Mar 14 2023 20:32:08 GMT-0400 (Eastern Daylight Time)","576036","Match,No Match","","1182","","","","","","<div class='trialBorder'><div class='targDiv'><div class='tc'><img class='introPic' src='trustrating_stim/white_mw085.bmp'><br><font color='green'><strong>Share</strong></font></div></div><div class='respDiv'><div class='respDivL'>Match<br>(e)</div><div class='respDivR'>No Match<br>(i)</div></div></div>","i","TARGET","2","trustrating_stim/white_mw085.bmp,trustrating_stim/white_mw012.bmp","0,1","noMatchOutcome","i","3000","trustrating_stim/white_mw085.bmp","green","Share","REAL","1"
"html-keyboard-response","49","171192","0.0-7.0-5.2","605fb0818ad4067b3d99ece0","bdp_wmem","Tue Mar 14 2023 20:32:08 GMT-0400 (Eastern Daylight Time)","576036","Match,No Match","","null","","","","","","<div class='trialBorder'><div class='vertical-center'><img src='img/correct.jpg'></div><div class='respDiv'><div class='respDivL'>Match<br>(e)</div><div class='respDivR'><font style='color:orange'>No Match<br>(i)</font></div></div></div>","null","FEEDBACK","","","","","","","","","","",""
"html-keyboard-response","50","171694","0.0-7.0-1.3","605fb0818ad4067b3d99ece0","bdp_wmem","Tue Mar 14 2023 20:32:08 GMT-0400 (Eastern Daylight Time)","576036","Match,No Match","","null","","","","","","<div class='trialBorder'><div class='vertical-center'><img src='img/fixation2_sml.jpg'</img></div></div>","null","FIX","","","","","","","","","","",""
"html-keyboard-response","51","173196","0.0-7.0-2.3","605fb0818ad4067b3d99ece0","bdp_wmem","Tue Mar 14 2023 20:32:08 GMT-0400 (Eastern Daylight Time)","576036","Match,No Match","","null","","","","","","<div class='trialBorder'><div class='vertical-center'><img style='vertical-align:center; align:center' src='img/fixation2_sml.jpg'></div><div class='arrayDiv1'><div class='tc'><img class='introPic' src='trustrating_stim/white_mw085.bmp'><br><font color='red'><strong>Keep</strong></font></div></div></div>","null","ARRAY","1","trustrating_stim/white_mw085.bmp","0","Match","e","1500","","","","",""
"html-keyboard-response","52","177198","0.0-7.0-3.3","605fb0818ad4067b3d99ece0","bdp_wmem","Tue Mar 14 2023 20:32:08 GMT-0400 (Eastern Daylight Time)","576036","Match,No Match","","null","","","","","","<div class='trialBorder'><div class='vertical-center'><img src='img/fixation2_sml.jpg'</img></div></div>","null","DELAY","","","","","","","","","","",""
"html-keyboard-response","53","177974","0.0-7.0-4.3","605fb0818ad4067b3d99ece0","bdp_wmem","Tue Mar 14 2023 20:32:08 GMT-0400 (Eastern Daylight Time)","576036","Match,No Match","","775","","","","","","<div class='trialBorder'><div class='targDiv'><div class='tc'><img class='introPic' src='trustrating_stim/white_mw085.bmp'><br><font color='red'><strong>Keep</strong></font></div></div><div class='respDiv'><div class='respDivL'>Match<br>(e)</div><div class='respDivR'>No Match<br>(i)</div></div></div>","i","TARGET","1","trustrating_stim/white_mw085.bmp","0","Match","e","1500","trustrating_stim/white_mw085.bmp","red","Keep","REAL","0"
"html-keyboard-response","54","178476","0.0-7.0-5.3","605fb0818ad4067b3d99ece0","bdp_wmem","Tue Mar 14 2023 20:32:08 GMT-0400 (Eastern Daylight Time)","576036","Match,No Match","","null","","","","","","<div class='trialBorder'><div class='vertical-center'><img src='img/error.jpg'></div><div class='respDiv'><div class='respDivL'>Match<br>(e)</div><div class='respDivR'><font style='color:orange'>No Match<br>(i)</font></div></div></div>","null","FEEDBACK","","","","","","","","","","",""
"html-keyboard-response","55","178979","0.0-7.0-1.4","605fb0818ad4067b3d99ece0","bdp_wmem","Tue Mar 14 2023 20:32:08 GMT-0400 (Eastern Daylight Time)","576036","Match,No Match","","null","","","","","","<div class='trialBorder'><div class='vertical-center'><img src='img/fixation2_sml.jpg'</img></div></div>","null","FIX","","","","","","","","","","",""
"html-keyboard-response","56","181981","0.0-7.0-2.4","605fb0818ad4067b3d99ece0","bdp_wmem","Tue Mar 14 2023 20:32:08 GMT-0400 (Eastern Daylight Time)","576036","Match,No Match","","null","","","","","","<div class='trialBorder'><div class='vertical-center'><img style='vertical-align:center; align:center' src='img/fixation2_sml.jpg'></div><div class='arrayDiv2'><div class='tl'><img class='introPic' src='trustrating_stim/white_mw040.bmp'><br><font color='red'><strong>Keep</strong></font></div><div class='tr'><img class='introPic' src='trustrating_stim/white_mw012.bmp'><br><font color='green'><strong>Share</strong></font></div></div></div>","null","ARRAY","2","trustrating_stim/white_mw040.bmp,trustrating_stim/white_mw012.bmp","0,1","Match","e","3000","","","","",""
"html-keyboard-response","57","185983","0.0-7.0-3.4","605fb0818ad4067b3d99ece0","bdp_wmem","Tue Mar 14 2023 20:32:08 GMT-0400 (Eastern Daylight Time)","576036","Match,No Match","","null","","","","","","<div class='trialBorder'><div class='vertical-center'><img src='img/fixation2_sml.jpg'</img></div></div>","null","DELAY","","","","","","","","","","",""
"html-keyboard-response","58","186756","0.0-7.0-4.4","605fb0818ad4067b3d99ece0","bdp_wmem","Tue Mar 14 2023 20:32:08 GMT-0400 (Eastern Daylight Time)","576036","Match,No Match","","772","","","","","","<div class='trialBorder'><div class='targDiv'><div class='tc'><img class='introPic' src='trustrating_stim/white_mw040.bmp'><br><font color='red'><strong>Keep</strong></font></div></div><div class='respDiv'><div class='respDivL'>Match<br>(e)</div><div class='respDivR'>No Match<br>(i)</div></div></div>","e","TARGET","2","trustrating_stim/white_mw040.bmp,trustrating_stim/white_mw012.bmp","0,1","Match","e","3000","trustrating_stim/white_mw040.bmp","red","Keep","REAL","1"
"html-keyboard-response","59","187258","0.0-7.0-5.4","605fb0818ad4067b3d99ece0","bdp_wmem","Tue Mar 14 2023 20:32:08 GMT-0400 (Eastern Daylight Time)","576036","Match,No Match","","null","","","","","","<div class='trialBorder'><div class='vertical-center'><img src='img/correct.jpg'></div><div class='respDiv'><div class='respDivL'><font style='color:orange'>Match<br>(e)</font></div><div class='respDivR'>No Match<br>(i)</div></div></div>","null","FEEDBACK","","","","","","","","","","",""
"html-keyboard-response","60","187759","0.0-7.0-1.5","605fb0818ad4067b3d99ece0","bdp_wmem","Tue Mar 14 2023 20:32:08 GMT-0400 (Eastern Daylight Time)","576036","Match,No Match","","null","","","","","","<div class='trialBorder'><div class='vertical-center'><img src='img/fixation2_sml.jpg'</img></div></div>","null","FIX","","","","","","","","","","",""
"html-keyboard-response","61","189262","0.0-7.0-2.5","605fb0818ad4067b3d99ece0","bdp_wmem","Tue Mar 14 2023 20:32:08 GMT-0400 (Eastern Daylight Time)","576036","Match,No Match","","null","","","","","","<div class='trialBorder'><div class='vertical-center'><img style='vertical-align:center; align:center' src='img/fixation2_sml.jpg'></div><div class='arrayDiv1'><div class='tc'><img class='introPic' src='trustrating_stim/white_mw042.bmp'><br><font color='red'><strong>Keep</strong></font></div></div></div>","null","ARRAY","1","trustrating_stim/white_mw042.bmp","0","noMatchFace","i","1500","","","","",""
"html-keyboard-response","62","193263","0.0-7.0-3.5","605fb0818ad4067b3d99ece0","bdp_wmem","Tue Mar 14 2023 20:32:08 GMT-0400 (Eastern Daylight Time)","576036","Match,No Match","","null","","","","","","<div class='trialBorder'><div class='vertical-center'><img src='img/fixation2_sml.jpg'</img></div></div>","null","DELAY","","","","","","","","","","",""
"html-keyboard-response","63","193958","0.0-7.0-4.5","605fb0818ad4067b3d99ece0","bdp_wmem","Tue Mar 14 2023 20:32:08 GMT-0400 (Eastern Daylight Time)","576036","Match,No Match","","694","","","","","","<div class='trialBorder'><div class='targDiv'><div class='tc'><img class='introPic' src='trustrating_stim/white_mw010.bmp'><br><font color='red'><strong>Keep</strong></font></div></div><div class='respDiv'><div class='respDivL'>Match<br>(e)</div><div class='respDivR'>No Match<br>(i)</div></div></div>","i","TARGET","1","trustrating_stim/white_mw042.bmp","0","noMatchFace","i","1500","trustrating_stim/white_mw010.bmp","red","Keep","REAL","1"
"html-keyboard-response","64","194460","0.0-7.0-5.5","605fb0818ad4067b3d99ece0","bdp_wmem","Tue Mar 14 2023 20:32:08 GMT-0400 (Eastern Daylight Time)","576036","Match,No Match","","null","","","","","","<div class='trialBorder'><div class='vertical-center'><img src='img/correct.jpg'></div><div class='respDiv'><div class='respDivL'>Match<br>(e)</div><div class='respDivR'><font style='color:orange'>No Match<br>(i)</font></div></div></div>","null","FEEDBACK","","","","","","","","","","",""
"html-keyboard-response","65","194962","0.0-7.0-1.6","605fb0818ad4067b3d99ece0","bdp_wmem","Tue Mar 14 2023 20:32:08 GMT-0400 (Eastern Daylight Time)","576036","Match,No Match","","null","","","","","","<div class='trialBorder'><div class='vertical-center'><img src='img/fixation2_sml.jpg'</img></div></div>","null","FIX","","","","","","","","","","",""
"html-keyboard-response","66","199464","0.0-7.0-2.6","605fb0818ad4067b3d99ece0","bdp_wmem","Tue Mar 14 2023 20:32:08 GMT-0400 (Eastern Daylight Time)","576036","Match,No Match","","null","","","","","","<div class='trialBorder'><div class='vertical-center'><img style='vertical-align:center; align:center' src='img/fixation2_sml.jpg'></div><div class='arrayDiv3'><div class='tl'><img class='introPic' src='trustrating_stim/white_mw091.bmp'><br><font color='green'><strong>Share</strong></font></div><div class='tc'><img class='introPic' src='trustrating_stim/white_mw078.bmp'><br><font color='red'><strong>Keep</strong></font></div><div class='tr'><img class='introPic' src='trustrating_stim/white_mw013.bmp'><br><font color='green'><strong>Share</strong></font></div></div></div>","null","ARRAY","3","trustrating_stim/white_mw091.bmp,trustrating_stim/white_mw078.bmp,trustrating_stim/white_mw013.bmp","1,0,1","Match","e","4500","","","","",""
"html-keyboard-response","67","203465","0.0-7.0-3.6","605fb0818ad4067b3d99ece0","bdp_wmem","Tue Mar 14 2023 20:32:08 GMT-0400 (Eastern Daylight Time)","576036","Match,No Match","","null","","","","","","<div class='trialBorder'><div class='vertical-center'><img src='img/fixation2_sml.jpg'</img></div></div>","null","DELAY","","","","","","","","","","",""
"html-keyboard-response","68","204520","0.0-7.0-4.6","605fb0818ad4067b3d99ece0","bdp_wmem","Tue Mar 14 2023 20:32:08 GMT-0400 (Eastern Daylight Time)","576036","Match,No Match","","1053","","","","","","<div class='trialBorder'><div class='targDiv'><div class='tc'><img class='introPic' src='trustrating_stim/white_mw091.bmp'><br><font color='green'><strong>Share</strong></font></div></div><div class='respDiv'><div class='respDivL'>Match<br>(e)</div><div class='respDivR'>No Match<br>(i)</div></div></div>","e","TARGET","3","trustrating_stim/white_mw091.bmp,trustrating_stim/white_mw078.bmp,trustrating_stim/white_mw013.bmp","1,0,1","Match","e","4500","trustrating_stim/white_mw091.bmp","green","Share","REAL","1"
"html-keyboard-response","69","205022","0.0-7.0-5.6","605fb0818ad4067b3d99ece0","bdp_wmem","Tue Mar 14 2023 20:32:08 GMT-0400 (Eastern Daylight Time)","576036","Match,No Match","","null","","","","","","<div class='trialBorder'><div class='vertical-center'><img src='img/correct.jpg'></div><div class='respDiv'><div class='respDivL'><font style='color:orange'>Match<br>(e)</font></div><div class='respDivR'>No Match<br>(i)</div></div></div>","null","FEEDBACK","","","","","","","","","","",""
"html-keyboard-response","70","205524","0.0-7.0-1.7","605fb0818ad4067b3d99ece0","bdp_wmem","Tue Mar 14 2023 20:32:08 GMT-0400 (Eastern Daylight Time)","576036","Match,No Match","","null","","","","","","<div class='trialBorder'><div class='vertical-center'><img src='img/fixation2_sml.jpg'</img></div></div>","null","FIX","","","","","","","","","","",""
"html-keyboard-response","71","210027","0.0-7.0-2.7","605fb0818ad4067b3d99ece0","bdp_wmem","Tue Mar 14 2023 20:32:08 GMT-0400 (Eastern Daylight Time)","576036","Match,No Match","","null","","","","","","<div class='trialBorder'><div class='vertical-center'><img style='vertical-align:center; align:center' src='img/fixation2_sml.jpg'></div><div class='arrayDiv3'><div class='tl'><img class='introPic' src='trustrating_stim/white_mw078.bmp'><br><font color='green'><strong>Share</strong></font></div><div class='tc'><img class='introPic' src='trustrating_stim/white_mw038.bmp'><br><font color='red'><strong>Keep</strong></font></div><div class='tr'><img class='introPic' src='trustrating_stim/white_mw091.bmp'><br><font color='red'><strong>Keep</strong></font></div></div></div>","null","ARRAY","3","trustrating_stim/white_mw078.bmp,trustrating_stim/white_mw038.bmp,trustrating_stim/white_mw091.bmp","1,0,0","noMatchFace","i","4500","","","","",""
"html-keyboard-response","72","214029","0.0-7.0-3.7","605fb0818ad4067b3d99ece0","bdp_wmem","Tue Mar 14 2023 20:32:08 GMT-0400 (Eastern Daylight Time)","576036","Match,No Match","","null","","","","","","<div class='trialBorder'><div class='vertical-center'><img src='img/fixation2_sml.jpg'</img></div></div>","null","DELAY","","","","","","","","","","",""
"html-keyboard-response","73","215219","0.0-7.0-4.7","605fb0818ad4067b3d99ece0","bdp_wmem","Tue Mar 14 2023 20:32:08 GMT-0400 (Eastern Daylight Time)","576036","Match,No Match","","1188","","","","","","<div class='trialBorder'><div class='targDiv'><div class='tc'><img class='introPic' src='trustrating_stim/white_mw070.bmp'><br><font color='red'><strong>Keep</strong></font></div></div><div class='respDiv'><div class='respDivL'>Match<br>(e)</div><div class='respDivR'>No Match<br>(i)</div></div></div>","i","TARGET","3","trustrating_stim/white_mw078.bmp,trustrating_stim/white_mw038.bmp,trustrating_stim/white_mw091.bmp","1,0,0","noMatchFace","i","4500","trustrating_stim/white_mw070.bmp","red","Keep","REAL","1"
"html-keyboard-response","74","215721","0.0-7.0-5.7","605fb0818ad4067b3d99ece0","bdp_wmem","Tue Mar 14 2023 20:32:08 GMT-0400 (Eastern Daylight Time)","576036","Match,No Match","","null","","","","","","<div class='trialBorder'><div class='vertical-center'><img src='img/correct.jpg'></div><div class='respDiv'><div class='respDivL'>Match<br>(e)</div><div class='respDivR'><font style='color:orange'>No Match<br>(i)</font></div></div></div>","null","FEEDBACK","","","","","","","","","","",""
"html-keyboard-response","75","216222","0.0-7.0-1.8","605fb0818ad4067b3d99ece0","bdp_wmem","Tue Mar 14 2023 20:32:08 GMT-0400 (Eastern Daylight Time)","576036","Match,No Match","","null","","","","","","<div class='trialBorder'><div class='vertical-center'><img src='img/fixation2_sml.jpg'</img></div></div>","null","FIX","","","","","","","","","","",""
"html-keyboard-response","76","219225","0.0-7.0-2.8","605fb0818ad4067b3d99ece0","bdp_wmem","Tue Mar 14 2023 20:32:08 GMT-0400 (Eastern Daylight Time)","576036","Match,No Match","","null","","","","","","<div class='trialBorder'><div class='vertical-center'><img style='vertical-align:center; align:center' src='img/fixation2_sml.jpg'></div><div class='arrayDiv2'><div class='tl'><img class='introPic' src='trustrating_stim/white_mw091.bmp'><br><font color='red'><strong>Keep</strong></font></div><div class='tr'><img class='introPic' src='trustrating_stim/white_mw040.bmp'><br><font color='green'><strong>Share</strong></font></div></div></div>","null","ARRAY","2","trustrating_stim/white_mw091.bmp,trustrating_stim/white_mw040.bmp","0,1","Match","e","3000","","","","",""
"html-keyboard-response","77","223226","0.0-7.0-3.8","605fb0818ad4067b3d99ece0","bdp_wmem","Tue Mar 14 2023 20:32:08 GMT-0400 (Eastern Daylight Time)","576036","Match,No Match","","null","","","","","","<div class='trialBorder'><div class='vertical-center'><img src='img/fixation2_sml.jpg'</img></div></div>","null","DELAY","","","","","","","","","","",""
"html-keyboard-response","78","224355","0.0-7.0-4.8","605fb0818ad4067b3d99ece0","bdp_wmem","Tue Mar 14 2023 20:32:08 GMT-0400 (Eastern Daylight Time)","576036","Match,No Match","","1127","","","","","","<div class='trialBorder'><div class='targDiv'><div class='tc'><img class='introPic' src='trustrating_stim/white_mw091.bmp'><br><font color='red'><strong>Keep</strong></font></div></div><div class='respDiv'><div class='respDivL'>Match<br>(e)</div><div class='respDivR'>No Match<br>(i)</div></div></div>","e","TARGET","2","trustrating_stim/white_mw091.bmp,trustrating_stim/white_mw040.bmp","0,1","Match","e","3000","trustrating_stim/white_mw091.bmp","red","Keep","REAL","1"
"html-keyboard-response","79","224856","0.0-7.0-5.8","605fb0818ad4067b3d99ece0","bdp_wmem","Tue Mar 14 2023 20:32:08 GMT-0400 (Eastern Daylight Time)","576036","Match,No Match","","null","","","","","","<div class='trialBorder'><div class='vertical-center'><img src='img/correct.jpg'></div><div class='respDiv'><div class='respDivL'><font style='color:orange'>Match<br>(e)</font></div><div class='respDivR'>No Match<br>(i)</div></div></div>","null","FEEDBACK","","","","","","","","","","",""
"html-keyboard-response","80","225358","0.0-7.0-1.9","605fb0818ad4067b3d99ece0","bdp_wmem","Tue Mar 14 2023 20:32:08 GMT-0400 (Eastern Daylight Time)","576036","Match,No Match","","null","","","","","","<div class='trialBorder'><div class='vertical-center'><img src='img/fixation2_sml.jpg'</img></div></div>","null","FIX","","","","","","","","","","",""
"html-keyboard-response","81","229860","0.0-7.0-2.9","605fb0818ad4067b3d99ece0","bdp_wmem","Tue Mar 14 2023 20:32:08 GMT-0400 (Eastern Daylight Time)","576036","Match,No Match","","null","","","","","","<div class='trialBorder'><div class='vertical-center'><img style='vertical-align:center; align:center' src='img/fixation2_sml.jpg'></div><div class='arrayDiv3'><div class='tl'><img class='introPic' src='trustrating_stim/white_mw042.bmp'><br><font color='green'><strong>Share</strong></font></div><div class='tc'><img class='introPic' src='trustrating_stim/white_mw038.bmp'><br><font color='red'><strong>Keep</strong></font></div><div class='tr'><img class='introPic' src='trustrating_stim/white_mw003.bmp'><br><font color='red'><strong>Keep</strong></font></div></div></div>","null","ARRAY","3","trustrating_stim/white_mw042.bmp,trustrating_stim/white_mw038.bmp,trustrating_stim/white_mw003.bmp","1,0,0","Match","e","4500","","","","",""
"html-keyboard-response","82","233863","0.0-7.0-3.9","605fb0818ad4067b3d99ece0","bdp_wmem","Tue Mar 14 2023 20:32:08 GMT-0400 (Eastern Daylight Time)","576036","Match,No Match","","null","","","","","","<div class='trialBorder'><div class='vertical-center'><img src='img/fixation2_sml.jpg'</img></div></div>","null","DELAY","","","","","","","","","","",""
"html-keyboard-response","83","234805","0.0-7.0-4.9","605fb0818ad4067b3d99ece0","bdp_wmem","Tue Mar 14 2023 20:32:08 GMT-0400 (Eastern Daylight Time)","576036","Match,No Match","","940","","","","","","<div class='trialBorder'><div class='targDiv'><div class='tc'><img class='introPic' src='trustrating_stim/white_mw042.bmp'><br><font color='green'><strong>Share</strong></font></div></div><div class='respDiv'><div class='respDivL'>Match<br>(e)</div><div class='respDivR'>No Match<br>(i)</div></div></div>","e","TARGET","3","trustrating_stim/white_mw042.bmp,trustrating_stim/white_mw038.bmp,trustrating_stim/white_mw003.bmp","1,0,0","Match","e","4500","trustrating_stim/white_mw042.bmp","green","Share","REAL","1"
"html-keyboard-response","84","235306","0.0-7.0-5.9","605fb0818ad4067b3d99ece0","bdp_wmem","Tue Mar 14 2023 20:32:08 GMT-0400 (Eastern Daylight Time)","576036","Match,No Match","","null","","","","","","<div class='trialBorder'><div class='vertical-center'><img src='img/correct.jpg'></div><div class='respDiv'><div class='respDivL'><font style='color:orange'>Match<br>(e)</font></div><div class='respDivR'>No Match<br>(i)</div></div></div>","null","FEEDBACK","","","","","","","","","","",""
"html-keyboard-response","85","235808","0.0-7.0-1.10","605fb0818ad4067b3d99ece0","bdp_wmem","Tue Mar 14 2023 20:32:08 GMT-0400 (Eastern Daylight Time)","576036","Match,No Match","","null","","","","","","<div class='trialBorder'><div class='vertical-center'><img src='img/fixation2_sml.jpg'</img></div></div>","null","FIX","","","","","","","","","","",""
"html-keyboard-response","86","237310","0.0-7.0-2.10","605fb0818ad4067b3d99ece0","bdp_wmem","Tue Mar 14 2023 20:32:08 GMT-0400 (Eastern Daylight Time)","576036","Match,No Match","","null","","","","","","<div class='trialBorder'><div class='vertical-center'><img style='vertical-align:center; align:center' src='img/fixation2_sml.jpg'></div><div class='arrayDiv1'><div class='tc'><img class='introPic' src='trustrating_stim/white_mw042.bmp'><br><font color='green'><strong>Share</strong></font></div></div></div>","null","ARRAY","1","trustrating_stim/white_mw042.bmp","1","noMatchOutcome","i","1500","","","","",""
"html-keyboard-response","87","241310","0.0-7.0-3.10","605fb0818ad4067b3d99ece0","bdp_wmem","Tue Mar 14 2023 20:32:08 GMT-0400 (Eastern Daylight Time)","576036","Match,No Match","","null","","","","","","<div class='trialBorder'><div class='vertical-center'><img src='img/fixation2_sml.jpg'</img></div></div>","null","DELAY","","","","","","","","","","",""
"html-keyboard-response","88","242062","0.0-7.0-4.10","605fb0818ad4067b3d99ece0","bdp_wmem","Tue Mar 14 2023 20:32:08 GMT-0400 (Eastern Daylight Time)","576036","Match,No Match","","749","","","","","","<div class='trialBorder'><div class='targDiv'><div class='tc'><img class='introPic' src='trustrating_stim/white_mw042.bmp'><br><font color='red'><strong>Keep</strong></font></div></div><div class='respDiv'><div class='respDivL'>Match<br>(e)</div><div class='respDivR'>No Match<br>(i)</div></div></div>","i","TARGET","1","trustrating_stim/white_mw042.bmp","1","noMatchOutcome","i","1500","trustrating_stim/white_mw042.bmp","red","Keep","REAL","1"
"html-keyboard-response","89","242563","0.0-7.0-5.10","605fb0818ad4067b3d99ece0","bdp_wmem","Tue Mar 14 2023 20:32:08 GMT-0400 (Eastern Daylight Time)","576036","Match,No Match","","null","","","","","","<div class='trialBorder'><div class='vertical-center'><img src='img/correct.jpg'></div><div class='respDiv'><div class='respDivL'>Match<br>(e)</div><div class='respDivR'><font style='color:orange'>No Match<br>(i)</font></div></div></div>","null","FEEDBACK","","","","","","","","","","",""
"html-keyboard-response","90","243064","0.0-7.0-1.11","605fb0818ad4067b3d99ece0","bdp_wmem","Tue Mar 14 2023 20:32:08 GMT-0400 (Eastern Daylight Time)","576036","Match,No Match","","null","","","","","","<div class='trialBorder'><div class='vertical-center'><img src='img/fixation2_sml.jpg'</img></div></div>","null","FIX","","","","","","","","","","",""
"html-keyboard-response","91","244566","0.0-7.0-2.11","605fb0818ad4067b3d99ece0","bdp_wmem","Tue Mar 14 2023 20:32:08 GMT-0400 (Eastern Daylight Time)","576036","Match,No Match","","null","","","","","","<div class='trialBorder'><div class='vertical-center'><img style='vertical-align:center; align:center' src='img/fixation2_sml.jpg'></div><div class='arrayDiv1'><div class='tc'><img class='introPic' src='trustrating_stim/white_mw078.bmp'><br><font color='red'><strong>Keep</strong></font></div></div></div>","null","ARRAY","1","trustrating_stim/white_mw078.bmp","0","Match","e","1500","","","","",""
"html-keyboard-response","92","248569","0.0-7.0-3.11","605fb0818ad4067b3d99ece0","bdp_wmem","Tue Mar 14 2023 20:32:08 GMT-0400 (Eastern Daylight Time)","576036","Match,No Match","","null","","","","","","<div class='trialBorder'><div class='vertical-center'><img src='img/fixation2_sml.jpg'</img></div></div>","null","DELAY","","","","","","","","","","",""
"html-keyboard-response","93","249707","0.0-7.0-4.11","605fb0818ad4067b3d99ece0","bdp_wmem","Tue Mar 14 2023 20:32:08 GMT-0400 (Eastern Daylight Time)","576036","Match,No Match","","1136","","","","","","<div class='trialBorder'><div class='targDiv'><div class='tc'><img class='introPic' src='trustrating_stim/white_mw078.bmp'><br><font color='red'><strong>Keep</strong></font></div></div><div class='respDiv'><div class='respDivL'>Match<br>(e)</div><div class='respDivR'>No Match<br>(i)</div></div></div>","e","TARGET","1","trustrating_stim/white_mw078.bmp","0","Match","e","1500","trustrating_stim/white_mw078.bmp","red","Keep","REAL","1"
"html-keyboard-response","94","250208","0.0-7.0-5.11","605fb0818ad4067b3d99ece0","bdp_wmem","Tue Mar 14 2023 20:32:08 GMT-0400 (Eastern Daylight Time)","576036","Match,No Match","","null","","","","","","<div class='trialBorder'><div class='vertical-center'><img src='img/correct.jpg'></div><div class='respDiv'><div class='respDivL'><font style='color:orange'>Match<br>(e)</font></div><div class='respDivR'>No Match<br>(i)</div></div></div>","null","FEEDBACK","","","","","","","","","","",""
"html-keyboard-response","95","250710","0.0-7.0-1.12","605fb0818ad4067b3d99ece0","bdp_wmem","Tue Mar 14 2023 20:32:08 GMT-0400 (Eastern Daylight Time)","576036","Match,No Match","","null","","","","","","<div class='trialBorder'><div class='vertical-center'><img src='img/fixation2_sml.jpg'</img></div></div>","null","FIX","","","","","","","","","","",""
"html-keyboard-response","96","255211","0.0-7.0-2.12","605fb0818ad4067b3d99ece0","bdp_wmem","Tue Mar 14 2023 20:32:08 GMT-0400 (Eastern Daylight Time)","576036","Match,No Match","","null","","","","","","<div class='trialBorder'><div class='vertical-center'><img style='vertical-align:center; align:center' src='img/fixation2_sml.jpg'></div><div class='arrayDiv3'><div class='tl'><img class='introPic' src='trustrating_stim/white_mw012.bmp'><br><font color='green'><strong>Share</strong></font></div><div class='tc'><img class='introPic' src='trustrating_stim/white_mw042.bmp'><br><font color='green'><strong>Share</strong></font></div><div class='tr'><img class='introPic' src='trustrating_stim/white_mw038.bmp'><br><font color='red'><strong>Keep</strong></font></div></div></div>","null","ARRAY","3","trustrating_stim/white_mw012.bmp,trustrating_stim/white_mw042.bmp,trustrating_stim/white_mw038.bmp","1,1,0","Match","e","4500","","","","",""
"html-keyboard-response","97","259212","0.0-7.0-3.12","605fb0818ad4067b3d99ece0","bdp_wmem","Tue Mar 14 2023 20:32:08 GMT-0400 (Eastern Daylight Time)","576036","Match,No Match","","null","","","","","","<div class='trialBorder'><div class='vertical-center'><img src='img/fixation2_sml.jpg'</img></div></div>","null","DELAY","","","","","","","","","","",""
"html-keyboard-response","98","260322","0.0-7.0-4.12","605fb0818ad4067b3d99ece0","bdp_wmem","Tue Mar 14 2023 20:32:08 GMT-0400 (Eastern Daylight Time)","576036","Match,No Match","","1107","","","","","","<div class='trialBorder'><div class='targDiv'><div class='tc'><img class='introPic' src='trustrating_stim/white_mw012.bmp'><br><font color='green'><strong>Share</strong></font></div></div><div class='respDiv'><div class='respDivL'>Match<br>(e)</div><div class='respDivR'>No Match<br>(i)</div></div></div>","e","TARGET","3","trustrating_stim/white_mw012.bmp,trustrating_stim/white_mw042.bmp,trustrating_stim/white_mw038.bmp","1,1,0","Match","e","4500","trustrating_stim/white_mw012.bmp","green","Share","REAL","1"
"html-keyboard-response","99","260823","0.0-7.0-5.12","605fb0818ad4067b3d99ece0","bdp_wmem","Tue Mar 14 2023 20:32:08 GMT-0400 (Eastern Daylight Time)","576036","Match,No Match","","null","","","","","","<div class='trialBorder'><div class='vertical-center'><img src='img/correct.jpg'></div><div class='respDiv'><div class='respDivL'><font style='color:orange'>Match<br>(e)</font></div><div class='respDivR'>No Match<br>(i)</div></div></div>","null","FEEDBACK","","","","","","","","","","",""
"html-keyboard-response","100","261325","0.0-7.0-1.13","605fb0818ad4067b3d99ece0","bdp_wmem","Tue Mar 14 2023 20:32:08 GMT-0400 (Eastern Daylight Time)","576036","Match,No Match","","null","","","","","","<div class='trialBorder'><div class='vertical-center'><img src='img/fixation2_sml.jpg'</img></div></div>","null","FIX","","","","","","","","","","",""
"html-keyboard-response","101","265826","0.0-7.0-2.13","605fb0818ad4067b3d99ece0","bdp_wmem","Tue Mar 14 2023 20:32:08 GMT-0400 (Eastern Daylight Time)","576036","Match,No Match","","null","","","","","","<div class='trialBorder'><div class='vertical-center'><img style='vertical-align:center; align:center' src='img/fixation2_sml.jpg'></div><div class='arrayDiv3'><div class='tl'><img class='introPic' src='trustrating_stim/white_mw042.bmp'><br><font color='red'><strong>Keep</strong></font></div><div class='tc'><img class='introPic' src='trustrating_stim/white_mw085.bmp'><br><font color='green'><strong>Share</strong></font></div><div class='tr'><img class='introPic' src='trustrating_stim/white_mw010.bmp'><br><font color='red'><strong>Keep</strong></font></div></div></div>","null","ARRAY","3","trustrating_stim/white_mw042.bmp,trustrating_stim/white_mw085.bmp,trustrating_stim/white_mw010.bmp","0,1,0","Match","e","4500","","","","",""
"html-keyboard-response","102","269828","0.0-7.0-3.13","605fb0818ad4067b3d99ece0","bdp_wmem","Tue Mar 14 2023 20:32:08 GMT-0400 (Eastern Daylight Time)","576036","Match,No Match","","null","","","","","","<div class='trialBorder'><div class='vertical-center'><img src='img/fixation2_sml.jpg'</img></div></div>","null","DELAY","","","","","","","","","","",""
"html-keyboard-response","103","270877","0.0-7.0-4.13","605fb0818ad4067b3d99ece0","bdp_wmem","Tue Mar 14 2023 20:32:08 GMT-0400 (Eastern Daylight Time)","576036","Match,No Match","","1047","","","","","","<div class='trialBorder'><div class='targDiv'><div class='tc'><img class='introPic' src='trustrating_stim/white_mw010.bmp'><br><font color='red'><strong>Keep</strong></font></div></div><div class='respDiv'><div class='respDivL'>Match<br>(e)</div><div class='respDivR'>No Match<br>(i)</div></div></div>","e","TARGET","3","trustrating_stim/white_mw042.bmp,trustrating_stim/white_mw085.bmp,trustrating_stim/white_mw010.bmp","0,1,0","Match","e","4500","trustrating_stim/white_mw010.bmp","red","Keep","REAL","1"
"html-keyboard-response","104","271379","0.0-7.0-5.13","605fb0818ad4067b3d99ece0","bdp_wmem","Tue Mar 14 2023 20:32:08 GMT-0400 (Eastern Daylight Time)","576036","Match,No Match","","null","","","","","","<div class='trialBorder'><div class='vertical-center'><img src='img/correct.jpg'></div><div class='respDiv'><div class='respDivL'><font style='color:orange'>Match<br>(e)</font></div><div class='respDivR'>No Match<br>(i)</div></div></div>","null","FEEDBACK","","","","","","","","","","",""
"html-keyboard-response","105","271881","0.0-7.0-1.14","605fb0818ad4067b3d99ece0","bdp_wmem","Tue Mar 14 2023 20:32:08 GMT-0400 (Eastern Daylight Time)","576036","Match,No Match","","null","","","","","","<div class='trialBorder'><div class='vertical-center'><img src='img/fixation2_sml.jpg'</img></div></div>","null","FIX","","","","","","","","","","",""
"html-keyboard-response","106","276382","0.0-7.0-2.14","605fb0818ad4067b3d99ece0","bdp_wmem","Tue Mar 14 2023 20:32:08 GMT-0400 (Eastern Daylight Time)","576036","Match,No Match","","null","","","","","","<div class='trialBorder'><div class='vertical-center'><img style='vertical-align:center; align:center' src='img/fixation2_sml.jpg'></div><div class='arrayDiv3'><div class='tl'><img class='introPic' src='trustrating_stim/white_mw070.bmp'><br><font color='red'><strong>Keep</strong></font></div><div class='tc'><img class='introPic' src='trustrating_stim/white_mw012.bmp'><br><font color='green'><strong>Share</strong></font></div><div class='tr'><img class='introPic' src='trustrating_stim/white_mw078.bmp'><br><font color='red'><strong>Keep</strong></font></div></div></div>","null","ARRAY","3","trustrating_stim/white_mw070.bmp,trustrating_stim/white_mw012.bmp,trustrating_stim/white_mw078.bmp","0,1,0","noMatchFace","i","4500","","","","",""
"html-keyboard-response","107","280384","0.0-7.0-3.14","605fb0818ad4067b3d99ece0","bdp_wmem","Tue Mar 14 2023 20:32:08 GMT-0400 (Eastern Daylight Time)","576036","Match,No Match","","null","","","","","","<div class='trialBorder'><div class='vertical-center'><img src='img/fixation2_sml.jpg'</img></div></div>","null","DELAY","","","","","","","","","","",""
"html-keyboard-response","108","281657","0.0-7.0-4.14","605fb0818ad4067b3d99ece0","bdp_wmem","Tue Mar 14 2023 20:32:08 GMT-0400 (Eastern Daylight Time)","576036","Match,No Match","","1271","","","","","","<div class='trialBorder'><div class='targDiv'><div class='tc'><img class='introPic' src='trustrating_stim/white_mw003.bmp'><br><font color='red'><strong>Keep</strong></font></div></div><div class='respDiv'><div class='respDivL'>Match<br>(e)</div><div class='respDivR'>No Match<br>(i)</div></div></div>","i","TARGET","3","trustrating_stim/white_mw070.bmp,trustrating_stim/white_mw012.bmp,trustrating_stim/white_mw078.bmp","0,1,0","noMatchFace","i","4500","trustrating_stim/white_mw003.bmp","red","Keep","REAL","1"
"html-keyboard-response","109","282158","0.0-7.0-5.14","605fb0818ad4067b3d99ece0","bdp_wmem","Tue Mar 14 2023 20:32:08 GMT-0400 (Eastern Daylight Time)","576036","Match,No Match","","null","","","","","","<div class='trialBorder'><div class='vertical-center'><img src='img/correct.jpg'></div><div class='respDiv'><div class='respDivL'>Match<br>(e)</div><div class='respDivR'><font style='color:orange'>No Match<br>(i)</font></div></div></div>","null","FEEDBACK","","","","","","","","","","",""
"html-keyboard-response","110","282659","0.0-7.0-1.15","605fb0818ad4067b3d99ece0","bdp_wmem","Tue Mar 14 2023 20:32:08 GMT-0400 (Eastern Daylight Time)","576036","Match,No Match","","null","","","","","","<div class='trialBorder'><div class='vertical-center'><img src='img/fixation2_sml.jpg'</img></div></div>","null","FIX","","","","","","","","","","",""
"html-keyboard-response","111","285661","0.0-7.0-2.15","605fb0818ad4067b3d99ece0","bdp_wmem","Tue Mar 14 2023 20:32:08 GMT-0400 (Eastern Daylight Time)","576036","Match,No Match","","null","","","","","","<div class='trialBorder'><div class='vertical-center'><img style='vertical-align:center; align:center' src='img/fixation2_sml.jpg'></div><div class='arrayDiv2'><div class='tl'><img class='introPic' src='trustrating_stim/white_mw040.bmp'><br><font color='green'><strong>Share</strong></font></div><div class='tr'><img class='introPic' src='trustrating_stim/white_mw038.bmp'><br><font color='red'><strong>Keep</strong></font></div></div></div>","null","ARRAY","2","trustrating_stim/white_mw040.bmp,trustrating_stim/white_mw038.bmp","1,0","noMatchFace","i","3000","","","","",""
"html-keyboard-response","112","289662","0.0-7.0-3.15","605fb0818ad4067b3d99ece0","bdp_wmem","Tue Mar 14 2023 20:32:08 GMT-0400 (Eastern Daylight Time)","576036","Match,No Match","","null","","","","","","<div class='trialBorder'><div class='vertical-center'><img src='img/fixation2_sml.jpg'</img></div></div>","null","DELAY","","","","","","","","","","",""
"html-keyboard-response","113","290814","0.0-7.0-4.15","605fb0818ad4067b3d99ece0","bdp_wmem","Tue Mar 14 2023 20:32:08 GMT-0400 (Eastern Daylight Time)","576036","Match,No Match","","1151","","","","","","<div class='trialBorder'><div class='targDiv'><div class='tc'><img class='introPic' src='trustrating_stim/white_mw010.bmp'><br><font color='green'><strong>Share</strong></font></div></div><div class='respDiv'><div class='respDivL'>Match<br>(e)</div><div class='respDivR'>No Match<br>(i)</div></div></div>","i","TARGET","2","trustrating_stim/white_mw040.bmp,trustrating_stim/white_mw038.bmp","1,0","noMatchFace","i","3000","trustrating_stim/white_mw010.bmp","green","Share","REAL","1"
"html-keyboard-response","114","291316","0.0-7.0-5.15","605fb0818ad4067b3d99ece0","bdp_wmem","Tue Mar 14 2023 20:32:08 GMT-0400 (Eastern Daylight Time)","576036","Match,No Match","","null","","","","","","<div class='trialBorder'><div class='vertical-center'><img src='img/correct.jpg'></div><div class='respDiv'><div class='respDivL'>Match<br>(e)</div><div class='respDivR'><font style='color:orange'>No Match<br>(i)</font></div></div></div>","null","FEEDBACK","","","","","","","","","","",""
"html-keyboard-response","115","291818","0.0-7.0-1.16","605fb0818ad4067b3d99ece0","bdp_wmem","Tue Mar 14 2023 20:32:08 GMT-0400 (Eastern Daylight Time)","576036","Match,No Match","","null","","","","","","<div class='trialBorder'><div class='vertical-center'><img src='img/fixation2_sml.jpg'</img></div></div>","null","FIX","","","","","","","","","","",""
"html-keyboard-response","116","294820","0.0-7.0-2.16","605fb0818ad4067b3d99ece0","bdp_wmem","Tue Mar 14 2023 20:32:08 GMT-0400 (Eastern Daylight Time)","576036","Match,No Match","","null","","","","","","<div class='trialBorder'><div class='vertical-center'><img style='vertical-align:center; align:center' src='img/fixation2_sml.jpg'></div><div class='arrayDiv2'><div class='tl'><img class='introPic' src='trustrating_stim/white_mw085.bmp'><br><font color='green'><strong>Share</strong></font></div><div class='tr'><img class='introPic' src='trustrating_stim/white_mw038.bmp'><br><font color='red'><strong>Keep</strong></font></div></div></div>","null","ARRAY","2","trustrating_stim/white_mw085.bmp,trustrating_stim/white_mw038.bmp","1,0","noMatchOutcome","i","3000","","","","",""
"html-keyboard-response","117","298822","0.0-7.0-3.16","605fb0818ad4067b3d99ece0","bdp_wmem","Tue Mar 14 2023 20:32:08 GMT-0400 (Eastern Daylight Time)","576036","Match,No Match","","null","","","","","","<div class='trialBorder'><div class='vertical-center'><img src='img/fixation2_sml.jpg'</img></div></div>","null","DELAY","","","","","","","","","","",""
"html-keyboard-response","118","300907","0.0-7.0-4.16","605fb0818ad4067b3d99ece0","bdp_wmem","Tue Mar 14 2023 20:32:08 GMT-0400 (Eastern Daylight Time)","576036","Match,No Match","","2083","","","","","","<div class='trialBorder'><div class='targDiv'><div class='tc'><img class='introPic' src='trustrating_stim/white_mw038.bmp'><br><font color='green'><strong>Share</strong></font></div></div><div class='respDiv'><div class='respDivL'>Match<br>(e)</div><div class='respDivR'>No Match<br>(i)</div></div></div>","i","TARGET","2","trustrating_stim/white_mw085.bmp,trustrating_stim/white_mw038.bmp","1,0","noMatchOutcome","i","3000","trustrating_stim/white_mw038.bmp","green","Share","REAL","1"
"html-keyboard-response","119","301408","0.0-7.0-5.16","605fb0818ad4067b3d99ece0","bdp_wmem","Tue Mar 14 2023 20:32:08 GMT-0400 (Eastern Daylight Time)","576036","Match,No Match","","null","","","","","","<div class='trialBorder'><div class='vertical-center'><img src='img/correct.jpg'></div><div class='respDiv'><div class='respDivL'>Match<br>(e)</div><div class='respDivR'><font style='color:orange'>No Match<br>(i)</font></div></div></div>","null","FEEDBACK","","","","","","","","","","",""
"html-keyboard-response","120","301910","0.0-7.0-1.17","605fb0818ad4067b3d99ece0","bdp_wmem","Tue Mar 14 2023 20:32:08 GMT-0400 (Eastern Daylight Time)","576036","Match,No Match","","null","","","","","","<div class='trialBorder'><div class='vertical-center'><img src='img/fixation2_sml.jpg'</img></div></div>","null","FIX","","","","","","","","","","",""
"html-keyboard-response","121","306411","0.0-7.0-2.17","605fb0818ad4067b3d99ece0","bdp_wmem","Tue Mar 14 2023 20:32:08 GMT-0400 (Eastern Daylight Time)","576036","Match,No Match","","null","","","","","","<div class='trialBorder'><div class='vertical-center'><img style='vertical-align:center; align:center' src='img/fixation2_sml.jpg'></div><div class='arrayDiv3'><div class='tl'><img class='introPic' src='trustrating_stim/white_mw010.bmp'><br><font color='red'><strong>Keep</strong></font></div><div class='tc'><img class='introPic' src='trustrating_stim/white_mw085.bmp'><br><font color='red'><strong>Keep</strong></font></div><div class='tr'><img class='introPic' src='trustrating_stim/white_mw091.bmp'><br><font color='green'><strong>Share</strong></font></div></div></div>","null","ARRAY","3","trustrating_stim/white_mw010.bmp,trustrating_stim/white_mw085.bmp,trustrating_stim/white_mw091.bmp","0,0,1","noMatchFace","i","4500","","","","",""
"html-keyboard-response","122","310413","0.0-7.0-3.17","605fb0818ad4067b3d99ece0","bdp_wmem","Tue Mar 14 2023 20:32:08 GMT-0400 (Eastern Daylight Time)","576036","Match,No Match","","null","","","","","","<div class='trialBorder'><div class='vertical-center'><img src='img/fixation2_sml.jpg'</img></div></div>","null","DELAY","","","","","","","","","","",""
"html-keyboard-response","123","311284","0.0-7.0-4.17","605fb0818ad4067b3d99ece0","bdp_wmem","Tue Mar 14 2023 20:32:08 GMT-0400 (Eastern Daylight Time)","576036","Match,No Match","","870","","","","","","<div class='trialBorder'><div class='targDiv'><div class='tc'><img class='introPic' src='trustrating_stim/white_mw013.bmp'><br><font color='green'><strong>Share</strong></font></div></div><div class='respDiv'><div class='respDivL'>Match<br>(e)</div><div class='respDivR'>No Match<br>(i)</div></div></div>","i","TARGET","3","trustrating_stim/white_mw010.bmp,trustrating_stim/white_mw085.bmp,trustrating_stim/white_mw091.bmp","0,0,1","noMatchFace","i","4500","trustrating_stim/white_mw013.bmp","green","Share","REAL","1"
"html-keyboard-response","124","311786","0.0-7.0-5.17","605fb0818ad4067b3d99ece0","bdp_wmem","Tue Mar 14 2023 20:32:08 GMT-0400 (Eastern Daylight Time)","576036","Match,No Match","","null","","","","","","<div class='trialBorder'><div class='vertical-center'><img src='img/correct.jpg'></div><div class='respDiv'><div class='respDivL'>Match<br>(e)</div><div class='respDivR'><font style='color:orange'>No Match<br>(i)</font></div></div></div>","null","FEEDBACK","","","","","","","","","","",""
"html-keyboard-response","125","312288","0.0-7.0-1.18","605fb0818ad4067b3d99ece0","bdp_wmem","Tue Mar 14 2023 20:32:08 GMT-0400 (Eastern Daylight Time)","576036","Match,No Match","","null","","","","","","<div class='trialBorder'><div class='vertical-center'><img src='img/fixation2_sml.jpg'</img></div></div>","null","FIX","","","","","","","","","","",""
"html-keyboard-response","126","313790","0.0-7.0-2.18","605fb0818ad4067b3d99ece0","bdp_wmem","Tue Mar 14 2023 20:32:08 GMT-0400 (Eastern Daylight Time)","576036","Match,No Match","","null","","","","","","<div class='trialBorder'><div class='vertical-center'><img style='vertical-align:center; align:center' src='img/fixation2_sml.jpg'></div><div class='arrayDiv1'><div class='tc'><img class='introPic' src='trustrating_stim/white_mw040.bmp'><br><font color='green'><strong>Share</strong></font></div></div></div>","null","ARRAY","1","trustrating_stim/white_mw040.bmp","1","Match","e","1500","","","","",""
"html-keyboard-response","127","317791","0.0-7.0-3.18","605fb0818ad4067b3d99ece0","bdp_wmem","Tue Mar 14 2023 20:32:08 GMT-0400 (Eastern Daylight Time)","576036","Match,No Match","","null","","","","","","<div class='trialBorder'><div class='vertical-center'><img src='img/fixation2_sml.jpg'</img></div></div>","null","DELAY","","","","","","","","","","",""
"html-keyboard-response","128","318307","0.0-7.0-4.18","605fb0818ad4067b3d99ece0","bdp_wmem","Tue Mar 14 2023 20:32:08 GMT-0400 (Eastern Daylight Time)","576036","Match,No Match","","514","","","","","","<div class='trialBorder'><div class='targDiv'><div class='tc'><img class='introPic' src='trustrating_stim/white_mw040.bmp'><br><font color='green'><strong>Share</strong></font></div></div><div class='respDiv'><div class='respDivL'>Match<br>(e)</div><div class='respDivR'>No Match<br>(i)</div></div></div>","e","TARGET","1","trustrating_stim/white_mw040.bmp","1","Match","e","1500","trustrating_stim/white_mw040.bmp","green","Share","REAL","1"
"html-keyboard-response","129","318808","0.0-7.0-5.18","605fb0818ad4067b3d99ece0","bdp_wmem","Tue Mar 14 2023 20:32:08 GMT-0400 (Eastern Daylight Time)","576036","Match,No Match","","null","","","","","","<div class='trialBorder'><div class='vertical-center'><img src='img/correct.jpg'></div><div class='respDiv'><div class='respDivL'><font style='color:orange'>Match<br>(e)</font></div><div class='respDivR'>No Match<br>(i)</div></div></div>","null","FEEDBACK","","","","","","","","","","",""
"html-keyboard-response","130","319309","0.0-7.0-1.19","605fb0818ad4067b3d99ece0","bdp_wmem","Tue Mar 14 2023 20:32:08 GMT-0400 (Eastern Daylight Time)","576036","Match,No Match","","null","","","","","","<div class='trialBorder'><div class='vertical-center'><img src='img/fixation2_sml.jpg'</img></div></div>","null","FIX","","","","","","","","","","",""
"html-keyboard-response","131","322310","0.0-7.0-2.19","605fb0818ad4067b3d99ece0","bdp_wmem","Tue Mar 14 2023 20:32:08 GMT-0400 (Eastern Daylight Time)","576036","Match,No Match","","null","","","","","","<div class='trialBorder'><div class='vertical-center'><img style='vertical-align:center; align:center' src='img/fixation2_sml.jpg'></div><div class='arrayDiv2'><div class='tl'><img class='introPic' src='trustrating_stim/white_mw091.bmp'><br><font color='red'><strong>Keep</strong></font></div><div class='tr'><img class='introPic' src='trustrating_stim/white_mw013.bmp'><br><font color='green'><strong>Share</strong></font></div></div></div>","null","ARRAY","2","trustrating_stim/white_mw091.bmp,trustrating_stim/white_mw013.bmp","0,1","noMatchFace","i","3000","","","","",""
"html-keyboard-response","132","326313","0.0-7.0-3.19","605fb0818ad4067b3d99ece0","bdp_wmem","Tue Mar 14 2023 20:32:08 GMT-0400 (Eastern Daylight Time)","576036","Match,No Match","","null","","","","","","<div class='trialBorder'><div class='vertical-center'><img src='img/fixation2_sml.jpg'</img></div></div>","null","DELAY","","","","","","","","","","",""
"html-keyboard-response","133","327365","0.0-7.0-4.19","605fb0818ad4067b3d99ece0","bdp_wmem","Tue Mar 14 2023 20:32:08 GMT-0400 (Eastern Daylight Time)","576036","Match,No Match","","1051","","","","","","<div class='trialBorder'><div class='targDiv'><div class='tc'><img class='introPic' src='trustrating_stim/white_mw010.bmp'><br><font color='green'><strong>Share</strong></font></div></div><div class='respDiv'><div class='respDivL'>Match<br>(e)</div><div class='respDivR'>No Match<br>(i)</div></div></div>","i","TARGET","2","trustrating_stim/white_mw091.bmp,trustrating_stim/white_mw013.bmp","0,1","noMatchFace","i","3000","trustrating_stim/white_mw010.bmp","green","Share","REAL","1"
"html-keyboard-response","134","327868","0.0-7.0-5.19","605fb0818ad4067b3d99ece0","bdp_wmem","Tue Mar 14 2023 20:32:08 GMT-0400 (Eastern Daylight Time)","576036","Match,No Match","","null","","","","","","<div class='trialBorder'><div class='vertical-center'><img src='img/correct.jpg'></div><div class='respDiv'><div class='respDivL'>Match<br>(e)</div><div class='respDivR'><font style='color:orange'>No Match<br>(i)</font></div></div></div>","null","FEEDBACK","","","","","","","","","","",""
"html-keyboard-response","135","328369","0.0-7.0-1.20","605fb0818ad4067b3d99ece0","bdp_wmem","Tue Mar 14 2023 20:32:08 GMT-0400 (Eastern Daylight Time)","576036","Match,No Match","","null","","","","","","<div class='trialBorder'><div class='vertical-center'><img src='img/fixation2_sml.jpg'</img></div></div>","null","FIX","","","","","","","","","","",""
"html-keyboard-response","136","329871","0.0-7.0-2.20","605fb0818ad4067b3d99ece0","bdp_wmem","Tue Mar 14 2023 20:32:08 GMT-0400 (Eastern Daylight Time)","576036","Match,No Match","","null","","","","","","<div class='trialBorder'><div class='vertical-center'><img style='vertical-align:center; align:center' src='img/fixation2_sml.jpg'></div><div class='arrayDiv1'><div class='tc'><img class='introPic' src='trustrating_stim/white_mw085.bmp'><br><font color='red'><strong>Keep</strong></font></div></div></div>","null","ARRAY","1","trustrating_stim/white_mw085.bmp","0","noMatchOutcome","i","1500","","","","",""
"html-keyboard-response","137","333873","0.0-7.0-3.20","605fb0818ad4067b3d99ece0","bdp_wmem","Tue Mar 14 2023 20:32:08 GMT-0400 (Eastern Daylight Time)","576036","Match,No Match","","null","","","","","","<div class='trialBorder'><div class='vertical-center'><img src='img/fixation2_sml.jpg'</img></div></div>","null","DELAY","","","","","","","","","","",""
"html-keyboard-response","138","334835","0.0-7.0-4.20","605fb0818ad4067b3d99ece0","bdp_wmem","Tue Mar 14 2023 20:32:08 GMT-0400 (Eastern Daylight Time)","576036","Match,No Match","","960","","","","","","<div class='trialBorder'><div class='targDiv'><div class='tc'><img class='introPic' src='trustrating_stim/white_mw085.bmp'><br><font color='green'><strong>Share</strong></font></div></div><div class='respDiv'><div class='respDivL'>Match<br>(e)</div><div class='respDivR'>No Match<br>(i)</div></div></div>","i","TARGET","1","trustrating_stim/white_mw085.bmp","0","noMatchOutcome","i","1500","trustrating_stim/white_mw085.bmp","green","Share","REAL","1"
"html-keyboard-response","139","335336","0.0-7.0-5.20","605fb0818ad4067b3d99ece0","bdp_wmem","Tue Mar 14 2023 20:32:08 GMT-0400 (Eastern Daylight Time)","576036","Match,No Match","","null","","","","","","<div class='trialBorder'><div class='vertical-center'><img src='img/correct.jpg'></div><div class='respDiv'><div class='respDivL'>Match<br>(e)</div><div class='respDivR'><font style='color:orange'>No Match<br>(i)</font></div></div></div>","null","FEEDBACK","","","","","","","","","","",""
"html-keyboard-response","140","335838","0.0-7.0-1.21","605fb0818ad4067b3d99ece0","bdp_wmem","Tue Mar 14 2023 20:32:08 GMT-0400 (Eastern Daylight Time)","576036","Match,No Match","","null","","","","","","<div class='trialBorder'><div class='vertical-center'><img src='img/fixation2_sml.jpg'</img></div></div>","null","FIX","","","","","","","","","","",""
"html-keyboard-response","141","338839","0.0-7.0-2.21","605fb0818ad4067b3d99ece0","bdp_wmem","Tue Mar 14 2023 20:32:08 GMT-0400 (Eastern Daylight Time)","576036","Match,No Match","","null","","","","","","<div class='trialBorder'><div class='vertical-center'><img style='vertical-align:center; align:center' src='img/fixation2_sml.jpg'></div><div class='arrayDiv2'><div class='tl'><img class='introPic' src='trustrating_stim/white_mw003.bmp'><br><font color='red'><strong>Keep</strong></font></div><div class='tr'><img class='introPic' src='trustrating_stim/white_mw012.bmp'><br><font color='green'><strong>Share</strong></font></div></div></div>","null","ARRAY","2","trustrating_stim/white_mw003.bmp,trustrating_stim/white_mw012.bmp","0,1","Match","e","3000","","","","",""
"html-keyboard-response","142","342841","0.0-7.0-3.21","605fb0818ad4067b3d99ece0","bdp_wmem","Tue Mar 14 2023 20:32:08 GMT-0400 (Eastern Daylight Time)","576036","Match,No Match","","null","","","","","","<div class='trialBorder'><div class='vertical-center'><img src='img/fixation2_sml.jpg'</img></div></div>","null","DELAY","","","","","","","","","","",""
"html-keyboard-response","143","343444","0.0-7.0-4.21","605fb0818ad4067b3d99ece0","bdp_wmem","Tue Mar 14 2023 20:32:08 GMT-0400 (Eastern Daylight Time)","576036","Match,No Match","","602","","","","","","<div class='trialBorder'><div class='targDiv'><div class='tc'><img class='introPic' src='trustrating_stim/white_mw003.bmp'><br><font color='red'><strong>Keep</strong></font></div></div><div class='respDiv'><div class='respDivL'>Match<br>(e)</div><div class='respDivR'>No Match<br>(i)</div></div></div>","e","TARGET","2","trustrating_stim/white_mw003.bmp,trustrating_stim/white_mw012.bmp","0,1","Match","e","3000","trustrating_stim/white_mw003.bmp","red","Keep","REAL","1"
"html-keyboard-response","144","343945","0.0-7.0-5.21","605fb0818ad4067b3d99ece0","bdp_wmem","Tue Mar 14 2023 20:32:08 GMT-0400 (Eastern Daylight Time)","576036","Match,No Match","","null","","","","","","<div class='trialBorder'><div class='vertical-center'><img src='img/correct.jpg'></div><div class='respDiv'><div class='respDivL'><font style='color:orange'>Match<br>(e)</font></div><div class='respDivR'>No Match<br>(i)</div></div></div>","null","FEEDBACK","","","","","","","","","","",""
"html-keyboard-response","145","344446","0.0-7.0-1.22","605fb0818ad4067b3d99ece0","bdp_wmem","Tue Mar 14 2023 20:32:08 GMT-0400 (Eastern Daylight Time)","576036","Match,No Match","","null","","","","","","<div class='trialBorder'><div class='vertical-center'><img src='img/fixation2_sml.jpg'</img></div></div>","null","FIX","","","","","","","","","","",""
"html-keyboard-response","146","345948","0.0-7.0-2.22","605fb0818ad4067b3d99ece0","bdp_wmem","Tue Mar 14 2023 20:32:08 GMT-0400 (Eastern Daylight Time)","576036","Match,No Match","","null","","","","","","<div class='trialBorder'><div class='vertical-center'><img style='vertical-align:center; align:center' src='img/fixation2_sml.jpg'></div><div class='arrayDiv1'><div class='tc'><img class='introPic' src='trustrating_stim/white_mw078.bmp'><br><font color='green'><strong>Share</strong></font></div></div></div>","null","ARRAY","1","trustrating_stim/white_mw078.bmp","1","noMatchOutcome","i","1500","","","","",""
"html-keyboard-response","147","349949","0.0-7.0-3.22","605fb0818ad4067b3d99ece0","bdp_wmem","Tue Mar 14 2023 20:32:08 GMT-0400 (Eastern Daylight Time)","576036","Match,No Match","","null","","","","","","<div class='trialBorder'><div class='vertical-center'><img src='img/fixation2_sml.jpg'</img></div></div>","null","DELAY","","","","","","","","","","",""
"html-keyboard-response","148","350628","0.0-7.0-4.22","605fb0818ad4067b3d99ece0","bdp_wmem","Tue Mar 14 2023 20:32:08 GMT-0400 (Eastern Daylight Time)","576036","Match,No Match","","677","","","","","","<div class='trialBorder'><div class='targDiv'><div class='tc'><img class='introPic' src='trustrating_stim/white_mw078.bmp'><br><font color='red'><strong>Keep</strong></font></div></div><div class='respDiv'><div class='respDivL'>Match<br>(e)</div><div class='respDivR'>No Match<br>(i)</div></div></div>","i","TARGET","1","trustrating_stim/white_mw078.bmp","1","noMatchOutcome","i","1500","trustrating_stim/white_mw078.bmp","red","Keep","REAL","1"
"html-keyboard-response","149","351129","0.0-7.0-5.22","605fb0818ad4067b3d99ece0","bdp_wmem","Tue Mar 14 2023 20:32:08 GMT-0400 (Eastern Daylight Time)","576036","Match,No Match","","null","","","","","","<div class='trialBorder'><div class='vertical-center'><img src='img/correct.jpg'></div><div class='respDiv'><div class='respDivL'>Match<br>(e)</div><div class='respDivR'><font style='color:orange'>No Match<br>(i)</font></div></div></div>","null","FEEDBACK","","","","","","","","","","",""
"html-keyboard-response","150","351631","0.0-7.0-1.23","605fb0818ad4067b3d99ece0","bdp_wmem","Tue Mar 14 2023 20:32:08 GMT-0400 (Eastern Daylight Time)","576036","Match,No Match","","null","","","","","","<div class='trialBorder'><div class='vertical-center'><img src='img/fixation2_sml.jpg'</img></div></div>","null","FIX","","","","","","","","","","",""
"html-keyboard-response","151","356132","0.0-7.0-2.23","605fb0818ad4067b3d99ece0","bdp_wmem","Tue Mar 14 2023 20:32:08 GMT-0400 (Eastern Daylight Time)","576036","Match,No Match","","null","","","","","","<div class='trialBorder'><div class='vertical-center'><img style='vertical-align:center; align:center' src='img/fixation2_sml.jpg'></div><div class='arrayDiv3'><div class='tl'><img class='introPic' src='trustrating_stim/white_mw013.bmp'><br><font color='green'><strong>Share</strong></font></div><div class='tc'><img class='introPic' src='trustrating_stim/white_mw012.bmp'><br><font color='red'><strong>Keep</strong></font></div><div class='tr'><img class='introPic' src='trustrating_stim/white_mw003.bmp'><br><font color='green'><strong>Share</strong></font></div></div></div>","null","ARRAY","3","trustrating_stim/white_mw013.bmp,trustrating_stim/white_mw012.bmp,trustrating_stim/white_mw003.bmp","1,0,1","noMatchOutcome","i","4500","","","","",""
"html-keyboard-response","152","360134","0.0-7.0-3.23","605fb0818ad4067b3d99ece0","bdp_wmem","Tue Mar 14 2023 20:32:08 GMT-0400 (Eastern Daylight Time)","576036","Match,No Match","","null","","","","","","<div class='trialBorder'><div class='vertical-center'><img src='img/fixation2_sml.jpg'</img></div></div>","null","DELAY","","","","","","","","","","",""
"html-keyboard-response","153","361498","0.0-7.0-4.23","605fb0818ad4067b3d99ece0","bdp_wmem","Tue Mar 14 2023 20:32:08 GMT-0400 (Eastern Daylight Time)","576036","Match,No Match","","1362","","","","","","<div class='trialBorder'><div class='targDiv'><div class='tc'><img class='introPic' src='trustrating_stim/white_mw003.bmp'><br><font color='red'><strong>Keep</strong></font></div></div><div class='respDiv'><div class='respDivL'>Match<br>(e)</div><div class='respDivR'>No Match<br>(i)</div></div></div>","e","TARGET","3","trustrating_stim/white_mw013.bmp,trustrating_stim/white_mw012.bmp,trustrating_stim/white_mw003.bmp","1,0,1","noMatchOutcome","i","4500","trustrating_stim/white_mw003.bmp","red","Keep","REAL","0"
"html-keyboard-response","154","362000","0.0-7.0-5.23","605fb0818ad4067b3d99ece0","bdp_wmem","Tue Mar 14 2023 20:32:08 GMT-0400 (Eastern Daylight Time)","576036","Match,No Match","","null","","","","","","<div class='trialBorder'><div class='vertical-center'><img src='img/error.jpg'></div><div class='respDiv'><div class='respDivL'><font style='color:orange'>Match<br>(e)</font></div><div class='respDivR'>No Match<br>(i)</div></div></div>","null","FEEDBACK","","","","","","","","","","",""
"html-keyboard-response","155","362501","0.0-7.0-1.24","605fb0818ad4067b3d99ece0","bdp_wmem","Tue Mar 14 2023 20:32:08 GMT-0400 (Eastern Daylight Time)","576036","Match,No Match","","null","","","","","","<div class='trialBorder'><div class='vertical-center'><img src='img/fixation2_sml.jpg'</img></div></div>","null","FIX","","","","","","","","","","",""
"html-keyboard-response","156","364003","0.0-7.0-2.24","605fb0818ad4067b3d99ece0","bdp_wmem","Tue Mar 14 2023 20:32:08 GMT-0400 (Eastern Daylight Time)","576036","Match,No Match","","null","","","","","","<div class='trialBorder'><div class='vertical-center'><img style='vertical-align:center; align:center' src='img/fixation2_sml.jpg'></div><div class='arrayDiv1'><div class='tc'><img class='introPic' src='trustrating_stim/white_mw003.bmp'><br><font color='green'><strong>Share</strong></font></div></div></div>","null","ARRAY","1","trustrating_stim/white_mw003.bmp","1","Match","e","1500","","","","",""
"html-keyboard-response","157","368005","0.0-7.0-3.24","605fb0818ad4067b3d99ece0","bdp_wmem","Tue Mar 14 2023 20:32:08 GMT-0400 (Eastern Daylight Time)","576036","Match,No Match","","null","","","","","","<div class='trialBorder'><div class='vertical-center'><img src='img/fixation2_sml.jpg'</img></div></div>","null","DELAY","","","","","","","","","","",""
"html-keyboard-response","158","368467","0.0-7.0-4.24","605fb0818ad4067b3d99ece0","bdp_wmem","Tue Mar 14 2023 20:32:08 GMT-0400 (Eastern Daylight Time)","576036","Match,No Match","","461","","","","","","<div class='trialBorder'><div class='targDiv'><div class='tc'><img class='introPic' src='trustrating_stim/white_mw003.bmp'><br><font color='green'><strong>Share</strong></font></div></div><div class='respDiv'><div class='respDivL'>Match<br>(e)</div><div class='respDivR'>No Match<br>(i)</div></div></div>","e","TARGET","1","trustrating_stim/white_mw003.bmp","1","Match","e","1500","trustrating_stim/white_mw003.bmp","green","Share","REAL","1"
"html-keyboard-response","159","368969","0.0-7.0-5.24","605fb0818ad4067b3d99ece0","bdp_wmem","Tue Mar 14 2023 20:32:08 GMT-0400 (Eastern Daylight Time)","576036","Match,No Match","","null","","","","","","<div class='trialBorder'><div class='vertical-center'><img src='img/correct.jpg'></div><div class='respDiv'><div class='respDivL'><font style='color:orange'>Match<br>(e)</font></div><div class='respDivR'>No Match<br>(i)</div></div></div>","null","FEEDBACK","","","","","","","","","","",""
"html-keyboard-response","160","369471","0.0-7.0-1.25","605fb0818ad4067b3d99ece0","bdp_wmem","Tue Mar 14 2023 20:32:08 GMT-0400 (Eastern Daylight Time)","576036","Match,No Match","","null","","","","","","<div class='trialBorder'><div class='vertical-center'><img src='img/fixation2_sml.jpg'</img></div></div>","null","FIX","","","","","","","","","","",""
"html-keyboard-response","161","370973","0.0-7.0-2.25","605fb0818ad4067b3d99ece0","bdp_wmem","Tue Mar 14 2023 20:32:08 GMT-0400 (Eastern Daylight Time)","576036","Match,No Match","","null","","","","","","<div class='trialBorder'><div class='vertical-center'><img style='vertical-align:center; align:center' src='img/fixation2_sml.jpg'></div><div class='arrayDiv1'><div class='tc'><img class='introPic' src='trustrating_stim/white_mw092.bmp'><br><font color='green'><strong>Share</strong></font></div></div></div>","null","ARRAY","1","trustrating_stim/white_mw092.bmp","1","noMatchFace","i","1500","","","","",""
"html-keyboard-response","162","374974","0.0-7.0-3.25","605fb0818ad4067b3d99ece0","bdp_wmem","Tue Mar 14 2023 20:32:08 GMT-0400 (Eastern Daylight Time)","576036","Match,No Match","","null","","","","","","<div class='trialBorder'><div class='vertical-center'><img src='img/fixation2_sml.jpg'</img></div></div>","null","DELAY","","","","","","","","","","",""
"html-keyboard-response","163","375836","0.0-7.0-4.25","605fb0818ad4067b3d99ece0","bdp_wmem","Tue Mar 14 2023 20:32:08 GMT-0400 (Eastern Daylight Time)","576036","Match,No Match","","861","","","","","","<div class='trialBorder'><div class='targDiv'><div class='tc'><img class='introPic' src='trustrating_stim/white_mw070.bmp'><br><font color='green'><strong>Share</strong></font></div></div><div class='respDiv'><div class='respDivL'>Match<br>(e)</div><div class='respDivR'>No Match<br>(i)</div></div></div>","i","TARGET","1","trustrating_stim/white_mw092.bmp","1","noMatchFace","i","1500","trustrating_stim/white_mw070.bmp","green","Share","REAL","1"
"html-keyboard-response","164","376338","0.0-7.0-5.25","605fb0818ad4067b3d99ece0","bdp_wmem","Tue Mar 14 2023 20:32:08 GMT-0400 (Eastern Daylight Time)","576036","Match,No Match","","null","","","","","","<div class='trialBorder'><div class='vertical-center'><img src='img/correct.jpg'></div><div class='respDiv'><div class='respDivL'>Match<br>(e)</div><div class='respDivR'><font style='color:orange'>No Match<br>(i)</font></div></div></div>","null","FEEDBACK","","","","","","","","","","",""
"html-keyboard-response","165","376840","0.0-7.0-1.26","605fb0818ad4067b3d99ece0","bdp_wmem","Tue Mar 14 2023 20:32:08 GMT-0400 (Eastern Daylight Time)","576036","Match,No Match","","null","","","","","","<div class='trialBorder'><div class='vertical-center'><img src='img/fixation2_sml.jpg'</img></div></div>","null","FIX","","","","","","","","","","",""
"html-keyboard-response","166","378342","0.0-7.0-2.26","605fb0818ad4067b3d99ece0","bdp_wmem","Tue Mar 14 2023 20:32:08 GMT-0400 (Eastern Daylight Time)","576036","Match,No Match","","null","","","","","","<div class='trialBorder'><div class='vertical-center'><img style='vertical-align:center; align:center' src='img/fixation2_sml.jpg'></div><div class='arrayDiv1'><div class='tc'><img class='introPic' src='trustrating_stim/white_mw070.bmp'><br><font color='red'><strong>Keep</strong></font></div></div></div>","null","ARRAY","1","trustrating_stim/white_mw070.bmp","0","noMatchFace","i","1500","","","","",""
"html-keyboard-response","167","382344","0.0-7.0-3.26","605fb0818ad4067b3d99ece0","bdp_wmem","Tue Mar 14 2023 20:32:08 GMT-0400 (Eastern Daylight Time)","576036","Match,No Match","","null","","","","","","<div class='trialBorder'><div class='vertical-center'><img src='img/fixation2_sml.jpg'</img></div></div>","null","DELAY","","","","","","","","","","",""
"html-keyboard-response","168","383015","0.0-7.0-4.26","605fb0818ad4067b3d99ece0","bdp_wmem","Tue Mar 14 2023 20:32:08 GMT-0400 (Eastern Daylight Time)","576036","Match,No Match","","670","","","","","","<div class='trialBorder'><div class='targDiv'><div class='tc'><img class='introPic' src='trustrating_stim/white_mw040.bmp'><br><font color='red'><strong>Keep</strong></font></div></div><div class='respDiv'><div class='respDivL'>Match<br>(e)</div><div class='respDivR'>No Match<br>(i)</div></div></div>","i","TARGET","1","trustrating_stim/white_mw070.bmp","0","noMatchFace","i","1500","trustrating_stim/white_mw040.bmp","red","Keep","REAL","1"
"html-keyboard-response","169","383516","0.0-7.0-5.26","605fb0818ad4067b3d99ece0","bdp_wmem","Tue Mar 14 2023 20:32:08 GMT-0400 (Eastern Daylight Time)","576036","Match,No Match","","null","","","","","","<div class='trialBorder'><div class='vertical-center'><img src='img/correct.jpg'></div><div class='respDiv'><div class='respDivL'>Match<br>(e)</div><div class='respDivR'><font style='color:orange'>No Match<br>(i)</font></div></div></div>","null","FEEDBACK","","","","","","","","","","",""
"html-keyboard-response","170","384018","0.0-7.0-1.27","605fb0818ad4067b3d99ece0","bdp_wmem","Tue Mar 14 2023 20:32:08 GMT-0400 (Eastern Daylight Time)","576036","Match,No Match","","null","","","","","","<div class='trialBorder'><div class='vertical-center'><img src='img/fixation2_sml.jpg'</img></div></div>","null","FIX","","","","","","","","","","",""
"html-keyboard-response","171","385520","0.0-7.0-2.27","605fb0818ad4067b3d99ece0","bdp_wmem","Tue Mar 14 2023 20:32:08 GMT-0400 (Eastern Daylight Time)","576036","Match,No Match","","null","","","","","","<div class='trialBorder'><div class='vertical-center'><img style='vertical-align:center; align:center' src='img/fixation2_sml.jpg'></div><div class='arrayDiv1'><div class='tc'><img class='introPic' src='trustrating_stim/white_mw070.bmp'><br><font color='red'><strong>Keep</strong></font></div></div></div>","null","ARRAY","1","trustrating_stim/white_mw070.bmp","0","Match","e","1500","","","","",""
"html-keyboard-response","172","389522","0.0-7.0-3.27","605fb0818ad4067b3d99ece0","bdp_wmem","Tue Mar 14 2023 20:32:08 GMT-0400 (Eastern Daylight Time)","576036","Match,No Match","","null","","","","","","<div class='trialBorder'><div class='vertical-center'><img src='img/fixation2_sml.jpg'</img></div></div>","null","DELAY","","","","","","","","","","",""
"html-keyboard-response","173","389989","0.0-7.0-4.27","605fb0818ad4067b3d99ece0","bdp_wmem","Tue Mar 14 2023 20:32:08 GMT-0400 (Eastern Daylight Time)","576036","Match,No Match","","466","","","","","","<div class='trialBorder'><div class='targDiv'><div class='tc'><img class='introPic' src='trustrating_stim/white_mw070.bmp'><br><font color='red'><strong>Keep</strong></font></div></div><div class='respDiv'><div class='respDivL'>Match<br>(e)</div><div class='respDivR'>No Match<br>(i)</div></div></div>","e","TARGET","1","trustrating_stim/white_mw070.bmp","0","Match","e","1500","trustrating_stim/white_mw070.bmp","red","Keep","REAL","1"
"html-keyboard-response","174","390490","0.0-7.0-5.27","605fb0818ad4067b3d99ece0","bdp_wmem","Tue Mar 14 2023 20:32:08 GMT-0400 (Eastern Daylight Time)","576036","Match,No Match","","null","","","","","","<div class='trialBorder'><div class='vertical-center'><img src='img/correct.jpg'></div><div class='respDiv'><div class='respDivL'><font style='color:orange'>Match<br>(e)</font></div><div class='respDivR'>No Match<br>(i)</div></div></div>","null","FEEDBACK","","","","","","","","","","",""
"html-keyboard-response","175","390992","0.0-7.0-1.28","605fb0818ad4067b3d99ece0","bdp_wmem","Tue Mar 14 2023 20:32:08 GMT-0400 (Eastern Daylight Time)","576036","Match,No Match","","null","","","","","","<div class='trialBorder'><div class='vertical-center'><img src='img/fixation2_sml.jpg'</img></div></div>","null","FIX","","","","","","","","","","",""
"html-keyboard-response","176","392494","0.0-7.0-2.28","605fb0818ad4067b3d99ece0","bdp_wmem","Tue Mar 14 2023 20:32:08 GMT-0400 (Eastern Daylight Time)","576036","Match,No Match","","null","","","","","","<div class='trialBorder'><div class='vertical-center'><img style='vertical-align:center; align:center' src='img/fixation2_sml.jpg'></div><div class='arrayDiv1'><div class='tc'><img class='introPic' src='trustrating_stim/white_mw010.bmp'><br><font color='red'><strong>Keep</strong></font></div></div></div>","null","ARRAY","1","trustrating_stim/white_mw010.bmp","0","Match","e","1500","","","","",""
"html-keyboard-response","177","396497","0.0-7.0-3.28","605fb0818ad4067b3d99ece0","bdp_wmem","Tue Mar 14 2023 20:32:08 GMT-0400 (Eastern Daylight Time)","576036","Match,No Match","","null","","","","","","<div class='trialBorder'><div class='vertical-center'><img src='img/fixation2_sml.jpg'</img></div></div>","null","DELAY","","","","","","","","","","",""
"html-keyboard-response","178","397004","0.0-7.0-4.28","605fb0818ad4067b3d99ece0","bdp_wmem","Tue Mar 14 2023 20:32:08 GMT-0400 (Eastern Daylight Time)","576036","Match,No Match","","506","","","","","","<div class='trialBorder'><div class='targDiv'><div class='tc'><img class='introPic' src='trustrating_stim/white_mw010.bmp'><br><font color='red'><strong>Keep</strong></font></div></div><div class='respDiv'><div class='respDivL'>Match<br>(e)</div><div class='respDivR'>No Match<br>(i)</div></div></div>","e","TARGET","1","trustrating_stim/white_mw010.bmp","0","Match","e","1500","trustrating_stim/white_mw010.bmp","red","Keep","REAL","1"
"html-keyboard-response","179","397506","0.0-7.0-5.28","605fb0818ad4067b3d99ece0","bdp_wmem","Tue Mar 14 2023 20:32:08 GMT-0400 (Eastern Daylight Time)","576036","Match,No Match","","null","","","","","","<div class='trialBorder'><div class='vertical-center'><img src='img/correct.jpg'></div><div class='respDiv'><div class='respDivL'><font style='color:orange'>Match<br>(e)</font></div><div class='respDivR'>No Match<br>(i)</div></div></div>","null","FEEDBACK","","","","","","","","","","",""
"html-keyboard-response","180","398007","0.0-7.0-1.29","605fb0818ad4067b3d99ece0","bdp_wmem","Tue Mar 14 2023 20:32:08 GMT-0400 (Eastern Daylight Time)","576036","Match,No Match","","null","","","","","","<div class='trialBorder'><div class='vertical-center'><img src='img/fixation2_sml.jpg'</img></div></div>","null","FIX","","","","","","","","","","",""
"html-keyboard-response","181","402509","0.0-7.0-2.29","605fb0818ad4067b3d99ece0","bdp_wmem","Tue Mar 14 2023 20:32:08 GMT-0400 (Eastern Daylight Time)","576036","Match,No Match","","null","","","","","","<div class='trialBorder'><div class='vertical-center'><img style='vertical-align:center; align:center' src='img/fixation2_sml.jpg'></div><div class='arrayDiv3'><div class='tl'><img class='introPic' src='trustrating_stim/white_mw042.bmp'><br><font color='green'><strong>Share</strong></font></div><div class='tc'><img class='introPic' src='trustrating_stim/white_mw092.bmp'><br><font color='red'><strong>Keep</strong></font></div><div class='tr'><img class='introPic' src='trustrating_stim/white_mw013.bmp'><br><font color='red'><strong>Keep</strong></font></div></div></div>","null","ARRAY","3","trustrating_stim/white_mw042.bmp,trustrating_stim/white_mw092.bmp,trustrating_stim/white_mw013.bmp","1,0,0","noMatchOutcome","i","4500","","","","",""
"html-keyboard-response","182","406511","0.0-7.0-3.29","605fb0818ad4067b3d99ece0","bdp_wmem","Tue Mar 14 2023 20:32:08 GMT-0400 (Eastern Daylight Time)","576036","Match,No Match","","null","","","","","","<div class='trialBorder'><div class='vertical-center'><img src='img/fixation2_sml.jpg'</img></div></div>","null","DELAY","","","","","","","","","","",""
"html-keyboard-response","183","407290","0.0-7.0-4.29","605fb0818ad4067b3d99ece0","bdp_wmem","Tue Mar 14 2023 20:32:08 GMT-0400 (Eastern Daylight Time)","576036","Match,No Match","","776","","","","","","<div class='trialBorder'><div class='targDiv'><div class='tc'><img class='introPic' src='trustrating_stim/white_mw042.bmp'><br><font color='red'><strong>Keep</strong></font></div></div><div class='respDiv'><div class='respDivL'>Match<br>(e)</div><div class='respDivR'>No Match<br>(i)</div></div></div>","i","TARGET","3","trustrating_stim/white_mw042.bmp,trustrating_stim/white_mw092.bmp,trustrating_stim/white_mw013.bmp","1,0,0","noMatchOutcome","i","4500","trustrating_stim/white_mw042.bmp","red","Keep","REAL","1"
"html-keyboard-response","184","407791","0.0-7.0-5.29","605fb0818ad4067b3d99ece0","bdp_wmem","Tue Mar 14 2023 20:32:08 GMT-0400 (Eastern Daylight Time)","576036","Match,No Match","","null","","","","","","<div class='trialBorder'><div class='vertical-center'><img src='img/correct.jpg'></div><div class='respDiv'><div class='respDivL'>Match<br>(e)</div><div class='respDivR'><font style='color:orange'>No Match<br>(i)</font></div></div></div>","null","FEEDBACK","","","","","","","","","","",""
"html-keyboard-response","185","408292","0.0-7.0-1.30","605fb0818ad4067b3d99ece0","bdp_wmem","Tue Mar 14 2023 20:32:08 GMT-0400 (Eastern Daylight Time)","576036","Match,No Match","","null","","","","","","<div class='trialBorder'><div class='vertical-center'><img src='img/fixation2_sml.jpg'</img></div></div>","null","FIX","","","","","","","","","","",""
"html-keyboard-response","186","411295","0.0-7.0-2.30","605fb0818ad4067b3d99ece0","bdp_wmem","Tue Mar 14 2023 20:32:08 GMT-0400 (Eastern Daylight Time)","576036","Match,No Match","","null","","","","","","<div class='trialBorder'><div class='vertical-center'><img style='vertical-align:center; align:center' src='img/fixation2_sml.jpg'></div><div class='arrayDiv2'><div class='tl'><img class='introPic' src='trustrating_stim/white_mw085.bmp'><br><font color='green'><strong>Share</strong></font></div><div class='tr'><img class='introPic' src='trustrating_stim/white_mw078.bmp'><br><font color='red'><strong>Keep</strong></font></div></div></div>","null","ARRAY","2","trustrating_stim/white_mw085.bmp,trustrating_stim/white_mw078.bmp","1,0","Match","e","3000","","","","",""
"html-keyboard-response","187","415296","0.0-7.0-3.30","605fb0818ad4067b3d99ece0","bdp_wmem","Tue Mar 14 2023 20:32:08 GMT-0400 (Eastern Daylight Time)","576036","Match,No Match","","null","","","","","","<div class='trialBorder'><div class='vertical-center'><img src='img/fixation2_sml.jpg'</img></div></div>","null","DELAY","","","","","","","","","","",""
"html-keyboard-response","188","416623","0.0-7.0-4.30","605fb0818ad4067b3d99ece0","bdp_wmem","Tue Mar 14 2023 20:32:08 GMT-0400 (Eastern Daylight Time)","576036","Match,No Match","","1326","","","","","","<div class='trialBorder'><div class='targDiv'><div class='tc'><img class='introPic' src='trustrating_stim/white_mw078.bmp'><br><font color='red'><strong>Keep</strong></font></div></div><div class='respDiv'><div class='respDivL'>Match<br>(e)</div><div class='respDivR'>No Match<br>(i)</div></div></div>","e","TARGET","2","trustrating_stim/white_mw085.bmp,trustrating_stim/white_mw078.bmp","1,0","Match","e","3000","trustrating_stim/white_mw078.bmp","red","Keep","REAL","1"
