"trial_type","trial_index","time_elapsed","internal_node_id","subject_id","task","startTime","totalTime","labels","view_history","rt","event","trial","time","trialtype","success","stimulus","key_press","stimType","arraySize","arrayFaces","arrayOutcomes","matchType","corrResp","arrayDur","targFace","targCol","targOutcome","trialType","corr"
"pavlovia","0","2","0.0-0.0","63f0fb9941434d10e8e4909b","bdp_wmem","Sat Apr 08 2023 12:44:08 GMT-0400 (Eastern Daylight Time)","694864","Match,No Match","","","","","","","","","","","","","","","","","","","","",""
"instructions","1","13036","0.0-1.0","63f0fb9941434d10e8e4909b","bdp_wmem","Sat Apr 08 2023 12:44:08 GMT-0400 (Eastern Daylight Time)","694864","Match,No Match","[{""page_index"":0,""viewing_time"":13034}]","13034","","","","","","","","","","","","","","","","","","",""
"","","","","63f0fb9941434d10e8e4909b","bdp_wmem","Sat Apr 08 2023 12:44:08 GMT-0400 (Eastern Daylight Time)","694864","Match,No Match","","","fullscreenenter","2","15378","fullscreenenter","","","","","","","","","","","","","","",""
"fullscreen","2","16319","0.0-2.0","63f0fb9941434d10e8e4909b","bdp_wmem","Sat Apr 08 2023 12:44:08 GMT-0400 (Eastern Daylight Time)","694864","Match,No Match","","","","","","","true","","","","","","","","","","","","","",""
"instructions","3","167635","0.0-4.0","63f0fb9941434d10e8e4909b","bdp_wmem","Sat Apr 08 2023 12:44:08 GMT-0400 (Eastern Daylight Time)","694864","Match,No Match","[{""page_index"":0,""viewing_time"":46578},{""page_index"":1,""viewing_time"":62553},{""page_index"":2,""viewing_time"":26616},{""page_index"":3,""viewing_time"":11136},{""page_index"":4,""viewing_time"":4431}]","151315","","","","","","","","","","","","","","","","","","",""
"html-keyboard-response","4","168136","0.0-5.0-1.0","63f0fb9941434d10e8e4909b","bdp_wmem","Sat Apr 08 2023 12:44:08 GMT-0400 (Eastern Daylight Time)","694864","Match,No Match","","null","","","","","","<div class='trialBorder'><div class='vertical-center'><img src='img/fixation2_sml.jpg'</img></div></div>","null","FIX","","","","","","","","","","",""
"html-keyboard-response","5","171138","0.0-5.0-2.0","63f0fb9941434d10e8e4909b","bdp_wmem","Sat Apr 08 2023 12:44:08 GMT-0400 (Eastern Daylight Time)","694864","Match,No Match","","null","","","","","","<div class='trialBorder'><div class='vertical-center'><img style='vertical-align:center; align:center' src='img/fixation2_sml.jpg'></div><div class='arrayDiv2'><div class='tl'><img class='introPic' src='trustrating_stim/white_mw078.bmp'><br><font color='red'><strong>Keep</strong></font></div><div class='tr'><img class='introPic' src='trustrating_stim/white_mw092.bmp'><br><font color='green'><strong>Share</strong></font></div></div></div>","null","ARRAY","2","trustrating_stim/white_mw078.bmp,trustrating_stim/white_mw092.bmp","0,1","noMatchFace","i","3000","","","","",""
"html-keyboard-response","6","175140","0.0-5.0-3.0","63f0fb9941434d10e8e4909b","bdp_wmem","Sat Apr 08 2023 12:44:08 GMT-0400 (Eastern Daylight Time)","694864","Match,No Match","","null","","","","","","<div class='trialBorder'><div class='vertical-center'><img src='img/fixation2_sml.jpg'</img></div></div>","null","DELAY","","","","","","","","","","",""
"html-keyboard-response","7","177251","0.0-5.0-4.0","63f0fb9941434d10e8e4909b","bdp_wmem","Sat Apr 08 2023 12:44:08 GMT-0400 (Eastern Daylight Time)","694864","Match,No Match","","2111","","","","","","<div class='trialBorder'><div class='targDiv'><div class='tc'><img class='introPic' src='trustrating_stim/white_mw012.bmp'><br><font color='green'><strong>Share</strong></font></div></div><div class='respDiv'><div class='respDivL'>Match<br>(e)</div><div class='respDivR'>No Match<br>(i)</div></div></div>","i","TARGET","2","trustrating_stim/white_mw078.bmp,trustrating_stim/white_mw092.bmp","0,1","noMatchFace","i","3000","trustrating_stim/white_mw012.bmp","green","Share","PRACTICE","1"
"html-keyboard-response","8","177752","0.0-5.0-5.0","63f0fb9941434d10e8e4909b","bdp_wmem","Sat Apr 08 2023 12:44:08 GMT-0400 (Eastern Daylight Time)","694864","Match,No Match","","null","","","","","","<div class='trialBorder'><div class='vertical-center'><img src='img/correct.jpg'></div><div class='respDiv'><div class='respDivL'>Match<br>(e)</div><div class='respDivR'><font style='color:orange'>No Match<br>(i)</font></div></div></div>","null","FEEDBACK","","","","","","","","","","",""
"html-keyboard-response","9","178254","0.0-5.0-1.1","63f0fb9941434d10e8e4909b","bdp_wmem","Sat Apr 08 2023 12:44:08 GMT-0400 (Eastern Daylight Time)","694864","Match,No Match","","null","","","","","","<div class='trialBorder'><div class='vertical-center'><img src='img/fixation2_sml.jpg'</img></div></div>","null","FIX","","","","","","","","","","",""
"html-keyboard-response","10","182757","0.0-5.0-2.1","63f0fb9941434d10e8e4909b","bdp_wmem","Sat Apr 08 2023 12:44:08 GMT-0400 (Eastern Daylight Time)","694864","Match,No Match","","null","","","","","","<div class='trialBorder'><div class='vertical-center'><img style='vertical-align:center; align:center' src='img/fixation2_sml.jpg'></div><div class='arrayDiv3'><div class='tl'><img class='introPic' src='trustrating_stim/white_mw092.bmp'><br><font color='green'><strong>Share</strong></font></div><div class='tc'><img class='introPic' src='trustrating_stim/white_mw070.bmp'><br><font color='red'><strong>Keep</strong></font></div><div class='tr'><img class='introPic' src='trustrating_stim/white_mw085.bmp'><br><font color='green'><strong>Share</strong></font></div></div></div>","null","ARRAY","3","trustrating_stim/white_mw092.bmp,trustrating_stim/white_mw070.bmp,trustrating_stim/white_mw085.bmp","1,0,1","Match","e","4500","","","","",""
"html-keyboard-response","11","186758","0.0-5.0-3.1","63f0fb9941434d10e8e4909b","bdp_wmem","Sat Apr 08 2023 12:44:08 GMT-0400 (Eastern Daylight Time)","694864","Match,No Match","","null","","","","","","<div class='trialBorder'><div class='vertical-center'><img src='img/fixation2_sml.jpg'</img></div></div>","null","DELAY","","","","","","","","","","",""
"html-keyboard-response","12","189491","0.0-5.0-4.1","63f0fb9941434d10e8e4909b","bdp_wmem","Sat Apr 08 2023 12:44:08 GMT-0400 (Eastern Daylight Time)","694864","Match,No Match","","2732","","","","","","<div class='trialBorder'><div class='targDiv'><div class='tc'><img class='introPic' src='trustrating_stim/white_mw070.bmp'><br><font color='red'><strong>Keep</strong></font></div></div><div class='respDiv'><div class='respDivL'>Match<br>(e)</div><div class='respDivR'>No Match<br>(i)</div></div></div>","e","TARGET","3","trustrating_stim/white_mw092.bmp,trustrating_stim/white_mw070.bmp,trustrating_stim/white_mw085.bmp","1,0,1","Match","e","4500","trustrating_stim/white_mw070.bmp","red","Keep","PRACTICE","1"
"html-keyboard-response","13","189991","0.0-5.0-5.1","63f0fb9941434d10e8e4909b","bdp_wmem","Sat Apr 08 2023 12:44:08 GMT-0400 (Eastern Daylight Time)","694864","Match,No Match","","null","","","","","","<div class='trialBorder'><div class='vertical-center'><img src='img/correct.jpg'></div><div class='respDiv'><div class='respDivL'><font style='color:orange'>Match<br>(e)</font></div><div class='respDivR'>No Match<br>(i)</div></div></div>","null","FEEDBACK","","","","","","","","","","",""
"html-keyboard-response","14","190493","0.0-5.0-1.2","63f0fb9941434d10e8e4909b","bdp_wmem","Sat Apr 08 2023 12:44:08 GMT-0400 (Eastern Daylight Time)","694864","Match,No Match","","null","","","","","","<div class='trialBorder'><div class='vertical-center'><img src='img/fixation2_sml.jpg'</img></div></div>","null","FIX","","","","","","","","","","",""
"html-keyboard-response","15","194996","0.0-5.0-2.2","63f0fb9941434d10e8e4909b","bdp_wmem","Sat Apr 08 2023 12:44:08 GMT-0400 (Eastern Daylight Time)","694864","Match,No Match","","null","","","","","","<div class='trialBorder'><div class='vertical-center'><img style='vertical-align:center; align:center' src='img/fixation2_sml.jpg'></div><div class='arrayDiv3'><div class='tl'><img class='introPic' src='trustrating_stim/white_mw091.bmp'><br><font color='green'><strong>Share</strong></font></div><div class='tc'><img class='introPic' src='trustrating_stim/white_mw012.bmp'><br><font color='green'><strong>Share</strong></font></div><div class='tr'><img class='introPic' src='trustrating_stim/white_mw092.bmp'><br><font color='red'><strong>Keep</strong></font></div></div></div>","null","ARRAY","3","trustrating_stim/white_mw091.bmp,trustrating_stim/white_mw012.bmp,trustrating_stim/white_mw092.bmp","1,1,0","noMatchOutcome","i","4500","","","","",""
"html-keyboard-response","16","198996","0.0-5.0-3.2","63f0fb9941434d10e8e4909b","bdp_wmem","Sat Apr 08 2023 12:44:08 GMT-0400 (Eastern Daylight Time)","694864","Match,No Match","","null","","","","","","<div class='trialBorder'><div class='vertical-center'><img src='img/fixation2_sml.jpg'</img></div></div>","null","DELAY","","","","","","","","","","",""
"html-keyboard-response","17","201499","0.0-5.0-4.2","63f0fb9941434d10e8e4909b","bdp_wmem","Sat Apr 08 2023 12:44:08 GMT-0400 (Eastern Daylight Time)","694864","Match,No Match","","2501","","","","","","<div class='trialBorder'><div class='targDiv'><div class='tc'><img class='introPic' src='trustrating_stim/white_mw091.bmp'><br><font color='red'><strong>Keep</strong></font></div></div><div class='respDiv'><div class='respDivL'>Match<br>(e)</div><div class='respDivR'>No Match<br>(i)</div></div></div>","i","TARGET","3","trustrating_stim/white_mw091.bmp,trustrating_stim/white_mw012.bmp,trustrating_stim/white_mw092.bmp","1,1,0","noMatchOutcome","i","4500","trustrating_stim/white_mw091.bmp","red","Keep","PRACTICE","1"
"html-keyboard-response","18","202000","0.0-5.0-5.2","63f0fb9941434d10e8e4909b","bdp_wmem","Sat Apr 08 2023 12:44:08 GMT-0400 (Eastern Daylight Time)","694864","Match,No Match","","null","","","","","","<div class='trialBorder'><div class='vertical-center'><img src='img/correct.jpg'></div><div class='respDiv'><div class='respDivL'>Match<br>(e)</div><div class='respDivR'><font style='color:orange'>No Match<br>(i)</font></div></div></div>","null","FEEDBACK","","","","","","","","","","",""
"html-keyboard-response","19","202501","0.0-5.0-1.3","63f0fb9941434d10e8e4909b","bdp_wmem","Sat Apr 08 2023 12:44:08 GMT-0400 (Eastern Daylight Time)","694864","Match,No Match","","null","","","","","","<div class='trialBorder'><div class='vertical-center'><img src='img/fixation2_sml.jpg'</img></div></div>","null","FIX","","","","","","","","","","",""
"html-keyboard-response","20","204003","0.0-5.0-2.3","63f0fb9941434d10e8e4909b","bdp_wmem","Sat Apr 08 2023 12:44:08 GMT-0400 (Eastern Daylight Time)","694864","Match,No Match","","null","","","","","","<div class='trialBorder'><div class='vertical-center'><img style='vertical-align:center; align:center' src='img/fixation2_sml.jpg'></div><div class='arrayDiv1'><div class='tc'><img class='introPic' src='trustrating_stim/white_mw010.bmp'><br><font color='green'><strong>Share</strong></font></div></div></div>","null","ARRAY","1","trustrating_stim/white_mw010.bmp","1","noMatchFace","i","1500","","","","",""
"html-keyboard-response","21","208005","0.0-5.0-3.3","63f0fb9941434d10e8e4909b","bdp_wmem","Sat Apr 08 2023 12:44:08 GMT-0400 (Eastern Daylight Time)","694864","Match,No Match","","null","","","","","","<div class='trialBorder'><div class='vertical-center'><img src='img/fixation2_sml.jpg'</img></div></div>","null","DELAY","","","","","","","","","","",""
"html-keyboard-response","22","209034","0.0-5.0-4.3","63f0fb9941434d10e8e4909b","bdp_wmem","Sat Apr 08 2023 12:44:08 GMT-0400 (Eastern Daylight Time)","694864","Match,No Match","","1028","","","","","","<div class='trialBorder'><div class='targDiv'><div class='tc'><img class='introPic' src='trustrating_stim/white_mw003.bmp'><br><font color='green'><strong>Share</strong></font></div></div><div class='respDiv'><div class='respDivL'>Match<br>(e)</div><div class='respDivR'>No Match<br>(i)</div></div></div>","i","TARGET","1","trustrating_stim/white_mw010.bmp","1","noMatchFace","i","1500","trustrating_stim/white_mw003.bmp","green","Share","PRACTICE","1"
"html-keyboard-response","23","209536","0.0-5.0-5.3","63f0fb9941434d10e8e4909b","bdp_wmem","Sat Apr 08 2023 12:44:08 GMT-0400 (Eastern Daylight Time)","694864","Match,No Match","","null","","","","","","<div class='trialBorder'><div class='vertical-center'><img src='img/correct.jpg'></div><div class='respDiv'><div class='respDivL'>Match<br>(e)</div><div class='respDivR'><font style='color:orange'>No Match<br>(i)</font></div></div></div>","null","FEEDBACK","","","","","","","","","","",""
"html-keyboard-response","24","210036","0.0-5.0-1.4","63f0fb9941434d10e8e4909b","bdp_wmem","Sat Apr 08 2023 12:44:08 GMT-0400 (Eastern Daylight Time)","694864","Match,No Match","","null","","","","","","<div class='trialBorder'><div class='vertical-center'><img src='img/fixation2_sml.jpg'</img></div></div>","null","FIX","","","","","","","","","","",""
"html-keyboard-response","25","211539","0.0-5.0-2.4","63f0fb9941434d10e8e4909b","bdp_wmem","Sat Apr 08 2023 12:44:08 GMT-0400 (Eastern Daylight Time)","694864","Match,No Match","","null","","","","","","<div class='trialBorder'><div class='vertical-center'><img style='vertical-align:center; align:center' src='img/fixation2_sml.jpg'></div><div class='arrayDiv1'><div class='tc'><img class='introPic' src='trustrating_stim/white_mw092.bmp'><br><font color='green'><strong>Share</strong></font></div></div></div>","null","ARRAY","1","trustrating_stim/white_mw092.bmp","1","Match","e","1500","","","","",""
"html-keyboard-response","26","215539","0.0-5.0-3.4","63f0fb9941434d10e8e4909b","bdp_wmem","Sat Apr 08 2023 12:44:08 GMT-0400 (Eastern Daylight Time)","694864","Match,No Match","","null","","","","","","<div class='trialBorder'><div class='vertical-center'><img src='img/fixation2_sml.jpg'</img></div></div>","null","DELAY","","","","","","","","","","",""
"html-keyboard-response","27","216731","0.0-5.0-4.4","63f0fb9941434d10e8e4909b","bdp_wmem","Sat Apr 08 2023 12:44:08 GMT-0400 (Eastern Daylight Time)","694864","Match,No Match","","1190","","","","","","<div class='trialBorder'><div class='targDiv'><div class='tc'><img class='introPic' src='trustrating_stim/white_mw092.bmp'><br><font color='green'><strong>Share</strong></font></div></div><div class='respDiv'><div class='respDivL'>Match<br>(e)</div><div class='respDivR'>No Match<br>(i)</div></div></div>","e","TARGET","1","trustrating_stim/white_mw092.bmp","1","Match","e","1500","trustrating_stim/white_mw092.bmp","green","Share","PRACTICE","1"
"html-keyboard-response","28","217231","0.0-5.0-5.4","63f0fb9941434d10e8e4909b","bdp_wmem","Sat Apr 08 2023 12:44:08 GMT-0400 (Eastern Daylight Time)","694864","Match,No Match","","null","","","","","","<div class='trialBorder'><div class='vertical-center'><img src='img/correct.jpg'></div><div class='respDiv'><div class='respDivL'><font style='color:orange'>Match<br>(e)</font></div><div class='respDivR'>No Match<br>(i)</div></div></div>","null","FEEDBACK","","","","","","","","","","",""
"html-keyboard-response","29","217732","0.0-5.0-1.5","63f0fb9941434d10e8e4909b","bdp_wmem","Sat Apr 08 2023 12:44:08 GMT-0400 (Eastern Daylight Time)","694864","Match,No Match","","null","","","","","","<div class='trialBorder'><div class='vertical-center'><img src='img/fixation2_sml.jpg'</img></div></div>","null","FIX","","","","","","","","","","",""
"html-keyboard-response","30","220734","0.0-5.0-2.5","63f0fb9941434d10e8e4909b","bdp_wmem","Sat Apr 08 2023 12:44:08 GMT-0400 (Eastern Daylight Time)","694864","Match,No Match","","null","","","","","","<div class='trialBorder'><div class='vertical-center'><img style='vertical-align:center; align:center' src='img/fixation2_sml.jpg'></div><div class='arrayDiv2'><div class='tl'><img class='introPic' src='trustrating_stim/white_mw012.bmp'><br><font color='red'><strong>Keep</strong></font></div><div class='tr'><img class='introPic' src='trustrating_stim/white_mw091.bmp'><br><font color='green'><strong>Share</strong></font></div></div></div>","null","ARRAY","2","trustrating_stim/white_mw012.bmp,trustrating_stim/white_mw091.bmp","0,1","Match","e","3000","","","","",""
"html-keyboard-response","31","224736","0.0-5.0-3.5","63f0fb9941434d10e8e4909b","bdp_wmem","Sat Apr 08 2023 12:44:08 GMT-0400 (Eastern Daylight Time)","694864","Match,No Match","","null","","","","","","<div class='trialBorder'><div class='vertical-center'><img src='img/fixation2_sml.jpg'</img></div></div>","null","DELAY","","","","","","","","","","",""
"html-keyboard-response","32","227443","0.0-5.0-4.5","63f0fb9941434d10e8e4909b","bdp_wmem","Sat Apr 08 2023 12:44:08 GMT-0400 (Eastern Daylight Time)","694864","Match,No Match","","2706","","","","","","<div class='trialBorder'><div class='targDiv'><div class='tc'><img class='introPic' src='trustrating_stim/white_mw091.bmp'><br><font color='green'><strong>Share</strong></font></div></div><div class='respDiv'><div class='respDivL'>Match<br>(e)</div><div class='respDivR'>No Match<br>(i)</div></div></div>","i","TARGET","2","trustrating_stim/white_mw012.bmp,trustrating_stim/white_mw091.bmp","0,1","Match","e","3000","trustrating_stim/white_mw091.bmp","green","Share","PRACTICE","0"
"html-keyboard-response","33","227944","0.0-5.0-5.5","63f0fb9941434d10e8e4909b","bdp_wmem","Sat Apr 08 2023 12:44:08 GMT-0400 (Eastern Daylight Time)","694864","Match,No Match","","null","","","","","","<div class='trialBorder'><div class='vertical-center'><img src='img/error.jpg'></div><div class='respDiv'><div class='respDivL'>Match<br>(e)</div><div class='respDivR'><font style='color:orange'>No Match<br>(i)</font></div></div></div>","null","FEEDBACK","","","","","","","","","","",""
"instructions","34","237314","0.0-6.0","63f0fb9941434d10e8e4909b","bdp_wmem","Sat Apr 08 2023 12:44:08 GMT-0400 (Eastern Daylight Time)","694864","Match,No Match","[{""page_index"":0,""viewing_time"":9370}]","9370","","","","","","","","","","","","","","","","","","",""
"html-keyboard-response","35","237815","0.0-7.0-1.0","63f0fb9941434d10e8e4909b","bdp_wmem","Sat Apr 08 2023 12:44:08 GMT-0400 (Eastern Daylight Time)","694864","Match,No Match","","null","","","","","","<div class='trialBorder'><div class='vertical-center'><img src='img/fixation2_sml.jpg'</img></div></div>","null","FIX","","","","","","","","","","",""
"html-keyboard-response","36","242317","0.0-7.0-2.0","63f0fb9941434d10e8e4909b","bdp_wmem","Sat Apr 08 2023 12:44:08 GMT-0400 (Eastern Daylight Time)","694864","Match,No Match","","null","","","","","","<div class='trialBorder'><div class='vertical-center'><img style='vertical-align:center; align:center' src='img/fixation2_sml.jpg'></div><div class='arrayDiv3'><div class='tl'><img class='introPic' src='trustrating_stim/white_mw040.bmp'><br><font color='red'><strong>Keep</strong></font></div><div class='tc'><img class='introPic' src='trustrating_stim/white_mw012.bmp'><br><font color='green'><strong>Share</strong></font></div><div class='tr'><img class='introPic' src='trustrating_stim/white_mw038.bmp'><br><font color='green'><strong>Share</strong></font></div></div></div>","null","ARRAY","3","trustrating_stim/white_mw040.bmp,trustrating_stim/white_mw012.bmp,trustrating_stim/white_mw038.bmp","0,1,1","noMatchOutcome","i","4500","","","","",""
"html-keyboard-response","37","246319","0.0-7.0-3.0","63f0fb9941434d10e8e4909b","bdp_wmem","Sat Apr 08 2023 12:44:08 GMT-0400 (Eastern Daylight Time)","694864","Match,No Match","","null","","","","","","<div class='trialBorder'><div class='vertical-center'><img src='img/fixation2_sml.jpg'</img></div></div>","null","DELAY","","","","","","","","","","",""
"html-keyboard-response","38","248138","0.0-7.0-4.0","63f0fb9941434d10e8e4909b","bdp_wmem","Sat Apr 08 2023 12:44:08 GMT-0400 (Eastern Daylight Time)","694864","Match,No Match","","1818","","","","","","<div class='trialBorder'><div class='targDiv'><div class='tc'><img class='introPic' src='trustrating_stim/white_mw038.bmp'><br><font color='red'><strong>Keep</strong></font></div></div><div class='respDiv'><div class='respDivL'>Match<br>(e)</div><div class='respDivR'>No Match<br>(i)</div></div></div>","i","TARGET","3","trustrating_stim/white_mw040.bmp,trustrating_stim/white_mw012.bmp,trustrating_stim/white_mw038.bmp","0,1,1","noMatchOutcome","i","4500","trustrating_stim/white_mw038.bmp","red","Keep","REAL","1"
"html-keyboard-response","39","248639","0.0-7.0-5.0","63f0fb9941434d10e8e4909b","bdp_wmem","Sat Apr 08 2023 12:44:08 GMT-0400 (Eastern Daylight Time)","694864","Match,No Match","","null","","","","","","<div class='trialBorder'><div class='vertical-center'><img src='img/correct.jpg'></div><div class='respDiv'><div class='respDivL'>Match<br>(e)</div><div class='respDivR'><font style='color:orange'>No Match<br>(i)</font></div></div></div>","null","FEEDBACK","","","","","","","","","","",""
"html-keyboard-response","40","249140","0.0-7.0-1.1","63f0fb9941434d10e8e4909b","bdp_wmem","Sat Apr 08 2023 12:44:08 GMT-0400 (Eastern Daylight Time)","694864","Match,No Match","","null","","","","","","<div class='trialBorder'><div class='vertical-center'><img src='img/fixation2_sml.jpg'</img></div></div>","null","FIX","","","","","","","","","","",""
"html-keyboard-response","41","253642","0.0-7.0-2.1","63f0fb9941434d10e8e4909b","bdp_wmem","Sat Apr 08 2023 12:44:08 GMT-0400 (Eastern Daylight Time)","694864","Match,No Match","","null","","","","","","<div class='trialBorder'><div class='vertical-center'><img style='vertical-align:center; align:center' src='img/fixation2_sml.jpg'></div><div class='arrayDiv3'><div class='tl'><img class='introPic' src='trustrating_stim/white_mw010.bmp'><br><font color='red'><strong>Keep</strong></font></div><div class='tc'><img class='introPic' src='trustrating_stim/white_mw042.bmp'><br><font color='green'><strong>Share</strong></font></div><div class='tr'><img class='introPic' src='trustrating_stim/white_mw013.bmp'><br><font color='green'><strong>Share</strong></font></div></div></div>","null","ARRAY","3","trustrating_stim/white_mw010.bmp,trustrating_stim/white_mw042.bmp,trustrating_stim/white_mw013.bmp","0,1,1","Match","e","4500","","","","",""
"html-keyboard-response","42","257644","0.0-7.0-3.1","63f0fb9941434d10e8e4909b","bdp_wmem","Sat Apr 08 2023 12:44:08 GMT-0400 (Eastern Daylight Time)","694864","Match,No Match","","null","","","","","","<div class='trialBorder'><div class='vertical-center'><img src='img/fixation2_sml.jpg'</img></div></div>","null","DELAY","","","","","","","","","","",""
"html-keyboard-response","43","259354","0.0-7.0-4.1","63f0fb9941434d10e8e4909b","bdp_wmem","Sat Apr 08 2023 12:44:08 GMT-0400 (Eastern Daylight Time)","694864","Match,No Match","","1708","","","","","","<div class='trialBorder'><div class='targDiv'><div class='tc'><img class='introPic' src='trustrating_stim/white_mw010.bmp'><br><font color='red'><strong>Keep</strong></font></div></div><div class='respDiv'><div class='respDivL'>Match<br>(e)</div><div class='respDivR'>No Match<br>(i)</div></div></div>","e","TARGET","3","trustrating_stim/white_mw010.bmp,trustrating_stim/white_mw042.bmp,trustrating_stim/white_mw013.bmp","0,1,1","Match","e","4500","trustrating_stim/white_mw010.bmp","red","Keep","REAL","1"
"html-keyboard-response","44","259854","0.0-7.0-5.1","63f0fb9941434d10e8e4909b","bdp_wmem","Sat Apr 08 2023 12:44:08 GMT-0400 (Eastern Daylight Time)","694864","Match,No Match","","null","","","","","","<div class='trialBorder'><div class='vertical-center'><img src='img/correct.jpg'></div><div class='respDiv'><div class='respDivL'><font style='color:orange'>Match<br>(e)</font></div><div class='respDivR'>No Match<br>(i)</div></div></div>","null","FEEDBACK","","","","","","","","","","",""
"html-keyboard-response","45","260355","0.0-7.0-1.2","63f0fb9941434d10e8e4909b","bdp_wmem","Sat Apr 08 2023 12:44:08 GMT-0400 (Eastern Daylight Time)","694864","Match,No Match","","null","","","","","","<div class='trialBorder'><div class='vertical-center'><img src='img/fixation2_sml.jpg'</img></div></div>","null","FIX","","","","","","","","","","",""
"html-keyboard-response","46","263356","0.0-7.0-2.2","63f0fb9941434d10e8e4909b","bdp_wmem","Sat Apr 08 2023 12:44:08 GMT-0400 (Eastern Daylight Time)","694864","Match,No Match","","null","","","","","","<div class='trialBorder'><div class='vertical-center'><img style='vertical-align:center; align:center' src='img/fixation2_sml.jpg'></div><div class='arrayDiv2'><div class='tl'><img class='introPic' src='trustrating_stim/white_mw040.bmp'><br><font color='green'><strong>Share</strong></font></div><div class='tr'><img class='introPic' src='trustrating_stim/white_mw042.bmp'><br><font color='red'><strong>Keep</strong></font></div></div></div>","null","ARRAY","2","trustrating_stim/white_mw040.bmp,trustrating_stim/white_mw042.bmp","1,0","noMatchOutcome","i","3000","","","","",""
"html-keyboard-response","47","267358","0.0-7.0-3.2","63f0fb9941434d10e8e4909b","bdp_wmem","Sat Apr 08 2023 12:44:08 GMT-0400 (Eastern Daylight Time)","694864","Match,No Match","","null","","","","","","<div class='trialBorder'><div class='vertical-center'><img src='img/fixation2_sml.jpg'</img></div></div>","null","DELAY","","","","","","","","","","",""
"html-keyboard-response","48","269890","0.0-7.0-4.2","63f0fb9941434d10e8e4909b","bdp_wmem","Sat Apr 08 2023 12:44:08 GMT-0400 (Eastern Daylight Time)","694864","Match,No Match","","2530","","","","","","<div class='trialBorder'><div class='targDiv'><div class='tc'><img class='introPic' src='trustrating_stim/white_mw042.bmp'><br><font color='green'><strong>Share</strong></font></div></div><div class='respDiv'><div class='respDivL'>Match<br>(e)</div><div class='respDivR'>No Match<br>(i)</div></div></div>","i","TARGET","2","trustrating_stim/white_mw040.bmp,trustrating_stim/white_mw042.bmp","1,0","noMatchOutcome","i","3000","trustrating_stim/white_mw042.bmp","green","Share","REAL","1"
"html-keyboard-response","49","270391","0.0-7.0-5.2","63f0fb9941434d10e8e4909b","bdp_wmem","Sat Apr 08 2023 12:44:08 GMT-0400 (Eastern Daylight Time)","694864","Match,No Match","","null","","","","","","<div class='trialBorder'><div class='vertical-center'><img src='img/correct.jpg'></div><div class='respDiv'><div class='respDivL'>Match<br>(e)</div><div class='respDivR'><font style='color:orange'>No Match<br>(i)</font></div></div></div>","null","FEEDBACK","","","","","","","","","","",""
"html-keyboard-response","50","270892","0.0-7.0-1.3","63f0fb9941434d10e8e4909b","bdp_wmem","Sat Apr 08 2023 12:44:08 GMT-0400 (Eastern Daylight Time)","694864","Match,No Match","","null","","","","","","<div class='trialBorder'><div class='vertical-center'><img src='img/fixation2_sml.jpg'</img></div></div>","null","FIX","","","","","","","","","","",""
"html-keyboard-response","51","273894","0.0-7.0-2.3","63f0fb9941434d10e8e4909b","bdp_wmem","Sat Apr 08 2023 12:44:08 GMT-0400 (Eastern Daylight Time)","694864","Match,No Match","","null","","","","","","<div class='trialBorder'><div class='vertical-center'><img style='vertical-align:center; align:center' src='img/fixation2_sml.jpg'></div><div class='arrayDiv2'><div class='tl'><img class='introPic' src='trustrating_stim/white_mw085.bmp'><br><font color='red'><strong>Keep</strong></font></div><div class='tr'><img class='introPic' src='trustrating_stim/white_mw012.bmp'><br><font color='green'><strong>Share</strong></font></div></div></div>","null","ARRAY","2","trustrating_stim/white_mw085.bmp,trustrating_stim/white_mw012.bmp","0,1","Match","e","3000","","","","",""
"html-keyboard-response","52","277896","0.0-7.0-3.3","63f0fb9941434d10e8e4909b","bdp_wmem","Sat Apr 08 2023 12:44:08 GMT-0400 (Eastern Daylight Time)","694864","Match,No Match","","null","","","","","","<div class='trialBorder'><div class='vertical-center'><img src='img/fixation2_sml.jpg'</img></div></div>","null","DELAY","","","","","","","","","","",""
"html-keyboard-response","53","278953","0.0-7.0-4.3","63f0fb9941434d10e8e4909b","bdp_wmem","Sat Apr 08 2023 12:44:08 GMT-0400 (Eastern Daylight Time)","694864","Match,No Match","","1056","","","","","","<div class='trialBorder'><div class='targDiv'><div class='tc'><img class='introPic' src='trustrating_stim/white_mw085.bmp'><br><font color='red'><strong>Keep</strong></font></div></div><div class='respDiv'><div class='respDivL'>Match<br>(e)</div><div class='respDivR'>No Match<br>(i)</div></div></div>","e","TARGET","2","trustrating_stim/white_mw085.bmp,trustrating_stim/white_mw012.bmp","0,1","Match","e","3000","trustrating_stim/white_mw085.bmp","red","Keep","REAL","1"
"html-keyboard-response","54","279454","0.0-7.0-5.3","63f0fb9941434d10e8e4909b","bdp_wmem","Sat Apr 08 2023 12:44:08 GMT-0400 (Eastern Daylight Time)","694864","Match,No Match","","null","","","","","","<div class='trialBorder'><div class='vertical-center'><img src='img/correct.jpg'></div><div class='respDiv'><div class='respDivL'><font style='color:orange'>Match<br>(e)</font></div><div class='respDivR'>No Match<br>(i)</div></div></div>","null","FEEDBACK","","","","","","","","","","",""
"html-keyboard-response","55","279956","0.0-7.0-1.4","63f0fb9941434d10e8e4909b","bdp_wmem","Sat Apr 08 2023 12:44:08 GMT-0400 (Eastern Daylight Time)","694864","Match,No Match","","null","","","","","","<div class='trialBorder'><div class='vertical-center'><img src='img/fixation2_sml.jpg'</img></div></div>","null","FIX","","","","","","","","","","",""
"html-keyboard-response","56","284457","0.0-7.0-2.4","63f0fb9941434d10e8e4909b","bdp_wmem","Sat Apr 08 2023 12:44:08 GMT-0400 (Eastern Daylight Time)","694864","Match,No Match","","null","","","","","","<div class='trialBorder'><div class='vertical-center'><img style='vertical-align:center; align:center' src='img/fixation2_sml.jpg'></div><div class='arrayDiv3'><div class='tl'><img class='introPic' src='trustrating_stim/white_mw070.bmp'><br><font color='red'><strong>Keep</strong></font></div><div class='tc'><img class='introPic' src='trustrating_stim/white_mw085.bmp'><br><font color='green'><strong>Share</strong></font></div><div class='tr'><img class='introPic' src='trustrating_stim/white_mw013.bmp'><br><font color='red'><strong>Keep</strong></font></div></div></div>","null","ARRAY","3","trustrating_stim/white_mw070.bmp,trustrating_stim/white_mw085.bmp,trustrating_stim/white_mw013.bmp","0,1,0","Match","e","4500","","","","",""
"html-keyboard-response","57","288459","0.0-7.0-3.4","63f0fb9941434d10e8e4909b","bdp_wmem","Sat Apr 08 2023 12:44:08 GMT-0400 (Eastern Daylight Time)","694864","Match,No Match","","null","","","","","","<div class='trialBorder'><div class='vertical-center'><img src='img/fixation2_sml.jpg'</img></div></div>","null","DELAY","","","","","","","","","","",""
"html-keyboard-response","58","289786","0.0-7.0-4.4","63f0fb9941434d10e8e4909b","bdp_wmem","Sat Apr 08 2023 12:44:08 GMT-0400 (Eastern Daylight Time)","694864","Match,No Match","","1325","","","","","","<div class='trialBorder'><div class='targDiv'><div class='tc'><img class='introPic' src='trustrating_stim/white_mw085.bmp'><br><font color='green'><strong>Share</strong></font></div></div><div class='respDiv'><div class='respDivL'>Match<br>(e)</div><div class='respDivR'>No Match<br>(i)</div></div></div>","e","TARGET","3","trustrating_stim/white_mw070.bmp,trustrating_stim/white_mw085.bmp,trustrating_stim/white_mw013.bmp","0,1,0","Match","e","4500","trustrating_stim/white_mw085.bmp","green","Share","REAL","1"
"html-keyboard-response","59","290287","0.0-7.0-5.4","63f0fb9941434d10e8e4909b","bdp_wmem","Sat Apr 08 2023 12:44:08 GMT-0400 (Eastern Daylight Time)","694864","Match,No Match","","null","","","","","","<div class='trialBorder'><div class='vertical-center'><img src='img/correct.jpg'></div><div class='respDiv'><div class='respDivL'><font style='color:orange'>Match<br>(e)</font></div><div class='respDivR'>No Match<br>(i)</div></div></div>","null","FEEDBACK","","","","","","","","","","",""
"html-keyboard-response","60","290789","0.0-7.0-1.5","63f0fb9941434d10e8e4909b","bdp_wmem","Sat Apr 08 2023 12:44:08 GMT-0400 (Eastern Daylight Time)","694864","Match,No Match","","null","","","","","","<div class='trialBorder'><div class='vertical-center'><img src='img/fixation2_sml.jpg'</img></div></div>","null","FIX","","","","","","","","","","",""
"html-keyboard-response","61","293790","0.0-7.0-2.5","63f0fb9941434d10e8e4909b","bdp_wmem","Sat Apr 08 2023 12:44:08 GMT-0400 (Eastern Daylight Time)","694864","Match,No Match","","null","","","","","","<div class='trialBorder'><div class='vertical-center'><img style='vertical-align:center; align:center' src='img/fixation2_sml.jpg'></div><div class='arrayDiv2'><div class='tl'><img class='introPic' src='trustrating_stim/white_mw042.bmp'><br><font color='red'><strong>Keep</strong></font></div><div class='tr'><img class='introPic' src='trustrating_stim/white_mw092.bmp'><br><font color='green'><strong>Share</strong></font></div></div></div>","null","ARRAY","2","trustrating_stim/white_mw042.bmp,trustrating_stim/white_mw092.bmp","0,1","Match","e","3000","","","","",""
"html-keyboard-response","62","297792","0.0-7.0-3.5","63f0fb9941434d10e8e4909b","bdp_wmem","Sat Apr 08 2023 12:44:08 GMT-0400 (Eastern Daylight Time)","694864","Match,No Match","","null","","","","","","<div class='trialBorder'><div class='vertical-center'><img src='img/fixation2_sml.jpg'</img></div></div>","null","DELAY","","","","","","","","","","",""
"html-keyboard-response","63","299929","0.0-7.0-4.5","63f0fb9941434d10e8e4909b","bdp_wmem","Sat Apr 08 2023 12:44:08 GMT-0400 (Eastern Daylight Time)","694864","Match,No Match","","2136","","","","","","<div class='trialBorder'><div class='targDiv'><div class='tc'><img class='introPic' src='trustrating_stim/white_mw042.bmp'><br><font color='red'><strong>Keep</strong></font></div></div><div class='respDiv'><div class='respDivL'>Match<br>(e)</div><div class='respDivR'>No Match<br>(i)</div></div></div>","e","TARGET","2","trustrating_stim/white_mw042.bmp,trustrating_stim/white_mw092.bmp","0,1","Match","e","3000","trustrating_stim/white_mw042.bmp","red","Keep","REAL","1"
"html-keyboard-response","64","300431","0.0-7.0-5.5","63f0fb9941434d10e8e4909b","bdp_wmem","Sat Apr 08 2023 12:44:08 GMT-0400 (Eastern Daylight Time)","694864","Match,No Match","","null","","","","","","<div class='trialBorder'><div class='vertical-center'><img src='img/correct.jpg'></div><div class='respDiv'><div class='respDivL'><font style='color:orange'>Match<br>(e)</font></div><div class='respDivR'>No Match<br>(i)</div></div></div>","null","FEEDBACK","","","","","","","","","","",""
"html-keyboard-response","65","300932","0.0-7.0-1.6","63f0fb9941434d10e8e4909b","bdp_wmem","Sat Apr 08 2023 12:44:08 GMT-0400 (Eastern Daylight Time)","694864","Match,No Match","","null","","","","","","<div class='trialBorder'><div class='vertical-center'><img src='img/fixation2_sml.jpg'</img></div></div>","null","FIX","","","","","","","","","","",""
"html-keyboard-response","66","305433","0.0-7.0-2.6","63f0fb9941434d10e8e4909b","bdp_wmem","Sat Apr 08 2023 12:44:08 GMT-0400 (Eastern Daylight Time)","694864","Match,No Match","","null","","","","","","<div class='trialBorder'><div class='vertical-center'><img style='vertical-align:center; align:center' src='img/fixation2_sml.jpg'></div><div class='arrayDiv3'><div class='tl'><img class='introPic' src='trustrating_stim/white_mw013.bmp'><br><font color='red'><strong>Keep</strong></font></div><div class='tc'><img class='introPic' src='trustrating_stim/white_mw012.bmp'><br><font color='green'><strong>Share</strong></font></div><div class='tr'><img class='introPic' src='trustrating_stim/white_mw010.bmp'><br><font color='green'><strong>Share</strong></font></div></div></div>","null","ARRAY","3","trustrating_stim/white_mw013.bmp,trustrating_stim/white_mw012.bmp,trustrating_stim/white_mw010.bmp","0,1,1","Match","e","4500","","","","",""
"html-keyboard-response","67","309436","0.0-7.0-3.6","63f0fb9941434d10e8e4909b","bdp_wmem","Sat Apr 08 2023 12:44:08 GMT-0400 (Eastern Daylight Time)","694864","Match,No Match","","null","","","","","","<div class='trialBorder'><div class='vertical-center'><img src='img/fixation2_sml.jpg'</img></div></div>","null","DELAY","","","","","","","","","","",""
"html-keyboard-response","68","310578","0.0-7.0-4.6","63f0fb9941434d10e8e4909b","bdp_wmem","Sat Apr 08 2023 12:44:08 GMT-0400 (Eastern Daylight Time)","694864","Match,No Match","","1141","","","","","","<div class='trialBorder'><div class='targDiv'><div class='tc'><img class='introPic' src='trustrating_stim/white_mw013.bmp'><br><font color='red'><strong>Keep</strong></font></div></div><div class='respDiv'><div class='respDivL'>Match<br>(e)</div><div class='respDivR'>No Match<br>(i)</div></div></div>","e","TARGET","3","trustrating_stim/white_mw013.bmp,trustrating_stim/white_mw012.bmp,trustrating_stim/white_mw010.bmp","0,1,1","Match","e","4500","trustrating_stim/white_mw013.bmp","red","Keep","REAL","1"
"html-keyboard-response","69","311079","0.0-7.0-5.6","63f0fb9941434d10e8e4909b","bdp_wmem","Sat Apr 08 2023 12:44:08 GMT-0400 (Eastern Daylight Time)","694864","Match,No Match","","null","","","","","","<div class='trialBorder'><div class='vertical-center'><img src='img/correct.jpg'></div><div class='respDiv'><div class='respDivL'><font style='color:orange'>Match<br>(e)</font></div><div class='respDivR'>No Match<br>(i)</div></div></div>","null","FEEDBACK","","","","","","","","","","",""
"html-keyboard-response","70","311580","0.0-7.0-1.7","63f0fb9941434d10e8e4909b","bdp_wmem","Sat Apr 08 2023 12:44:08 GMT-0400 (Eastern Daylight Time)","694864","Match,No Match","","null","","","","","","<div class='trialBorder'><div class='vertical-center'><img src='img/fixation2_sml.jpg'</img></div></div>","null","FIX","","","","","","","","","","",""
"html-keyboard-response","71","314582","0.0-7.0-2.7","63f0fb9941434d10e8e4909b","bdp_wmem","Sat Apr 08 2023 12:44:08 GMT-0400 (Eastern Daylight Time)","694864","Match,No Match","","null","","","","","","<div class='trialBorder'><div class='vertical-center'><img style='vertical-align:center; align:center' src='img/fixation2_sml.jpg'></div><div class='arrayDiv2'><div class='tl'><img class='introPic' src='trustrating_stim/white_mw042.bmp'><br><font color='red'><strong>Keep</strong></font></div><div class='tr'><img class='introPic' src='trustrating_stim/white_mw003.bmp'><br><font color='green'><strong>Share</strong></font></div></div></div>","null","ARRAY","2","trustrating_stim/white_mw042.bmp,trustrating_stim/white_mw003.bmp","0,1","Match","e","3000","","","","",""
"html-keyboard-response","72","318583","0.0-7.0-3.7","63f0fb9941434d10e8e4909b","bdp_wmem","Sat Apr 08 2023 12:44:08 GMT-0400 (Eastern Daylight Time)","694864","Match,No Match","","null","","","","","","<div class='trialBorder'><div class='vertical-center'><img src='img/fixation2_sml.jpg'</img></div></div>","null","DELAY","","","","","","","","","","",""
"html-keyboard-response","73","320194","0.0-7.0-4.7","63f0fb9941434d10e8e4909b","bdp_wmem","Sat Apr 08 2023 12:44:08 GMT-0400 (Eastern Daylight Time)","694864","Match,No Match","","1610","","","","","","<div class='trialBorder'><div class='targDiv'><div class='tc'><img class='introPic' src='trustrating_stim/white_mw042.bmp'><br><font color='red'><strong>Keep</strong></font></div></div><div class='respDiv'><div class='respDivL'>Match<br>(e)</div><div class='respDivR'>No Match<br>(i)</div></div></div>","e","TARGET","2","trustrating_stim/white_mw042.bmp,trustrating_stim/white_mw003.bmp","0,1","Match","e","3000","trustrating_stim/white_mw042.bmp","red","Keep","REAL","1"
"html-keyboard-response","74","320696","0.0-7.0-5.7","63f0fb9941434d10e8e4909b","bdp_wmem","Sat Apr 08 2023 12:44:08 GMT-0400 (Eastern Daylight Time)","694864","Match,No Match","","null","","","","","","<div class='trialBorder'><div class='vertical-center'><img src='img/correct.jpg'></div><div class='respDiv'><div class='respDivL'><font style='color:orange'>Match<br>(e)</font></div><div class='respDivR'>No Match<br>(i)</div></div></div>","null","FEEDBACK","","","","","","","","","","",""
"html-keyboard-response","75","321198","0.0-7.0-1.8","63f0fb9941434d10e8e4909b","bdp_wmem","Sat Apr 08 2023 12:44:08 GMT-0400 (Eastern Daylight Time)","694864","Match,No Match","","null","","","","","","<div class='trialBorder'><div class='vertical-center'><img src='img/fixation2_sml.jpg'</img></div></div>","null","FIX","","","","","","","","","","",""
"html-keyboard-response","76","324200","0.0-7.0-2.8","63f0fb9941434d10e8e4909b","bdp_wmem","Sat Apr 08 2023 12:44:08 GMT-0400 (Eastern Daylight Time)","694864","Match,No Match","","null","","","","","","<div class='trialBorder'><div class='vertical-center'><img style='vertical-align:center; align:center' src='img/fixation2_sml.jpg'></div><div class='arrayDiv2'><div class='tl'><img class='introPic' src='trustrating_stim/white_mw038.bmp'><br><font color='green'><strong>Share</strong></font></div><div class='tr'><img class='introPic' src='trustrating_stim/white_mw091.bmp'><br><font color='red'><strong>Keep</strong></font></div></div></div>","null","ARRAY","2","trustrating_stim/white_mw038.bmp,trustrating_stim/white_mw091.bmp","1,0","noMatchFace","i","3000","","","","",""
"html-keyboard-response","77","328201","0.0-7.0-3.8","63f0fb9941434d10e8e4909b","bdp_wmem","Sat Apr 08 2023 12:44:08 GMT-0400 (Eastern Daylight Time)","694864","Match,No Match","","null","","","","","","<div class='trialBorder'><div class='vertical-center'><img src='img/fixation2_sml.jpg'</img></div></div>","null","DELAY","","","","","","","","","","",""
"html-keyboard-response","78","330018","0.0-7.0-4.8","63f0fb9941434d10e8e4909b","bdp_wmem","Sat Apr 08 2023 12:44:08 GMT-0400 (Eastern Daylight Time)","694864","Match,No Match","","1816","","","","","","<div class='trialBorder'><div class='targDiv'><div class='tc'><img class='introPic' src='trustrating_stim/white_mw092.bmp'><br><font color='green'><strong>Share</strong></font></div></div><div class='respDiv'><div class='respDivL'>Match<br>(e)</div><div class='respDivR'>No Match<br>(i)</div></div></div>","i","TARGET","2","trustrating_stim/white_mw038.bmp,trustrating_stim/white_mw091.bmp","1,0","noMatchFace","i","3000","trustrating_stim/white_mw092.bmp","green","Share","REAL","1"
"html-keyboard-response","79","330519","0.0-7.0-5.8","63f0fb9941434d10e8e4909b","bdp_wmem","Sat Apr 08 2023 12:44:08 GMT-0400 (Eastern Daylight Time)","694864","Match,No Match","","null","","","","","","<div class='trialBorder'><div class='vertical-center'><img src='img/correct.jpg'></div><div class='respDiv'><div class='respDivL'>Match<br>(e)</div><div class='respDivR'><font style='color:orange'>No Match<br>(i)</font></div></div></div>","null","FEEDBACK","","","","","","","","","","",""
"html-keyboard-response","80","331021","0.0-7.0-1.9","63f0fb9941434d10e8e4909b","bdp_wmem","Sat Apr 08 2023 12:44:08 GMT-0400 (Eastern Daylight Time)","694864","Match,No Match","","null","","","","","","<div class='trialBorder'><div class='vertical-center'><img src='img/fixation2_sml.jpg'</img></div></div>","null","FIX","","","","","","","","","","",""
"html-keyboard-response","81","334022","0.0-7.0-2.9","63f0fb9941434d10e8e4909b","bdp_wmem","Sat Apr 08 2023 12:44:08 GMT-0400 (Eastern Daylight Time)","694864","Match,No Match","","null","","","","","","<div class='trialBorder'><div class='vertical-center'><img style='vertical-align:center; align:center' src='img/fixation2_sml.jpg'></div><div class='arrayDiv2'><div class='tl'><img class='introPic' src='trustrating_stim/white_mw040.bmp'><br><font color='red'><strong>Keep</strong></font></div><div class='tr'><img class='introPic' src='trustrating_stim/white_mw013.bmp'><br><font color='green'><strong>Share</strong></font></div></div></div>","null","ARRAY","2","trustrating_stim/white_mw040.bmp,trustrating_stim/white_mw013.bmp","0,1","Match","e","3000","","","","",""
"html-keyboard-response","82","338023","0.0-7.0-3.9","63f0fb9941434d10e8e4909b","bdp_wmem","Sat Apr 08 2023 12:44:08 GMT-0400 (Eastern Daylight Time)","694864","Match,No Match","","null","","","","","","<div class='trialBorder'><div class='vertical-center'><img src='img/fixation2_sml.jpg'</img></div></div>","null","DELAY","","","","","","","","","","",""
"html-keyboard-response","83","339250","0.0-7.0-4.9","63f0fb9941434d10e8e4909b","bdp_wmem","Sat Apr 08 2023 12:44:08 GMT-0400 (Eastern Daylight Time)","694864","Match,No Match","","1226","","","","","","<div class='trialBorder'><div class='targDiv'><div class='tc'><img class='introPic' src='trustrating_stim/white_mw040.bmp'><br><font color='red'><strong>Keep</strong></font></div></div><div class='respDiv'><div class='respDivL'>Match<br>(e)</div><div class='respDivR'>No Match<br>(i)</div></div></div>","e","TARGET","2","trustrating_stim/white_mw040.bmp,trustrating_stim/white_mw013.bmp","0,1","Match","e","3000","trustrating_stim/white_mw040.bmp","red","Keep","REAL","1"
"html-keyboard-response","84","339751","0.0-7.0-5.9","63f0fb9941434d10e8e4909b","bdp_wmem","Sat Apr 08 2023 12:44:08 GMT-0400 (Eastern Daylight Time)","694864","Match,No Match","","null","","","","","","<div class='trialBorder'><div class='vertical-center'><img src='img/correct.jpg'></div><div class='respDiv'><div class='respDivL'><font style='color:orange'>Match<br>(e)</font></div><div class='respDivR'>No Match<br>(i)</div></div></div>","null","FEEDBACK","","","","","","","","","","",""
"html-keyboard-response","85","340252","0.0-7.0-1.10","63f0fb9941434d10e8e4909b","bdp_wmem","Sat Apr 08 2023 12:44:08 GMT-0400 (Eastern Daylight Time)","694864","Match,No Match","","null","","","","","","<div class='trialBorder'><div class='vertical-center'><img src='img/fixation2_sml.jpg'</img></div></div>","null","FIX","","","","","","","","","","",""
"html-keyboard-response","86","344754","0.0-7.0-2.10","63f0fb9941434d10e8e4909b","bdp_wmem","Sat Apr 08 2023 12:44:08 GMT-0400 (Eastern Daylight Time)","694864","Match,No Match","","null","","","","","","<div class='trialBorder'><div class='vertical-center'><img style='vertical-align:center; align:center' src='img/fixation2_sml.jpg'></div><div class='arrayDiv3'><div class='tl'><img class='introPic' src='trustrating_stim/white_mw013.bmp'><br><font color='green'><strong>Share</strong></font></div><div class='tc'><img class='introPic' src='trustrating_stim/white_mw070.bmp'><br><font color='red'><strong>Keep</strong></font></div><div class='tr'><img class='introPic' src='trustrating_stim/white_mw078.bmp'><br><font color='red'><strong>Keep</strong></font></div></div></div>","null","ARRAY","3","trustrating_stim/white_mw013.bmp,trustrating_stim/white_mw070.bmp,trustrating_stim/white_mw078.bmp","1,0,0","noMatchFace","i","4500","","","","",""
"html-keyboard-response","87","348756","0.0-7.0-3.10","63f0fb9941434d10e8e4909b","bdp_wmem","Sat Apr 08 2023 12:44:08 GMT-0400 (Eastern Daylight Time)","694864","Match,No Match","","null","","","","","","<div class='trialBorder'><div class='vertical-center'><img src='img/fixation2_sml.jpg'</img></div></div>","null","DELAY","","","","","","","","","","",""
"html-keyboard-response","88","350794","0.0-7.0-4.10","63f0fb9941434d10e8e4909b","bdp_wmem","Sat Apr 08 2023 12:44:08 GMT-0400 (Eastern Daylight Time)","694864","Match,No Match","","2037","","","","","","<div class='trialBorder'><div class='targDiv'><div class='tc'><img class='introPic' src='trustrating_stim/white_mw010.bmp'><br><font color='red'><strong>Keep</strong></font></div></div><div class='respDiv'><div class='respDivL'>Match<br>(e)</div><div class='respDivR'>No Match<br>(i)</div></div></div>","e","TARGET","3","trustrating_stim/white_mw013.bmp,trustrating_stim/white_mw070.bmp,trustrating_stim/white_mw078.bmp","1,0,0","noMatchFace","i","4500","trustrating_stim/white_mw010.bmp","red","Keep","REAL","0"
"html-keyboard-response","89","351295","0.0-7.0-5.10","63f0fb9941434d10e8e4909b","bdp_wmem","Sat Apr 08 2023 12:44:08 GMT-0400 (Eastern Daylight Time)","694864","Match,No Match","","null","","","","","","<div class='trialBorder'><div class='vertical-center'><img src='img/error.jpg'></div><div class='respDiv'><div class='respDivL'><font style='color:orange'>Match<br>(e)</font></div><div class='respDivR'>No Match<br>(i)</div></div></div>","null","FEEDBACK","","","","","","","","","","",""
"html-keyboard-response","90","351797","0.0-7.0-1.11","63f0fb9941434d10e8e4909b","bdp_wmem","Sat Apr 08 2023 12:44:08 GMT-0400 (Eastern Daylight Time)","694864","Match,No Match","","null","","","","","","<div class='trialBorder'><div class='vertical-center'><img src='img/fixation2_sml.jpg'</img></div></div>","null","FIX","","","","","","","","","","",""
"html-keyboard-response","91","354798","0.0-7.0-2.11","63f0fb9941434d10e8e4909b","bdp_wmem","Sat Apr 08 2023 12:44:08 GMT-0400 (Eastern Daylight Time)","694864","Match,No Match","","null","","","","","","<div class='trialBorder'><div class='vertical-center'><img style='vertical-align:center; align:center' src='img/fixation2_sml.jpg'></div><div class='arrayDiv2'><div class='tl'><img class='introPic' src='trustrating_stim/white_mw085.bmp'><br><font color='green'><strong>Share</strong></font></div><div class='tr'><img class='introPic' src='trustrating_stim/white_mw013.bmp'><br><font color='red'><strong>Keep</strong></font></div></div></div>","null","ARRAY","2","trustrating_stim/white_mw085.bmp,trustrating_stim/white_mw013.bmp","1,0","Match","e","3000","","","","",""
"html-keyboard-response","92","358799","0.0-7.0-3.11","63f0fb9941434d10e8e4909b","bdp_wmem","Sat Apr 08 2023 12:44:08 GMT-0400 (Eastern Daylight Time)","694864","Match,No Match","","null","","","","","","<div class='trialBorder'><div class='vertical-center'><img src='img/fixation2_sml.jpg'</img></div></div>","null","DELAY","","","","","","","","","","",""
"html-keyboard-response","93","360617","0.0-7.0-4.11","63f0fb9941434d10e8e4909b","bdp_wmem","Sat Apr 08 2023 12:44:08 GMT-0400 (Eastern Daylight Time)","694864","Match,No Match","","1817","","","","","","<div class='trialBorder'><div class='targDiv'><div class='tc'><img class='introPic' src='trustrating_stim/white_mw013.bmp'><br><font color='red'><strong>Keep</strong></font></div></div><div class='respDiv'><div class='respDivL'>Match<br>(e)</div><div class='respDivR'>No Match<br>(i)</div></div></div>","e","TARGET","2","trustrating_stim/white_mw085.bmp,trustrating_stim/white_mw013.bmp","1,0","Match","e","3000","trustrating_stim/white_mw013.bmp","red","Keep","REAL","1"
"html-keyboard-response","94","361119","0.0-7.0-5.11","63f0fb9941434d10e8e4909b","bdp_wmem","Sat Apr 08 2023 12:44:08 GMT-0400 (Eastern Daylight Time)","694864","Match,No Match","","null","","","","","","<div class='trialBorder'><div class='vertical-center'><img src='img/correct.jpg'></div><div class='respDiv'><div class='respDivL'><font style='color:orange'>Match<br>(e)</font></div><div class='respDivR'>No Match<br>(i)</div></div></div>","null","FEEDBACK","","","","","","","","","","",""
"html-keyboard-response","95","361620","0.0-7.0-1.12","63f0fb9941434d10e8e4909b","bdp_wmem","Sat Apr 08 2023 12:44:08 GMT-0400 (Eastern Daylight Time)","694864","Match,No Match","","null","","","","","","<div class='trialBorder'><div class='vertical-center'><img src='img/fixation2_sml.jpg'</img></div></div>","null","FIX","","","","","","","","","","",""
"html-keyboard-response","96","364622","0.0-7.0-2.12","63f0fb9941434d10e8e4909b","bdp_wmem","Sat Apr 08 2023 12:44:08 GMT-0400 (Eastern Daylight Time)","694864","Match,No Match","","null","","","","","","<div class='trialBorder'><div class='vertical-center'><img style='vertical-align:center; align:center' src='img/fixation2_sml.jpg'></div><div class='arrayDiv2'><div class='tl'><img class='introPic' src='trustrating_stim/white_mw012.bmp'><br><font color='red'><strong>Keep</strong></font></div><div class='tr'><img class='introPic' src='trustrating_stim/white_mw038.bmp'><br><font color='green'><strong>Share</strong></font></div></div></div>","null","ARRAY","2","trustrating_stim/white_mw012.bmp,trustrating_stim/white_mw038.bmp","0,1","Match","e","3000","","","","",""
"html-keyboard-response","97","368624","0.0-7.0-3.12","63f0fb9941434d10e8e4909b","bdp_wmem","Sat Apr 08 2023 12:44:08 GMT-0400 (Eastern Daylight Time)","694864","Match,No Match","","null","","","","","","<div class='trialBorder'><div class='vertical-center'><img src='img/fixation2_sml.jpg'</img></div></div>","null","DELAY","","","","","","","","","","",""
"html-keyboard-response","98","369962","0.0-7.0-4.12","63f0fb9941434d10e8e4909b","bdp_wmem","Sat Apr 08 2023 12:44:08 GMT-0400 (Eastern Daylight Time)","694864","Match,No Match","","1337","","","","","","<div class='trialBorder'><div class='targDiv'><div class='tc'><img class='introPic' src='trustrating_stim/white_mw038.bmp'><br><font color='green'><strong>Share</strong></font></div></div><div class='respDiv'><div class='respDivL'>Match<br>(e)</div><div class='respDivR'>No Match<br>(i)</div></div></div>","e","TARGET","2","trustrating_stim/white_mw012.bmp,trustrating_stim/white_mw038.bmp","0,1","Match","e","3000","trustrating_stim/white_mw038.bmp","green","Share","REAL","1"
"html-keyboard-response","99","370463","0.0-7.0-5.12","63f0fb9941434d10e8e4909b","bdp_wmem","Sat Apr 08 2023 12:44:08 GMT-0400 (Eastern Daylight Time)","694864","Match,No Match","","null","","","","","","<div class='trialBorder'><div class='vertical-center'><img src='img/correct.jpg'></div><div class='respDiv'><div class='respDivL'><font style='color:orange'>Match<br>(e)</font></div><div class='respDivR'>No Match<br>(i)</div></div></div>","null","FEEDBACK","","","","","","","","","","",""
"html-keyboard-response","100","370965","0.0-7.0-1.13","63f0fb9941434d10e8e4909b","bdp_wmem","Sat Apr 08 2023 12:44:08 GMT-0400 (Eastern Daylight Time)","694864","Match,No Match","","null","","","","","","<div class='trialBorder'><div class='vertical-center'><img src='img/fixation2_sml.jpg'</img></div></div>","null","FIX","","","","","","","","","","",""
"html-keyboard-response","101","372467","0.0-7.0-2.13","63f0fb9941434d10e8e4909b","bdp_wmem","Sat Apr 08 2023 12:44:08 GMT-0400 (Eastern Daylight Time)","694864","Match,No Match","","null","","","","","","<div class='trialBorder'><div class='vertical-center'><img style='vertical-align:center; align:center' src='img/fixation2_sml.jpg'></div><div class='arrayDiv1'><div class='tc'><img class='introPic' src='trustrating_stim/white_mw042.bmp'><br><font color='red'><strong>Keep</strong></font></div></div></div>","null","ARRAY","1","trustrating_stim/white_mw042.bmp","0","Match","e","1500","","","","",""
"html-keyboard-response","102","376468","0.0-7.0-3.13","63f0fb9941434d10e8e4909b","bdp_wmem","Sat Apr 08 2023 12:44:08 GMT-0400 (Eastern Daylight Time)","694864","Match,No Match","","null","","","","","","<div class='trialBorder'><div class='vertical-center'><img src='img/fixation2_sml.jpg'</img></div></div>","null","DELAY","","","","","","","","","","",""
"html-keyboard-response","103","378513","0.0-7.0-4.13","63f0fb9941434d10e8e4909b","bdp_wmem","Sat Apr 08 2023 12:44:08 GMT-0400 (Eastern Daylight Time)","694864","Match,No Match","","2044","","","","","","<div class='trialBorder'><div class='targDiv'><div class='tc'><img class='introPic' src='trustrating_stim/white_mw042.bmp'><br><font color='red'><strong>Keep</strong></font></div></div><div class='respDiv'><div class='respDivL'>Match<br>(e)</div><div class='respDivR'>No Match<br>(i)</div></div></div>","e","TARGET","1","trustrating_stim/white_mw042.bmp","0","Match","e","1500","trustrating_stim/white_mw042.bmp","red","Keep","REAL","1"
"html-keyboard-response","104","379014","0.0-7.0-5.13","63f0fb9941434d10e8e4909b","bdp_wmem","Sat Apr 08 2023 12:44:08 GMT-0400 (Eastern Daylight Time)","694864","Match,No Match","","null","","","","","","<div class='trialBorder'><div class='vertical-center'><img src='img/correct.jpg'></div><div class='respDiv'><div class='respDivL'><font style='color:orange'>Match<br>(e)</font></div><div class='respDivR'>No Match<br>(i)</div></div></div>","null","FEEDBACK","","","","","","","","","","",""
"html-keyboard-response","105","379516","0.0-7.0-1.14","63f0fb9941434d10e8e4909b","bdp_wmem","Sat Apr 08 2023 12:44:08 GMT-0400 (Eastern Daylight Time)","694864","Match,No Match","","null","","","","","","<div class='trialBorder'><div class='vertical-center'><img src='img/fixation2_sml.jpg'</img></div></div>","null","FIX","","","","","","","","","","",""
"html-keyboard-response","106","381018","0.0-7.0-2.14","63f0fb9941434d10e8e4909b","bdp_wmem","Sat Apr 08 2023 12:44:08 GMT-0400 (Eastern Daylight Time)","694864","Match,No Match","","null","","","","","","<div class='trialBorder'><div class='vertical-center'><img style='vertical-align:center; align:center' src='img/fixation2_sml.jpg'></div><div class='arrayDiv1'><div class='tc'><img class='introPic' src='trustrating_stim/white_mw040.bmp'><br><font color='green'><strong>Share</strong></font></div></div></div>","null","ARRAY","1","trustrating_stim/white_mw040.bmp","1","noMatchFace","i","1500","","","","",""
"html-keyboard-response","107","385019","0.0-7.0-3.14","63f0fb9941434d10e8e4909b","bdp_wmem","Sat Apr 08 2023 12:44:08 GMT-0400 (Eastern Daylight Time)","694864","Match,No Match","","null","","","","","","<div class='trialBorder'><div class='vertical-center'><img src='img/fixation2_sml.jpg'</img></div></div>","null","DELAY","","","","","","","","","","",""
"html-keyboard-response","108","386210","0.0-7.0-4.14","63f0fb9941434d10e8e4909b","bdp_wmem","Sat Apr 08 2023 12:44:08 GMT-0400 (Eastern Daylight Time)","694864","Match,No Match","","1190","","","","","","<div class='trialBorder'><div class='targDiv'><div class='tc'><img class='introPic' src='trustrating_stim/white_mw078.bmp'><br><font color='green'><strong>Share</strong></font></div></div><div class='respDiv'><div class='respDivL'>Match<br>(e)</div><div class='respDivR'>No Match<br>(i)</div></div></div>","i","TARGET","1","trustrating_stim/white_mw040.bmp","1","noMatchFace","i","1500","trustrating_stim/white_mw078.bmp","green","Share","REAL","1"
"html-keyboard-response","109","386711","0.0-7.0-5.14","63f0fb9941434d10e8e4909b","bdp_wmem","Sat Apr 08 2023 12:44:08 GMT-0400 (Eastern Daylight Time)","694864","Match,No Match","","null","","","","","","<div class='trialBorder'><div class='vertical-center'><img src='img/correct.jpg'></div><div class='respDiv'><div class='respDivL'>Match<br>(e)</div><div class='respDivR'><font style='color:orange'>No Match<br>(i)</font></div></div></div>","null","FEEDBACK","","","","","","","","","","",""
"html-keyboard-response","110","387212","0.0-7.0-1.15","63f0fb9941434d10e8e4909b","bdp_wmem","Sat Apr 08 2023 12:44:08 GMT-0400 (Eastern Daylight Time)","694864","Match,No Match","","null","","","","","","<div class='trialBorder'><div class='vertical-center'><img src='img/fixation2_sml.jpg'</img></div></div>","null","FIX","","","","","","","","","","",""
"html-keyboard-response","111","388713","0.0-7.0-2.15","63f0fb9941434d10e8e4909b","bdp_wmem","Sat Apr 08 2023 12:44:08 GMT-0400 (Eastern Daylight Time)","694864","Match,No Match","","null","","","","","","<div class='trialBorder'><div class='vertical-center'><img style='vertical-align:center; align:center' src='img/fixation2_sml.jpg'></div><div class='arrayDiv1'><div class='tc'><img class='introPic' src='trustrating_stim/white_mw085.bmp'><br><font color='red'><strong>Keep</strong></font></div></div></div>","null","ARRAY","1","trustrating_stim/white_mw085.bmp","0","noMatchFace","i","1500","","","","",""
"html-keyboard-response","112","392715","0.0-7.0-3.15","63f0fb9941434d10e8e4909b","bdp_wmem","Sat Apr 08 2023 12:44:08 GMT-0400 (Eastern Daylight Time)","694864","Match,No Match","","null","","","","","","<div class='trialBorder'><div class='vertical-center'><img src='img/fixation2_sml.jpg'</img></div></div>","null","DELAY","","","","","","","","","","",""
"html-keyboard-response","113","394113","0.0-7.0-4.15","63f0fb9941434d10e8e4909b","bdp_wmem","Sat Apr 08 2023 12:44:08 GMT-0400 (Eastern Daylight Time)","694864","Match,No Match","","1398","","","","","","<div class='trialBorder'><div class='targDiv'><div class='tc'><img class='introPic' src='trustrating_stim/white_mw013.bmp'><br><font color='red'><strong>Keep</strong></font></div></div><div class='respDiv'><div class='respDivL'>Match<br>(e)</div><div class='respDivR'>No Match<br>(i)</div></div></div>","i","TARGET","1","trustrating_stim/white_mw085.bmp","0","noMatchFace","i","1500","trustrating_stim/white_mw013.bmp","red","Keep","REAL","1"
"html-keyboard-response","114","394614","0.0-7.0-5.15","63f0fb9941434d10e8e4909b","bdp_wmem","Sat Apr 08 2023 12:44:08 GMT-0400 (Eastern Daylight Time)","694864","Match,No Match","","null","","","","","","<div class='trialBorder'><div class='vertical-center'><img src='img/correct.jpg'></div><div class='respDiv'><div class='respDivL'>Match<br>(e)</div><div class='respDivR'><font style='color:orange'>No Match<br>(i)</font></div></div></div>","null","FEEDBACK","","","","","","","","","","",""
"html-keyboard-response","115","395116","0.0-7.0-1.16","63f0fb9941434d10e8e4909b","bdp_wmem","Sat Apr 08 2023 12:44:08 GMT-0400 (Eastern Daylight Time)","694864","Match,No Match","","null","","","","","","<div class='trialBorder'><div class='vertical-center'><img src='img/fixation2_sml.jpg'</img></div></div>","null","FIX","","","","","","","","","","",""
"html-keyboard-response","116","399618","0.0-7.0-2.16","63f0fb9941434d10e8e4909b","bdp_wmem","Sat Apr 08 2023 12:44:08 GMT-0400 (Eastern Daylight Time)","694864","Match,No Match","","null","","","","","","<div class='trialBorder'><div class='vertical-center'><img style='vertical-align:center; align:center' src='img/fixation2_sml.jpg'></div><div class='arrayDiv3'><div class='tl'><img class='introPic' src='trustrating_stim/white_mw012.bmp'><br><font color='green'><strong>Share</strong></font></div><div class='tc'><img class='introPic' src='trustrating_stim/white_mw092.bmp'><br><font color='red'><strong>Keep</strong></font></div><div class='tr'><img class='introPic' src='trustrating_stim/white_mw003.bmp'><br><font color='red'><strong>Keep</strong></font></div></div></div>","null","ARRAY","3","trustrating_stim/white_mw012.bmp,trustrating_stim/white_mw092.bmp,trustrating_stim/white_mw003.bmp","1,0,0","Match","e","4500","","","","",""
"html-keyboard-response","117","403619","0.0-7.0-3.16","63f0fb9941434d10e8e4909b","bdp_wmem","Sat Apr 08 2023 12:44:08 GMT-0400 (Eastern Daylight Time)","694864","Match,No Match","","null","","","","","","<div class='trialBorder'><div class='vertical-center'><img src='img/fixation2_sml.jpg'</img></div></div>","null","DELAY","","","","","","","","","","",""
"html-keyboard-response","118","406274","0.0-7.0-4.16","63f0fb9941434d10e8e4909b","bdp_wmem","Sat Apr 08 2023 12:44:08 GMT-0400 (Eastern Daylight Time)","694864","Match,No Match","","2654","","","","","","<div class='trialBorder'><div class='targDiv'><div class='tc'><img class='introPic' src='trustrating_stim/white_mw092.bmp'><br><font color='red'><strong>Keep</strong></font></div></div><div class='respDiv'><div class='respDivL'>Match<br>(e)</div><div class='respDivR'>No Match<br>(i)</div></div></div>","e","TARGET","3","trustrating_stim/white_mw012.bmp,trustrating_stim/white_mw092.bmp,trustrating_stim/white_mw003.bmp","1,0,0","Match","e","4500","trustrating_stim/white_mw092.bmp","red","Keep","REAL","1"
"html-keyboard-response","119","406775","0.0-7.0-5.16","63f0fb9941434d10e8e4909b","bdp_wmem","Sat Apr 08 2023 12:44:08 GMT-0400 (Eastern Daylight Time)","694864","Match,No Match","","null","","","","","","<div class='trialBorder'><div class='vertical-center'><img src='img/correct.jpg'></div><div class='respDiv'><div class='respDivL'><font style='color:orange'>Match<br>(e)</font></div><div class='respDivR'>No Match<br>(i)</div></div></div>","null","FEEDBACK","","","","","","","","","","",""
"html-keyboard-response","120","407276","0.0-7.0-1.17","63f0fb9941434d10e8e4909b","bdp_wmem","Sat Apr 08 2023 12:44:08 GMT-0400 (Eastern Daylight Time)","694864","Match,No Match","","null","","","","","","<div class='trialBorder'><div class='vertical-center'><img src='img/fixation2_sml.jpg'</img></div></div>","null","FIX","","","","","","","","","","",""
"html-keyboard-response","121","411777","0.0-7.0-2.17","63f0fb9941434d10e8e4909b","bdp_wmem","Sat Apr 08 2023 12:44:08 GMT-0400 (Eastern Daylight Time)","694864","Match,No Match","","null","","","","","","<div class='trialBorder'><div class='vertical-center'><img style='vertical-align:center; align:center' src='img/fixation2_sml.jpg'></div><div class='arrayDiv3'><div class='tl'><img class='introPic' src='trustrating_stim/white_mw010.bmp'><br><font color='red'><strong>Keep</strong></font></div><div class='tc'><img class='introPic' src='trustrating_stim/white_mw038.bmp'><br><font color='red'><strong>Keep</strong></font></div><div class='tr'><img class='introPic' src='trustrating_stim/white_mw085.bmp'><br><font color='green'><strong>Share</strong></font></div></div></div>","null","ARRAY","3","trustrating_stim/white_mw010.bmp,trustrating_stim/white_mw038.bmp,trustrating_stim/white_mw085.bmp","0,0,1","noMatchOutcome","i","4500","","","","",""
"html-keyboard-response","122","415779","0.0-7.0-3.17","63f0fb9941434d10e8e4909b","bdp_wmem","Sat Apr 08 2023 12:44:08 GMT-0400 (Eastern Daylight Time)","694864","Match,No Match","","null","","","","","","<div class='trialBorder'><div class='vertical-center'><img src='img/fixation2_sml.jpg'</img></div></div>","null","DELAY","","","","","","","","","","",""
"html-keyboard-response","123","417426","0.0-7.0-4.17","63f0fb9941434d10e8e4909b","bdp_wmem","Sat Apr 08 2023 12:44:08 GMT-0400 (Eastern Daylight Time)","694864","Match,No Match","","1646","","","","","","<div class='trialBorder'><div class='targDiv'><div class='tc'><img class='introPic' src='trustrating_stim/white_mw085.bmp'><br><font color='red'><strong>Keep</strong></font></div></div><div class='respDiv'><div class='respDivL'>Match<br>(e)</div><div class='respDivR'>No Match<br>(i)</div></div></div>","i","TARGET","3","trustrating_stim/white_mw010.bmp,trustrating_stim/white_mw038.bmp,trustrating_stim/white_mw085.bmp","0,0,1","noMatchOutcome","i","4500","trustrating_stim/white_mw085.bmp","red","Keep","REAL","1"
"html-keyboard-response","124","417927","0.0-7.0-5.17","63f0fb9941434d10e8e4909b","bdp_wmem","Sat Apr 08 2023 12:44:08 GMT-0400 (Eastern Daylight Time)","694864","Match,No Match","","null","","","","","","<div class='trialBorder'><div class='vertical-center'><img src='img/correct.jpg'></div><div class='respDiv'><div class='respDivL'>Match<br>(e)</div><div class='respDivR'><font style='color:orange'>No Match<br>(i)</font></div></div></div>","null","FEEDBACK","","","","","","","","","","",""
"html-keyboard-response","125","418429","0.0-7.0-1.18","63f0fb9941434d10e8e4909b","bdp_wmem","Sat Apr 08 2023 12:44:08 GMT-0400 (Eastern Daylight Time)","694864","Match,No Match","","null","","","","","","<div class='trialBorder'><div class='vertical-center'><img src='img/fixation2_sml.jpg'</img></div></div>","null","FIX","","","","","","","","","","",""
"html-keyboard-response","126","421431","0.0-7.0-2.18","63f0fb9941434d10e8e4909b","bdp_wmem","Sat Apr 08 2023 12:44:08 GMT-0400 (Eastern Daylight Time)","694864","Match,No Match","","null","","","","","","<div class='trialBorder'><div class='vertical-center'><img style='vertical-align:center; align:center' src='img/fixation2_sml.jpg'></div><div class='arrayDiv2'><div class='tl'><img class='introPic' src='trustrating_stim/white_mw010.bmp'><br><font color='green'><strong>Share</strong></font></div><div class='tr'><img class='introPic' src='trustrating_stim/white_mw013.bmp'><br><font color='red'><strong>Keep</strong></font></div></div></div>","null","ARRAY","2","trustrating_stim/white_mw010.bmp,trustrating_stim/white_mw013.bmp","1,0","noMatchFace","i","3000","","","","",""
"html-keyboard-response","127","425432","0.0-7.0-3.18","63f0fb9941434d10e8e4909b","bdp_wmem","Sat Apr 08 2023 12:44:08 GMT-0400 (Eastern Daylight Time)","694864","Match,No Match","","null","","","","","","<div class='trialBorder'><div class='vertical-center'><img src='img/fixation2_sml.jpg'</img></div></div>","null","DELAY","","","","","","","","","","",""
"html-keyboard-response","128","426713","0.0-7.0-4.18","63f0fb9941434d10e8e4909b","bdp_wmem","Sat Apr 08 2023 12:44:08 GMT-0400 (Eastern Daylight Time)","694864","Match,No Match","","1280","","","","","","<div class='trialBorder'><div class='targDiv'><div class='tc'><img class='introPic' src='trustrating_stim/white_mw091.bmp'><br><font color='green'><strong>Share</strong></font></div></div><div class='respDiv'><div class='respDivL'>Match<br>(e)</div><div class='respDivR'>No Match<br>(i)</div></div></div>","i","TARGET","2","trustrating_stim/white_mw010.bmp,trustrating_stim/white_mw013.bmp","1,0","noMatchFace","i","3000","trustrating_stim/white_mw091.bmp","green","Share","REAL","1"
"html-keyboard-response","129","427214","0.0-7.0-5.18","63f0fb9941434d10e8e4909b","bdp_wmem","Sat Apr 08 2023 12:44:08 GMT-0400 (Eastern Daylight Time)","694864","Match,No Match","","null","","","","","","<div class='trialBorder'><div class='vertical-center'><img src='img/correct.jpg'></div><div class='respDiv'><div class='respDivL'>Match<br>(e)</div><div class='respDivR'><font style='color:orange'>No Match<br>(i)</font></div></div></div>","null","FEEDBACK","","","","","","","","","","",""
"html-keyboard-response","130","427716","0.0-7.0-1.19","63f0fb9941434d10e8e4909b","bdp_wmem","Sat Apr 08 2023 12:44:08 GMT-0400 (Eastern Daylight Time)","694864","Match,No Match","","null","","","","","","<div class='trialBorder'><div class='vertical-center'><img src='img/fixation2_sml.jpg'</img></div></div>","null","FIX","","","","","","","","","","",""
"html-keyboard-response","131","429218","0.0-7.0-2.19","63f0fb9941434d10e8e4909b","bdp_wmem","Sat Apr 08 2023 12:44:08 GMT-0400 (Eastern Daylight Time)","694864","Match,No Match","","null","","","","","","<div class='trialBorder'><div class='vertical-center'><img style='vertical-align:center; align:center' src='img/fixation2_sml.jpg'></div><div class='arrayDiv1'><div class='tc'><img class='introPic' src='trustrating_stim/white_mw070.bmp'><br><font color='red'><strong>Keep</strong></font></div></div></div>","null","ARRAY","1","trustrating_stim/white_mw070.bmp","0","Match","e","1500","","","","",""
"html-keyboard-response","132","433220","0.0-7.0-3.19","63f0fb9941434d10e8e4909b","bdp_wmem","Sat Apr 08 2023 12:44:08 GMT-0400 (Eastern Daylight Time)","694864","Match,No Match","","null","","","","","","<div class='trialBorder'><div class='vertical-center'><img src='img/fixation2_sml.jpg'</img></div></div>","null","DELAY","","","","","","","","","","",""
"html-keyboard-response","133","434858","0.0-7.0-4.19","63f0fb9941434d10e8e4909b","bdp_wmem","Sat Apr 08 2023 12:44:08 GMT-0400 (Eastern Daylight Time)","694864","Match,No Match","","1636","","","","","","<div class='trialBorder'><div class='targDiv'><div class='tc'><img class='introPic' src='trustrating_stim/white_mw070.bmp'><br><font color='red'><strong>Keep</strong></font></div></div><div class='respDiv'><div class='respDivL'>Match<br>(e)</div><div class='respDivR'>No Match<br>(i)</div></div></div>","e","TARGET","1","trustrating_stim/white_mw070.bmp","0","Match","e","1500","trustrating_stim/white_mw070.bmp","red","Keep","REAL","1"
"html-keyboard-response","134","435359","0.0-7.0-5.19","63f0fb9941434d10e8e4909b","bdp_wmem","Sat Apr 08 2023 12:44:08 GMT-0400 (Eastern Daylight Time)","694864","Match,No Match","","null","","","","","","<div class='trialBorder'><div class='vertical-center'><img src='img/correct.jpg'></div><div class='respDiv'><div class='respDivL'><font style='color:orange'>Match<br>(e)</font></div><div class='respDivR'>No Match<br>(i)</div></div></div>","null","FEEDBACK","","","","","","","","","","",""
"html-keyboard-response","135","435860","0.0-7.0-1.20","63f0fb9941434d10e8e4909b","bdp_wmem","Sat Apr 08 2023 12:44:08 GMT-0400 (Eastern Daylight Time)","694864","Match,No Match","","null","","","","","","<div class='trialBorder'><div class='vertical-center'><img src='img/fixation2_sml.jpg'</img></div></div>","null","FIX","","","","","","","","","","",""
"html-keyboard-response","136","440362","0.0-7.0-2.20","63f0fb9941434d10e8e4909b","bdp_wmem","Sat Apr 08 2023 12:44:08 GMT-0400 (Eastern Daylight Time)","694864","Match,No Match","","null","","","","","","<div class='trialBorder'><div class='vertical-center'><img style='vertical-align:center; align:center' src='img/fixation2_sml.jpg'></div><div class='arrayDiv3'><div class='tl'><img class='introPic' src='trustrating_stim/white_mw012.bmp'><br><font color='red'><strong>Keep</strong></font></div><div class='tc'><img class='introPic' src='trustrating_stim/white_mw085.bmp'><br><font color='green'><strong>Share</strong></font></div><div class='tr'><img class='introPic' src='trustrating_stim/white_mw040.bmp'><br><font color='green'><strong>Share</strong></font></div></div></div>","null","ARRAY","3","trustrating_stim/white_mw012.bmp,trustrating_stim/white_mw085.bmp,trustrating_stim/white_mw040.bmp","0,1,1","Match","e","4500","","","","",""
"html-keyboard-response","137","444363","0.0-7.0-3.20","63f0fb9941434d10e8e4909b","bdp_wmem","Sat Apr 08 2023 12:44:08 GMT-0400 (Eastern Daylight Time)","694864","Match,No Match","","null","","","","","","<div class='trialBorder'><div class='vertical-center'><img src='img/fixation2_sml.jpg'</img></div></div>","null","DELAY","","","","","","","","","","",""
"html-keyboard-response","138","445642","0.0-7.0-4.20","63f0fb9941434d10e8e4909b","bdp_wmem","Sat Apr 08 2023 12:44:08 GMT-0400 (Eastern Daylight Time)","694864","Match,No Match","","1277","","","","","","<div class='trialBorder'><div class='targDiv'><div class='tc'><img class='introPic' src='trustrating_stim/white_mw012.bmp'><br><font color='red'><strong>Keep</strong></font></div></div><div class='respDiv'><div class='respDivL'>Match<br>(e)</div><div class='respDivR'>No Match<br>(i)</div></div></div>","e","TARGET","3","trustrating_stim/white_mw012.bmp,trustrating_stim/white_mw085.bmp,trustrating_stim/white_mw040.bmp","0,1,1","Match","e","4500","trustrating_stim/white_mw012.bmp","red","Keep","REAL","1"
"html-keyboard-response","139","446143","0.0-7.0-5.20","63f0fb9941434d10e8e4909b","bdp_wmem","Sat Apr 08 2023 12:44:08 GMT-0400 (Eastern Daylight Time)","694864","Match,No Match","","null","","","","","","<div class='trialBorder'><div class='vertical-center'><img src='img/correct.jpg'></div><div class='respDiv'><div class='respDivL'><font style='color:orange'>Match<br>(e)</font></div><div class='respDivR'>No Match<br>(i)</div></div></div>","null","FEEDBACK","","","","","","","","","","",""
"html-keyboard-response","140","446644","0.0-7.0-1.21","63f0fb9941434d10e8e4909b","bdp_wmem","Sat Apr 08 2023 12:44:08 GMT-0400 (Eastern Daylight Time)","694864","Match,No Match","","null","","","","","","<div class='trialBorder'><div class='vertical-center'><img src='img/fixation2_sml.jpg'</img></div></div>","null","FIX","","","","","","","","","","",""
"html-keyboard-response","141","448145","0.0-7.0-2.21","63f0fb9941434d10e8e4909b","bdp_wmem","Sat Apr 08 2023 12:44:08 GMT-0400 (Eastern Daylight Time)","694864","Match,No Match","","null","","","","","","<div class='trialBorder'><div class='vertical-center'><img style='vertical-align:center; align:center' src='img/fixation2_sml.jpg'></div><div class='arrayDiv1'><div class='tc'><img class='introPic' src='trustrating_stim/white_mw012.bmp'><br><font color='red'><strong>Keep</strong></font></div></div></div>","null","ARRAY","1","trustrating_stim/white_mw012.bmp","0","noMatchOutcome","i","1500","","","","",""
"html-keyboard-response","142","452147","0.0-7.0-3.21","63f0fb9941434d10e8e4909b","bdp_wmem","Sat Apr 08 2023 12:44:08 GMT-0400 (Eastern Daylight Time)","694864","Match,No Match","","null","","","","","","<div class='trialBorder'><div class='vertical-center'><img src='img/fixation2_sml.jpg'</img></div></div>","null","DELAY","","","","","","","","","","",""
"html-keyboard-response","143","453930","0.0-7.0-4.21","63f0fb9941434d10e8e4909b","bdp_wmem","Sat Apr 08 2023 12:44:08 GMT-0400 (Eastern Daylight Time)","694864","Match,No Match","","1782","","","","","","<div class='trialBorder'><div class='targDiv'><div class='tc'><img class='introPic' src='trustrating_stim/white_mw012.bmp'><br><font color='green'><strong>Share</strong></font></div></div><div class='respDiv'><div class='respDivL'>Match<br>(e)</div><div class='respDivR'>No Match<br>(i)</div></div></div>","i","TARGET","1","trustrating_stim/white_mw012.bmp","0","noMatchOutcome","i","1500","trustrating_stim/white_mw012.bmp","green","Share","REAL","1"
"html-keyboard-response","144","454431","0.0-7.0-5.21","63f0fb9941434d10e8e4909b","bdp_wmem","Sat Apr 08 2023 12:44:08 GMT-0400 (Eastern Daylight Time)","694864","Match,No Match","","null","","","","","","<div class='trialBorder'><div class='vertical-center'><img src='img/correct.jpg'></div><div class='respDiv'><div class='respDivL'>Match<br>(e)</div><div class='respDivR'><font style='color:orange'>No Match<br>(i)</font></div></div></div>","null","FEEDBACK","","","","","","","","","","",""
"html-keyboard-response","145","454932","0.0-7.0-1.22","63f0fb9941434d10e8e4909b","bdp_wmem","Sat Apr 08 2023 12:44:08 GMT-0400 (Eastern Daylight Time)","694864","Match,No Match","","null","","","","","","<div class='trialBorder'><div class='vertical-center'><img src='img/fixation2_sml.jpg'</img></div></div>","null","FIX","","","","","","","","","","",""
"html-keyboard-response","146","459434","0.0-7.0-2.22","63f0fb9941434d10e8e4909b","bdp_wmem","Sat Apr 08 2023 12:44:08 GMT-0400 (Eastern Daylight Time)","694864","Match,No Match","","null","","","","","","<div class='trialBorder'><div class='vertical-center'><img style='vertical-align:center; align:center' src='img/fixation2_sml.jpg'></div><div class='arrayDiv3'><div class='tl'><img class='introPic' src='trustrating_stim/white_mw040.bmp'><br><font color='green'><strong>Share</strong></font></div><div class='tc'><img class='introPic' src='trustrating_stim/white_mw042.bmp'><br><font color='red'><strong>Keep</strong></font></div><div class='tr'><img class='introPic' src='trustrating_stim/white_mw070.bmp'><br><font color='red'><strong>Keep</strong></font></div></div></div>","null","ARRAY","3","trustrating_stim/white_mw040.bmp,trustrating_stim/white_mw042.bmp,trustrating_stim/white_mw070.bmp","1,0,0","Match","e","4500","","","","",""
"html-keyboard-response","147","463436","0.0-7.0-3.22","63f0fb9941434d10e8e4909b","bdp_wmem","Sat Apr 08 2023 12:44:08 GMT-0400 (Eastern Daylight Time)","694864","Match,No Match","","null","","","","","","<div class='trialBorder'><div class='vertical-center'><img src='img/fixation2_sml.jpg'</img></div></div>","null","DELAY","","","","","","","","","","",""
"html-keyboard-response","148","465170","0.0-7.0-4.22","63f0fb9941434d10e8e4909b","bdp_wmem","Sat Apr 08 2023 12:44:08 GMT-0400 (Eastern Daylight Time)","694864","Match,No Match","","1732","","","","","","<div class='trialBorder'><div class='targDiv'><div class='tc'><img class='introPic' src='trustrating_stim/white_mw070.bmp'><br><font color='red'><strong>Keep</strong></font></div></div><div class='respDiv'><div class='respDivL'>Match<br>(e)</div><div class='respDivR'>No Match<br>(i)</div></div></div>","e","TARGET","3","trustrating_stim/white_mw040.bmp,trustrating_stim/white_mw042.bmp,trustrating_stim/white_mw070.bmp","1,0,0","Match","e","4500","trustrating_stim/white_mw070.bmp","red","Keep","REAL","1"
"html-keyboard-response","149","465671","0.0-7.0-5.22","63f0fb9941434d10e8e4909b","bdp_wmem","Sat Apr 08 2023 12:44:08 GMT-0400 (Eastern Daylight Time)","694864","Match,No Match","","null","","","","","","<div class='trialBorder'><div class='vertical-center'><img src='img/correct.jpg'></div><div class='respDiv'><div class='respDivL'><font style='color:orange'>Match<br>(e)</font></div><div class='respDivR'>No Match<br>(i)</div></div></div>","null","FEEDBACK","","","","","","","","","","",""
"html-keyboard-response","150","466172","0.0-7.0-1.23","63f0fb9941434d10e8e4909b","bdp_wmem","Sat Apr 08 2023 12:44:08 GMT-0400 (Eastern Daylight Time)","694864","Match,No Match","","null","","","","","","<div class='trialBorder'><div class='vertical-center'><img src='img/fixation2_sml.jpg'</img></div></div>","null","FIX","","","","","","","","","","",""
"html-keyboard-response","151","470673","0.0-7.0-2.23","63f0fb9941434d10e8e4909b","bdp_wmem","Sat Apr 08 2023 12:44:08 GMT-0400 (Eastern Daylight Time)","694864","Match,No Match","","null","","","","","","<div class='trialBorder'><div class='vertical-center'><img style='vertical-align:center; align:center' src='img/fixation2_sml.jpg'></div><div class='arrayDiv3'><div class='tl'><img class='introPic' src='trustrating_stim/white_mw010.bmp'><br><font color='green'><strong>Share</strong></font></div><div class='tc'><img class='introPic' src='trustrating_stim/white_mw038.bmp'><br><font color='red'><strong>Keep</strong></font></div><div class='tr'><img class='introPic' src='trustrating_stim/white_mw092.bmp'><br><font color='red'><strong>Keep</strong></font></div></div></div>","null","ARRAY","3","trustrating_stim/white_mw010.bmp,trustrating_stim/white_mw038.bmp,trustrating_stim/white_mw092.bmp","1,0,0","noMatchFace","i","4500","","","","",""
"html-keyboard-response","152","474674","0.0-7.0-3.23","63f0fb9941434d10e8e4909b","bdp_wmem","Sat Apr 08 2023 12:44:08 GMT-0400 (Eastern Daylight Time)","694864","Match,No Match","","null","","","","","","<div class='trialBorder'><div class='vertical-center'><img src='img/fixation2_sml.jpg'</img></div></div>","null","DELAY","","","","","","","","","","",""
"html-keyboard-response","153","476346","0.0-7.0-4.23","63f0fb9941434d10e8e4909b","bdp_wmem","Sat Apr 08 2023 12:44:08 GMT-0400 (Eastern Daylight Time)","694864","Match,No Match","","1670","","","","","","<div class='trialBorder'><div class='targDiv'><div class='tc'><img class='introPic' src='trustrating_stim/white_mw012.bmp'><br><font color='red'><strong>Keep</strong></font></div></div><div class='respDiv'><div class='respDivL'>Match<br>(e)</div><div class='respDivR'>No Match<br>(i)</div></div></div>","i","TARGET","3","trustrating_stim/white_mw010.bmp,trustrating_stim/white_mw038.bmp,trustrating_stim/white_mw092.bmp","1,0,0","noMatchFace","i","4500","trustrating_stim/white_mw012.bmp","red","Keep","REAL","1"
"html-keyboard-response","154","476847","0.0-7.0-5.23","63f0fb9941434d10e8e4909b","bdp_wmem","Sat Apr 08 2023 12:44:08 GMT-0400 (Eastern Daylight Time)","694864","Match,No Match","","null","","","","","","<div class='trialBorder'><div class='vertical-center'><img src='img/correct.jpg'></div><div class='respDiv'><div class='respDivL'>Match<br>(e)</div><div class='respDivR'><font style='color:orange'>No Match<br>(i)</font></div></div></div>","null","FEEDBACK","","","","","","","","","","",""
"html-keyboard-response","155","477348","0.0-7.0-1.24","63f0fb9941434d10e8e4909b","bdp_wmem","Sat Apr 08 2023 12:44:08 GMT-0400 (Eastern Daylight Time)","694864","Match,No Match","","null","","","","","","<div class='trialBorder'><div class='vertical-center'><img src='img/fixation2_sml.jpg'</img></div></div>","null","FIX","","","","","","","","","","",""
"html-keyboard-response","156","478850","0.0-7.0-2.24","63f0fb9941434d10e8e4909b","bdp_wmem","Sat Apr 08 2023 12:44:08 GMT-0400 (Eastern Daylight Time)","694864","Match,No Match","","null","","","","","","<div class='trialBorder'><div class='vertical-center'><img style='vertical-align:center; align:center' src='img/fixation2_sml.jpg'></div><div class='arrayDiv1'><div class='tc'><img class='introPic' src='trustrating_stim/white_mw013.bmp'><br><font color='green'><strong>Share</strong></font></div></div></div>","null","ARRAY","1","trustrating_stim/white_mw013.bmp","1","Match","e","1500","","","","",""
"html-keyboard-response","157","482852","0.0-7.0-3.24","63f0fb9941434d10e8e4909b","bdp_wmem","Sat Apr 08 2023 12:44:08 GMT-0400 (Eastern Daylight Time)","694864","Match,No Match","","null","","","","","","<div class='trialBorder'><div class='vertical-center'><img src='img/fixation2_sml.jpg'</img></div></div>","null","DELAY","","","","","","","","","","",""
"html-keyboard-response","158","484073","0.0-7.0-4.24","63f0fb9941434d10e8e4909b","bdp_wmem","Sat Apr 08 2023 12:44:08 GMT-0400 (Eastern Daylight Time)","694864","Match,No Match","","1220","","","","","","<div class='trialBorder'><div class='targDiv'><div class='tc'><img class='introPic' src='trustrating_stim/white_mw013.bmp'><br><font color='green'><strong>Share</strong></font></div></div><div class='respDiv'><div class='respDivL'>Match<br>(e)</div><div class='respDivR'>No Match<br>(i)</div></div></div>","e","TARGET","1","trustrating_stim/white_mw013.bmp","1","Match","e","1500","trustrating_stim/white_mw013.bmp","green","Share","REAL","1"
"html-keyboard-response","159","484574","0.0-7.0-5.24","63f0fb9941434d10e8e4909b","bdp_wmem","Sat Apr 08 2023 12:44:08 GMT-0400 (Eastern Daylight Time)","694864","Match,No Match","","null","","","","","","<div class='trialBorder'><div class='vertical-center'><img src='img/correct.jpg'></div><div class='respDiv'><div class='respDivL'><font style='color:orange'>Match<br>(e)</font></div><div class='respDivR'>No Match<br>(i)</div></div></div>","null","FEEDBACK","","","","","","","","","","",""
"html-keyboard-response","160","485075","0.0-7.0-1.25","63f0fb9941434d10e8e4909b","bdp_wmem","Sat Apr 08 2023 12:44:08 GMT-0400 (Eastern Daylight Time)","694864","Match,No Match","","null","","","","","","<div class='trialBorder'><div class='vertical-center'><img src='img/fixation2_sml.jpg'</img></div></div>","null","FIX","","","","","","","","","","",""
"html-keyboard-response","161","489577","0.0-7.0-2.25","63f0fb9941434d10e8e4909b","bdp_wmem","Sat Apr 08 2023 12:44:08 GMT-0400 (Eastern Daylight Time)","694864","Match,No Match","","null","","","","","","<div class='trialBorder'><div class='vertical-center'><img style='vertical-align:center; align:center' src='img/fixation2_sml.jpg'></div><div class='arrayDiv3'><div class='tl'><img class='introPic' src='trustrating_stim/white_mw070.bmp'><br><font color='green'><strong>Share</strong></font></div><div class='tc'><img class='introPic' src='trustrating_stim/white_mw078.bmp'><br><font color='red'><strong>Keep</strong></font></div><div class='tr'><img class='introPic' src='trustrating_stim/white_mw091.bmp'><br><font color='red'><strong>Keep</strong></font></div></div></div>","null","ARRAY","3","trustrating_stim/white_mw070.bmp,trustrating_stim/white_mw078.bmp,trustrating_stim/white_mw091.bmp","1,0,0","noMatchFace","i","4500","","","","",""
"html-keyboard-response","162","493579","0.0-7.0-3.25","63f0fb9941434d10e8e4909b","bdp_wmem","Sat Apr 08 2023 12:44:08 GMT-0400 (Eastern Daylight Time)","694864","Match,No Match","","null","","","","","","<div class='trialBorder'><div class='vertical-center'><img src='img/fixation2_sml.jpg'</img></div></div>","null","DELAY","","","","","","","","","","",""
"html-keyboard-response","163","495041","0.0-7.0-4.25","63f0fb9941434d10e8e4909b","bdp_wmem","Sat Apr 08 2023 12:44:08 GMT-0400 (Eastern Daylight Time)","694864","Match,No Match","","1462","","","","","","<div class='trialBorder'><div class='targDiv'><div class='tc'><img class='introPic' src='trustrating_stim/white_mw042.bmp'><br><font color='red'><strong>Keep</strong></font></div></div><div class='respDiv'><div class='respDivL'>Match<br>(e)</div><div class='respDivR'>No Match<br>(i)</div></div></div>","i","TARGET","3","trustrating_stim/white_mw070.bmp,trustrating_stim/white_mw078.bmp,trustrating_stim/white_mw091.bmp","1,0,0","noMatchFace","i","4500","trustrating_stim/white_mw042.bmp","red","Keep","REAL","1"
"html-keyboard-response","164","495542","0.0-7.0-5.25","63f0fb9941434d10e8e4909b","bdp_wmem","Sat Apr 08 2023 12:44:08 GMT-0400 (Eastern Daylight Time)","694864","Match,No Match","","null","","","","","","<div class='trialBorder'><div class='vertical-center'><img src='img/correct.jpg'></div><div class='respDiv'><div class='respDivL'>Match<br>(e)</div><div class='respDivR'><font style='color:orange'>No Match<br>(i)</font></div></div></div>","null","FEEDBACK","","","","","","","","","","",""
"html-keyboard-response","165","496043","0.0-7.0-1.26","63f0fb9941434d10e8e4909b","bdp_wmem","Sat Apr 08 2023 12:44:08 GMT-0400 (Eastern Daylight Time)","694864","Match,No Match","","null","","","","","","<div class='trialBorder'><div class='vertical-center'><img src='img/fixation2_sml.jpg'</img></div></div>","null","FIX","","","","","","","","","","",""
"html-keyboard-response","166","497545","0.0-7.0-2.26","63f0fb9941434d10e8e4909b","bdp_wmem","Sat Apr 08 2023 12:44:08 GMT-0400 (Eastern Daylight Time)","694864","Match,No Match","","null","","","","","","<div class='trialBorder'><div class='vertical-center'><img style='vertical-align:center; align:center' src='img/fixation2_sml.jpg'></div><div class='arrayDiv1'><div class='tc'><img class='introPic' src='trustrating_stim/white_mw038.bmp'><br><font color='red'><strong>Keep</strong></font></div></div></div>","null","ARRAY","1","trustrating_stim/white_mw038.bmp","0","Match","e","1500","","","","",""
"html-keyboard-response","167","501548","0.0-7.0-3.26","63f0fb9941434d10e8e4909b","bdp_wmem","Sat Apr 08 2023 12:44:08 GMT-0400 (Eastern Daylight Time)","694864","Match,No Match","","null","","","","","","<div class='trialBorder'><div class='vertical-center'><img src='img/fixation2_sml.jpg'</img></div></div>","null","DELAY","","","","","","","","","","",""
"html-keyboard-response","168","502697","0.0-7.0-4.26","63f0fb9941434d10e8e4909b","bdp_wmem","Sat Apr 08 2023 12:44:08 GMT-0400 (Eastern Daylight Time)","694864","Match,No Match","","1149","","","","","","<div class='trialBorder'><div class='targDiv'><div class='tc'><img class='introPic' src='trustrating_stim/white_mw038.bmp'><br><font color='red'><strong>Keep</strong></font></div></div><div class='respDiv'><div class='respDivL'>Match<br>(e)</div><div class='respDivR'>No Match<br>(i)</div></div></div>","e","TARGET","1","trustrating_stim/white_mw038.bmp","0","Match","e","1500","trustrating_stim/white_mw038.bmp","red","Keep","REAL","1"
"html-keyboard-response","169","503198","0.0-7.0-5.26","63f0fb9941434d10e8e4909b","bdp_wmem","Sat Apr 08 2023 12:44:08 GMT-0400 (Eastern Daylight Time)","694864","Match,No Match","","null","","","","","","<div class='trialBorder'><div class='vertical-center'><img src='img/correct.jpg'></div><div class='respDiv'><div class='respDivL'><font style='color:orange'>Match<br>(e)</font></div><div class='respDivR'>No Match<br>(i)</div></div></div>","null","FEEDBACK","","","","","","","","","","",""
"html-keyboard-response","170","503699","0.0-7.0-1.27","63f0fb9941434d10e8e4909b","bdp_wmem","Sat Apr 08 2023 12:44:08 GMT-0400 (Eastern Daylight Time)","694864","Match,No Match","","null","","","","","","<div class='trialBorder'><div class='vertical-center'><img src='img/fixation2_sml.jpg'</img></div></div>","null","FIX","","","","","","","","","","",""
"html-keyboard-response","171","508201","0.0-7.0-2.27","63f0fb9941434d10e8e4909b","bdp_wmem","Sat Apr 08 2023 12:44:08 GMT-0400 (Eastern Daylight Time)","694864","Match,No Match","","null","","","","","","<div class='trialBorder'><div class='vertical-center'><img style='vertical-align:center; align:center' src='img/fixation2_sml.jpg'></div><div class='arrayDiv3'><div class='tl'><img class='introPic' src='trustrating_stim/white_mw003.bmp'><br><font color='red'><strong>Keep</strong></font></div><div class='tc'><img class='introPic' src='trustrating_stim/white_mw038.bmp'><br><font color='red'><strong>Keep</strong></font></div><div class='tr'><img class='introPic' src='trustrating_stim/white_mw091.bmp'><br><font color='green'><strong>Share</strong></font></div></div></div>","null","ARRAY","3","trustrating_stim/white_mw003.bmp,trustrating_stim/white_mw038.bmp,trustrating_stim/white_mw091.bmp","0,0,1","Match","e","4500","","","","",""
"html-keyboard-response","172","512202","0.0-7.0-3.27","63f0fb9941434d10e8e4909b","bdp_wmem","Sat Apr 08 2023 12:44:08 GMT-0400 (Eastern Daylight Time)","694864","Match,No Match","","null","","","","","","<div class='trialBorder'><div class='vertical-center'><img src='img/fixation2_sml.jpg'</img></div></div>","null","DELAY","","","","","","","","","","",""
"html-keyboard-response","173","513593","0.0-7.0-4.27","63f0fb9941434d10e8e4909b","bdp_wmem","Sat Apr 08 2023 12:44:08 GMT-0400 (Eastern Daylight Time)","694864","Match,No Match","","1390","","","","","","<div class='trialBorder'><div class='targDiv'><div class='tc'><img class='introPic' src='trustrating_stim/white_mw003.bmp'><br><font color='red'><strong>Keep</strong></font></div></div><div class='respDiv'><div class='respDivL'>Match<br>(e)</div><div class='respDivR'>No Match<br>(i)</div></div></div>","e","TARGET","3","trustrating_stim/white_mw003.bmp,trustrating_stim/white_mw038.bmp,trustrating_stim/white_mw091.bmp","0,0,1","Match","e","4500","trustrating_stim/white_mw003.bmp","red","Keep","REAL","1"
"html-keyboard-response","174","514095","0.0-7.0-5.27","63f0fb9941434d10e8e4909b","bdp_wmem","Sat Apr 08 2023 12:44:08 GMT-0400 (Eastern Daylight Time)","694864","Match,No Match","","null","","","","","","<div class='trialBorder'><div class='vertical-center'><img src='img/correct.jpg'></div><div class='respDiv'><div class='respDivL'><font style='color:orange'>Match<br>(e)</font></div><div class='respDivR'>No Match<br>(i)</div></div></div>","null","FEEDBACK","","","","","","","","","","",""
"html-keyboard-response","175","514597","0.0-7.0-1.28","63f0fb9941434d10e8e4909b","bdp_wmem","Sat Apr 08 2023 12:44:08 GMT-0400 (Eastern Daylight Time)","694864","Match,No Match","","null","","","","","","<div class='trialBorder'><div class='vertical-center'><img src='img/fixation2_sml.jpg'</img></div></div>","null","FIX","","","","","","","","","","",""
"html-keyboard-response","176","516099","0.0-7.0-2.28","63f0fb9941434d10e8e4909b","bdp_wmem","Sat Apr 08 2023 12:44:08 GMT-0400 (Eastern Daylight Time)","694864","Match,No Match","","null","","","","","","<div class='trialBorder'><div class='vertical-center'><img style='vertical-align:center; align:center' src='img/fixation2_sml.jpg'></div><div class='arrayDiv1'><div class='tc'><img class='introPic' src='trustrating_stim/white_mw070.bmp'><br><font color='green'><strong>Share</strong></font></div></div></div>","null","ARRAY","1","trustrating_stim/white_mw070.bmp","1","noMatchOutcome","i","1500","","","","",""
"html-keyboard-response","177","520100","0.0-7.0-3.28","63f0fb9941434d10e8e4909b","bdp_wmem","Sat Apr 08 2023 12:44:08 GMT-0400 (Eastern Daylight Time)","694864","Match,No Match","","null","","","","","","<div class='trialBorder'><div class='vertical-center'><img src='img/fixation2_sml.jpg'</img></div></div>","null","DELAY","","","","","","","","","","",""
"html-keyboard-response","178","521289","0.0-7.0-4.28","63f0fb9941434d10e8e4909b","bdp_wmem","Sat Apr 08 2023 12:44:08 GMT-0400 (Eastern Daylight Time)","694864","Match,No Match","","1188","","","","","","<div class='trialBorder'><div class='targDiv'><div class='tc'><img class='introPic' src='trustrating_stim/white_mw070.bmp'><br><font color='red'><strong>Keep</strong></font></div></div><div class='respDiv'><div class='respDivL'>Match<br>(e)</div><div class='respDivR'>No Match<br>(i)</div></div></div>","i","TARGET","1","trustrating_stim/white_mw070.bmp","1","noMatchOutcome","i","1500","trustrating_stim/white_mw070.bmp","red","Keep","REAL","1"
"html-keyboard-response","179","521790","0.0-7.0-5.28","63f0fb9941434d10e8e4909b","bdp_wmem","Sat Apr 08 2023 12:44:08 GMT-0400 (Eastern Daylight Time)","694864","Match,No Match","","null","","","","","","<div class='trialBorder'><div class='vertical-center'><img src='img/correct.jpg'></div><div class='respDiv'><div class='respDivL'>Match<br>(e)</div><div class='respDivR'><font style='color:orange'>No Match<br>(i)</font></div></div></div>","null","FEEDBACK","","","","","","","","","","",""
"html-keyboard-response","180","522292","0.0-7.0-1.29","63f0fb9941434d10e8e4909b","bdp_wmem","Sat Apr 08 2023 12:44:08 GMT-0400 (Eastern Daylight Time)","694864","Match,No Match","","null","","","","","","<div class='trialBorder'><div class='vertical-center'><img src='img/fixation2_sml.jpg'</img></div></div>","null","FIX","","","","","","","","","","",""
"html-keyboard-response","181","525294","0.0-7.0-2.29","63f0fb9941434d10e8e4909b","bdp_wmem","Sat Apr 08 2023 12:44:08 GMT-0400 (Eastern Daylight Time)","694864","Match,No Match","","null","","","","","","<div class='trialBorder'><div class='vertical-center'><img style='vertical-align:center; align:center' src='img/fixation2_sml.jpg'></div><div class='arrayDiv2'><div class='tl'><img class='introPic' src='trustrating_stim/white_mw085.bmp'><br><font color='red'><strong>Keep</strong></font></div><div class='tr'><img class='introPic' src='trustrating_stim/white_mw070.bmp'><br><font color='green'><strong>Share</strong></font></div></div></div>","null","ARRAY","2","trustrating_stim/white_mw085.bmp,trustrating_stim/white_mw070.bmp","0,1","noMatchFace","i","3000","","","","",""
"html-keyboard-response","182","529296","0.0-7.0-3.29","63f0fb9941434d10e8e4909b","bdp_wmem","Sat Apr 08 2023 12:44:08 GMT-0400 (Eastern Daylight Time)","694864","Match,No Match","","null","","","","","","<div class='trialBorder'><div class='vertical-center'><img src='img/fixation2_sml.jpg'</img></div></div>","null","DELAY","","","","","","","","","","",""
"html-keyboard-response","183","530745","0.0-7.0-4.29","63f0fb9941434d10e8e4909b","bdp_wmem","Sat Apr 08 2023 12:44:08 GMT-0400 (Eastern Daylight Time)","694864","Match,No Match","","1448","","","","","","<div class='trialBorder'><div class='targDiv'><div class='tc'><img class='introPic' src='trustrating_stim/white_mw012.bmp'><br><font color='green'><strong>Share</strong></font></div></div><div class='respDiv'><div class='respDivL'>Match<br>(e)</div><div class='respDivR'>No Match<br>(i)</div></div></div>","i","TARGET","2","trustrating_stim/white_mw085.bmp,trustrating_stim/white_mw070.bmp","0,1","noMatchFace","i","3000","trustrating_stim/white_mw012.bmp","green","Share","REAL","1"
"html-keyboard-response","184","531246","0.0-7.0-5.29","63f0fb9941434d10e8e4909b","bdp_wmem","Sat Apr 08 2023 12:44:08 GMT-0400 (Eastern Daylight Time)","694864","Match,No Match","","null","","","","","","<div class='trialBorder'><div class='vertical-center'><img src='img/correct.jpg'></div><div class='respDiv'><div class='respDivL'>Match<br>(e)</div><div class='respDivR'><font style='color:orange'>No Match<br>(i)</font></div></div></div>","null","FEEDBACK","","","","","","","","","","",""
"html-keyboard-response","185","531747","0.0-7.0-1.30","63f0fb9941434d10e8e4909b","bdp_wmem","Sat Apr 08 2023 12:44:08 GMT-0400 (Eastern Daylight Time)","694864","Match,No Match","","null","","","","","","<div class='trialBorder'><div class='vertical-center'><img src='img/fixation2_sml.jpg'</img></div></div>","null","FIX","","","","","","","","","","",""
"html-keyboard-response","186","533249","0.0-7.0-2.30","63f0fb9941434d10e8e4909b","bdp_wmem","Sat Apr 08 2023 12:44:08 GMT-0400 (Eastern Daylight Time)","694864","Match,No Match","","null","","","","","","<div class='trialBorder'><div class='vertical-center'><img style='vertical-align:center; align:center' src='img/fixation2_sml.jpg'></div><div class='arrayDiv1'><div class='tc'><img class='introPic' src='trustrating_stim/white_mw003.bmp'><br><font color='red'><strong>Keep</strong></font></div></div></div>","null","ARRAY","1","trustrating_stim/white_mw003.bmp","0","Match","e","1500","","","","",""
