"event","trial","time","trialtype","subject_id","task","startTime","totalTime","labels","trial_type","trial_index","time_elapsed","internal_node_id","view_history","rt","success","stimulus","key_press","stimType","arraySize","arrayFaces","arrayOutcomes","matchType","corrResp","arrayDur","targFace","targCol","targOutcome","trialType","corr"
"focus","0","0","focusevent","5e55e83cc65ccb5ed547cb04","bdp_wmem","Fri Mar 10 2023 12:11:32 GMT-0800 (Pacific Standard Time)","642937","Match,No Match","","","","","","","","","","","","","","","","","","","","",""
"","","","","5e55e83cc65ccb5ed547cb04","bdp_wmem","Fri Mar 10 2023 12:11:32 GMT-0800 (Pacific Standard Time)","642937","Match,No Match","pavlovia","0","1","0.0-0.0","","","","","","","","","","","","","","","","",""
"","","","","5e55e83cc65ccb5ed547cb04","bdp_wmem","Fri Mar 10 2023 12:11:32 GMT-0800 (Pacific Standard Time)","642937","Match,No Match","instructions","1","1874","0.0-1.0","[{""page_index"":0,""viewing_time"":1871}]","1871","","","","","","","","","","","","","","",""
"fullscreenexit","2","45085","fullscreenexit","5e55e83cc65ccb5ed547cb04","bdp_wmem","Fri Mar 10 2023 12:11:32 GMT-0800 (Pacific Standard Time)","642937","Match,No Match","","","","","","","","","","","","","","","","","","","","",""
"","","","","5e55e83cc65ccb5ed547cb04","bdp_wmem","Fri Mar 10 2023 12:11:32 GMT-0800 (Pacific Standard Time)","642937","Match,No Match","fullscreen","2","45878","0.0-2.0","","","true","","","","","","","","","","","","","",""
"","","","fullscreenfail","5e55e83cc65ccb5ed547cb04","bdp_wmem","Fri Mar 10 2023 12:11:32 GMT-0800 (Pacific Standard Time)","642937","Match,No Match","image-keyboard-response","3","48248","0.0-3.0-0.0","","2367","","","32","","","","","","","","","","","",""
"","","","","5e55e83cc65ccb5ed547cb04","bdp_wmem","Fri Mar 10 2023 12:11:32 GMT-0800 (Pacific Standard Time)","642937","Match,No Match","instructions","4","149223","0.0-4.0","[{""page_index"":0,""viewing_time"":34868},{""page_index"":1,""viewing_time"":43262},{""page_index"":2,""viewing_time"":98},{""page_index"":3,""viewing_time"":49},{""page_index"":4,""viewing_time"":22437}]","100714","","","","","","","","","","","","","","",""
"","","","","5e55e83cc65ccb5ed547cb04","bdp_wmem","Fri Mar 10 2023 12:11:32 GMT-0800 (Pacific Standard Time)","642937","Match,No Match","html-keyboard-response","5","149732","0.0-5.0-1.0","","null","","<div class='trialBorder'><div class='vertical-center'><img src='img/fixation2_sml.jpg'</img></div></div>","null","FIX","","","","","","","","","","",""
"","","","","5e55e83cc65ccb5ed547cb04","bdp_wmem","Fri Mar 10 2023 12:11:32 GMT-0800 (Pacific Standard Time)","642937","Match,No Match","html-keyboard-response","6","152738","0.0-5.0-2.0","","null","","<div class='trialBorder'><div class='vertical-center'><img style='vertical-align:center; align:center' src='img/fixation2_sml.jpg'></div><div class='arrayDiv2'><div class='tl'><img class='introPic' src='trustrating_stim/white_mw013.bmp'><br><font color='red'><strong>Keep</strong></font></div><div class='tr'><img class='introPic' src='trustrating_stim/white_mw042.bmp'><br><font color='green'><strong>Share</strong></font></div></div></div>","null","ARRAY","2","trustrating_stim/white_mw013.bmp,trustrating_stim/white_mw042.bmp","0,1","Match","e","3000","","","","",""
"","","","","5e55e83cc65ccb5ed547cb04","bdp_wmem","Fri Mar 10 2023 12:11:32 GMT-0800 (Pacific Standard Time)","642937","Match,No Match","html-keyboard-response","7","156741","0.0-5.0-3.0","","null","","<div class='trialBorder'><div class='vertical-center'><img src='img/fixation2_sml.jpg'</img></div></div>","null","DELAY","","","","","","","","","","",""
"","","","","5e55e83cc65ccb5ed547cb04","bdp_wmem","Fri Mar 10 2023 12:11:32 GMT-0800 (Pacific Standard Time)","642937","Match,No Match","html-keyboard-response","8","161331","0.0-5.0-4.0","","4590","","<div class='trialBorder'><div class='targDiv'><div class='tc'><img class='introPic' src='trustrating_stim/white_mw013.bmp'><br><font color='red'><strong>Keep</strong></font></div></div><div class='respDiv'><div class='respDivL'>Match<br>(e)</div><div class='respDivR'>No Match<br>(i)</div></div></div>","i","TARGET","2","trustrating_stim/white_mw013.bmp,trustrating_stim/white_mw042.bmp","0,1","Match","e","3000","trustrating_stim/white_mw013.bmp","red","Keep","PRACTICE","0"
"","","","","5e55e83cc65ccb5ed547cb04","bdp_wmem","Fri Mar 10 2023 12:11:32 GMT-0800 (Pacific Standard Time)","642937","Match,No Match","html-keyboard-response","9","161832","0.0-5.0-5.0","","null","","<div class='trialBorder'><div class='vertical-center'><img src='img/error.jpg'></div><div class='respDiv'><div class='respDivL'>Match<br>(e)</div><div class='respDivR'><font style='color:orange'>No Match<br>(i)</font></div></div></div>","null","FEEDBACK","","","","","","","","","","",""
"","","","","5e55e83cc65ccb5ed547cb04","bdp_wmem","Fri Mar 10 2023 12:11:32 GMT-0800 (Pacific Standard Time)","642937","Match,No Match","html-keyboard-response","10","162345","0.0-5.0-1.1","","null","","<div class='trialBorder'><div class='vertical-center'><img src='img/fixation2_sml.jpg'</img></div></div>","null","FIX","","","","","","","","","","",""
"","","","","5e55e83cc65ccb5ed547cb04","bdp_wmem","Fri Mar 10 2023 12:11:32 GMT-0800 (Pacific Standard Time)","642937","Match,No Match","html-keyboard-response","11","163847","0.0-5.0-2.1","","null","","<div class='trialBorder'><div class='vertical-center'><img style='vertical-align:center; align:center' src='img/fixation2_sml.jpg'></div><div class='arrayDiv1'><div class='tc'><img class='introPic' src='trustrating_stim/white_mw012.bmp'><br><font color='red'><strong>Keep</strong></font></div></div></div>","null","ARRAY","1","trustrating_stim/white_mw012.bmp","0","noMatchFace","i","1500","","","","",""
"","","","","5e55e83cc65ccb5ed547cb04","bdp_wmem","Fri Mar 10 2023 12:11:32 GMT-0800 (Pacific Standard Time)","642937","Match,No Match","html-keyboard-response","12","167858","0.0-5.0-3.1","","null","","<div class='trialBorder'><div class='vertical-center'><img src='img/fixation2_sml.jpg'</img></div></div>","null","DELAY","","","","","","","","","","",""
"","","","","5e55e83cc65ccb5ed547cb04","bdp_wmem","Fri Mar 10 2023 12:11:32 GMT-0800 (Pacific Standard Time)","642937","Match,No Match","html-keyboard-response","13","168757","0.0-5.0-4.1","","898","","<div class='trialBorder'><div class='targDiv'><div class='tc'><img class='introPic' src='trustrating_stim/white_mw038.bmp'><br><font color='red'><strong>Keep</strong></font></div></div><div class='respDiv'><div class='respDivL'>Match<br>(e)</div><div class='respDivR'>No Match<br>(i)</div></div></div>","e","TARGET","1","trustrating_stim/white_mw012.bmp","0","noMatchFace","i","1500","trustrating_stim/white_mw038.bmp","red","Keep","PRACTICE","0"
"","","","","5e55e83cc65ccb5ed547cb04","bdp_wmem","Fri Mar 10 2023 12:11:32 GMT-0800 (Pacific Standard Time)","642937","Match,No Match","html-keyboard-response","14","169260","0.0-5.0-5.1","","null","","<div class='trialBorder'><div class='vertical-center'><img src='img/error.jpg'></div><div class='respDiv'><div class='respDivL'><font style='color:orange'>Match<br>(e)</font></div><div class='respDivR'>No Match<br>(i)</div></div></div>","null","FEEDBACK","","","","","","","","","","",""
"","","","","5e55e83cc65ccb5ed547cb04","bdp_wmem","Fri Mar 10 2023 12:11:32 GMT-0800 (Pacific Standard Time)","642937","Match,No Match","html-keyboard-response","15","169774","0.0-5.0-1.2","","null","","<div class='trialBorder'><div class='vertical-center'><img src='img/fixation2_sml.jpg'</img></div></div>","null","FIX","","","","","","","","","","",""
"","","","","5e55e83cc65ccb5ed547cb04","bdp_wmem","Fri Mar 10 2023 12:11:32 GMT-0800 (Pacific Standard Time)","642937","Match,No Match","html-keyboard-response","16","174280","0.0-5.0-2.2","","null","","<div class='trialBorder'><div class='vertical-center'><img style='vertical-align:center; align:center' src='img/fixation2_sml.jpg'></div><div class='arrayDiv3'><div class='tl'><img class='introPic' src='trustrating_stim/white_mw010.bmp'><br><font color='green'><strong>Share</strong></font></div><div class='tc'><img class='introPic' src='trustrating_stim/white_mw042.bmp'><br><font color='red'><strong>Keep</strong></font></div><div class='tr'><img class='introPic' src='trustrating_stim/white_mw070.bmp'><br><font color='red'><strong>Keep</strong></font></div></div></div>","null","ARRAY","3","trustrating_stim/white_mw010.bmp,trustrating_stim/white_mw042.bmp,trustrating_stim/white_mw070.bmp","1,0,0","Match","e","4500","","","","",""
"","","","","5e55e83cc65ccb5ed547cb04","bdp_wmem","Fri Mar 10 2023 12:11:32 GMT-0800 (Pacific Standard Time)","642937","Match,No Match","html-keyboard-response","17","178290","0.0-5.0-3.2","","null","","<div class='trialBorder'><div class='vertical-center'><img src='img/fixation2_sml.jpg'</img></div></div>","null","DELAY","","","","","","","","","","",""
"","","","","5e55e83cc65ccb5ed547cb04","bdp_wmem","Fri Mar 10 2023 12:11:32 GMT-0800 (Pacific Standard Time)","642937","Match,No Match","html-keyboard-response","18","179470","0.0-5.0-4.2","","1180","","<div class='trialBorder'><div class='targDiv'><div class='tc'><img class='introPic' src='trustrating_stim/white_mw042.bmp'><br><font color='red'><strong>Keep</strong></font></div></div><div class='respDiv'><div class='respDivL'>Match<br>(e)</div><div class='respDivR'>No Match<br>(i)</div></div></div>","e","TARGET","3","trustrating_stim/white_mw010.bmp,trustrating_stim/white_mw042.bmp,trustrating_stim/white_mw070.bmp","1,0,0","Match","e","4500","trustrating_stim/white_mw042.bmp","red","Keep","PRACTICE","1"
"","","","","5e55e83cc65ccb5ed547cb04","bdp_wmem","Fri Mar 10 2023 12:11:32 GMT-0800 (Pacific Standard Time)","642937","Match,No Match","html-keyboard-response","19","179972","0.0-5.0-5.2","","null","","<div class='trialBorder'><div class='vertical-center'><img src='img/correct.jpg'></div><div class='respDiv'><div class='respDivL'><font style='color:orange'>Match<br>(e)</font></div><div class='respDivR'>No Match<br>(i)</div></div></div>","null","FEEDBACK","","","","","","","","","","",""
"","","","","5e55e83cc65ccb5ed547cb04","bdp_wmem","Fri Mar 10 2023 12:11:32 GMT-0800 (Pacific Standard Time)","642937","Match,No Match","html-keyboard-response","20","180473","0.0-5.0-1.3","","null","","<div class='trialBorder'><div class='vertical-center'><img src='img/fixation2_sml.jpg'</img></div></div>","null","FIX","","","","","","","","","","",""
"","","","","5e55e83cc65ccb5ed547cb04","bdp_wmem","Fri Mar 10 2023 12:11:32 GMT-0800 (Pacific Standard Time)","642937","Match,No Match","html-keyboard-response","21","184982","0.0-5.0-2.3","","null","","<div class='trialBorder'><div class='vertical-center'><img style='vertical-align:center; align:center' src='img/fixation2_sml.jpg'></div><div class='arrayDiv3'><div class='tl'><img class='introPic' src='trustrating_stim/white_mw003.bmp'><br><font color='red'><strong>Keep</strong></font></div><div class='tc'><img class='introPic' src='trustrating_stim/white_mw010.bmp'><br><font color='green'><strong>Share</strong></font></div><div class='tr'><img class='introPic' src='trustrating_stim/white_mw078.bmp'><br><font color='red'><strong>Keep</strong></font></div></div></div>","null","ARRAY","3","trustrating_stim/white_mw003.bmp,trustrating_stim/white_mw010.bmp,trustrating_stim/white_mw078.bmp","0,1,0","noMatchOutcome","i","4500","","","","",""
"","","","","5e55e83cc65ccb5ed547cb04","bdp_wmem","Fri Mar 10 2023 12:11:32 GMT-0800 (Pacific Standard Time)","642937","Match,No Match","html-keyboard-response","22","188985","0.0-5.0-3.3","","null","","<div class='trialBorder'><div class='vertical-center'><img src='img/fixation2_sml.jpg'</img></div></div>","null","DELAY","","","","","","","","","","",""
"","","","","5e55e83cc65ccb5ed547cb04","bdp_wmem","Fri Mar 10 2023 12:11:32 GMT-0800 (Pacific Standard Time)","642937","Match,No Match","html-keyboard-response","23","190542","0.0-5.0-4.3","","1556","","<div class='trialBorder'><div class='targDiv'><div class='tc'><img class='introPic' src='trustrating_stim/white_mw078.bmp'><br><font color='green'><strong>Share</strong></font></div></div><div class='respDiv'><div class='respDivL'>Match<br>(e)</div><div class='respDivR'>No Match<br>(i)</div></div></div>","e","TARGET","3","trustrating_stim/white_mw003.bmp,trustrating_stim/white_mw010.bmp,trustrating_stim/white_mw078.bmp","0,1,0","noMatchOutcome","i","4500","trustrating_stim/white_mw078.bmp","green","Share","PRACTICE","0"
"","","","","5e55e83cc65ccb5ed547cb04","bdp_wmem","Fri Mar 10 2023 12:11:32 GMT-0800 (Pacific Standard Time)","642937","Match,No Match","html-keyboard-response","24","191051","0.0-5.0-5.3","","null","","<div class='trialBorder'><div class='vertical-center'><img src='img/error.jpg'></div><div class='respDiv'><div class='respDivL'><font style='color:orange'>Match<br>(e)</font></div><div class='respDivR'>No Match<br>(i)</div></div></div>","null","FEEDBACK","","","","","","","","","","",""
"","","","","5e55e83cc65ccb5ed547cb04","bdp_wmem","Fri Mar 10 2023 12:11:32 GMT-0800 (Pacific Standard Time)","642937","Match,No Match","html-keyboard-response","25","191564","0.0-5.0-1.4","","null","","<div class='trialBorder'><div class='vertical-center'><img src='img/fixation2_sml.jpg'</img></div></div>","null","FIX","","","","","","","","","","",""
"","","","","5e55e83cc65ccb5ed547cb04","bdp_wmem","Fri Mar 10 2023 12:11:32 GMT-0800 (Pacific Standard Time)","642937","Match,No Match","html-keyboard-response","26","194571","0.0-5.0-2.4","","null","","<div class='trialBorder'><div class='vertical-center'><img style='vertical-align:center; align:center' src='img/fixation2_sml.jpg'></div><div class='arrayDiv2'><div class='tl'><img class='introPic' src='trustrating_stim/white_mw085.bmp'><br><font color='green'><strong>Share</strong></font></div><div class='tr'><img class='introPic' src='trustrating_stim/white_mw038.bmp'><br><font color='red'><strong>Keep</strong></font></div></div></div>","null","ARRAY","2","trustrating_stim/white_mw085.bmp,trustrating_stim/white_mw038.bmp","1,0","noMatchOutcome","i","3000","","","","",""
"","","","","5e55e83cc65ccb5ed547cb04","bdp_wmem","Fri Mar 10 2023 12:11:32 GMT-0800 (Pacific Standard Time)","642937","Match,No Match","html-keyboard-response","27","198579","0.0-5.0-3.4","","null","","<div class='trialBorder'><div class='vertical-center'><img src='img/fixation2_sml.jpg'</img></div></div>","null","DELAY","","","","","","","","","","",""
"","","","","5e55e83cc65ccb5ed547cb04","bdp_wmem","Fri Mar 10 2023 12:11:32 GMT-0800 (Pacific Standard Time)","642937","Match,No Match","html-keyboard-response","28","199148","0.0-5.0-4.4","","569","","<div class='trialBorder'><div class='targDiv'><div class='tc'><img class='introPic' src='trustrating_stim/white_mw038.bmp'><br><font color='green'><strong>Share</strong></font></div></div><div class='respDiv'><div class='respDivL'>Match<br>(e)</div><div class='respDivR'>No Match<br>(i)</div></div></div>","i","TARGET","2","trustrating_stim/white_mw085.bmp,trustrating_stim/white_mw038.bmp","1,0","noMatchOutcome","i","3000","trustrating_stim/white_mw038.bmp","green","Share","PRACTICE","1"
"","","","","5e55e83cc65ccb5ed547cb04","bdp_wmem","Fri Mar 10 2023 12:11:32 GMT-0800 (Pacific Standard Time)","642937","Match,No Match","html-keyboard-response","29","199651","0.0-5.0-5.4","","null","","<div class='trialBorder'><div class='vertical-center'><img src='img/correct.jpg'></div><div class='respDiv'><div class='respDivL'>Match<br>(e)</div><div class='respDivR'><font style='color:orange'>No Match<br>(i)</font></div></div></div>","null","FEEDBACK","","","","","","","","","","",""
"","","","","5e55e83cc65ccb5ed547cb04","bdp_wmem","Fri Mar 10 2023 12:11:32 GMT-0800 (Pacific Standard Time)","642937","Match,No Match","html-keyboard-response","30","200164","0.0-5.0-1.5","","null","","<div class='trialBorder'><div class='vertical-center'><img src='img/fixation2_sml.jpg'</img></div></div>","null","FIX","","","","","","","","","","",""
"","","","","5e55e83cc65ccb5ed547cb04","bdp_wmem","Fri Mar 10 2023 12:11:32 GMT-0800 (Pacific Standard Time)","642937","Match,No Match","html-keyboard-response","31","201673","0.0-5.0-2.5","","null","","<div class='trialBorder'><div class='vertical-center'><img style='vertical-align:center; align:center' src='img/fixation2_sml.jpg'></div><div class='arrayDiv1'><div class='tc'><img class='introPic' src='trustrating_stim/white_mw092.bmp'><br><font color='red'><strong>Keep</strong></font></div></div></div>","null","ARRAY","1","trustrating_stim/white_mw092.bmp","0","Match","e","1500","","","","",""
"","","","","5e55e83cc65ccb5ed547cb04","bdp_wmem","Fri Mar 10 2023 12:11:32 GMT-0800 (Pacific Standard Time)","642937","Match,No Match","html-keyboard-response","32","205688","0.0-5.0-3.5","","null","","<div class='trialBorder'><div class='vertical-center'><img src='img/fixation2_sml.jpg'</img></div></div>","null","DELAY","","","","","","","","","","",""
"","","","","5e55e83cc65ccb5ed547cb04","bdp_wmem","Fri Mar 10 2023 12:11:32 GMT-0800 (Pacific Standard Time)","642937","Match,No Match","html-keyboard-response","33","206279","0.0-5.0-4.5","","590","","<div class='trialBorder'><div class='targDiv'><div class='tc'><img class='introPic' src='trustrating_stim/white_mw092.bmp'><br><font color='red'><strong>Keep</strong></font></div></div><div class='respDiv'><div class='respDivL'>Match<br>(e)</div><div class='respDivR'>No Match<br>(i)</div></div></div>","e","TARGET","1","trustrating_stim/white_mw092.bmp","0","Match","e","1500","trustrating_stim/white_mw092.bmp","red","Keep","PRACTICE","1"
"","","","","5e55e83cc65ccb5ed547cb04","bdp_wmem","Fri Mar 10 2023 12:11:32 GMT-0800 (Pacific Standard Time)","642937","Match,No Match","html-keyboard-response","34","206786","0.0-5.0-5.5","","null","","<div class='trialBorder'><div class='vertical-center'><img src='img/correct.jpg'></div><div class='respDiv'><div class='respDivL'><font style='color:orange'>Match<br>(e)</font></div><div class='respDivR'>No Match<br>(i)</div></div></div>","null","FEEDBACK","","","","","","","","","","",""
"","","","","5e55e83cc65ccb5ed547cb04","bdp_wmem","Fri Mar 10 2023 12:11:32 GMT-0800 (Pacific Standard Time)","642937","Match,No Match","instructions","35","216323","0.0-6.0","[{""page_index"":0,""viewing_time"":9537}]","9537","","","","","","","","","","","","","","",""
"","","","","5e55e83cc65ccb5ed547cb04","bdp_wmem","Fri Mar 10 2023 12:11:32 GMT-0800 (Pacific Standard Time)","642937","Match,No Match","html-keyboard-response","36","216830","0.0-7.0-1.0","","null","","<div class='trialBorder'><div class='vertical-center'><img src='img/fixation2_sml.jpg'</img></div></div>","null","FIX","","","","","","","","","","",""
"","","","","5e55e83cc65ccb5ed547cb04","bdp_wmem","Fri Mar 10 2023 12:11:32 GMT-0800 (Pacific Standard Time)","642937","Match,No Match","html-keyboard-response","37","218341","0.0-7.0-2.0","","null","","<div class='trialBorder'><div class='vertical-center'><img style='vertical-align:center; align:center' src='img/fixation2_sml.jpg'></div><div class='arrayDiv1'><div class='tc'><img class='introPic' src='trustrating_stim/white_mw013.bmp'><br><font color='red'><strong>Keep</strong></font></div></div></div>","null","ARRAY","1","trustrating_stim/white_mw013.bmp","0","Match","e","1500","","","","",""
"","","","","5e55e83cc65ccb5ed547cb04","bdp_wmem","Fri Mar 10 2023 12:11:32 GMT-0800 (Pacific Standard Time)","642937","Match,No Match","html-keyboard-response","38","222352","0.0-7.0-3.0","","null","","<div class='trialBorder'><div class='vertical-center'><img src='img/fixation2_sml.jpg'</img></div></div>","null","DELAY","","","","","","","","","","",""
"","","","","5e55e83cc65ccb5ed547cb04","bdp_wmem","Fri Mar 10 2023 12:11:32 GMT-0800 (Pacific Standard Time)","642937","Match,No Match","html-keyboard-response","39","223807","0.0-7.0-4.0","","1455","","<div class='trialBorder'><div class='targDiv'><div class='tc'><img class='introPic' src='trustrating_stim/white_mw013.bmp'><br><font color='red'><strong>Keep</strong></font></div></div><div class='respDiv'><div class='respDivL'>Match<br>(e)</div><div class='respDivR'>No Match<br>(i)</div></div></div>","e","TARGET","1","trustrating_stim/white_mw013.bmp","0","Match","e","1500","trustrating_stim/white_mw013.bmp","red","Keep","REAL","1"
"","","","","5e55e83cc65ccb5ed547cb04","bdp_wmem","Fri Mar 10 2023 12:11:32 GMT-0800 (Pacific Standard Time)","642937","Match,No Match","html-keyboard-response","40","224309","0.0-7.0-5.0","","null","","<div class='trialBorder'><div class='vertical-center'><img src='img/correct.jpg'></div><div class='respDiv'><div class='respDivL'><font style='color:orange'>Match<br>(e)</font></div><div class='respDivR'>No Match<br>(i)</div></div></div>","null","FEEDBACK","","","","","","","","","","",""
"","","","","5e55e83cc65ccb5ed547cb04","bdp_wmem","Fri Mar 10 2023 12:11:32 GMT-0800 (Pacific Standard Time)","642937","Match,No Match","html-keyboard-response","41","224811","0.0-7.0-1.1","","null","","<div class='trialBorder'><div class='vertical-center'><img src='img/fixation2_sml.jpg'</img></div></div>","null","FIX","","","","","","","","","","",""
"","","","","5e55e83cc65ccb5ed547cb04","bdp_wmem","Fri Mar 10 2023 12:11:32 GMT-0800 (Pacific Standard Time)","642937","Match,No Match","html-keyboard-response","42","227824","0.0-7.0-2.1","","null","","<div class='trialBorder'><div class='vertical-center'><img style='vertical-align:center; align:center' src='img/fixation2_sml.jpg'></div><div class='arrayDiv2'><div class='tl'><img class='introPic' src='trustrating_stim/white_mw038.bmp'><br><font color='green'><strong>Share</strong></font></div><div class='tr'><img class='introPic' src='trustrating_stim/white_mw010.bmp'><br><font color='red'><strong>Keep</strong></font></div></div></div>","null","ARRAY","2","trustrating_stim/white_mw038.bmp,trustrating_stim/white_mw010.bmp","1,0","noMatchFace","i","3000","","","","",""
"","","","","5e55e83cc65ccb5ed547cb04","bdp_wmem","Fri Mar 10 2023 12:11:32 GMT-0800 (Pacific Standard Time)","642937","Match,No Match","html-keyboard-response","43","231831","0.0-7.0-3.1","","null","","<div class='trialBorder'><div class='vertical-center'><img src='img/fixation2_sml.jpg'</img></div></div>","null","DELAY","","","","","","","","","","",""
"","","","","5e55e83cc65ccb5ed547cb04","bdp_wmem","Fri Mar 10 2023 12:11:32 GMT-0800 (Pacific Standard Time)","642937","Match,No Match","html-keyboard-response","44","233165","0.0-7.0-4.1","","1333","","<div class='trialBorder'><div class='targDiv'><div class='tc'><img class='introPic' src='trustrating_stim/white_mw078.bmp'><br><font color='red'><strong>Keep</strong></font></div></div><div class='respDiv'><div class='respDivL'>Match<br>(e)</div><div class='respDivR'>No Match<br>(i)</div></div></div>","i","TARGET","2","trustrating_stim/white_mw038.bmp,trustrating_stim/white_mw010.bmp","1,0","noMatchFace","i","3000","trustrating_stim/white_mw078.bmp","red","Keep","REAL","1"
"","","","","5e55e83cc65ccb5ed547cb04","bdp_wmem","Fri Mar 10 2023 12:11:32 GMT-0800 (Pacific Standard Time)","642937","Match,No Match","html-keyboard-response","45","233675","0.0-7.0-5.1","","null","","<div class='trialBorder'><div class='vertical-center'><img src='img/correct.jpg'></div><div class='respDiv'><div class='respDivL'>Match<br>(e)</div><div class='respDivR'><font style='color:orange'>No Match<br>(i)</font></div></div></div>","null","FEEDBACK","","","","","","","","","","",""
"","","","","5e55e83cc65ccb5ed547cb04","bdp_wmem","Fri Mar 10 2023 12:11:32 GMT-0800 (Pacific Standard Time)","642937","Match,No Match","html-keyboard-response","46","234188","0.0-7.0-1.2","","null","","<div class='trialBorder'><div class='vertical-center'><img src='img/fixation2_sml.jpg'</img></div></div>","null","FIX","","","","","","","","","","",""
"","","","","5e55e83cc65ccb5ed547cb04","bdp_wmem","Fri Mar 10 2023 12:11:32 GMT-0800 (Pacific Standard Time)","642937","Match,No Match","html-keyboard-response","47","238692","0.0-7.0-2.2","","null","","<div class='trialBorder'><div class='vertical-center'><img style='vertical-align:center; align:center' src='img/fixation2_sml.jpg'></div><div class='arrayDiv3'><div class='tl'><img class='introPic' src='trustrating_stim/white_mw078.bmp'><br><font color='red'><strong>Keep</strong></font></div><div class='tc'><img class='introPic' src='trustrating_stim/white_mw012.bmp'><br><font color='green'><strong>Share</strong></font></div><div class='tr'><img class='introPic' src='trustrating_stim/white_mw040.bmp'><br><font color='red'><strong>Keep</strong></font></div></div></div>","null","ARRAY","3","trustrating_stim/white_mw078.bmp,trustrating_stim/white_mw012.bmp,trustrating_stim/white_mw040.bmp","0,1,0","Match","e","4500","","","","",""
"","","","","5e55e83cc65ccb5ed547cb04","bdp_wmem","Fri Mar 10 2023 12:11:32 GMT-0800 (Pacific Standard Time)","642937","Match,No Match","html-keyboard-response","48","242700","0.0-7.0-3.2","","null","","<div class='trialBorder'><div class='vertical-center'><img src='img/fixation2_sml.jpg'</img></div></div>","null","DELAY","","","","","","","","","","",""
"","","","","5e55e83cc65ccb5ed547cb04","bdp_wmem","Fri Mar 10 2023 12:11:32 GMT-0800 (Pacific Standard Time)","642937","Match,No Match","html-keyboard-response","49","243926","0.0-7.0-4.2","","1226","","<div class='trialBorder'><div class='targDiv'><div class='tc'><img class='introPic' src='trustrating_stim/white_mw078.bmp'><br><font color='red'><strong>Keep</strong></font></div></div><div class='respDiv'><div class='respDivL'>Match<br>(e)</div><div class='respDivR'>No Match<br>(i)</div></div></div>","i","TARGET","3","trustrating_stim/white_mw078.bmp,trustrating_stim/white_mw012.bmp,trustrating_stim/white_mw040.bmp","0,1,0","Match","e","4500","trustrating_stim/white_mw078.bmp","red","Keep","REAL","0"
"","","","","5e55e83cc65ccb5ed547cb04","bdp_wmem","Fri Mar 10 2023 12:11:32 GMT-0800 (Pacific Standard Time)","642937","Match,No Match","html-keyboard-response","50","244438","0.0-7.0-5.2","","null","","<div class='trialBorder'><div class='vertical-center'><img src='img/error.jpg'></div><div class='respDiv'><div class='respDivL'>Match<br>(e)</div><div class='respDivR'><font style='color:orange'>No Match<br>(i)</font></div></div></div>","null","FEEDBACK","","","","","","","","","","",""
"","","","","5e55e83cc65ccb5ed547cb04","bdp_wmem","Fri Mar 10 2023 12:11:32 GMT-0800 (Pacific Standard Time)","642937","Match,No Match","html-keyboard-response","51","244949","0.0-7.0-1.3","","null","","<div class='trialBorder'><div class='vertical-center'><img src='img/fixation2_sml.jpg'</img></div></div>","null","FIX","","","","","","","","","","",""
"","","","","5e55e83cc65ccb5ed547cb04","bdp_wmem","Fri Mar 10 2023 12:11:32 GMT-0800 (Pacific Standard Time)","642937","Match,No Match","html-keyboard-response","52","249452","0.0-7.0-2.3","","null","","<div class='trialBorder'><div class='vertical-center'><img style='vertical-align:center; align:center' src='img/fixation2_sml.jpg'></div><div class='arrayDiv3'><div class='tl'><img class='introPic' src='trustrating_stim/white_mw042.bmp'><br><font color='red'><strong>Keep</strong></font></div><div class='tc'><img class='introPic' src='trustrating_stim/white_mw040.bmp'><br><font color='red'><strong>Keep</strong></font></div><div class='tr'><img class='introPic' src='trustrating_stim/white_mw070.bmp'><br><font color='green'><strong>Share</strong></font></div></div></div>","null","ARRAY","3","trustrating_stim/white_mw042.bmp,trustrating_stim/white_mw040.bmp,trustrating_stim/white_mw070.bmp","0,0,1","noMatchFace","i","4500","","","","",""
"","","","","5e55e83cc65ccb5ed547cb04","bdp_wmem","Fri Mar 10 2023 12:11:32 GMT-0800 (Pacific Standard Time)","642937","Match,No Match","html-keyboard-response","53","253456","0.0-7.0-3.3","","null","","<div class='trialBorder'><div class='vertical-center'><img src='img/fixation2_sml.jpg'</img></div></div>","null","DELAY","","","","","","","","","","",""
"","","","","5e55e83cc65ccb5ed547cb04","bdp_wmem","Fri Mar 10 2023 12:11:32 GMT-0800 (Pacific Standard Time)","642937","Match,No Match","html-keyboard-response","54","254608","0.0-7.0-4.3","","1152","","<div class='trialBorder'><div class='targDiv'><div class='tc'><img class='introPic' src='trustrating_stim/white_mw010.bmp'><br><font color='green'><strong>Share</strong></font></div></div><div class='respDiv'><div class='respDivL'>Match<br>(e)</div><div class='respDivR'>No Match<br>(i)</div></div></div>","i","TARGET","3","trustrating_stim/white_mw042.bmp,trustrating_stim/white_mw040.bmp,trustrating_stim/white_mw070.bmp","0,0,1","noMatchFace","i","4500","trustrating_stim/white_mw010.bmp","green","Share","REAL","1"
"","","","","5e55e83cc65ccb5ed547cb04","bdp_wmem","Fri Mar 10 2023 12:11:32 GMT-0800 (Pacific Standard Time)","642937","Match,No Match","html-keyboard-response","55","255114","0.0-7.0-5.3","","null","","<div class='trialBorder'><div class='vertical-center'><img src='img/correct.jpg'></div><div class='respDiv'><div class='respDivL'>Match<br>(e)</div><div class='respDivR'><font style='color:orange'>No Match<br>(i)</font></div></div></div>","null","FEEDBACK","","","","","","","","","","",""
"","","","","5e55e83cc65ccb5ed547cb04","bdp_wmem","Fri Mar 10 2023 12:11:32 GMT-0800 (Pacific Standard Time)","642937","Match,No Match","html-keyboard-response","56","255626","0.0-7.0-1.4","","null","","<div class='trialBorder'><div class='vertical-center'><img src='img/fixation2_sml.jpg'</img></div></div>","null","FIX","","","","","","","","","","",""
"","","","","5e55e83cc65ccb5ed547cb04","bdp_wmem","Fri Mar 10 2023 12:11:32 GMT-0800 (Pacific Standard Time)","642937","Match,No Match","html-keyboard-response","57","257131","0.0-7.0-2.4","","null","","<div class='trialBorder'><div class='vertical-center'><img style='vertical-align:center; align:center' src='img/fixation2_sml.jpg'></div><div class='arrayDiv1'><div class='tc'><img class='introPic' src='trustrating_stim/white_mw085.bmp'><br><font color='red'><strong>Keep</strong></font></div></div></div>","null","ARRAY","1","trustrating_stim/white_mw085.bmp","0","noMatchOutcome","i","1500","","","","",""
"","","","","5e55e83cc65ccb5ed547cb04","bdp_wmem","Fri Mar 10 2023 12:11:32 GMT-0800 (Pacific Standard Time)","642937","Match,No Match","html-keyboard-response","58","261140","0.0-7.0-3.4","","null","","<div class='trialBorder'><div class='vertical-center'><img src='img/fixation2_sml.jpg'</img></div></div>","null","DELAY","","","","","","","","","","",""
"","","","","5e55e83cc65ccb5ed547cb04","bdp_wmem","Fri Mar 10 2023 12:11:32 GMT-0800 (Pacific Standard Time)","642937","Match,No Match","html-keyboard-response","59","262644","0.0-7.0-4.4","","1503","","<div class='trialBorder'><div class='targDiv'><div class='tc'><img class='introPic' src='trustrating_stim/white_mw085.bmp'><br><font color='green'><strong>Share</strong></font></div></div><div class='respDiv'><div class='respDivL'>Match<br>(e)</div><div class='respDivR'>No Match<br>(i)</div></div></div>","i","TARGET","1","trustrating_stim/white_mw085.bmp","0","noMatchOutcome","i","1500","trustrating_stim/white_mw085.bmp","green","Share","REAL","1"
"","","","","5e55e83cc65ccb5ed547cb04","bdp_wmem","Fri Mar 10 2023 12:11:32 GMT-0800 (Pacific Standard Time)","642937","Match,No Match","html-keyboard-response","60","263145","0.0-7.0-5.4","","null","","<div class='trialBorder'><div class='vertical-center'><img src='img/correct.jpg'></div><div class='respDiv'><div class='respDivL'>Match<br>(e)</div><div class='respDivR'><font style='color:orange'>No Match<br>(i)</font></div></div></div>","null","FEEDBACK","","","","","","","","","","",""
"","","","","5e55e83cc65ccb5ed547cb04","bdp_wmem","Fri Mar 10 2023 12:11:32 GMT-0800 (Pacific Standard Time)","642937","Match,No Match","html-keyboard-response","61","263655","0.0-7.0-1.5","","null","","<div class='trialBorder'><div class='vertical-center'><img src='img/fixation2_sml.jpg'</img></div></div>","null","FIX","","","","","","","","","","",""
"","","","","5e55e83cc65ccb5ed547cb04","bdp_wmem","Fri Mar 10 2023 12:11:32 GMT-0800 (Pacific Standard Time)","642937","Match,No Match","html-keyboard-response","62","268163","0.0-7.0-2.5","","null","","<div class='trialBorder'><div class='vertical-center'><img style='vertical-align:center; align:center' src='img/fixation2_sml.jpg'></div><div class='arrayDiv3'><div class='tl'><img class='introPic' src='trustrating_stim/white_mw091.bmp'><br><font color='green'><strong>Share</strong></font></div><div class='tc'><img class='introPic' src='trustrating_stim/white_mw085.bmp'><br><font color='red'><strong>Keep</strong></font></div><div class='tr'><img class='introPic' src='trustrating_stim/white_mw010.bmp'><br><font color='red'><strong>Keep</strong></font></div></div></div>","null","ARRAY","3","trustrating_stim/white_mw091.bmp,trustrating_stim/white_mw085.bmp,trustrating_stim/white_mw010.bmp","1,0,0","noMatchOutcome","i","4500","","","","",""
"","","","","5e55e83cc65ccb5ed547cb04","bdp_wmem","Fri Mar 10 2023 12:11:32 GMT-0800 (Pacific Standard Time)","642937","Match,No Match","html-keyboard-response","63","272173","0.0-7.0-3.5","","null","","<div class='trialBorder'><div class='vertical-center'><img src='img/fixation2_sml.jpg'</img></div></div>","null","DELAY","","","","","","","","","","",""
"","","","","5e55e83cc65ccb5ed547cb04","bdp_wmem","Fri Mar 10 2023 12:11:32 GMT-0800 (Pacific Standard Time)","642937","Match,No Match","html-keyboard-response","64","274417","0.0-7.0-4.5","","2244","","<div class='trialBorder'><div class='targDiv'><div class='tc'><img class='introPic' src='trustrating_stim/white_mw091.bmp'><br><font color='red'><strong>Keep</strong></font></div></div><div class='respDiv'><div class='respDivL'>Match<br>(e)</div><div class='respDivR'>No Match<br>(i)</div></div></div>","i","TARGET","3","trustrating_stim/white_mw091.bmp,trustrating_stim/white_mw085.bmp,trustrating_stim/white_mw010.bmp","1,0,0","noMatchOutcome","i","4500","trustrating_stim/white_mw091.bmp","red","Keep","REAL","1"
"","","","","5e55e83cc65ccb5ed547cb04","bdp_wmem","Fri Mar 10 2023 12:11:32 GMT-0800 (Pacific Standard Time)","642937","Match,No Match","html-keyboard-response","65","274918","0.0-7.0-5.5","","null","","<div class='trialBorder'><div class='vertical-center'><img src='img/correct.jpg'></div><div class='respDiv'><div class='respDivL'>Match<br>(e)</div><div class='respDivR'><font style='color:orange'>No Match<br>(i)</font></div></div></div>","null","FEEDBACK","","","","","","","","","","",""
"","","","","5e55e83cc65ccb5ed547cb04","bdp_wmem","Fri Mar 10 2023 12:11:32 GMT-0800 (Pacific Standard Time)","642937","Match,No Match","html-keyboard-response","66","275434","0.0-7.0-1.6","","null","","<div class='trialBorder'><div class='vertical-center'><img src='img/fixation2_sml.jpg'</img></div></div>","null","FIX","","","","","","","","","","",""
"","","","","5e55e83cc65ccb5ed547cb04","bdp_wmem","Fri Mar 10 2023 12:11:32 GMT-0800 (Pacific Standard Time)","642937","Match,No Match","html-keyboard-response","67","276944","0.0-7.0-2.6","","null","","<div class='trialBorder'><div class='vertical-center'><img style='vertical-align:center; align:center' src='img/fixation2_sml.jpg'></div><div class='arrayDiv1'><div class='tc'><img class='introPic' src='trustrating_stim/white_mw013.bmp'><br><font color='green'><strong>Share</strong></font></div></div></div>","null","ARRAY","1","trustrating_stim/white_mw013.bmp","1","noMatchFace","i","1500","","","","",""
"","","","","5e55e83cc65ccb5ed547cb04","bdp_wmem","Fri Mar 10 2023 12:11:32 GMT-0800 (Pacific Standard Time)","642937","Match,No Match","html-keyboard-response","68","280947","0.0-7.0-3.6","","null","","<div class='trialBorder'><div class='vertical-center'><img src='img/fixation2_sml.jpg'</img></div></div>","null","DELAY","","","","","","","","","","",""
"","","","","5e55e83cc65ccb5ed547cb04","bdp_wmem","Fri Mar 10 2023 12:11:32 GMT-0800 (Pacific Standard Time)","642937","Match,No Match","html-keyboard-response","69","281844","0.0-7.0-4.6","","895","","<div class='trialBorder'><div class='targDiv'><div class='tc'><img class='introPic' src='trustrating_stim/white_mw012.bmp'><br><font color='green'><strong>Share</strong></font></div></div><div class='respDiv'><div class='respDivL'>Match<br>(e)</div><div class='respDivR'>No Match<br>(i)</div></div></div>","i","TARGET","1","trustrating_stim/white_mw013.bmp","1","noMatchFace","i","1500","trustrating_stim/white_mw012.bmp","green","Share","REAL","1"
"","","","","5e55e83cc65ccb5ed547cb04","bdp_wmem","Fri Mar 10 2023 12:11:32 GMT-0800 (Pacific Standard Time)","642937","Match,No Match","html-keyboard-response","70","282350","0.0-7.0-5.6","","null","","<div class='trialBorder'><div class='vertical-center'><img src='img/correct.jpg'></div><div class='respDiv'><div class='respDivL'>Match<br>(e)</div><div class='respDivR'><font style='color:orange'>No Match<br>(i)</font></div></div></div>","null","FEEDBACK","","","","","","","","","","",""
"","","","","5e55e83cc65ccb5ed547cb04","bdp_wmem","Fri Mar 10 2023 12:11:32 GMT-0800 (Pacific Standard Time)","642937","Match,No Match","html-keyboard-response","71","282851","0.0-7.0-1.7","","null","","<div class='trialBorder'><div class='vertical-center'><img src='img/fixation2_sml.jpg'</img></div></div>","null","FIX","","","","","","","","","","",""
"","","","","5e55e83cc65ccb5ed547cb04","bdp_wmem","Fri Mar 10 2023 12:11:32 GMT-0800 (Pacific Standard Time)","642937","Match,No Match","html-keyboard-response","72","285863","0.0-7.0-2.7","","null","","<div class='trialBorder'><div class='vertical-center'><img style='vertical-align:center; align:center' src='img/fixation2_sml.jpg'></div><div class='arrayDiv2'><div class='tl'><img class='introPic' src='trustrating_stim/white_mw013.bmp'><br><font color='green'><strong>Share</strong></font></div><div class='tr'><img class='introPic' src='trustrating_stim/white_mw042.bmp'><br><font color='red'><strong>Keep</strong></font></div></div></div>","null","ARRAY","2","trustrating_stim/white_mw013.bmp,trustrating_stim/white_mw042.bmp","1,0","noMatchFace","i","3000","","","","",""
"","","","","5e55e83cc65ccb5ed547cb04","bdp_wmem","Fri Mar 10 2023 12:11:32 GMT-0800 (Pacific Standard Time)","642937","Match,No Match","html-keyboard-response","73","289871","0.0-7.0-3.7","","null","","<div class='trialBorder'><div class='vertical-center'><img src='img/fixation2_sml.jpg'</img></div></div>","null","DELAY","","","","","","","","","","",""
"","","","","5e55e83cc65ccb5ed547cb04","bdp_wmem","Fri Mar 10 2023 12:11:32 GMT-0800 (Pacific Standard Time)","642937","Match,No Match","html-keyboard-response","74","290758","0.0-7.0-4.7","","886","","<div class='trialBorder'><div class='targDiv'><div class='tc'><img class='introPic' src='trustrating_stim/white_mw070.bmp'><br><font color='green'><strong>Share</strong></font></div></div><div class='respDiv'><div class='respDivL'>Match<br>(e)</div><div class='respDivR'>No Match<br>(i)</div></div></div>","i","TARGET","2","trustrating_stim/white_mw013.bmp,trustrating_stim/white_mw042.bmp","1,0","noMatchFace","i","3000","trustrating_stim/white_mw070.bmp","green","Share","REAL","1"
"","","","","5e55e83cc65ccb5ed547cb04","bdp_wmem","Fri Mar 10 2023 12:11:32 GMT-0800 (Pacific Standard Time)","642937","Match,No Match","html-keyboard-response","75","291263","0.0-7.0-5.7","","null","","<div class='trialBorder'><div class='vertical-center'><img src='img/correct.jpg'></div><div class='respDiv'><div class='respDivL'>Match<br>(e)</div><div class='respDivR'><font style='color:orange'>No Match<br>(i)</font></div></div></div>","null","FEEDBACK","","","","","","","","","","",""
"","","","","5e55e83cc65ccb5ed547cb04","bdp_wmem","Fri Mar 10 2023 12:11:32 GMT-0800 (Pacific Standard Time)","642937","Match,No Match","html-keyboard-response","76","291765","0.0-7.0-1.8","","null","","<div class='trialBorder'><div class='vertical-center'><img src='img/fixation2_sml.jpg'</img></div></div>","null","FIX","","","","","","","","","","",""
"","","","","5e55e83cc65ccb5ed547cb04","bdp_wmem","Fri Mar 10 2023 12:11:32 GMT-0800 (Pacific Standard Time)","642937","Match,No Match","html-keyboard-response","77","296275","0.0-7.0-2.8","","null","","<div class='trialBorder'><div class='vertical-center'><img style='vertical-align:center; align:center' src='img/fixation2_sml.jpg'></div><div class='arrayDiv3'><div class='tl'><img class='introPic' src='trustrating_stim/white_mw038.bmp'><br><font color='red'><strong>Keep</strong></font></div><div class='tc'><img class='introPic' src='trustrating_stim/white_mw078.bmp'><br><font color='green'><strong>Share</strong></font></div><div class='tr'><img class='introPic' src='trustrating_stim/white_mw012.bmp'><br><font color='green'><strong>Share</strong></font></div></div></div>","null","ARRAY","3","trustrating_stim/white_mw038.bmp,trustrating_stim/white_mw078.bmp,trustrating_stim/white_mw012.bmp","0,1,1","noMatchFace","i","4500","","","","",""
"","","","","5e55e83cc65ccb5ed547cb04","bdp_wmem","Fri Mar 10 2023 12:11:32 GMT-0800 (Pacific Standard Time)","642937","Match,No Match","html-keyboard-response","78","300277","0.0-7.0-3.8","","null","","<div class='trialBorder'><div class='vertical-center'><img src='img/fixation2_sml.jpg'</img></div></div>","null","DELAY","","","","","","","","","","",""
"","","","","5e55e83cc65ccb5ed547cb04","bdp_wmem","Fri Mar 10 2023 12:11:32 GMT-0800 (Pacific Standard Time)","642937","Match,No Match","html-keyboard-response","79","301002","0.0-7.0-4.8","","725","","<div class='trialBorder'><div class='targDiv'><div class='tc'><img class='introPic' src='trustrating_stim/white_mw013.bmp'><br><font color='green'><strong>Share</strong></font></div></div><div class='respDiv'><div class='respDivL'>Match<br>(e)</div><div class='respDivR'>No Match<br>(i)</div></div></div>","e","TARGET","3","trustrating_stim/white_mw038.bmp,trustrating_stim/white_mw078.bmp,trustrating_stim/white_mw012.bmp","0,1,1","noMatchFace","i","4500","trustrating_stim/white_mw013.bmp","green","Share","REAL","0"
"","","","","5e55e83cc65ccb5ed547cb04","bdp_wmem","Fri Mar 10 2023 12:11:32 GMT-0800 (Pacific Standard Time)","642937","Match,No Match","html-keyboard-response","80","301505","0.0-7.0-5.8","","null","","<div class='trialBorder'><div class='vertical-center'><img src='img/error.jpg'></div><div class='respDiv'><div class='respDivL'><font style='color:orange'>Match<br>(e)</font></div><div class='respDivR'>No Match<br>(i)</div></div></div>","null","FEEDBACK","","","","","","","","","","",""
"","","","","5e55e83cc65ccb5ed547cb04","bdp_wmem","Fri Mar 10 2023 12:11:32 GMT-0800 (Pacific Standard Time)","642937","Match,No Match","html-keyboard-response","81","302008","0.0-7.0-1.9","","null","","<div class='trialBorder'><div class='vertical-center'><img src='img/fixation2_sml.jpg'</img></div></div>","null","FIX","","","","","","","","","","",""
"","","","","5e55e83cc65ccb5ed547cb04","bdp_wmem","Fri Mar 10 2023 12:11:32 GMT-0800 (Pacific Standard Time)","642937","Match,No Match","html-keyboard-response","82","306517","0.0-7.0-2.9","","null","","<div class='trialBorder'><div class='vertical-center'><img style='vertical-align:center; align:center' src='img/fixation2_sml.jpg'></div><div class='arrayDiv3'><div class='tl'><img class='introPic' src='trustrating_stim/white_mw010.bmp'><br><font color='red'><strong>Keep</strong></font></div><div class='tc'><img class='introPic' src='trustrating_stim/white_mw091.bmp'><br><font color='red'><strong>Keep</strong></font></div><div class='tr'><img class='introPic' src='trustrating_stim/white_mw092.bmp'><br><font color='green'><strong>Share</strong></font></div></div></div>","null","ARRAY","3","trustrating_stim/white_mw010.bmp,trustrating_stim/white_mw091.bmp,trustrating_stim/white_mw092.bmp","0,0,1","Match","e","4500","","","","",""
"","","","","5e55e83cc65ccb5ed547cb04","bdp_wmem","Fri Mar 10 2023 12:11:32 GMT-0800 (Pacific Standard Time)","642937","Match,No Match","html-keyboard-response","83","310518","0.0-7.0-3.9","","null","","<div class='trialBorder'><div class='vertical-center'><img src='img/fixation2_sml.jpg'</img></div></div>","null","DELAY","","","","","","","","","","",""
"","","","","5e55e83cc65ccb5ed547cb04","bdp_wmem","Fri Mar 10 2023 12:11:32 GMT-0800 (Pacific Standard Time)","642937","Match,No Match","html-keyboard-response","84","311036","0.0-7.0-4.9","","517","","<div class='trialBorder'><div class='targDiv'><div class='tc'><img class='introPic' src='trustrating_stim/white_mw010.bmp'><br><font color='red'><strong>Keep</strong></font></div></div><div class='respDiv'><div class='respDivL'>Match<br>(e)</div><div class='respDivR'>No Match<br>(i)</div></div></div>","i","TARGET","3","trustrating_stim/white_mw010.bmp,trustrating_stim/white_mw091.bmp,trustrating_stim/white_mw092.bmp","0,0,1","Match","e","4500","trustrating_stim/white_mw010.bmp","red","Keep","REAL","0"
"","","","","5e55e83cc65ccb5ed547cb04","bdp_wmem","Fri Mar 10 2023 12:11:32 GMT-0800 (Pacific Standard Time)","642937","Match,No Match","html-keyboard-response","85","311547","0.0-7.0-5.9","","null","","<div class='trialBorder'><div class='vertical-center'><img src='img/error.jpg'></div><div class='respDiv'><div class='respDivL'>Match<br>(e)</div><div class='respDivR'><font style='color:orange'>No Match<br>(i)</font></div></div></div>","null","FEEDBACK","","","","","","","","","","",""
"","","","","5e55e83cc65ccb5ed547cb04","bdp_wmem","Fri Mar 10 2023 12:11:32 GMT-0800 (Pacific Standard Time)","642937","Match,No Match","html-keyboard-response","86","312055","0.0-7.0-1.10","","null","","<div class='trialBorder'><div class='vertical-center'><img src='img/fixation2_sml.jpg'</img></div></div>","null","FIX","","","","","","","","","","",""
"","","","","5e55e83cc65ccb5ed547cb04","bdp_wmem","Fri Mar 10 2023 12:11:32 GMT-0800 (Pacific Standard Time)","642937","Match,No Match","html-keyboard-response","87","316565","0.0-7.0-2.10","","null","","<div class='trialBorder'><div class='vertical-center'><img style='vertical-align:center; align:center' src='img/fixation2_sml.jpg'></div><div class='arrayDiv3'><div class='tl'><img class='introPic' src='trustrating_stim/white_mw038.bmp'><br><font color='red'><strong>Keep</strong></font></div><div class='tc'><img class='introPic' src='trustrating_stim/white_mw078.bmp'><br><font color='red'><strong>Keep</strong></font></div><div class='tr'><img class='introPic' src='trustrating_stim/white_mw070.bmp'><br><font color='green'><strong>Share</strong></font></div></div></div>","null","ARRAY","3","trustrating_stim/white_mw038.bmp,trustrating_stim/white_mw078.bmp,trustrating_stim/white_mw070.bmp","0,0,1","noMatchOutcome","i","4500","","","","",""
"","","","","5e55e83cc65ccb5ed547cb04","bdp_wmem","Fri Mar 10 2023 12:11:32 GMT-0800 (Pacific Standard Time)","642937","Match,No Match","html-keyboard-response","88","320571","0.0-7.0-3.10","","null","","<div class='trialBorder'><div class='vertical-center'><img src='img/fixation2_sml.jpg'</img></div></div>","null","DELAY","","","","","","","","","","",""
"","","","","5e55e83cc65ccb5ed547cb04","bdp_wmem","Fri Mar 10 2023 12:11:32 GMT-0800 (Pacific Standard Time)","642937","Match,No Match","html-keyboard-response","89","321153","0.0-7.0-4.10","","582","","<div class='trialBorder'><div class='targDiv'><div class='tc'><img class='introPic' src='trustrating_stim/white_mw070.bmp'><br><font color='red'><strong>Keep</strong></font></div></div><div class='respDiv'><div class='respDivL'>Match<br>(e)</div><div class='respDivR'>No Match<br>(i)</div></div></div>","e","TARGET","3","trustrating_stim/white_mw038.bmp,trustrating_stim/white_mw078.bmp,trustrating_stim/white_mw070.bmp","0,0,1","noMatchOutcome","i","4500","trustrating_stim/white_mw070.bmp","red","Keep","REAL","0"
"","","","","5e55e83cc65ccb5ed547cb04","bdp_wmem","Fri Mar 10 2023 12:11:32 GMT-0800 (Pacific Standard Time)","642937","Match,No Match","html-keyboard-response","90","321654","0.0-7.0-5.10","","null","","<div class='trialBorder'><div class='vertical-center'><img src='img/error.jpg'></div><div class='respDiv'><div class='respDivL'><font style='color:orange'>Match<br>(e)</font></div><div class='respDivR'>No Match<br>(i)</div></div></div>","null","FEEDBACK","","","","","","","","","","",""
"","","","","5e55e83cc65ccb5ed547cb04","bdp_wmem","Fri Mar 10 2023 12:11:32 GMT-0800 (Pacific Standard Time)","642937","Match,No Match","html-keyboard-response","91","322169","0.0-7.0-1.11","","null","","<div class='trialBorder'><div class='vertical-center'><img src='img/fixation2_sml.jpg'</img></div></div>","null","FIX","","","","","","","","","","",""
"","","","","5e55e83cc65ccb5ed547cb04","bdp_wmem","Fri Mar 10 2023 12:11:32 GMT-0800 (Pacific Standard Time)","642937","Match,No Match","html-keyboard-response","92","326677","0.0-7.0-2.11","","null","","<div class='trialBorder'><div class='vertical-center'><img style='vertical-align:center; align:center' src='img/fixation2_sml.jpg'></div><div class='arrayDiv3'><div class='tl'><img class='introPic' src='trustrating_stim/white_mw013.bmp'><br><font color='green'><strong>Share</strong></font></div><div class='tc'><img class='introPic' src='trustrating_stim/white_mw040.bmp'><br><font color='red'><strong>Keep</strong></font></div><div class='tr'><img class='introPic' src='trustrating_stim/white_mw012.bmp'><br><font color='red'><strong>Keep</strong></font></div></div></div>","null","ARRAY","3","trustrating_stim/white_mw013.bmp,trustrating_stim/white_mw040.bmp,trustrating_stim/white_mw012.bmp","1,0,0","Match","e","4500","","","","",""
"","","","","5e55e83cc65ccb5ed547cb04","bdp_wmem","Fri Mar 10 2023 12:11:32 GMT-0800 (Pacific Standard Time)","642937","Match,No Match","html-keyboard-response","93","330693","0.0-7.0-3.11","","null","","<div class='trialBorder'><div class='vertical-center'><img src='img/fixation2_sml.jpg'</img></div></div>","null","DELAY","","","","","","","","","","",""
"","","","","5e55e83cc65ccb5ed547cb04","bdp_wmem","Fri Mar 10 2023 12:11:32 GMT-0800 (Pacific Standard Time)","642937","Match,No Match","html-keyboard-response","94","331175","0.0-7.0-4.11","","482","","<div class='trialBorder'><div class='targDiv'><div class='tc'><img class='introPic' src='trustrating_stim/white_mw040.bmp'><br><font color='red'><strong>Keep</strong></font></div></div><div class='respDiv'><div class='respDivL'>Match<br>(e)</div><div class='respDivR'>No Match<br>(i)</div></div></div>","i","TARGET","3","trustrating_stim/white_mw013.bmp,trustrating_stim/white_mw040.bmp,trustrating_stim/white_mw012.bmp","1,0,0","Match","e","4500","trustrating_stim/white_mw040.bmp","red","Keep","REAL","0"
"","","","","5e55e83cc65ccb5ed547cb04","bdp_wmem","Fri Mar 10 2023 12:11:32 GMT-0800 (Pacific Standard Time)","642937","Match,No Match","html-keyboard-response","95","331682","0.0-7.0-5.11","","null","","<div class='trialBorder'><div class='vertical-center'><img src='img/error.jpg'></div><div class='respDiv'><div class='respDivL'>Match<br>(e)</div><div class='respDivR'><font style='color:orange'>No Match<br>(i)</font></div></div></div>","null","FEEDBACK","","","","","","","","","","",""
"","","","","5e55e83cc65ccb5ed547cb04","bdp_wmem","Fri Mar 10 2023 12:11:32 GMT-0800 (Pacific Standard Time)","642937","Match,No Match","html-keyboard-response","96","332191","0.0-7.0-1.12","","null","","<div class='trialBorder'><div class='vertical-center'><img src='img/fixation2_sml.jpg'</img></div></div>","null","FIX","","","","","","","","","","",""
"","","","","5e55e83cc65ccb5ed547cb04","bdp_wmem","Fri Mar 10 2023 12:11:32 GMT-0800 (Pacific Standard Time)","642937","Match,No Match","html-keyboard-response","97","335201","0.0-7.0-2.12","","null","","<div class='trialBorder'><div class='vertical-center'><img style='vertical-align:center; align:center' src='img/fixation2_sml.jpg'></div><div class='arrayDiv2'><div class='tl'><img class='introPic' src='trustrating_stim/white_mw040.bmp'><br><font color='red'><strong>Keep</strong></font></div><div class='tr'><img class='introPic' src='trustrating_stim/white_mw091.bmp'><br><font color='green'><strong>Share</strong></font></div></div></div>","null","ARRAY","2","trustrating_stim/white_mw040.bmp,trustrating_stim/white_mw091.bmp","0,1","noMatchOutcome","i","3000","","","","",""
"","","","","5e55e83cc65ccb5ed547cb04","bdp_wmem","Fri Mar 10 2023 12:11:32 GMT-0800 (Pacific Standard Time)","642937","Match,No Match","html-keyboard-response","98","339203","0.0-7.0-3.12","","null","","<div class='trialBorder'><div class='vertical-center'><img src='img/fixation2_sml.jpg'</img></div></div>","null","DELAY","","","","","","","","","","",""
"","","","","5e55e83cc65ccb5ed547cb04","bdp_wmem","Fri Mar 10 2023 12:11:32 GMT-0800 (Pacific Standard Time)","642937","Match,No Match","html-keyboard-response","99","340056","0.0-7.0-4.12","","852","","<div class='trialBorder'><div class='targDiv'><div class='tc'><img class='introPic' src='trustrating_stim/white_mw040.bmp'><br><font color='green'><strong>Share</strong></font></div></div><div class='respDiv'><div class='respDivL'>Match<br>(e)</div><div class='respDivR'>No Match<br>(i)</div></div></div>","e","TARGET","2","trustrating_stim/white_mw040.bmp,trustrating_stim/white_mw091.bmp","0,1","noMatchOutcome","i","3000","trustrating_stim/white_mw040.bmp","green","Share","REAL","0"
"","","","","5e55e83cc65ccb5ed547cb04","bdp_wmem","Fri Mar 10 2023 12:11:32 GMT-0800 (Pacific Standard Time)","642937","Match,No Match","html-keyboard-response","100","340559","0.0-7.0-5.12","","null","","<div class='trialBorder'><div class='vertical-center'><img src='img/error.jpg'></div><div class='respDiv'><div class='respDivL'><font style='color:orange'>Match<br>(e)</font></div><div class='respDivR'>No Match<br>(i)</div></div></div>","null","FEEDBACK","","","","","","","","","","",""
"","","","","5e55e83cc65ccb5ed547cb04","bdp_wmem","Fri Mar 10 2023 12:11:32 GMT-0800 (Pacific Standard Time)","642937","Match,No Match","html-keyboard-response","101","341071","0.0-7.0-1.13","","null","","<div class='trialBorder'><div class='vertical-center'><img src='img/fixation2_sml.jpg'</img></div></div>","null","FIX","","","","","","","","","","",""
"","","","","5e55e83cc65ccb5ed547cb04","bdp_wmem","Fri Mar 10 2023 12:11:32 GMT-0800 (Pacific Standard Time)","642937","Match,No Match","html-keyboard-response","102","345573","0.0-7.0-2.13","","null","","<div class='trialBorder'><div class='vertical-center'><img style='vertical-align:center; align:center' src='img/fixation2_sml.jpg'></div><div class='arrayDiv3'><div class='tl'><img class='introPic' src='trustrating_stim/white_mw003.bmp'><br><font color='red'><strong>Keep</strong></font></div><div class='tc'><img class='introPic' src='trustrating_stim/white_mw038.bmp'><br><font color='red'><strong>Keep</strong></font></div><div class='tr'><img class='introPic' src='trustrating_stim/white_mw078.bmp'><br><font color='green'><strong>Share</strong></font></div></div></div>","null","ARRAY","3","trustrating_stim/white_mw003.bmp,trustrating_stim/white_mw038.bmp,trustrating_stim/white_mw078.bmp","0,0,1","Match","e","4500","","","","",""
"","","","","5e55e83cc65ccb5ed547cb04","bdp_wmem","Fri Mar 10 2023 12:11:32 GMT-0800 (Pacific Standard Time)","642937","Match,No Match","html-keyboard-response","103","349578","0.0-7.0-3.13","","null","","<div class='trialBorder'><div class='vertical-center'><img src='img/fixation2_sml.jpg'</img></div></div>","null","DELAY","","","","","","","","","","",""
"","","","","5e55e83cc65ccb5ed547cb04","bdp_wmem","Fri Mar 10 2023 12:11:32 GMT-0800 (Pacific Standard Time)","642937","Match,No Match","html-keyboard-response","104","350525","0.0-7.0-4.13","","947","","<div class='trialBorder'><div class='targDiv'><div class='tc'><img class='introPic' src='trustrating_stim/white_mw003.bmp'><br><font color='red'><strong>Keep</strong></font></div></div><div class='respDiv'><div class='respDivL'>Match<br>(e)</div><div class='respDivR'>No Match<br>(i)</div></div></div>","e","TARGET","3","trustrating_stim/white_mw003.bmp,trustrating_stim/white_mw038.bmp,trustrating_stim/white_mw078.bmp","0,0,1","Match","e","4500","trustrating_stim/white_mw003.bmp","red","Keep","REAL","1"
"","","","","5e55e83cc65ccb5ed547cb04","bdp_wmem","Fri Mar 10 2023 12:11:32 GMT-0800 (Pacific Standard Time)","642937","Match,No Match","html-keyboard-response","105","351038","0.0-7.0-5.13","","null","","<div class='trialBorder'><div class='vertical-center'><img src='img/correct.jpg'></div><div class='respDiv'><div class='respDivL'><font style='color:orange'>Match<br>(e)</font></div><div class='respDivR'>No Match<br>(i)</div></div></div>","null","FEEDBACK","","","","","","","","","","",""
"","","","","5e55e83cc65ccb5ed547cb04","bdp_wmem","Fri Mar 10 2023 12:11:32 GMT-0800 (Pacific Standard Time)","642937","Match,No Match","html-keyboard-response","106","351551","0.0-7.0-1.14","","null","","<div class='trialBorder'><div class='vertical-center'><img src='img/fixation2_sml.jpg'</img></div></div>","null","FIX","","","","","","","","","","",""
"","","","","5e55e83cc65ccb5ed547cb04","bdp_wmem","Fri Mar 10 2023 12:11:32 GMT-0800 (Pacific Standard Time)","642937","Match,No Match","html-keyboard-response","107","354563","0.0-7.0-2.14","","null","","<div class='trialBorder'><div class='vertical-center'><img style='vertical-align:center; align:center' src='img/fixation2_sml.jpg'></div><div class='arrayDiv2'><div class='tl'><img class='introPic' src='trustrating_stim/white_mw042.bmp'><br><font color='green'><strong>Share</strong></font></div><div class='tr'><img class='introPic' src='trustrating_stim/white_mw070.bmp'><br><font color='red'><strong>Keep</strong></font></div></div></div>","null","ARRAY","2","trustrating_stim/white_mw042.bmp,trustrating_stim/white_mw070.bmp","1,0","Match","e","3000","","","","",""
"","","","","5e55e83cc65ccb5ed547cb04","bdp_wmem","Fri Mar 10 2023 12:11:32 GMT-0800 (Pacific Standard Time)","642937","Match,No Match","html-keyboard-response","108","358576","0.0-7.0-3.14","","null","","<div class='trialBorder'><div class='vertical-center'><img src='img/fixation2_sml.jpg'</img></div></div>","null","DELAY","","","","","","","","","","",""
"","","","","5e55e83cc65ccb5ed547cb04","bdp_wmem","Fri Mar 10 2023 12:11:32 GMT-0800 (Pacific Standard Time)","642937","Match,No Match","html-keyboard-response","109","359223","0.0-7.0-4.14","","647","","<div class='trialBorder'><div class='targDiv'><div class='tc'><img class='introPic' src='trustrating_stim/white_mw070.bmp'><br><font color='red'><strong>Keep</strong></font></div></div><div class='respDiv'><div class='respDivL'>Match<br>(e)</div><div class='respDivR'>No Match<br>(i)</div></div></div>","e","TARGET","2","trustrating_stim/white_mw042.bmp,trustrating_stim/white_mw070.bmp","1,0","Match","e","3000","trustrating_stim/white_mw070.bmp","red","Keep","REAL","1"
"","","","","5e55e83cc65ccb5ed547cb04","bdp_wmem","Fri Mar 10 2023 12:11:32 GMT-0800 (Pacific Standard Time)","642937","Match,No Match","html-keyboard-response","110","359732","0.0-7.0-5.14","","null","","<div class='trialBorder'><div class='vertical-center'><img src='img/correct.jpg'></div><div class='respDiv'><div class='respDivL'><font style='color:orange'>Match<br>(e)</font></div><div class='respDivR'>No Match<br>(i)</div></div></div>","null","FEEDBACK","","","","","","","","","","",""
"","","","","5e55e83cc65ccb5ed547cb04","bdp_wmem","Fri Mar 10 2023 12:11:32 GMT-0800 (Pacific Standard Time)","642937","Match,No Match","html-keyboard-response","111","360234","0.0-7.0-1.15","","null","","<div class='trialBorder'><div class='vertical-center'><img src='img/fixation2_sml.jpg'</img></div></div>","null","FIX","","","","","","","","","","",""
"","","","","5e55e83cc65ccb5ed547cb04","bdp_wmem","Fri Mar 10 2023 12:11:32 GMT-0800 (Pacific Standard Time)","642937","Match,No Match","html-keyboard-response","112","364745","0.0-7.0-2.15","","null","","<div class='trialBorder'><div class='vertical-center'><img style='vertical-align:center; align:center' src='img/fixation2_sml.jpg'></div><div class='arrayDiv3'><div class='tl'><img class='introPic' src='trustrating_stim/white_mw012.bmp'><br><font color='red'><strong>Keep</strong></font></div><div class='tc'><img class='introPic' src='trustrating_stim/white_mw091.bmp'><br><font color='red'><strong>Keep</strong></font></div><div class='tr'><img class='introPic' src='trustrating_stim/white_mw042.bmp'><br><font color='green'><strong>Share</strong></font></div></div></div>","null","ARRAY","3","trustrating_stim/white_mw012.bmp,trustrating_stim/white_mw091.bmp,trustrating_stim/white_mw042.bmp","0,0,1","Match","e","4500","","","","",""
"","","","","5e55e83cc65ccb5ed547cb04","bdp_wmem","Fri Mar 10 2023 12:11:32 GMT-0800 (Pacific Standard Time)","642937","Match,No Match","html-keyboard-response","113","368753","0.0-7.0-3.15","","null","","<div class='trialBorder'><div class='vertical-center'><img src='img/fixation2_sml.jpg'</img></div></div>","null","DELAY","","","","","","","","","","",""
"","","","","5e55e83cc65ccb5ed547cb04","bdp_wmem","Fri Mar 10 2023 12:11:32 GMT-0800 (Pacific Standard Time)","642937","Match,No Match","html-keyboard-response","114","369383","0.0-7.0-4.15","","630","","<div class='trialBorder'><div class='targDiv'><div class='tc'><img class='introPic' src='trustrating_stim/white_mw012.bmp'><br><font color='red'><strong>Keep</strong></font></div></div><div class='respDiv'><div class='respDivL'>Match<br>(e)</div><div class='respDivR'>No Match<br>(i)</div></div></div>","e","TARGET","3","trustrating_stim/white_mw012.bmp,trustrating_stim/white_mw091.bmp,trustrating_stim/white_mw042.bmp","0,0,1","Match","e","4500","trustrating_stim/white_mw012.bmp","red","Keep","REAL","1"
"","","","","5e55e83cc65ccb5ed547cb04","bdp_wmem","Fri Mar 10 2023 12:11:32 GMT-0800 (Pacific Standard Time)","642937","Match,No Match","html-keyboard-response","115","369884","0.0-7.0-5.15","","null","","<div class='trialBorder'><div class='vertical-center'><img src='img/correct.jpg'></div><div class='respDiv'><div class='respDivL'><font style='color:orange'>Match<br>(e)</font></div><div class='respDivR'>No Match<br>(i)</div></div></div>","null","FEEDBACK","","","","","","","","","","",""
"","","","","5e55e83cc65ccb5ed547cb04","bdp_wmem","Fri Mar 10 2023 12:11:32 GMT-0800 (Pacific Standard Time)","642937","Match,No Match","html-keyboard-response","116","370398","0.0-7.0-1.16","","null","","<div class='trialBorder'><div class='vertical-center'><img src='img/fixation2_sml.jpg'</img></div></div>","null","FIX","","","","","","","","","","",""
"","","","","5e55e83cc65ccb5ed547cb04","bdp_wmem","Fri Mar 10 2023 12:11:32 GMT-0800 (Pacific Standard Time)","642937","Match,No Match","html-keyboard-response","117","373399","0.0-7.0-2.16","","null","","<div class='trialBorder'><div class='vertical-center'><img style='vertical-align:center; align:center' src='img/fixation2_sml.jpg'></div><div class='arrayDiv2'><div class='tl'><img class='introPic' src='trustrating_stim/white_mw092.bmp'><br><font color='red'><strong>Keep</strong></font></div><div class='tr'><img class='introPic' src='trustrating_stim/white_mw038.bmp'><br><font color='green'><strong>Share</strong></font></div></div></div>","null","ARRAY","2","trustrating_stim/white_mw092.bmp,trustrating_stim/white_mw038.bmp","0,1","Match","e","3000","","","","",""
"","","","","5e55e83cc65ccb5ed547cb04","bdp_wmem","Fri Mar 10 2023 12:11:32 GMT-0800 (Pacific Standard Time)","642937","Match,No Match","html-keyboard-response","118","377403","0.0-7.0-3.16","","null","","<div class='trialBorder'><div class='vertical-center'><img src='img/fixation2_sml.jpg'</img></div></div>","null","DELAY","","","","","","","","","","",""
"","","","","5e55e83cc65ccb5ed547cb04","bdp_wmem","Fri Mar 10 2023 12:11:32 GMT-0800 (Pacific Standard Time)","642937","Match,No Match","html-keyboard-response","119","377426","0.0-7.0-4.16","","23","","<div class='trialBorder'><div class='targDiv'><div class='tc'><img class='introPic' src='trustrating_stim/white_mw092.bmp'><br><font color='red'><strong>Keep</strong></font></div></div><div class='respDiv'><div class='respDivL'>Match<br>(e)</div><div class='respDivR'>No Match<br>(i)</div></div></div>","i","TARGET","2","trustrating_stim/white_mw092.bmp,trustrating_stim/white_mw038.bmp","0,1","Match","e","3000","trustrating_stim/white_mw092.bmp","red","Keep","REAL","0"
"","","","","5e55e83cc65ccb5ed547cb04","bdp_wmem","Fri Mar 10 2023 12:11:32 GMT-0800 (Pacific Standard Time)","642937","Match,No Match","html-keyboard-response","120","377938","0.0-7.0-5.16","","null","","<div class='trialBorder'><div class='vertical-center'><img src='img/error.jpg'></div><div class='respDiv'><div class='respDivL'>Match<br>(e)</div><div class='respDivR'><font style='color:orange'>No Match<br>(i)</font></div></div></div>","null","FEEDBACK","","","","","","","","","","",""
"","","","","5e55e83cc65ccb5ed547cb04","bdp_wmem","Fri Mar 10 2023 12:11:32 GMT-0800 (Pacific Standard Time)","642937","Match,No Match","html-keyboard-response","121","378441","0.0-7.0-1.17","","null","","<div class='trialBorder'><div class='vertical-center'><img src='img/fixation2_sml.jpg'</img></div></div>","null","FIX","","","","","","","","","","",""
"","","","","5e55e83cc65ccb5ed547cb04","bdp_wmem","Fri Mar 10 2023 12:11:32 GMT-0800 (Pacific Standard Time)","642937","Match,No Match","html-keyboard-response","122","379950","0.0-7.0-2.17","","null","","<div class='trialBorder'><div class='vertical-center'><img style='vertical-align:center; align:center' src='img/fixation2_sml.jpg'></div><div class='arrayDiv1'><div class='tc'><img class='introPic' src='trustrating_stim/white_mw003.bmp'><br><font color='green'><strong>Share</strong></font></div></div></div>","null","ARRAY","1","trustrating_stim/white_mw003.bmp","1","Match","e","1500","","","","",""
"","","","","5e55e83cc65ccb5ed547cb04","bdp_wmem","Fri Mar 10 2023 12:11:32 GMT-0800 (Pacific Standard Time)","642937","Match,No Match","html-keyboard-response","123","383953","0.0-7.0-3.17","","null","","<div class='trialBorder'><div class='vertical-center'><img src='img/fixation2_sml.jpg'</img></div></div>","null","DELAY","","","","","","","","","","",""
"","","","","5e55e83cc65ccb5ed547cb04","bdp_wmem","Fri Mar 10 2023 12:11:32 GMT-0800 (Pacific Standard Time)","642937","Match,No Match","html-keyboard-response","124","384313","0.0-7.0-4.17","","360","","<div class='trialBorder'><div class='targDiv'><div class='tc'><img class='introPic' src='trustrating_stim/white_mw003.bmp'><br><font color='green'><strong>Share</strong></font></div></div><div class='respDiv'><div class='respDivL'>Match<br>(e)</div><div class='respDivR'>No Match<br>(i)</div></div></div>","e","TARGET","1","trustrating_stim/white_mw003.bmp","1","Match","e","1500","trustrating_stim/white_mw003.bmp","green","Share","REAL","1"
"","","","","5e55e83cc65ccb5ed547cb04","bdp_wmem","Fri Mar 10 2023 12:11:32 GMT-0800 (Pacific Standard Time)","642937","Match,No Match","html-keyboard-response","125","384823","0.0-7.0-5.17","","null","","<div class='trialBorder'><div class='vertical-center'><img src='img/correct.jpg'></div><div class='respDiv'><div class='respDivL'><font style='color:orange'>Match<br>(e)</font></div><div class='respDivR'>No Match<br>(i)</div></div></div>","null","FEEDBACK","","","","","","","","","","",""
"","","","","5e55e83cc65ccb5ed547cb04","bdp_wmem","Fri Mar 10 2023 12:11:32 GMT-0800 (Pacific Standard Time)","642937","Match,No Match","html-keyboard-response","126","385331","0.0-7.0-1.18","","null","","<div class='trialBorder'><div class='vertical-center'><img src='img/fixation2_sml.jpg'</img></div></div>","null","FIX","","","","","","","","","","",""
"","","","","5e55e83cc65ccb5ed547cb04","bdp_wmem","Fri Mar 10 2023 12:11:32 GMT-0800 (Pacific Standard Time)","642937","Match,No Match","html-keyboard-response","127","386842","0.0-7.0-2.18","","null","","<div class='trialBorder'><div class='vertical-center'><img style='vertical-align:center; align:center' src='img/fixation2_sml.jpg'></div><div class='arrayDiv1'><div class='tc'><img class='introPic' src='trustrating_stim/white_mw003.bmp'><br><font color='green'><strong>Share</strong></font></div></div></div>","null","ARRAY","1","trustrating_stim/white_mw003.bmp","1","Match","e","1500","","","","",""
"","","","","5e55e83cc65ccb5ed547cb04","bdp_wmem","Fri Mar 10 2023 12:11:32 GMT-0800 (Pacific Standard Time)","642937","Match,No Match","html-keyboard-response","128","390846","0.0-7.0-3.18","","null","","<div class='trialBorder'><div class='vertical-center'><img src='img/fixation2_sml.jpg'</img></div></div>","null","DELAY","","","","","","","","","","",""
"","","","","5e55e83cc65ccb5ed547cb04","bdp_wmem","Fri Mar 10 2023 12:11:32 GMT-0800 (Pacific Standard Time)","642937","Match,No Match","html-keyboard-response","129","391301","0.0-7.0-4.18","","455","","<div class='trialBorder'><div class='targDiv'><div class='tc'><img class='introPic' src='trustrating_stim/white_mw003.bmp'><br><font color='green'><strong>Share</strong></font></div></div><div class='respDiv'><div class='respDivL'>Match<br>(e)</div><div class='respDivR'>No Match<br>(i)</div></div></div>","i","TARGET","1","trustrating_stim/white_mw003.bmp","1","Match","e","1500","trustrating_stim/white_mw003.bmp","green","Share","REAL","0"
"","","","","5e55e83cc65ccb5ed547cb04","bdp_wmem","Fri Mar 10 2023 12:11:32 GMT-0800 (Pacific Standard Time)","642937","Match,No Match","html-keyboard-response","130","391808","0.0-7.0-5.18","","null","","<div class='trialBorder'><div class='vertical-center'><img src='img/error.jpg'></div><div class='respDiv'><div class='respDivL'>Match<br>(e)</div><div class='respDivR'><font style='color:orange'>No Match<br>(i)</font></div></div></div>","null","FEEDBACK","","","","","","","","","","",""
"","","","","5e55e83cc65ccb5ed547cb04","bdp_wmem","Fri Mar 10 2023 12:11:32 GMT-0800 (Pacific Standard Time)","642937","Match,No Match","html-keyboard-response","131","392323","0.0-7.0-1.19","","null","","<div class='trialBorder'><div class='vertical-center'><img src='img/fixation2_sml.jpg'</img></div></div>","null","FIX","","","","","","","","","","",""
"","","","","5e55e83cc65ccb5ed547cb04","bdp_wmem","Fri Mar 10 2023 12:11:32 GMT-0800 (Pacific Standard Time)","642937","Match,No Match","html-keyboard-response","132","393832","0.0-7.0-2.19","","null","","<div class='trialBorder'><div class='vertical-center'><img style='vertical-align:center; align:center' src='img/fixation2_sml.jpg'></div><div class='arrayDiv1'><div class='tc'><img class='introPic' src='trustrating_stim/white_mw091.bmp'><br><font color='red'><strong>Keep</strong></font></div></div></div>","null","ARRAY","1","trustrating_stim/white_mw091.bmp","0","noMatchOutcome","i","1500","","","","",""
"","","","","5e55e83cc65ccb5ed547cb04","bdp_wmem","Fri Mar 10 2023 12:11:32 GMT-0800 (Pacific Standard Time)","642937","Match,No Match","html-keyboard-response","133","397841","0.0-7.0-3.19","","null","","<div class='trialBorder'><div class='vertical-center'><img src='img/fixation2_sml.jpg'</img></div></div>","null","DELAY","","","","","","","","","","",""
"","","","","5e55e83cc65ccb5ed547cb04","bdp_wmem","Fri Mar 10 2023 12:11:32 GMT-0800 (Pacific Standard Time)","642937","Match,No Match","html-keyboard-response","134","398265","0.0-7.0-4.19","","424","","<div class='trialBorder'><div class='targDiv'><div class='tc'><img class='introPic' src='trustrating_stim/white_mw091.bmp'><br><font color='green'><strong>Share</strong></font></div></div><div class='respDiv'><div class='respDivL'>Match<br>(e)</div><div class='respDivR'>No Match<br>(i)</div></div></div>","e","TARGET","1","trustrating_stim/white_mw091.bmp","0","noMatchOutcome","i","1500","trustrating_stim/white_mw091.bmp","green","Share","REAL","0"
"","","","","5e55e83cc65ccb5ed547cb04","bdp_wmem","Fri Mar 10 2023 12:11:32 GMT-0800 (Pacific Standard Time)","642937","Match,No Match","html-keyboard-response","135","398771","0.0-7.0-5.19","","null","","<div class='trialBorder'><div class='vertical-center'><img src='img/error.jpg'></div><div class='respDiv'><div class='respDivL'><font style='color:orange'>Match<br>(e)</font></div><div class='respDivR'>No Match<br>(i)</div></div></div>","null","FEEDBACK","","","","","","","","","","",""
"","","","","5e55e83cc65ccb5ed547cb04","bdp_wmem","Fri Mar 10 2023 12:11:32 GMT-0800 (Pacific Standard Time)","642937","Match,No Match","html-keyboard-response","136","399287","0.0-7.0-1.20","","null","","<div class='trialBorder'><div class='vertical-center'><img src='img/fixation2_sml.jpg'</img></div></div>","null","FIX","","","","","","","","","","",""
"","","","","5e55e83cc65ccb5ed547cb04","bdp_wmem","Fri Mar 10 2023 12:11:32 GMT-0800 (Pacific Standard Time)","642937","Match,No Match","html-keyboard-response","137","400794","0.0-7.0-2.20","","null","","<div class='trialBorder'><div class='vertical-center'><img style='vertical-align:center; align:center' src='img/fixation2_sml.jpg'></div><div class='arrayDiv1'><div class='tc'><img class='introPic' src='trustrating_stim/white_mw038.bmp'><br><font color='green'><strong>Share</strong></font></div></div></div>","null","ARRAY","1","trustrating_stim/white_mw038.bmp","1","Match","e","1500","","","","",""
"","","","","5e55e83cc65ccb5ed547cb04","bdp_wmem","Fri Mar 10 2023 12:11:32 GMT-0800 (Pacific Standard Time)","642937","Match,No Match","html-keyboard-response","138","404805","0.0-7.0-3.20","","null","","<div class='trialBorder'><div class='vertical-center'><img src='img/fixation2_sml.jpg'</img></div></div>","null","DELAY","","","","","","","","","","",""
"","","","","5e55e83cc65ccb5ed547cb04","bdp_wmem","Fri Mar 10 2023 12:11:32 GMT-0800 (Pacific Standard Time)","642937","Match,No Match","html-keyboard-response","139","405401","0.0-7.0-4.20","","595","","<div class='trialBorder'><div class='targDiv'><div class='tc'><img class='introPic' src='trustrating_stim/white_mw038.bmp'><br><font color='green'><strong>Share</strong></font></div></div><div class='respDiv'><div class='respDivL'>Match<br>(e)</div><div class='respDivR'>No Match<br>(i)</div></div></div>","e","TARGET","1","trustrating_stim/white_mw038.bmp","1","Match","e","1500","trustrating_stim/white_mw038.bmp","green","Share","REAL","1"
"","","","","5e55e83cc65ccb5ed547cb04","bdp_wmem","Fri Mar 10 2023 12:11:32 GMT-0800 (Pacific Standard Time)","642937","Match,No Match","html-keyboard-response","140","405910","0.0-7.0-5.20","","null","","<div class='trialBorder'><div class='vertical-center'><img src='img/correct.jpg'></div><div class='respDiv'><div class='respDivL'><font style='color:orange'>Match<br>(e)</font></div><div class='respDivR'>No Match<br>(i)</div></div></div>","null","FEEDBACK","","","","","","","","","","",""
"","","","","5e55e83cc65ccb5ed547cb04","bdp_wmem","Fri Mar 10 2023 12:11:32 GMT-0800 (Pacific Standard Time)","642937","Match,No Match","html-keyboard-response","141","406423","0.0-7.0-1.21","","null","","<div class='trialBorder'><div class='vertical-center'><img src='img/fixation2_sml.jpg'</img></div></div>","null","FIX","","","","","","","","","","",""
"","","","","5e55e83cc65ccb5ed547cb04","bdp_wmem","Fri Mar 10 2023 12:11:32 GMT-0800 (Pacific Standard Time)","642937","Match,No Match","html-keyboard-response","142","409432","0.0-7.0-2.21","","null","","<div class='trialBorder'><div class='vertical-center'><img style='vertical-align:center; align:center' src='img/fixation2_sml.jpg'></div><div class='arrayDiv2'><div class='tl'><img class='introPic' src='trustrating_stim/white_mw070.bmp'><br><font color='red'><strong>Keep</strong></font></div><div class='tr'><img class='introPic' src='trustrating_stim/white_mw013.bmp'><br><font color='green'><strong>Share</strong></font></div></div></div>","null","ARRAY","2","trustrating_stim/white_mw070.bmp,trustrating_stim/white_mw013.bmp","0,1","Match","e","3000","","","","",""
"","","","","5e55e83cc65ccb5ed547cb04","bdp_wmem","Fri Mar 10 2023 12:11:32 GMT-0800 (Pacific Standard Time)","642937","Match,No Match","html-keyboard-response","143","413443","0.0-7.0-3.21","","null","","<div class='trialBorder'><div class='vertical-center'><img src='img/fixation2_sml.jpg'</img></div></div>","null","DELAY","","","","","","","","","","",""
"","","","","5e55e83cc65ccb5ed547cb04","bdp_wmem","Fri Mar 10 2023 12:11:32 GMT-0800 (Pacific Standard Time)","642937","Match,No Match","html-keyboard-response","144","413559","0.0-7.0-4.21","","115","","<div class='trialBorder'><div class='targDiv'><div class='tc'><img class='introPic' src='trustrating_stim/white_mw013.bmp'><br><font color='green'><strong>Share</strong></font></div></div><div class='respDiv'><div class='respDivL'>Match<br>(e)</div><div class='respDivR'>No Match<br>(i)</div></div></div>","i","TARGET","2","trustrating_stim/white_mw070.bmp,trustrating_stim/white_mw013.bmp","0,1","Match","e","3000","trustrating_stim/white_mw013.bmp","green","Share","REAL","0"
"","","","","5e55e83cc65ccb5ed547cb04","bdp_wmem","Fri Mar 10 2023 12:11:32 GMT-0800 (Pacific Standard Time)","642937","Match,No Match","html-keyboard-response","145","414064","0.0-7.0-5.21","","null","","<div class='trialBorder'><div class='vertical-center'><img src='img/error.jpg'></div><div class='respDiv'><div class='respDivL'>Match<br>(e)</div><div class='respDivR'><font style='color:orange'>No Match<br>(i)</font></div></div></div>","null","FEEDBACK","","","","","","","","","","",""
"","","","","5e55e83cc65ccb5ed547cb04","bdp_wmem","Fri Mar 10 2023 12:11:32 GMT-0800 (Pacific Standard Time)","642937","Match,No Match","html-keyboard-response","146","414577","0.0-7.0-1.22","","null","","<div class='trialBorder'><div class='vertical-center'><img src='img/fixation2_sml.jpg'</img></div></div>","null","FIX","","","","","","","","","","",""
"","","","","5e55e83cc65ccb5ed547cb04","bdp_wmem","Fri Mar 10 2023 12:11:32 GMT-0800 (Pacific Standard Time)","642937","Match,No Match","html-keyboard-response","147","417584","0.0-7.0-2.22","","null","","<div class='trialBorder'><div class='vertical-center'><img style='vertical-align:center; align:center' src='img/fixation2_sml.jpg'></div><div class='arrayDiv2'><div class='tl'><img class='introPic' src='trustrating_stim/white_mw038.bmp'><br><font color='green'><strong>Share</strong></font></div><div class='tr'><img class='introPic' src='trustrating_stim/white_mw042.bmp'><br><font color='red'><strong>Keep</strong></font></div></div></div>","null","ARRAY","2","trustrating_stim/white_mw038.bmp,trustrating_stim/white_mw042.bmp","1,0","Match","e","3000","","","","",""
"","","","","5e55e83cc65ccb5ed547cb04","bdp_wmem","Fri Mar 10 2023 12:11:32 GMT-0800 (Pacific Standard Time)","642937","Match,No Match","html-keyboard-response","148","421586","0.0-7.0-3.22","","null","","<div class='trialBorder'><div class='vertical-center'><img src='img/fixation2_sml.jpg'</img></div></div>","null","DELAY","","","","","","","","","","",""
"","","","","5e55e83cc65ccb5ed547cb04","bdp_wmem","Fri Mar 10 2023 12:11:32 GMT-0800 (Pacific Standard Time)","642937","Match,No Match","html-keyboard-response","149","421614","0.0-7.0-4.22","","28","","<div class='trialBorder'><div class='targDiv'><div class='tc'><img class='introPic' src='trustrating_stim/white_mw042.bmp'><br><font color='red'><strong>Keep</strong></font></div></div><div class='respDiv'><div class='respDivL'>Match<br>(e)</div><div class='respDivR'>No Match<br>(i)</div></div></div>","i","TARGET","2","trustrating_stim/white_mw038.bmp,trustrating_stim/white_mw042.bmp","1,0","Match","e","3000","trustrating_stim/white_mw042.bmp","red","Keep","REAL","0"
"","","","","5e55e83cc65ccb5ed547cb04","bdp_wmem","Fri Mar 10 2023 12:11:32 GMT-0800 (Pacific Standard Time)","642937","Match,No Match","html-keyboard-response","150","422116","0.0-7.0-5.22","","null","","<div class='trialBorder'><div class='vertical-center'><img src='img/error.jpg'></div><div class='respDiv'><div class='respDivL'>Match<br>(e)</div><div class='respDivR'><font style='color:orange'>No Match<br>(i)</font></div></div></div>","null","FEEDBACK","","","","","","","","","","",""
"","","","","5e55e83cc65ccb5ed547cb04","bdp_wmem","Fri Mar 10 2023 12:11:32 GMT-0800 (Pacific Standard Time)","642937","Match,No Match","html-keyboard-response","151","422630","0.0-7.0-1.23","","null","","<div class='trialBorder'><div class='vertical-center'><img src='img/fixation2_sml.jpg'</img></div></div>","null","FIX","","","","","","","","","","",""
"","","","","5e55e83cc65ccb5ed547cb04","bdp_wmem","Fri Mar 10 2023 12:11:32 GMT-0800 (Pacific Standard Time)","642937","Match,No Match","html-keyboard-response","152","424139","0.0-7.0-2.23","","null","","<div class='trialBorder'><div class='vertical-center'><img style='vertical-align:center; align:center' src='img/fixation2_sml.jpg'></div><div class='arrayDiv1'><div class='tc'><img class='introPic' src='trustrating_stim/white_mw078.bmp'><br><font color='green'><strong>Share</strong></font></div></div></div>","null","ARRAY","1","trustrating_stim/white_mw078.bmp","1","noMatchOutcome","i","1500","","","","",""
"","","","","5e55e83cc65ccb5ed547cb04","bdp_wmem","Fri Mar 10 2023 12:11:32 GMT-0800 (Pacific Standard Time)","642937","Match,No Match","html-keyboard-response","153","428149","0.0-7.0-3.23","","null","","<div class='trialBorder'><div class='vertical-center'><img src='img/fixation2_sml.jpg'</img></div></div>","null","DELAY","","","","","","","","","","",""
"","","","","5e55e83cc65ccb5ed547cb04","bdp_wmem","Fri Mar 10 2023 12:11:32 GMT-0800 (Pacific Standard Time)","642937","Match,No Match","html-keyboard-response","154","428435","0.0-7.0-4.23","","285","","<div class='trialBorder'><div class='targDiv'><div class='tc'><img class='introPic' src='trustrating_stim/white_mw078.bmp'><br><font color='red'><strong>Keep</strong></font></div></div><div class='respDiv'><div class='respDivL'>Match<br>(e)</div><div class='respDivR'>No Match<br>(i)</div></div></div>","i","TARGET","1","trustrating_stim/white_mw078.bmp","1","noMatchOutcome","i","1500","trustrating_stim/white_mw078.bmp","red","Keep","REAL","1"
"","","","","5e55e83cc65ccb5ed547cb04","bdp_wmem","Fri Mar 10 2023 12:11:32 GMT-0800 (Pacific Standard Time)","642937","Match,No Match","html-keyboard-response","155","428942","0.0-7.0-5.23","","null","","<div class='trialBorder'><div class='vertical-center'><img src='img/correct.jpg'></div><div class='respDiv'><div class='respDivL'>Match<br>(e)</div><div class='respDivR'><font style='color:orange'>No Match<br>(i)</font></div></div></div>","null","FEEDBACK","","","","","","","","","","",""
"","","","","5e55e83cc65ccb5ed547cb04","bdp_wmem","Fri Mar 10 2023 12:11:32 GMT-0800 (Pacific Standard Time)","642937","Match,No Match","html-keyboard-response","156","429454","0.0-7.0-1.24","","null","","<div class='trialBorder'><div class='vertical-center'><img src='img/fixation2_sml.jpg'</img></div></div>","null","FIX","","","","","","","","","","",""
"","","","","5e55e83cc65ccb5ed547cb04","bdp_wmem","Fri Mar 10 2023 12:11:32 GMT-0800 (Pacific Standard Time)","642937","Match,No Match","html-keyboard-response","157","433966","0.0-7.0-2.24","","null","","<div class='trialBorder'><div class='vertical-center'><img style='vertical-align:center; align:center' src='img/fixation2_sml.jpg'></div><div class='arrayDiv3'><div class='tl'><img class='introPic' src='trustrating_stim/white_mw042.bmp'><br><font color='red'><strong>Keep</strong></font></div><div class='tc'><img class='introPic' src='trustrating_stim/white_mw092.bmp'><br><font color='red'><strong>Keep</strong></font></div><div class='tr'><img class='introPic' src='trustrating_stim/white_mw091.bmp'><br><font color='green'><strong>Share</strong></font></div></div></div>","null","ARRAY","3","trustrating_stim/white_mw042.bmp,trustrating_stim/white_mw092.bmp,trustrating_stim/white_mw091.bmp","0,0,1","noMatchOutcome","i","4500","","","","",""
"","","","","5e55e83cc65ccb5ed547cb04","bdp_wmem","Fri Mar 10 2023 12:11:32 GMT-0800 (Pacific Standard Time)","642937","Match,No Match","html-keyboard-response","158","437969","0.0-7.0-3.24","","null","","<div class='trialBorder'><div class='vertical-center'><img src='img/fixation2_sml.jpg'</img></div></div>","null","DELAY","","","","","","","","","","",""
"","","","","5e55e83cc65ccb5ed547cb04","bdp_wmem","Fri Mar 10 2023 12:11:32 GMT-0800 (Pacific Standard Time)","642937","Match,No Match","html-keyboard-response","159","438246","0.0-7.0-4.24","","275","","<div class='trialBorder'><div class='targDiv'><div class='tc'><img class='introPic' src='trustrating_stim/white_mw091.bmp'><br><font color='red'><strong>Keep</strong></font></div></div><div class='respDiv'><div class='respDivL'>Match<br>(e)</div><div class='respDivR'>No Match<br>(i)</div></div></div>","i","TARGET","3","trustrating_stim/white_mw042.bmp,trustrating_stim/white_mw092.bmp,trustrating_stim/white_mw091.bmp","0,0,1","noMatchOutcome","i","4500","trustrating_stim/white_mw091.bmp","red","Keep","REAL","1"
"","","","","5e55e83cc65ccb5ed547cb04","bdp_wmem","Fri Mar 10 2023 12:11:32 GMT-0800 (Pacific Standard Time)","642937","Match,No Match","html-keyboard-response","160","438757","0.0-7.0-5.24","","null","","<div class='trialBorder'><div class='vertical-center'><img src='img/correct.jpg'></div><div class='respDiv'><div class='respDivL'>Match<br>(e)</div><div class='respDivR'><font style='color:orange'>No Match<br>(i)</font></div></div></div>","null","FEEDBACK","","","","","","","","","","",""
"","","","","5e55e83cc65ccb5ed547cb04","bdp_wmem","Fri Mar 10 2023 12:11:32 GMT-0800 (Pacific Standard Time)","642937","Match,No Match","html-keyboard-response","161","439259","0.0-7.0-1.25","","null","","<div class='trialBorder'><div class='vertical-center'><img src='img/fixation2_sml.jpg'</img></div></div>","null","FIX","","","","","","","","","","",""
"","","","","5e55e83cc65ccb5ed547cb04","bdp_wmem","Fri Mar 10 2023 12:11:32 GMT-0800 (Pacific Standard Time)","642937","Match,No Match","html-keyboard-response","162","440761","0.0-7.0-2.25","","null","","<div class='trialBorder'><div class='vertical-center'><img style='vertical-align:center; align:center' src='img/fixation2_sml.jpg'></div><div class='arrayDiv1'><div class='tc'><img class='introPic' src='trustrating_stim/white_mw085.bmp'><br><font color='red'><strong>Keep</strong></font></div></div></div>","null","ARRAY","1","trustrating_stim/white_mw085.bmp","0","Match","e","1500","","","","",""
"","","","","5e55e83cc65ccb5ed547cb04","bdp_wmem","Fri Mar 10 2023 12:11:32 GMT-0800 (Pacific Standard Time)","642937","Match,No Match","html-keyboard-response","163","444769","0.0-7.0-3.25","","null","","<div class='trialBorder'><div class='vertical-center'><img src='img/fixation2_sml.jpg'</img></div></div>","null","DELAY","","","","","","","","","","",""
"","","","","5e55e83cc65ccb5ed547cb04","bdp_wmem","Fri Mar 10 2023 12:11:32 GMT-0800 (Pacific Standard Time)","642937","Match,No Match","html-keyboard-response","164","444812","0.0-7.0-4.25","","43","","<div class='trialBorder'><div class='targDiv'><div class='tc'><img class='introPic' src='trustrating_stim/white_mw085.bmp'><br><font color='red'><strong>Keep</strong></font></div></div><div class='respDiv'><div class='respDivL'>Match<br>(e)</div><div class='respDivR'>No Match<br>(i)</div></div></div>","e","TARGET","1","trustrating_stim/white_mw085.bmp","0","Match","e","1500","trustrating_stim/white_mw085.bmp","red","Keep","REAL","1"
"","","","","5e55e83cc65ccb5ed547cb04","bdp_wmem","Fri Mar 10 2023 12:11:32 GMT-0800 (Pacific Standard Time)","642937","Match,No Match","html-keyboard-response","165","445317","0.0-7.0-5.25","","null","","<div class='trialBorder'><div class='vertical-center'><img src='img/correct.jpg'></div><div class='respDiv'><div class='respDivL'><font style='color:orange'>Match<br>(e)</font></div><div class='respDivR'>No Match<br>(i)</div></div></div>","null","FEEDBACK","","","","","","","","","","",""
"","","","","5e55e83cc65ccb5ed547cb04","bdp_wmem","Fri Mar 10 2023 12:11:32 GMT-0800 (Pacific Standard Time)","642937","Match,No Match","html-keyboard-response","166","445820","0.0-7.0-1.26","","null","","<div class='trialBorder'><div class='vertical-center'><img src='img/fixation2_sml.jpg'</img></div></div>","null","FIX","","","","","","","","","","",""
"","","","","5e55e83cc65ccb5ed547cb04","bdp_wmem","Fri Mar 10 2023 12:11:32 GMT-0800 (Pacific Standard Time)","642937","Match,No Match","html-keyboard-response","167","450321","0.0-7.0-2.26","","null","","<div class='trialBorder'><div class='vertical-center'><img style='vertical-align:center; align:center' src='img/fixation2_sml.jpg'></div><div class='arrayDiv3'><div class='tl'><img class='introPic' src='trustrating_stim/white_mw091.bmp'><br><font color='green'><strong>Share</strong></font></div><div class='tc'><img class='introPic' src='trustrating_stim/white_mw040.bmp'><br><font color='green'><strong>Share</strong></font></div><div class='tr'><img class='introPic' src='trustrating_stim/white_mw013.bmp'><br><font color='red'><strong>Keep</strong></font></div></div></div>","null","ARRAY","3","trustrating_stim/white_mw091.bmp,trustrating_stim/white_mw040.bmp,trustrating_stim/white_mw013.bmp","1,1,0","noMatchFace","i","4500","","","","",""
"","","","","5e55e83cc65ccb5ed547cb04","bdp_wmem","Fri Mar 10 2023 12:11:32 GMT-0800 (Pacific Standard Time)","642937","Match,No Match","html-keyboard-response","168","454335","0.0-7.0-3.26","","null","","<div class='trialBorder'><div class='vertical-center'><img src='img/fixation2_sml.jpg'</img></div></div>","null","DELAY","","","","","","","","","","",""
"","","","","5e55e83cc65ccb5ed547cb04","bdp_wmem","Fri Mar 10 2023 12:11:32 GMT-0800 (Pacific Standard Time)","642937","Match,No Match","html-keyboard-response","169","454437","0.0-7.0-4.26","","102","","<div class='trialBorder'><div class='targDiv'><div class='tc'><img class='introPic' src='trustrating_stim/white_mw092.bmp'><br><font color='green'><strong>Share</strong></font></div></div><div class='respDiv'><div class='respDivL'>Match<br>(e)</div><div class='respDivR'>No Match<br>(i)</div></div></div>","i","TARGET","3","trustrating_stim/white_mw091.bmp,trustrating_stim/white_mw040.bmp,trustrating_stim/white_mw013.bmp","1,1,0","noMatchFace","i","4500","trustrating_stim/white_mw092.bmp","green","Share","REAL","1"
"","","","","5e55e83cc65ccb5ed547cb04","bdp_wmem","Fri Mar 10 2023 12:11:32 GMT-0800 (Pacific Standard Time)","642937","Match,No Match","html-keyboard-response","170","454940","0.0-7.0-5.26","","null","","<div class='trialBorder'><div class='vertical-center'><img src='img/correct.jpg'></div><div class='respDiv'><div class='respDivL'>Match<br>(e)</div><div class='respDivR'><font style='color:orange'>No Match<br>(i)</font></div></div></div>","null","FEEDBACK","","","","","","","","","","",""
"","","","","5e55e83cc65ccb5ed547cb04","bdp_wmem","Fri Mar 10 2023 12:11:32 GMT-0800 (Pacific Standard Time)","642937","Match,No Match","html-keyboard-response","171","455454","0.0-7.0-1.27","","null","","<div class='trialBorder'><div class='vertical-center'><img src='img/fixation2_sml.jpg'</img></div></div>","null","FIX","","","","","","","","","","",""
"","","","","5e55e83cc65ccb5ed547cb04","bdp_wmem","Fri Mar 10 2023 12:11:32 GMT-0800 (Pacific Standard Time)","642937","Match,No Match","html-keyboard-response","172","459967","0.0-7.0-2.27","","null","","<div class='trialBorder'><div class='vertical-center'><img style='vertical-align:center; align:center' src='img/fixation2_sml.jpg'></div><div class='arrayDiv3'><div class='tl'><img class='introPic' src='trustrating_stim/white_mw003.bmp'><br><font color='red'><strong>Keep</strong></font></div><div class='tc'><img class='introPic' src='trustrating_stim/white_mw012.bmp'><br><font color='green'><strong>Share</strong></font></div><div class='tr'><img class='introPic' src='trustrating_stim/white_mw070.bmp'><br><font color='red'><strong>Keep</strong></font></div></div></div>","null","ARRAY","3","trustrating_stim/white_mw003.bmp,trustrating_stim/white_mw012.bmp,trustrating_stim/white_mw070.bmp","0,1,0","Match","e","4500","","","","",""
"","","","","5e55e83cc65ccb5ed547cb04","bdp_wmem","Fri Mar 10 2023 12:11:32 GMT-0800 (Pacific Standard Time)","642937","Match,No Match","html-keyboard-response","173","463968","0.0-7.0-3.27","","null","","<div class='trialBorder'><div class='vertical-center'><img src='img/fixation2_sml.jpg'</img></div></div>","null","DELAY","","","","","","","","","","",""
"","","","","5e55e83cc65ccb5ed547cb04","bdp_wmem","Fri Mar 10 2023 12:11:32 GMT-0800 (Pacific Standard Time)","642937","Match,No Match","html-keyboard-response","174","464044","0.0-7.0-4.27","","75","","<div class='trialBorder'><div class='targDiv'><div class='tc'><img class='introPic' src='trustrating_stim/white_mw003.bmp'><br><font color='red'><strong>Keep</strong></font></div></div><div class='respDiv'><div class='respDivL'>Match<br>(e)</div><div class='respDivR'>No Match<br>(i)</div></div></div>","i","TARGET","3","trustrating_stim/white_mw003.bmp,trustrating_stim/white_mw012.bmp,trustrating_stim/white_mw070.bmp","0,1,0","Match","e","4500","trustrating_stim/white_mw003.bmp","red","Keep","REAL","0"
"","","","","5e55e83cc65ccb5ed547cb04","bdp_wmem","Fri Mar 10 2023 12:11:32 GMT-0800 (Pacific Standard Time)","642937","Match,No Match","html-keyboard-response","175","464549","0.0-7.0-5.27","","null","","<div class='trialBorder'><div class='vertical-center'><img src='img/error.jpg'></div><div class='respDiv'><div class='respDivL'>Match<br>(e)</div><div class='respDivR'><font style='color:orange'>No Match<br>(i)</font></div></div></div>","null","FEEDBACK","","","","","","","","","","",""
"","","","","5e55e83cc65ccb5ed547cb04","bdp_wmem","Fri Mar 10 2023 12:11:32 GMT-0800 (Pacific Standard Time)","642937","Match,No Match","html-keyboard-response","176","465060","0.0-7.0-1.28","","null","","<div class='trialBorder'><div class='vertical-center'><img src='img/fixation2_sml.jpg'</img></div></div>","null","FIX","","","","","","","","","","",""
"","","","","5e55e83cc65ccb5ed547cb04","bdp_wmem","Fri Mar 10 2023 12:11:32 GMT-0800 (Pacific Standard Time)","642937","Match,No Match","html-keyboard-response","177","469573","0.0-7.0-2.28","","null","","<div class='trialBorder'><div class='vertical-center'><img style='vertical-align:center; align:center' src='img/fixation2_sml.jpg'></div><div class='arrayDiv3'><div class='tl'><img class='introPic' src='trustrating_stim/white_mw012.bmp'><br><font color='green'><strong>Share</strong></font></div><div class='tc'><img class='introPic' src='trustrating_stim/white_mw038.bmp'><br><font color='red'><strong>Keep</strong></font></div><div class='tr'><img class='introPic' src='trustrating_stim/white_mw070.bmp'><br><font color='green'><strong>Share</strong></font></div></div></div>","null","ARRAY","3","trustrating_stim/white_mw012.bmp,trustrating_stim/white_mw038.bmp,trustrating_stim/white_mw070.bmp","1,0,1","Match","e","4500","","","","",""
"","","","","5e55e83cc65ccb5ed547cb04","bdp_wmem","Fri Mar 10 2023 12:11:32 GMT-0800 (Pacific Standard Time)","642937","Match,No Match","html-keyboard-response","178","473579","0.0-7.0-3.28","","null","","<div class='trialBorder'><div class='vertical-center'><img src='img/fixation2_sml.jpg'</img></div></div>","null","DELAY","","","","","","","","","","",""
"","","","","5e55e83cc65ccb5ed547cb04","bdp_wmem","Fri Mar 10 2023 12:11:32 GMT-0800 (Pacific Standard Time)","642937","Match,No Match","html-keyboard-response","179","473704","0.0-7.0-4.28","","124","","<div class='trialBorder'><div class='targDiv'><div class='tc'><img class='introPic' src='trustrating_stim/white_mw012.bmp'><br><font color='green'><strong>Share</strong></font></div></div><div class='respDiv'><div class='respDivL'>Match<br>(e)</div><div class='respDivR'>No Match<br>(i)</div></div></div>","e","TARGET","3","trustrating_stim/white_mw012.bmp,trustrating_stim/white_mw038.bmp,trustrating_stim/white_mw070.bmp","1,0,1","Match","e","4500","trustrating_stim/white_mw012.bmp","green","Share","REAL","1"
"","","","","5e55e83cc65ccb5ed547cb04","bdp_wmem","Fri Mar 10 2023 12:11:32 GMT-0800 (Pacific Standard Time)","642937","Match,No Match","html-keyboard-response","180","474218","0.0-7.0-5.28","","null","","<div class='trialBorder'><div class='vertical-center'><img src='img/correct.jpg'></div><div class='respDiv'><div class='respDivL'><font style='color:orange'>Match<br>(e)</font></div><div class='respDivR'>No Match<br>(i)</div></div></div>","null","FEEDBACK","","","","","","","","","","",""
"","","","","5e55e83cc65ccb5ed547cb04","bdp_wmem","Fri Mar 10 2023 12:11:32 GMT-0800 (Pacific Standard Time)","642937","Match,No Match","html-keyboard-response","181","474730","0.0-7.0-1.29","","null","","<div class='trialBorder'><div class='vertical-center'><img src='img/fixation2_sml.jpg'</img></div></div>","null","FIX","","","","","","","","","","",""
"","","","","5e55e83cc65ccb5ed547cb04","bdp_wmem","Fri Mar 10 2023 12:11:32 GMT-0800 (Pacific Standard Time)","642937","Match,No Match","html-keyboard-response","182","476237","0.0-7.0-2.29","","null","","<div class='trialBorder'><div class='vertical-center'><img style='vertical-align:center; align:center' src='img/fixation2_sml.jpg'></div><div class='arrayDiv1'><div class='tc'><img class='introPic' src='trustrating_stim/white_mw010.bmp'><br><font color='red'><strong>Keep</strong></font></div></div></div>","null","ARRAY","1","trustrating_stim/white_mw010.bmp","0","noMatchFace","i","1500","","","","",""
"","","","","5e55e83cc65ccb5ed547cb04","bdp_wmem","Fri Mar 10 2023 12:11:32 GMT-0800 (Pacific Standard Time)","642937","Match,No Match","html-keyboard-response","183","480237","0.0-7.0-3.29","","null","","<div class='trialBorder'><div class='vertical-center'><img src='img/fixation2_sml.jpg'</img></div></div>","null","DELAY","","","","","","","","","","",""
"","","","","5e55e83cc65ccb5ed547cb04","bdp_wmem","Fri Mar 10 2023 12:11:32 GMT-0800 (Pacific Standard Time)","642937","Match,No Match","html-keyboard-response","184","480323","0.0-7.0-4.29","","86","","<div class='trialBorder'><div class='targDiv'><div class='tc'><img class='introPic' src='trustrating_stim/white_mw013.bmp'><br><font color='red'><strong>Keep</strong></font></div></div><div class='respDiv'><div class='respDivL'>Match<br>(e)</div><div class='respDivR'>No Match<br>(i)</div></div></div>","i","TARGET","1","trustrating_stim/white_mw010.bmp","0","noMatchFace","i","1500","trustrating_stim/white_mw013.bmp","red","Keep","REAL","1"
"","","","","5e55e83cc65ccb5ed547cb04","bdp_wmem","Fri Mar 10 2023 12:11:32 GMT-0800 (Pacific Standard Time)","642937","Match,No Match","html-keyboard-response","185","480827","0.0-7.0-5.29","","null","","<div class='trialBorder'><div class='vertical-center'><img src='img/correct.jpg'></div><div class='respDiv'><div class='respDivL'>Match<br>(e)</div><div class='respDivR'><font style='color:orange'>No Match<br>(i)</font></div></div></div>","null","FEEDBACK","","","","","","","","","","",""
"","","","","5e55e83cc65ccb5ed547cb04","bdp_wmem","Fri Mar 10 2023 12:11:32 GMT-0800 (Pacific Standard Time)","642937","Match,No Match","html-keyboard-response","186","481340","0.0-7.0-1.30","","null","","<div class='trialBorder'><div class='vertical-center'><img src='img/fixation2_sml.jpg'</img></div></div>","null","FIX","","","","","","","","","","",""
