"trial_type","trial_index","time_elapsed","internal_node_id","subject_id","task","startTime","totalTime","labels","view_history","rt","event","trial","time","trialtype","success","stimulus","key_press","stimType","arraySize","arrayFaces","arrayOutcomes","matchType","corrResp","arrayDur","targFace","targCol","targOutcome","trialType","corr"
"pavlovia","0","4","0.0-0.0","63bd81516745e78ee7f50f7f","bdp_wmem","Mon Mar 13 2023 15:14:56 GMT-0400 (Eastern Daylight Time)","672607","Match,No Match","","","","","","","","","","","","","","","","","","","","",""
"instructions","1","7975","0.0-1.0","63bd81516745e78ee7f50f7f","bdp_wmem","Mon Mar 13 2023 15:14:56 GMT-0400 (Eastern Daylight Time)","672607","Match,No Match","[{""page_index"":0,""viewing_time"":7970}]","7970","","","","","","","","","","","","","","","","","","",""
"","","","","63bd81516745e78ee7f50f7f","bdp_wmem","Mon Mar 13 2023 15:14:56 GMT-0400 (Eastern Daylight Time)","672607","Match,No Match","","","fullscreenenter","2","9228","fullscreenenter","","","","","","","","","","","","","","",""
"fullscreen","2","10217","0.0-2.0","63bd81516745e78ee7f50f7f","bdp_wmem","Mon Mar 13 2023 15:14:56 GMT-0400 (Eastern Daylight Time)","672607","Match,No Match","","","","","","","true","","","","","","","","","","","","","",""
"instructions","3","155070","0.0-4.0","63bd81516745e78ee7f50f7f","bdp_wmem","Mon Mar 13 2023 15:14:56 GMT-0400 (Eastern Daylight Time)","672607","Match,No Match","[{""page_index"":0,""viewing_time"":73554},{""page_index"":1,""viewing_time"":43983},{""page_index"":2,""viewing_time"":10901},{""page_index"":3,""viewing_time"":13361},{""page_index"":4,""viewing_time"":3052}]","144851","","","","","","","","","","","","","","","","","","",""
"html-keyboard-response","4","155579","0.0-5.0-1.0","63bd81516745e78ee7f50f7f","bdp_wmem","Mon Mar 13 2023 15:14:56 GMT-0400 (Eastern Daylight Time)","672607","Match,No Match","","null","","","","","","<div class='trialBorder'><div class='vertical-center'><img src='img/fixation2_sml.jpg'</img></div></div>","null","FIX","","","","","","","","","","",""
"html-keyboard-response","5","157089","0.0-5.0-2.0","63bd81516745e78ee7f50f7f","bdp_wmem","Mon Mar 13 2023 15:14:56 GMT-0400 (Eastern Daylight Time)","672607","Match,No Match","","null","","","","","","<div class='trialBorder'><div class='vertical-center'><img style='vertical-align:center; align:center' src='img/fixation2_sml.jpg'></div><div class='arrayDiv1'><div class='tc'><img class='introPic' src='trustrating_stim/white_mw038.bmp'><br><font color='red'><strong>Keep</strong></font></div></div></div>","null","ARRAY","1","trustrating_stim/white_mw038.bmp","0","noMatchFace","i","1500","","","","",""
"html-keyboard-response","6","161099","0.0-5.0-3.0","63bd81516745e78ee7f50f7f","bdp_wmem","Mon Mar 13 2023 15:14:56 GMT-0400 (Eastern Daylight Time)","672607","Match,No Match","","null","","","","","","<div class='trialBorder'><div class='vertical-center'><img src='img/fixation2_sml.jpg'</img></div></div>","null","DELAY","","","","","","","","","","",""
"html-keyboard-response","7","162379","0.0-5.0-4.0","63bd81516745e78ee7f50f7f","bdp_wmem","Mon Mar 13 2023 15:14:56 GMT-0400 (Eastern Daylight Time)","672607","Match,No Match","","1279","","","","","","<div class='trialBorder'><div class='targDiv'><div class='tc'><img class='introPic' src='trustrating_stim/white_mw012.bmp'><br><font color='red'><strong>Keep</strong></font></div></div><div class='respDiv'><div class='respDivL'>Match<br>(e)</div><div class='respDivR'>No Match<br>(i)</div></div></div>","i","TARGET","1","trustrating_stim/white_mw038.bmp","0","noMatchFace","i","1500","trustrating_stim/white_mw012.bmp","red","Keep","PRACTICE","1"
"html-keyboard-response","8","162881","0.0-5.0-5.0","63bd81516745e78ee7f50f7f","bdp_wmem","Mon Mar 13 2023 15:14:56 GMT-0400 (Eastern Daylight Time)","672607","Match,No Match","","null","","","","","","<div class='trialBorder'><div class='vertical-center'><img src='img/correct.jpg'></div><div class='respDiv'><div class='respDivL'>Match<br>(e)</div><div class='respDivR'><font style='color:orange'>No Match<br>(i)</font></div></div></div>","null","FEEDBACK","","","","","","","","","","",""
"html-keyboard-response","9","163387","0.0-5.0-1.1","63bd81516745e78ee7f50f7f","bdp_wmem","Mon Mar 13 2023 15:14:56 GMT-0400 (Eastern Daylight Time)","672607","Match,No Match","","null","","","","","","<div class='trialBorder'><div class='vertical-center'><img src='img/fixation2_sml.jpg'</img></div></div>","null","FIX","","","","","","","","","","",""
"html-keyboard-response","10","167889","0.0-5.0-2.1","63bd81516745e78ee7f50f7f","bdp_wmem","Mon Mar 13 2023 15:14:56 GMT-0400 (Eastern Daylight Time)","672607","Match,No Match","","null","","","","","","<div class='trialBorder'><div class='vertical-center'><img style='vertical-align:center; align:center' src='img/fixation2_sml.jpg'></div><div class='arrayDiv3'><div class='tl'><img class='introPic' src='trustrating_stim/white_mw038.bmp'><br><font color='red'><strong>Keep</strong></font></div><div class='tc'><img class='introPic' src='trustrating_stim/white_mw003.bmp'><br><font color='red'><strong>Keep</strong></font></div><div class='tr'><img class='introPic' src='trustrating_stim/white_mw010.bmp'><br><font color='green'><strong>Share</strong></font></div></div></div>","null","ARRAY","3","trustrating_stim/white_mw038.bmp,trustrating_stim/white_mw003.bmp,trustrating_stim/white_mw010.bmp","0,0,1","noMatchOutcome","i","4500","","","","",""
"html-keyboard-response","11","171899","0.0-5.0-3.1","63bd81516745e78ee7f50f7f","bdp_wmem","Mon Mar 13 2023 15:14:56 GMT-0400 (Eastern Daylight Time)","672607","Match,No Match","","null","","","","","","<div class='trialBorder'><div class='vertical-center'><img src='img/fixation2_sml.jpg'</img></div></div>","null","DELAY","","","","","","","","","","",""
"html-keyboard-response","12","173220","0.0-5.0-4.1","63bd81516745e78ee7f50f7f","bdp_wmem","Mon Mar 13 2023 15:14:56 GMT-0400 (Eastern Daylight Time)","672607","Match,No Match","","1320","","","","","","<div class='trialBorder'><div class='targDiv'><div class='tc'><img class='introPic' src='trustrating_stim/white_mw038.bmp'><br><font color='green'><strong>Share</strong></font></div></div><div class='respDiv'><div class='respDivL'>Match<br>(e)</div><div class='respDivR'>No Match<br>(i)</div></div></div>","i","TARGET","3","trustrating_stim/white_mw038.bmp,trustrating_stim/white_mw003.bmp,trustrating_stim/white_mw010.bmp","0,0,1","noMatchOutcome","i","4500","trustrating_stim/white_mw038.bmp","green","Share","PRACTICE","1"
"html-keyboard-response","13","173723","0.0-5.0-5.1","63bd81516745e78ee7f50f7f","bdp_wmem","Mon Mar 13 2023 15:14:56 GMT-0400 (Eastern Daylight Time)","672607","Match,No Match","","null","","","","","","<div class='trialBorder'><div class='vertical-center'><img src='img/correct.jpg'></div><div class='respDiv'><div class='respDivL'>Match<br>(e)</div><div class='respDivR'><font style='color:orange'>No Match<br>(i)</font></div></div></div>","null","FEEDBACK","","","","","","","","","","",""
"html-keyboard-response","14","174225","0.0-5.0-1.2","63bd81516745e78ee7f50f7f","bdp_wmem","Mon Mar 13 2023 15:14:56 GMT-0400 (Eastern Daylight Time)","672607","Match,No Match","","null","","","","","","<div class='trialBorder'><div class='vertical-center'><img src='img/fixation2_sml.jpg'</img></div></div>","null","FIX","","","","","","","","","","",""
"html-keyboard-response","15","178731","0.0-5.0-2.2","63bd81516745e78ee7f50f7f","bdp_wmem","Mon Mar 13 2023 15:14:56 GMT-0400 (Eastern Daylight Time)","672607","Match,No Match","","null","","","","","","<div class='trialBorder'><div class='vertical-center'><img style='vertical-align:center; align:center' src='img/fixation2_sml.jpg'></div><div class='arrayDiv3'><div class='tl'><img class='introPic' src='trustrating_stim/white_mw038.bmp'><br><font color='red'><strong>Keep</strong></font></div><div class='tc'><img class='introPic' src='trustrating_stim/white_mw040.bmp'><br><font color='red'><strong>Keep</strong></font></div><div class='tr'><img class='introPic' src='trustrating_stim/white_mw003.bmp'><br><font color='green'><strong>Share</strong></font></div></div></div>","null","ARRAY","3","trustrating_stim/white_mw038.bmp,trustrating_stim/white_mw040.bmp,trustrating_stim/white_mw003.bmp","0,0,1","Match","e","4500","","","","",""
"html-keyboard-response","16","182741","0.0-5.0-3.2","63bd81516745e78ee7f50f7f","bdp_wmem","Mon Mar 13 2023 15:14:56 GMT-0400 (Eastern Daylight Time)","672607","Match,No Match","","null","","","","","","<div class='trialBorder'><div class='vertical-center'><img src='img/fixation2_sml.jpg'</img></div></div>","null","DELAY","","","","","","","","","","",""
"html-keyboard-response","17","183337","0.0-5.0-4.2","63bd81516745e78ee7f50f7f","bdp_wmem","Mon Mar 13 2023 15:14:56 GMT-0400 (Eastern Daylight Time)","672607","Match,No Match","","594","","","","","","<div class='trialBorder'><div class='targDiv'><div class='tc'><img class='introPic' src='trustrating_stim/white_mw040.bmp'><br><font color='red'><strong>Keep</strong></font></div></div><div class='respDiv'><div class='respDivL'>Match<br>(e)</div><div class='respDivR'>No Match<br>(i)</div></div></div>","i","TARGET","3","trustrating_stim/white_mw038.bmp,trustrating_stim/white_mw040.bmp,trustrating_stim/white_mw003.bmp","0,0,1","Match","e","4500","trustrating_stim/white_mw040.bmp","red","Keep","PRACTICE","0"
"html-keyboard-response","18","183845","0.0-5.0-5.2","63bd81516745e78ee7f50f7f","bdp_wmem","Mon Mar 13 2023 15:14:56 GMT-0400 (Eastern Daylight Time)","672607","Match,No Match","","null","","","","","","<div class='trialBorder'><div class='vertical-center'><img src='img/error.jpg'></div><div class='respDiv'><div class='respDivL'>Match<br>(e)</div><div class='respDivR'><font style='color:orange'>No Match<br>(i)</font></div></div></div>","null","FEEDBACK","","","","","","","","","","",""
"html-keyboard-response","19","184353","0.0-5.0-1.3","63bd81516745e78ee7f50f7f","bdp_wmem","Mon Mar 13 2023 15:14:56 GMT-0400 (Eastern Daylight Time)","672607","Match,No Match","","null","","","","","","<div class='trialBorder'><div class='vertical-center'><img src='img/fixation2_sml.jpg'</img></div></div>","null","FIX","","","","","","","","","","",""
"html-keyboard-response","20","185857","0.0-5.0-2.3","63bd81516745e78ee7f50f7f","bdp_wmem","Mon Mar 13 2023 15:14:56 GMT-0400 (Eastern Daylight Time)","672607","Match,No Match","","null","","","","","","<div class='trialBorder'><div class='vertical-center'><img style='vertical-align:center; align:center' src='img/fixation2_sml.jpg'></div><div class='arrayDiv1'><div class='tc'><img class='introPic' src='trustrating_stim/white_mw010.bmp'><br><font color='green'><strong>Share</strong></font></div></div></div>","null","ARRAY","1","trustrating_stim/white_mw010.bmp","1","Match","e","1500","","","","",""
"html-keyboard-response","21","189867","0.0-5.0-3.3","63bd81516745e78ee7f50f7f","bdp_wmem","Mon Mar 13 2023 15:14:56 GMT-0400 (Eastern Daylight Time)","672607","Match,No Match","","null","","","","","","<div class='trialBorder'><div class='vertical-center'><img src='img/fixation2_sml.jpg'</img></div></div>","null","DELAY","","","","","","","","","","",""
"html-keyboard-response","22","190330","0.0-5.0-4.3","63bd81516745e78ee7f50f7f","bdp_wmem","Mon Mar 13 2023 15:14:56 GMT-0400 (Eastern Daylight Time)","672607","Match,No Match","","461","","","","","","<div class='trialBorder'><div class='targDiv'><div class='tc'><img class='introPic' src='trustrating_stim/white_mw010.bmp'><br><font color='green'><strong>Share</strong></font></div></div><div class='respDiv'><div class='respDivL'>Match<br>(e)</div><div class='respDivR'>No Match<br>(i)</div></div></div>","i","TARGET","1","trustrating_stim/white_mw010.bmp","1","Match","e","1500","trustrating_stim/white_mw010.bmp","green","Share","PRACTICE","0"
"html-keyboard-response","23","190833","0.0-5.0-5.3","63bd81516745e78ee7f50f7f","bdp_wmem","Mon Mar 13 2023 15:14:56 GMT-0400 (Eastern Daylight Time)","672607","Match,No Match","","null","","","","","","<div class='trialBorder'><div class='vertical-center'><img src='img/error.jpg'></div><div class='respDiv'><div class='respDivL'>Match<br>(e)</div><div class='respDivR'><font style='color:orange'>No Match<br>(i)</font></div></div></div>","null","FEEDBACK","","","","","","","","","","",""
"html-keyboard-response","24","191338","0.0-5.0-1.4","63bd81516745e78ee7f50f7f","bdp_wmem","Mon Mar 13 2023 15:14:56 GMT-0400 (Eastern Daylight Time)","672607","Match,No Match","","null","","","","","","<div class='trialBorder'><div class='vertical-center'><img src='img/fixation2_sml.jpg'</img></div></div>","null","FIX","","","","","","","","","","",""
"html-keyboard-response","25","194347","0.0-5.0-2.4","63bd81516745e78ee7f50f7f","bdp_wmem","Mon Mar 13 2023 15:14:56 GMT-0400 (Eastern Daylight Time)","672607","Match,No Match","","null","","","","","","<div class='trialBorder'><div class='vertical-center'><img style='vertical-align:center; align:center' src='img/fixation2_sml.jpg'></div><div class='arrayDiv2'><div class='tl'><img class='introPic' src='trustrating_stim/white_mw013.bmp'><br><font color='green'><strong>Share</strong></font></div><div class='tr'><img class='introPic' src='trustrating_stim/white_mw092.bmp'><br><font color='red'><strong>Keep</strong></font></div></div></div>","null","ARRAY","2","trustrating_stim/white_mw013.bmp,trustrating_stim/white_mw092.bmp","1,0","noMatchOutcome","i","3000","","","","",""
"html-keyboard-response","26","198353","0.0-5.0-3.4","63bd81516745e78ee7f50f7f","bdp_wmem","Mon Mar 13 2023 15:14:56 GMT-0400 (Eastern Daylight Time)","672607","Match,No Match","","null","","","","","","<div class='trialBorder'><div class='vertical-center'><img src='img/fixation2_sml.jpg'</img></div></div>","null","DELAY","","","","","","","","","","",""
"html-keyboard-response","27","199109","0.0-5.0-4.4","63bd81516745e78ee7f50f7f","bdp_wmem","Mon Mar 13 2023 15:14:56 GMT-0400 (Eastern Daylight Time)","672607","Match,No Match","","754","","","","","","<div class='trialBorder'><div class='targDiv'><div class='tc'><img class='introPic' src='trustrating_stim/white_mw092.bmp'><br><font color='green'><strong>Share</strong></font></div></div><div class='respDiv'><div class='respDivL'>Match<br>(e)</div><div class='respDivR'>No Match<br>(i)</div></div></div>","e","TARGET","2","trustrating_stim/white_mw013.bmp,trustrating_stim/white_mw092.bmp","1,0","noMatchOutcome","i","3000","trustrating_stim/white_mw092.bmp","green","Share","PRACTICE","0"
"html-keyboard-response","28","199617","0.0-5.0-5.4","63bd81516745e78ee7f50f7f","bdp_wmem","Mon Mar 13 2023 15:14:56 GMT-0400 (Eastern Daylight Time)","672607","Match,No Match","","null","","","","","","<div class='trialBorder'><div class='vertical-center'><img src='img/error.jpg'></div><div class='respDiv'><div class='respDivL'><font style='color:orange'>Match<br>(e)</font></div><div class='respDivR'>No Match<br>(i)</div></div></div>","null","FEEDBACK","","","","","","","","","","",""
"html-keyboard-response","29","200123","0.0-5.0-1.5","63bd81516745e78ee7f50f7f","bdp_wmem","Mon Mar 13 2023 15:14:56 GMT-0400 (Eastern Daylight Time)","672607","Match,No Match","","null","","","","","","<div class='trialBorder'><div class='vertical-center'><img src='img/fixation2_sml.jpg'</img></div></div>","null","FIX","","","","","","","","","","",""
"html-keyboard-response","30","203131","0.0-5.0-2.5","63bd81516745e78ee7f50f7f","bdp_wmem","Mon Mar 13 2023 15:14:56 GMT-0400 (Eastern Daylight Time)","672607","Match,No Match","","null","","","","","","<div class='trialBorder'><div class='vertical-center'><img style='vertical-align:center; align:center' src='img/fixation2_sml.jpg'></div><div class='arrayDiv2'><div class='tl'><img class='introPic' src='trustrating_stim/white_mw013.bmp'><br><font color='green'><strong>Share</strong></font></div><div class='tr'><img class='introPic' src='trustrating_stim/white_mw038.bmp'><br><font color='red'><strong>Keep</strong></font></div></div></div>","null","ARRAY","2","trustrating_stim/white_mw013.bmp,trustrating_stim/white_mw038.bmp","1,0","Match","e","3000","","","","",""
"html-keyboard-response","31","207137","0.0-5.0-3.5","63bd81516745e78ee7f50f7f","bdp_wmem","Mon Mar 13 2023 15:14:56 GMT-0400 (Eastern Daylight Time)","672607","Match,No Match","","null","","","","","","<div class='trialBorder'><div class='vertical-center'><img src='img/fixation2_sml.jpg'</img></div></div>","null","DELAY","","","","","","","","","","",""
"html-keyboard-response","32","207822","0.0-5.0-4.5","63bd81516745e78ee7f50f7f","bdp_wmem","Mon Mar 13 2023 15:14:56 GMT-0400 (Eastern Daylight Time)","672607","Match,No Match","","683","","","","","","<div class='trialBorder'><div class='targDiv'><div class='tc'><img class='introPic' src='trustrating_stim/white_mw013.bmp'><br><font color='green'><strong>Share</strong></font></div></div><div class='respDiv'><div class='respDivL'>Match<br>(e)</div><div class='respDivR'>No Match<br>(i)</div></div></div>","i","TARGET","2","trustrating_stim/white_mw013.bmp,trustrating_stim/white_mw038.bmp","1,0","Match","e","3000","trustrating_stim/white_mw013.bmp","green","Share","PRACTICE","0"
"html-keyboard-response","33","208331","0.0-5.0-5.5","63bd81516745e78ee7f50f7f","bdp_wmem","Mon Mar 13 2023 15:14:56 GMT-0400 (Eastern Daylight Time)","672607","Match,No Match","","null","","","","","","<div class='trialBorder'><div class='vertical-center'><img src='img/error.jpg'></div><div class='respDiv'><div class='respDivL'>Match<br>(e)</div><div class='respDivR'><font style='color:orange'>No Match<br>(i)</font></div></div></div>","null","FEEDBACK","","","","","","","","","","",""
"instructions","34","210827","0.0-6.0","63bd81516745e78ee7f50f7f","bdp_wmem","Mon Mar 13 2023 15:14:56 GMT-0400 (Eastern Daylight Time)","672607","Match,No Match","[{""page_index"":0,""viewing_time"":2496}]","2496","","","","","","","","","","","","","","","","","","",""
"html-keyboard-response","35","211329","0.0-7.0-1.0","63bd81516745e78ee7f50f7f","bdp_wmem","Mon Mar 13 2023 15:14:56 GMT-0400 (Eastern Daylight Time)","672607","Match,No Match","","null","","","","","","<div class='trialBorder'><div class='vertical-center'><img src='img/fixation2_sml.jpg'</img></div></div>","null","FIX","","","","","","","","","","",""
"html-keyboard-response","36","215835","0.0-7.0-2.0","63bd81516745e78ee7f50f7f","bdp_wmem","Mon Mar 13 2023 15:14:56 GMT-0400 (Eastern Daylight Time)","672607","Match,No Match","","null","","","","","","<div class='trialBorder'><div class='vertical-center'><img style='vertical-align:center; align:center' src='img/fixation2_sml.jpg'></div><div class='arrayDiv3'><div class='tl'><img class='introPic' src='trustrating_stim/white_mw078.bmp'><br><font color='red'><strong>Keep</strong></font></div><div class='tc'><img class='introPic' src='trustrating_stim/white_mw085.bmp'><br><font color='green'><strong>Share</strong></font></div><div class='tr'><img class='introPic' src='trustrating_stim/white_mw012.bmp'><br><font color='green'><strong>Share</strong></font></div></div></div>","null","ARRAY","3","trustrating_stim/white_mw078.bmp,trustrating_stim/white_mw085.bmp,trustrating_stim/white_mw012.bmp","0,1,1","noMatchOutcome","i","4500","","","","",""
"html-keyboard-response","37","219841","0.0-7.0-3.0","63bd81516745e78ee7f50f7f","bdp_wmem","Mon Mar 13 2023 15:14:56 GMT-0400 (Eastern Daylight Time)","672607","Match,No Match","","null","","","","","","<div class='trialBorder'><div class='vertical-center'><img src='img/fixation2_sml.jpg'</img></div></div>","null","DELAY","","","","","","","","","","",""
"html-keyboard-response","38","221399","0.0-7.0-4.0","63bd81516745e78ee7f50f7f","bdp_wmem","Mon Mar 13 2023 15:14:56 GMT-0400 (Eastern Daylight Time)","672607","Match,No Match","","1556","","","","","","<div class='trialBorder'><div class='targDiv'><div class='tc'><img class='introPic' src='trustrating_stim/white_mw012.bmp'><br><font color='red'><strong>Keep</strong></font></div></div><div class='respDiv'><div class='respDivL'>Match<br>(e)</div><div class='respDivR'>No Match<br>(i)</div></div></div>","i","TARGET","3","trustrating_stim/white_mw078.bmp,trustrating_stim/white_mw085.bmp,trustrating_stim/white_mw012.bmp","0,1,1","noMatchOutcome","i","4500","trustrating_stim/white_mw012.bmp","red","Keep","REAL","1"
"html-keyboard-response","39","221905","0.0-7.0-5.0","63bd81516745e78ee7f50f7f","bdp_wmem","Mon Mar 13 2023 15:14:56 GMT-0400 (Eastern Daylight Time)","672607","Match,No Match","","null","","","","","","<div class='trialBorder'><div class='vertical-center'><img src='img/correct.jpg'></div><div class='respDiv'><div class='respDivL'>Match<br>(e)</div><div class='respDivR'><font style='color:orange'>No Match<br>(i)</font></div></div></div>","null","FEEDBACK","","","","","","","","","","",""
"html-keyboard-response","40","222411","0.0-7.0-1.1","63bd81516745e78ee7f50f7f","bdp_wmem","Mon Mar 13 2023 15:14:56 GMT-0400 (Eastern Daylight Time)","672607","Match,No Match","","null","","","","","","<div class='trialBorder'><div class='vertical-center'><img src='img/fixation2_sml.jpg'</img></div></div>","null","FIX","","","","","","","","","","",""
"html-keyboard-response","41","225419","0.0-7.0-2.1","63bd81516745e78ee7f50f7f","bdp_wmem","Mon Mar 13 2023 15:14:56 GMT-0400 (Eastern Daylight Time)","672607","Match,No Match","","null","","","","","","<div class='trialBorder'><div class='vertical-center'><img style='vertical-align:center; align:center' src='img/fixation2_sml.jpg'></div><div class='arrayDiv2'><div class='tl'><img class='introPic' src='trustrating_stim/white_mw085.bmp'><br><font color='green'><strong>Share</strong></font></div><div class='tr'><img class='introPic' src='trustrating_stim/white_mw078.bmp'><br><font color='red'><strong>Keep</strong></font></div></div></div>","null","ARRAY","2","trustrating_stim/white_mw085.bmp,trustrating_stim/white_mw078.bmp","1,0","Match","e","3000","","","","",""
"html-keyboard-response","42","229425","0.0-7.0-3.1","63bd81516745e78ee7f50f7f","bdp_wmem","Mon Mar 13 2023 15:14:56 GMT-0400 (Eastern Daylight Time)","672607","Match,No Match","","null","","","","","","<div class='trialBorder'><div class='vertical-center'><img src='img/fixation2_sml.jpg'</img></div></div>","null","DELAY","","","","","","","","","","",""
"html-keyboard-response","43","229885","0.0-7.0-4.1","63bd81516745e78ee7f50f7f","bdp_wmem","Mon Mar 13 2023 15:14:56 GMT-0400 (Eastern Daylight Time)","672607","Match,No Match","","459","","","","","","<div class='trialBorder'><div class='targDiv'><div class='tc'><img class='introPic' src='trustrating_stim/white_mw078.bmp'><br><font color='red'><strong>Keep</strong></font></div></div><div class='respDiv'><div class='respDivL'>Match<br>(e)</div><div class='respDivR'>No Match<br>(i)</div></div></div>","i","TARGET","2","trustrating_stim/white_mw085.bmp,trustrating_stim/white_mw078.bmp","1,0","Match","e","3000","trustrating_stim/white_mw078.bmp","red","Keep","REAL","0"
"html-keyboard-response","44","230395","0.0-7.0-5.1","63bd81516745e78ee7f50f7f","bdp_wmem","Mon Mar 13 2023 15:14:56 GMT-0400 (Eastern Daylight Time)","672607","Match,No Match","","null","","","","","","<div class='trialBorder'><div class='vertical-center'><img src='img/error.jpg'></div><div class='respDiv'><div class='respDivL'>Match<br>(e)</div><div class='respDivR'><font style='color:orange'>No Match<br>(i)</font></div></div></div>","null","FEEDBACK","","","","","","","","","","",""
"html-keyboard-response","45","230897","0.0-7.0-1.2","63bd81516745e78ee7f50f7f","bdp_wmem","Mon Mar 13 2023 15:14:56 GMT-0400 (Eastern Daylight Time)","672607","Match,No Match","","null","","","","","","<div class='trialBorder'><div class='vertical-center'><img src='img/fixation2_sml.jpg'</img></div></div>","null","FIX","","","","","","","","","","",""
"html-keyboard-response","46","235403","0.0-7.0-2.2","63bd81516745e78ee7f50f7f","bdp_wmem","Mon Mar 13 2023 15:14:56 GMT-0400 (Eastern Daylight Time)","672607","Match,No Match","","null","","","","","","<div class='trialBorder'><div class='vertical-center'><img style='vertical-align:center; align:center' src='img/fixation2_sml.jpg'></div><div class='arrayDiv3'><div class='tl'><img class='introPic' src='trustrating_stim/white_mw013.bmp'><br><font color='red'><strong>Keep</strong></font></div><div class='tc'><img class='introPic' src='trustrating_stim/white_mw092.bmp'><br><font color='green'><strong>Share</strong></font></div><div class='tr'><img class='introPic' src='trustrating_stim/white_mw012.bmp'><br><font color='red'><strong>Keep</strong></font></div></div></div>","null","ARRAY","3","trustrating_stim/white_mw013.bmp,trustrating_stim/white_mw092.bmp,trustrating_stim/white_mw012.bmp","0,1,0","noMatchFace","i","4500","","","","",""
"html-keyboard-response","47","239410","0.0-7.0-3.2","63bd81516745e78ee7f50f7f","bdp_wmem","Mon Mar 13 2023 15:14:56 GMT-0400 (Eastern Daylight Time)","672607","Match,No Match","","null","","","","","","<div class='trialBorder'><div class='vertical-center'><img src='img/fixation2_sml.jpg'</img></div></div>","null","DELAY","","","","","","","","","","",""
"html-keyboard-response","48","240379","0.0-7.0-4.2","63bd81516745e78ee7f50f7f","bdp_wmem","Mon Mar 13 2023 15:14:56 GMT-0400 (Eastern Daylight Time)","672607","Match,No Match","","968","","","","","","<div class='trialBorder'><div class='targDiv'><div class='tc'><img class='introPic' src='trustrating_stim/white_mw040.bmp'><br><font color='red'><strong>Keep</strong></font></div></div><div class='respDiv'><div class='respDivL'>Match<br>(e)</div><div class='respDivR'>No Match<br>(i)</div></div></div>","i","TARGET","3","trustrating_stim/white_mw013.bmp,trustrating_stim/white_mw092.bmp,trustrating_stim/white_mw012.bmp","0,1,0","noMatchFace","i","4500","trustrating_stim/white_mw040.bmp","red","Keep","REAL","1"
"html-keyboard-response","49","240882","0.0-7.0-5.2","63bd81516745e78ee7f50f7f","bdp_wmem","Mon Mar 13 2023 15:14:56 GMT-0400 (Eastern Daylight Time)","672607","Match,No Match","","null","","","","","","<div class='trialBorder'><div class='vertical-center'><img src='img/correct.jpg'></div><div class='respDiv'><div class='respDivL'>Match<br>(e)</div><div class='respDivR'><font style='color:orange'>No Match<br>(i)</font></div></div></div>","null","FEEDBACK","","","","","","","","","","",""
"html-keyboard-response","50","241387","0.0-7.0-1.3","63bd81516745e78ee7f50f7f","bdp_wmem","Mon Mar 13 2023 15:14:56 GMT-0400 (Eastern Daylight Time)","672607","Match,No Match","","null","","","","","","<div class='trialBorder'><div class='vertical-center'><img src='img/fixation2_sml.jpg'</img></div></div>","null","FIX","","","","","","","","","","",""
"html-keyboard-response","51","244395","0.0-7.0-2.3","63bd81516745e78ee7f50f7f","bdp_wmem","Mon Mar 13 2023 15:14:56 GMT-0400 (Eastern Daylight Time)","672607","Match,No Match","","null","","","","","","<div class='trialBorder'><div class='vertical-center'><img style='vertical-align:center; align:center' src='img/fixation2_sml.jpg'></div><div class='arrayDiv2'><div class='tl'><img class='introPic' src='trustrating_stim/white_mw040.bmp'><br><font color='red'><strong>Keep</strong></font></div><div class='tr'><img class='introPic' src='trustrating_stim/white_mw078.bmp'><br><font color='green'><strong>Share</strong></font></div></div></div>","null","ARRAY","2","trustrating_stim/white_mw040.bmp,trustrating_stim/white_mw078.bmp","0,1","Match","e","3000","","","","",""
"html-keyboard-response","52","248402","0.0-7.0-3.3","63bd81516745e78ee7f50f7f","bdp_wmem","Mon Mar 13 2023 15:14:56 GMT-0400 (Eastern Daylight Time)","672607","Match,No Match","","null","","","","","","<div class='trialBorder'><div class='vertical-center'><img src='img/fixation2_sml.jpg'</img></div></div>","null","DELAY","","","","","","","","","","",""
"html-keyboard-response","53","249030","0.0-7.0-4.3","63bd81516745e78ee7f50f7f","bdp_wmem","Mon Mar 13 2023 15:14:56 GMT-0400 (Eastern Daylight Time)","672607","Match,No Match","","627","","","","","","<div class='trialBorder'><div class='targDiv'><div class='tc'><img class='introPic' src='trustrating_stim/white_mw078.bmp'><br><font color='green'><strong>Share</strong></font></div></div><div class='respDiv'><div class='respDivL'>Match<br>(e)</div><div class='respDivR'>No Match<br>(i)</div></div></div>","i","TARGET","2","trustrating_stim/white_mw040.bmp,trustrating_stim/white_mw078.bmp","0,1","Match","e","3000","trustrating_stim/white_mw078.bmp","green","Share","REAL","0"
"html-keyboard-response","54","249538","0.0-7.0-5.3","63bd81516745e78ee7f50f7f","bdp_wmem","Mon Mar 13 2023 15:14:56 GMT-0400 (Eastern Daylight Time)","672607","Match,No Match","","null","","","","","","<div class='trialBorder'><div class='vertical-center'><img src='img/error.jpg'></div><div class='respDiv'><div class='respDivL'>Match<br>(e)</div><div class='respDivR'><font style='color:orange'>No Match<br>(i)</font></div></div></div>","null","FEEDBACK","","","","","","","","","","",""
"html-keyboard-response","55","250043","0.0-7.0-1.4","63bd81516745e78ee7f50f7f","bdp_wmem","Mon Mar 13 2023 15:14:56 GMT-0400 (Eastern Daylight Time)","672607","Match,No Match","","null","","","","","","<div class='trialBorder'><div class='vertical-center'><img src='img/fixation2_sml.jpg'</img></div></div>","null","FIX","","","","","","","","","","",""
"html-keyboard-response","56","254546","0.0-7.0-2.4","63bd81516745e78ee7f50f7f","bdp_wmem","Mon Mar 13 2023 15:14:56 GMT-0400 (Eastern Daylight Time)","672607","Match,No Match","","null","","","","","","<div class='trialBorder'><div class='vertical-center'><img style='vertical-align:center; align:center' src='img/fixation2_sml.jpg'></div><div class='arrayDiv3'><div class='tl'><img class='introPic' src='trustrating_stim/white_mw085.bmp'><br><font color='red'><strong>Keep</strong></font></div><div class='tc'><img class='introPic' src='trustrating_stim/white_mw003.bmp'><br><font color='green'><strong>Share</strong></font></div><div class='tr'><img class='introPic' src='trustrating_stim/white_mw038.bmp'><br><font color='green'><strong>Share</strong></font></div></div></div>","null","ARRAY","3","trustrating_stim/white_mw085.bmp,trustrating_stim/white_mw003.bmp,trustrating_stim/white_mw038.bmp","0,1,1","Match","e","4500","","","","",""
"html-keyboard-response","57","258555","0.0-7.0-3.4","63bd81516745e78ee7f50f7f","bdp_wmem","Mon Mar 13 2023 15:14:56 GMT-0400 (Eastern Daylight Time)","672607","Match,No Match","","null","","","","","","<div class='trialBorder'><div class='vertical-center'><img src='img/fixation2_sml.jpg'</img></div></div>","null","DELAY","","","","","","","","","","",""
"html-keyboard-response","58","259752","0.0-7.0-4.4","63bd81516745e78ee7f50f7f","bdp_wmem","Mon Mar 13 2023 15:14:56 GMT-0400 (Eastern Daylight Time)","672607","Match,No Match","","1195","","","","","","<div class='trialBorder'><div class='targDiv'><div class='tc'><img class='introPic' src='trustrating_stim/white_mw085.bmp'><br><font color='red'><strong>Keep</strong></font></div></div><div class='respDiv'><div class='respDivL'>Match<br>(e)</div><div class='respDivR'>No Match<br>(i)</div></div></div>","i","TARGET","3","trustrating_stim/white_mw085.bmp,trustrating_stim/white_mw003.bmp,trustrating_stim/white_mw038.bmp","0,1,1","Match","e","4500","trustrating_stim/white_mw085.bmp","red","Keep","REAL","0"
"html-keyboard-response","59","260258","0.0-7.0-5.4","63bd81516745e78ee7f50f7f","bdp_wmem","Mon Mar 13 2023 15:14:56 GMT-0400 (Eastern Daylight Time)","672607","Match,No Match","","null","","","","","","<div class='trialBorder'><div class='vertical-center'><img src='img/error.jpg'></div><div class='respDiv'><div class='respDivL'>Match<br>(e)</div><div class='respDivR'><font style='color:orange'>No Match<br>(i)</font></div></div></div>","null","FEEDBACK","","","","","","","","","","",""
"html-keyboard-response","60","260763","0.0-7.0-1.5","63bd81516745e78ee7f50f7f","bdp_wmem","Mon Mar 13 2023 15:14:56 GMT-0400 (Eastern Daylight Time)","672607","Match,No Match","","null","","","","","","<div class='trialBorder'><div class='vertical-center'><img src='img/fixation2_sml.jpg'</img></div></div>","null","FIX","","","","","","","","","","",""
"html-keyboard-response","61","263771","0.0-7.0-2.5","63bd81516745e78ee7f50f7f","bdp_wmem","Mon Mar 13 2023 15:14:56 GMT-0400 (Eastern Daylight Time)","672607","Match,No Match","","null","","","","","","<div class='trialBorder'><div class='vertical-center'><img style='vertical-align:center; align:center' src='img/fixation2_sml.jpg'></div><div class='arrayDiv2'><div class='tl'><img class='introPic' src='trustrating_stim/white_mw038.bmp'><br><font color='red'><strong>Keep</strong></font></div><div class='tr'><img class='introPic' src='trustrating_stim/white_mw010.bmp'><br><font color='green'><strong>Share</strong></font></div></div></div>","null","ARRAY","2","trustrating_stim/white_mw038.bmp,trustrating_stim/white_mw010.bmp","0,1","noMatchOutcome","i","3000","","","","",""
"html-keyboard-response","62","267778","0.0-7.0-3.5","63bd81516745e78ee7f50f7f","bdp_wmem","Mon Mar 13 2023 15:14:56 GMT-0400 (Eastern Daylight Time)","672607","Match,No Match","","null","","","","","","<div class='trialBorder'><div class='vertical-center'><img src='img/fixation2_sml.jpg'</img></div></div>","null","DELAY","","","","","","","","","","",""
"html-keyboard-response","63","269122","0.0-7.0-4.5","63bd81516745e78ee7f50f7f","bdp_wmem","Mon Mar 13 2023 15:14:56 GMT-0400 (Eastern Daylight Time)","672607","Match,No Match","","1342","","","","","","<div class='trialBorder'><div class='targDiv'><div class='tc'><img class='introPic' src='trustrating_stim/white_mw038.bmp'><br><font color='green'><strong>Share</strong></font></div></div><div class='respDiv'><div class='respDivL'>Match<br>(e)</div><div class='respDivR'>No Match<br>(i)</div></div></div>","e","TARGET","2","trustrating_stim/white_mw038.bmp,trustrating_stim/white_mw010.bmp","0,1","noMatchOutcome","i","3000","trustrating_stim/white_mw038.bmp","green","Share","REAL","0"
"html-keyboard-response","64","269627","0.0-7.0-5.5","63bd81516745e78ee7f50f7f","bdp_wmem","Mon Mar 13 2023 15:14:56 GMT-0400 (Eastern Daylight Time)","672607","Match,No Match","","null","","","","","","<div class='trialBorder'><div class='vertical-center'><img src='img/error.jpg'></div><div class='respDiv'><div class='respDivL'><font style='color:orange'>Match<br>(e)</font></div><div class='respDivR'>No Match<br>(i)</div></div></div>","null","FEEDBACK","","","","","","","","","","",""
"html-keyboard-response","65","270130","0.0-7.0-1.6","63bd81516745e78ee7f50f7f","bdp_wmem","Mon Mar 13 2023 15:14:56 GMT-0400 (Eastern Daylight Time)","672607","Match,No Match","","null","","","","","","<div class='trialBorder'><div class='vertical-center'><img src='img/fixation2_sml.jpg'</img></div></div>","null","FIX","","","","","","","","","","",""
"html-keyboard-response","66","271634","0.0-7.0-2.6","63bd81516745e78ee7f50f7f","bdp_wmem","Mon Mar 13 2023 15:14:56 GMT-0400 (Eastern Daylight Time)","672607","Match,No Match","","null","","","","","","<div class='trialBorder'><div class='vertical-center'><img style='vertical-align:center; align:center' src='img/fixation2_sml.jpg'></div><div class='arrayDiv1'><div class='tc'><img class='introPic' src='trustrating_stim/white_mw003.bmp'><br><font color='red'><strong>Keep</strong></font></div></div></div>","null","ARRAY","1","trustrating_stim/white_mw003.bmp","0","noMatchFace","i","1500","","","","",""
"html-keyboard-response","67","275643","0.0-7.0-3.6","63bd81516745e78ee7f50f7f","bdp_wmem","Mon Mar 13 2023 15:14:56 GMT-0400 (Eastern Daylight Time)","672607","Match,No Match","","null","","","","","","<div class='trialBorder'><div class='vertical-center'><img src='img/fixation2_sml.jpg'</img></div></div>","null","DELAY","","","","","","","","","","",""
"html-keyboard-response","68","276188","0.0-7.0-4.6","63bd81516745e78ee7f50f7f","bdp_wmem","Mon Mar 13 2023 15:14:56 GMT-0400 (Eastern Daylight Time)","672607","Match,No Match","","542","","","","","","<div class='trialBorder'><div class='targDiv'><div class='tc'><img class='introPic' src='trustrating_stim/white_mw013.bmp'><br><font color='red'><strong>Keep</strong></font></div></div><div class='respDiv'><div class='respDivL'>Match<br>(e)</div><div class='respDivR'>No Match<br>(i)</div></div></div>","e","TARGET","1","trustrating_stim/white_mw003.bmp","0","noMatchFace","i","1500","trustrating_stim/white_mw013.bmp","red","Keep","REAL","0"
"html-keyboard-response","69","276690","0.0-7.0-5.6","63bd81516745e78ee7f50f7f","bdp_wmem","Mon Mar 13 2023 15:14:56 GMT-0400 (Eastern Daylight Time)","672607","Match,No Match","","null","","","","","","<div class='trialBorder'><div class='vertical-center'><img src='img/error.jpg'></div><div class='respDiv'><div class='respDivL'><font style='color:orange'>Match<br>(e)</font></div><div class='respDivR'>No Match<br>(i)</div></div></div>","null","FEEDBACK","","","","","","","","","","",""
"html-keyboard-response","70","277195","0.0-7.0-1.7","63bd81516745e78ee7f50f7f","bdp_wmem","Mon Mar 13 2023 15:14:56 GMT-0400 (Eastern Daylight Time)","672607","Match,No Match","","null","","","","","","<div class='trialBorder'><div class='vertical-center'><img src='img/fixation2_sml.jpg'</img></div></div>","null","FIX","","","","","","","","","","",""
"html-keyboard-response","71","281698","0.0-7.0-2.7","63bd81516745e78ee7f50f7f","bdp_wmem","Mon Mar 13 2023 15:14:56 GMT-0400 (Eastern Daylight Time)","672607","Match,No Match","","null","","","","","","<div class='trialBorder'><div class='vertical-center'><img style='vertical-align:center; align:center' src='img/fixation2_sml.jpg'></div><div class='arrayDiv3'><div class='tl'><img class='introPic' src='trustrating_stim/white_mw003.bmp'><br><font color='red'><strong>Keep</strong></font></div><div class='tc'><img class='introPic' src='trustrating_stim/white_mw042.bmp'><br><font color='green'><strong>Share</strong></font></div><div class='tr'><img class='introPic' src='trustrating_stim/white_mw040.bmp'><br><font color='red'><strong>Keep</strong></font></div></div></div>","null","ARRAY","3","trustrating_stim/white_mw003.bmp,trustrating_stim/white_mw042.bmp,trustrating_stim/white_mw040.bmp","0,1,0","Match","e","4500","","","","",""
"html-keyboard-response","72","285711","0.0-7.0-3.7","63bd81516745e78ee7f50f7f","bdp_wmem","Mon Mar 13 2023 15:14:56 GMT-0400 (Eastern Daylight Time)","672607","Match,No Match","","null","","","","","","<div class='trialBorder'><div class='vertical-center'><img src='img/fixation2_sml.jpg'</img></div></div>","null","DELAY","","","","","","","","","","",""
"html-keyboard-response","73","286510","0.0-7.0-4.7","63bd81516745e78ee7f50f7f","bdp_wmem","Mon Mar 13 2023 15:14:56 GMT-0400 (Eastern Daylight Time)","672607","Match,No Match","","798","","","","","","<div class='trialBorder'><div class='targDiv'><div class='tc'><img class='introPic' src='trustrating_stim/white_mw042.bmp'><br><font color='green'><strong>Share</strong></font></div></div><div class='respDiv'><div class='respDivL'>Match<br>(e)</div><div class='respDivR'>No Match<br>(i)</div></div></div>","i","TARGET","3","trustrating_stim/white_mw003.bmp,trustrating_stim/white_mw042.bmp,trustrating_stim/white_mw040.bmp","0,1,0","Match","e","4500","trustrating_stim/white_mw042.bmp","green","Share","REAL","0"
"html-keyboard-response","74","287019","0.0-7.0-5.7","63bd81516745e78ee7f50f7f","bdp_wmem","Mon Mar 13 2023 15:14:56 GMT-0400 (Eastern Daylight Time)","672607","Match,No Match","","null","","","","","","<div class='trialBorder'><div class='vertical-center'><img src='img/error.jpg'></div><div class='respDiv'><div class='respDivL'>Match<br>(e)</div><div class='respDivR'><font style='color:orange'>No Match<br>(i)</font></div></div></div>","null","FEEDBACK","","","","","","","","","","",""
"html-keyboard-response","75","287522","0.0-7.0-1.8","63bd81516745e78ee7f50f7f","bdp_wmem","Mon Mar 13 2023 15:14:56 GMT-0400 (Eastern Daylight Time)","672607","Match,No Match","","null","","","","","","<div class='trialBorder'><div class='vertical-center'><img src='img/fixation2_sml.jpg'</img></div></div>","null","FIX","","","","","","","","","","",""
"html-keyboard-response","76","290530","0.0-7.0-2.8","63bd81516745e78ee7f50f7f","bdp_wmem","Mon Mar 13 2023 15:14:56 GMT-0400 (Eastern Daylight Time)","672607","Match,No Match","","null","","","","","","<div class='trialBorder'><div class='vertical-center'><img style='vertical-align:center; align:center' src='img/fixation2_sml.jpg'></div><div class='arrayDiv2'><div class='tl'><img class='introPic' src='trustrating_stim/white_mw012.bmp'><br><font color='green'><strong>Share</strong></font></div><div class='tr'><img class='introPic' src='trustrating_stim/white_mw085.bmp'><br><font color='red'><strong>Keep</strong></font></div></div></div>","null","ARRAY","2","trustrating_stim/white_mw012.bmp,trustrating_stim/white_mw085.bmp","1,0","Match","e","3000","","","","",""
"html-keyboard-response","77","294540","0.0-7.0-3.8","63bd81516745e78ee7f50f7f","bdp_wmem","Mon Mar 13 2023 15:14:56 GMT-0400 (Eastern Daylight Time)","672607","Match,No Match","","null","","","","","","<div class='trialBorder'><div class='vertical-center'><img src='img/fixation2_sml.jpg'</img></div></div>","null","DELAY","","","","","","","","","","",""
"html-keyboard-response","78","295283","0.0-7.0-4.8","63bd81516745e78ee7f50f7f","bdp_wmem","Mon Mar 13 2023 15:14:56 GMT-0400 (Eastern Daylight Time)","672607","Match,No Match","","742","","","","","","<div class='trialBorder'><div class='targDiv'><div class='tc'><img class='introPic' src='trustrating_stim/white_mw085.bmp'><br><font color='red'><strong>Keep</strong></font></div></div><div class='respDiv'><div class='respDivL'>Match<br>(e)</div><div class='respDivR'>No Match<br>(i)</div></div></div>","i","TARGET","2","trustrating_stim/white_mw012.bmp,trustrating_stim/white_mw085.bmp","1,0","Match","e","3000","trustrating_stim/white_mw085.bmp","red","Keep","REAL","0"
"html-keyboard-response","79","295788","0.0-7.0-5.8","63bd81516745e78ee7f50f7f","bdp_wmem","Mon Mar 13 2023 15:14:56 GMT-0400 (Eastern Daylight Time)","672607","Match,No Match","","null","","","","","","<div class='trialBorder'><div class='vertical-center'><img src='img/error.jpg'></div><div class='respDiv'><div class='respDivL'>Match<br>(e)</div><div class='respDivR'><font style='color:orange'>No Match<br>(i)</font></div></div></div>","null","FEEDBACK","","","","","","","","","","",""
"html-keyboard-response","80","296290","0.0-7.0-1.9","63bd81516745e78ee7f50f7f","bdp_wmem","Mon Mar 13 2023 15:14:56 GMT-0400 (Eastern Daylight Time)","672607","Match,No Match","","null","","","","","","<div class='trialBorder'><div class='vertical-center'><img src='img/fixation2_sml.jpg'</img></div></div>","null","FIX","","","","","","","","","","",""
"html-keyboard-response","81","299302","0.0-7.0-2.9","63bd81516745e78ee7f50f7f","bdp_wmem","Mon Mar 13 2023 15:14:56 GMT-0400 (Eastern Daylight Time)","672607","Match,No Match","","null","","","","","","<div class='trialBorder'><div class='vertical-center'><img style='vertical-align:center; align:center' src='img/fixation2_sml.jpg'></div><div class='arrayDiv2'><div class='tl'><img class='introPic' src='trustrating_stim/white_mw003.bmp'><br><font color='green'><strong>Share</strong></font></div><div class='tr'><img class='introPic' src='trustrating_stim/white_mw042.bmp'><br><font color='red'><strong>Keep</strong></font></div></div></div>","null","ARRAY","2","trustrating_stim/white_mw003.bmp,trustrating_stim/white_mw042.bmp","1,0","noMatchFace","i","3000","","","","",""
"html-keyboard-response","82","303307","0.0-7.0-3.9","63bd81516745e78ee7f50f7f","bdp_wmem","Mon Mar 13 2023 15:14:56 GMT-0400 (Eastern Daylight Time)","672607","Match,No Match","","null","","","","","","<div class='trialBorder'><div class='vertical-center'><img src='img/fixation2_sml.jpg'</img></div></div>","null","DELAY","","","","","","","","","","",""
"html-keyboard-response","83","304885","0.0-7.0-4.9","63bd81516745e78ee7f50f7f","bdp_wmem","Mon Mar 13 2023 15:14:56 GMT-0400 (Eastern Daylight Time)","672607","Match,No Match","","1576","","","","","","<div class='trialBorder'><div class='targDiv'><div class='tc'><img class='introPic' src='trustrating_stim/white_mw038.bmp'><br><font color='green'><strong>Share</strong></font></div></div><div class='respDiv'><div class='respDivL'>Match<br>(e)</div><div class='respDivR'>No Match<br>(i)</div></div></div>","i","TARGET","2","trustrating_stim/white_mw003.bmp,trustrating_stim/white_mw042.bmp","1,0","noMatchFace","i","3000","trustrating_stim/white_mw038.bmp","green","Share","REAL","1"
"html-keyboard-response","84","305388","0.0-7.0-5.9","63bd81516745e78ee7f50f7f","bdp_wmem","Mon Mar 13 2023 15:14:56 GMT-0400 (Eastern Daylight Time)","672607","Match,No Match","","null","","","","","","<div class='trialBorder'><div class='vertical-center'><img src='img/correct.jpg'></div><div class='respDiv'><div class='respDivL'>Match<br>(e)</div><div class='respDivR'><font style='color:orange'>No Match<br>(i)</font></div></div></div>","null","FEEDBACK","","","","","","","","","","",""
"html-keyboard-response","85","305894","0.0-7.0-1.10","63bd81516745e78ee7f50f7f","bdp_wmem","Mon Mar 13 2023 15:14:56 GMT-0400 (Eastern Daylight Time)","672607","Match,No Match","","null","","","","","","<div class='trialBorder'><div class='vertical-center'><img src='img/fixation2_sml.jpg'</img></div></div>","null","FIX","","","","","","","","","","",""
"html-keyboard-response","86","310402","0.0-7.0-2.10","63bd81516745e78ee7f50f7f","bdp_wmem","Mon Mar 13 2023 15:14:56 GMT-0400 (Eastern Daylight Time)","672607","Match,No Match","","null","","","","","","<div class='trialBorder'><div class='vertical-center'><img style='vertical-align:center; align:center' src='img/fixation2_sml.jpg'></div><div class='arrayDiv3'><div class='tl'><img class='introPic' src='trustrating_stim/white_mw078.bmp'><br><font color='green'><strong>Share</strong></font></div><div class='tc'><img class='introPic' src='trustrating_stim/white_mw091.bmp'><br><font color='green'><strong>Share</strong></font></div><div class='tr'><img class='introPic' src='trustrating_stim/white_mw038.bmp'><br><font color='red'><strong>Keep</strong></font></div></div></div>","null","ARRAY","3","trustrating_stim/white_mw078.bmp,trustrating_stim/white_mw091.bmp,trustrating_stim/white_mw038.bmp","1,1,0","noMatchOutcome","i","4500","","","","",""
"html-keyboard-response","87","314411","0.0-7.0-3.10","63bd81516745e78ee7f50f7f","bdp_wmem","Mon Mar 13 2023 15:14:56 GMT-0400 (Eastern Daylight Time)","672607","Match,No Match","","null","","","","","","<div class='trialBorder'><div class='vertical-center'><img src='img/fixation2_sml.jpg'</img></div></div>","null","DELAY","","","","","","","","","","",""
"html-keyboard-response","88","316305","0.0-7.0-4.10","63bd81516745e78ee7f50f7f","bdp_wmem","Mon Mar 13 2023 15:14:56 GMT-0400 (Eastern Daylight Time)","672607","Match,No Match","","1892","","","","","","<div class='trialBorder'><div class='targDiv'><div class='tc'><img class='introPic' src='trustrating_stim/white_mw038.bmp'><br><font color='green'><strong>Share</strong></font></div></div><div class='respDiv'><div class='respDivL'>Match<br>(e)</div><div class='respDivR'>No Match<br>(i)</div></div></div>","i","TARGET","3","trustrating_stim/white_mw078.bmp,trustrating_stim/white_mw091.bmp,trustrating_stim/white_mw038.bmp","1,1,0","noMatchOutcome","i","4500","trustrating_stim/white_mw038.bmp","green","Share","REAL","1"
"html-keyboard-response","89","316812","0.0-7.0-5.10","63bd81516745e78ee7f50f7f","bdp_wmem","Mon Mar 13 2023 15:14:56 GMT-0400 (Eastern Daylight Time)","672607","Match,No Match","","null","","","","","","<div class='trialBorder'><div class='vertical-center'><img src='img/correct.jpg'></div><div class='respDiv'><div class='respDivL'>Match<br>(e)</div><div class='respDivR'><font style='color:orange'>No Match<br>(i)</font></div></div></div>","null","FEEDBACK","","","","","","","","","","",""
"html-keyboard-response","90","317314","0.0-7.0-1.11","63bd81516745e78ee7f50f7f","bdp_wmem","Mon Mar 13 2023 15:14:56 GMT-0400 (Eastern Daylight Time)","672607","Match,No Match","","null","","","","","","<div class='trialBorder'><div class='vertical-center'><img src='img/fixation2_sml.jpg'</img></div></div>","null","FIX","","","","","","","","","","",""
"html-keyboard-response","91","320322","0.0-7.0-2.11","63bd81516745e78ee7f50f7f","bdp_wmem","Mon Mar 13 2023 15:14:56 GMT-0400 (Eastern Daylight Time)","672607","Match,No Match","","null","","","","","","<div class='trialBorder'><div class='vertical-center'><img style='vertical-align:center; align:center' src='img/fixation2_sml.jpg'></div><div class='arrayDiv2'><div class='tl'><img class='introPic' src='trustrating_stim/white_mw013.bmp'><br><font color='red'><strong>Keep</strong></font></div><div class='tr'><img class='introPic' src='trustrating_stim/white_mw091.bmp'><br><font color='green'><strong>Share</strong></font></div></div></div>","null","ARRAY","2","trustrating_stim/white_mw013.bmp,trustrating_stim/white_mw091.bmp","0,1","Match","e","3000","","","","",""
"html-keyboard-response","92","324333","0.0-7.0-3.11","63bd81516745e78ee7f50f7f","bdp_wmem","Mon Mar 13 2023 15:14:56 GMT-0400 (Eastern Daylight Time)","672607","Match,No Match","","null","","","","","","<div class='trialBorder'><div class='vertical-center'><img src='img/fixation2_sml.jpg'</img></div></div>","null","DELAY","","","","","","","","","","",""
"html-keyboard-response","93","325589","0.0-7.0-4.11","63bd81516745e78ee7f50f7f","bdp_wmem","Mon Mar 13 2023 15:14:56 GMT-0400 (Eastern Daylight Time)","672607","Match,No Match","","1254","","","","","","<div class='trialBorder'><div class='targDiv'><div class='tc'><img class='introPic' src='trustrating_stim/white_mw091.bmp'><br><font color='green'><strong>Share</strong></font></div></div><div class='respDiv'><div class='respDivL'>Match<br>(e)</div><div class='respDivR'>No Match<br>(i)</div></div></div>","e","TARGET","2","trustrating_stim/white_mw013.bmp,trustrating_stim/white_mw091.bmp","0,1","Match","e","3000","trustrating_stim/white_mw091.bmp","green","Share","REAL","1"
"html-keyboard-response","94","326092","0.0-7.0-5.11","63bd81516745e78ee7f50f7f","bdp_wmem","Mon Mar 13 2023 15:14:56 GMT-0400 (Eastern Daylight Time)","672607","Match,No Match","","null","","","","","","<div class='trialBorder'><div class='vertical-center'><img src='img/correct.jpg'></div><div class='respDiv'><div class='respDivL'><font style='color:orange'>Match<br>(e)</font></div><div class='respDivR'>No Match<br>(i)</div></div></div>","null","FEEDBACK","","","","","","","","","","",""
"html-keyboard-response","95","326594","0.0-7.0-1.12","63bd81516745e78ee7f50f7f","bdp_wmem","Mon Mar 13 2023 15:14:56 GMT-0400 (Eastern Daylight Time)","672607","Match,No Match","","null","","","","","","<div class='trialBorder'><div class='vertical-center'><img src='img/fixation2_sml.jpg'</img></div></div>","null","FIX","","","","","","","","","","",""
"html-keyboard-response","96","331100","0.0-7.0-2.12","63bd81516745e78ee7f50f7f","bdp_wmem","Mon Mar 13 2023 15:14:56 GMT-0400 (Eastern Daylight Time)","672607","Match,No Match","","null","","","","","","<div class='trialBorder'><div class='vertical-center'><img style='vertical-align:center; align:center' src='img/fixation2_sml.jpg'></div><div class='arrayDiv3'><div class='tl'><img class='introPic' src='trustrating_stim/white_mw038.bmp'><br><font color='green'><strong>Share</strong></font></div><div class='tc'><img class='introPic' src='trustrating_stim/white_mw010.bmp'><br><font color='red'><strong>Keep</strong></font></div><div class='tr'><img class='introPic' src='trustrating_stim/white_mw042.bmp'><br><font color='red'><strong>Keep</strong></font></div></div></div>","null","ARRAY","3","trustrating_stim/white_mw038.bmp,trustrating_stim/white_mw010.bmp,trustrating_stim/white_mw042.bmp","1,0,0","Match","e","4500","","","","",""
"html-keyboard-response","97","335106","0.0-7.0-3.12","63bd81516745e78ee7f50f7f","bdp_wmem","Mon Mar 13 2023 15:14:56 GMT-0400 (Eastern Daylight Time)","672607","Match,No Match","","null","","","","","","<div class='trialBorder'><div class='vertical-center'><img src='img/fixation2_sml.jpg'</img></div></div>","null","DELAY","","","","","","","","","","",""
"html-keyboard-response","98","336780","0.0-7.0-4.12","63bd81516745e78ee7f50f7f","bdp_wmem","Mon Mar 13 2023 15:14:56 GMT-0400 (Eastern Daylight Time)","672607","Match,No Match","","1672","","","","","","<div class='trialBorder'><div class='targDiv'><div class='tc'><img class='introPic' src='trustrating_stim/white_mw010.bmp'><br><font color='red'><strong>Keep</strong></font></div></div><div class='respDiv'><div class='respDivL'>Match<br>(e)</div><div class='respDivR'>No Match<br>(i)</div></div></div>","e","TARGET","3","trustrating_stim/white_mw038.bmp,trustrating_stim/white_mw010.bmp,trustrating_stim/white_mw042.bmp","1,0,0","Match","e","4500","trustrating_stim/white_mw010.bmp","red","Keep","REAL","1"
"html-keyboard-response","99","337282","0.0-7.0-5.12","63bd81516745e78ee7f50f7f","bdp_wmem","Mon Mar 13 2023 15:14:56 GMT-0400 (Eastern Daylight Time)","672607","Match,No Match","","null","","","","","","<div class='trialBorder'><div class='vertical-center'><img src='img/correct.jpg'></div><div class='respDiv'><div class='respDivL'><font style='color:orange'>Match<br>(e)</font></div><div class='respDivR'>No Match<br>(i)</div></div></div>","null","FEEDBACK","","","","","","","","","","",""
"html-keyboard-response","100","337788","0.0-7.0-1.13","63bd81516745e78ee7f50f7f","bdp_wmem","Mon Mar 13 2023 15:14:56 GMT-0400 (Eastern Daylight Time)","672607","Match,No Match","","null","","","","","","<div class='trialBorder'><div class='vertical-center'><img src='img/fixation2_sml.jpg'</img></div></div>","null","FIX","","","","","","","","","","",""
"html-keyboard-response","101","339292","0.0-7.0-2.13","63bd81516745e78ee7f50f7f","bdp_wmem","Mon Mar 13 2023 15:14:56 GMT-0400 (Eastern Daylight Time)","672607","Match,No Match","","null","","","","","","<div class='trialBorder'><div class='vertical-center'><img style='vertical-align:center; align:center' src='img/fixation2_sml.jpg'></div><div class='arrayDiv1'><div class='tc'><img class='introPic' src='trustrating_stim/white_mw042.bmp'><br><font color='red'><strong>Keep</strong></font></div></div></div>","null","ARRAY","1","trustrating_stim/white_mw042.bmp","0","noMatchFace","i","1500","","","","",""
"html-keyboard-response","102","343298","0.0-7.0-3.13","63bd81516745e78ee7f50f7f","bdp_wmem","Mon Mar 13 2023 15:14:56 GMT-0400 (Eastern Daylight Time)","672607","Match,No Match","","null","","","","","","<div class='trialBorder'><div class='vertical-center'><img src='img/fixation2_sml.jpg'</img></div></div>","null","DELAY","","","","","","","","","","",""
"html-keyboard-response","103","344810","0.0-7.0-4.13","63bd81516745e78ee7f50f7f","bdp_wmem","Mon Mar 13 2023 15:14:56 GMT-0400 (Eastern Daylight Time)","672607","Match,No Match","","1511","","","","","","<div class='trialBorder'><div class='targDiv'><div class='tc'><img class='introPic' src='trustrating_stim/white_mw078.bmp'><br><font color='red'><strong>Keep</strong></font></div></div><div class='respDiv'><div class='respDivL'>Match<br>(e)</div><div class='respDivR'>No Match<br>(i)</div></div></div>","i","TARGET","1","trustrating_stim/white_mw042.bmp","0","noMatchFace","i","1500","trustrating_stim/white_mw078.bmp","red","Keep","REAL","1"
"html-keyboard-response","104","345314","0.0-7.0-5.13","63bd81516745e78ee7f50f7f","bdp_wmem","Mon Mar 13 2023 15:14:56 GMT-0400 (Eastern Daylight Time)","672607","Match,No Match","","null","","","","","","<div class='trialBorder'><div class='vertical-center'><img src='img/correct.jpg'></div><div class='respDiv'><div class='respDivL'>Match<br>(e)</div><div class='respDivR'><font style='color:orange'>No Match<br>(i)</font></div></div></div>","null","FEEDBACK","","","","","","","","","","",""
"html-keyboard-response","105","345820","0.0-7.0-1.14","63bd81516745e78ee7f50f7f","bdp_wmem","Mon Mar 13 2023 15:14:56 GMT-0400 (Eastern Daylight Time)","672607","Match,No Match","","null","","","","","","<div class='trialBorder'><div class='vertical-center'><img src='img/fixation2_sml.jpg'</img></div></div>","null","FIX","","","","","","","","","","",""
"html-keyboard-response","106","347324","0.0-7.0-2.14","63bd81516745e78ee7f50f7f","bdp_wmem","Mon Mar 13 2023 15:14:56 GMT-0400 (Eastern Daylight Time)","672607","Match,No Match","","null","","","","","","<div class='trialBorder'><div class='vertical-center'><img style='vertical-align:center; align:center' src='img/fixation2_sml.jpg'></div><div class='arrayDiv1'><div class='tc'><img class='introPic' src='trustrating_stim/white_mw003.bmp'><br><font color='green'><strong>Share</strong></font></div></div></div>","null","ARRAY","1","trustrating_stim/white_mw003.bmp","1","Match","e","1500","","","","",""
"html-keyboard-response","107","351330","0.0-7.0-3.14","63bd81516745e78ee7f50f7f","bdp_wmem","Mon Mar 13 2023 15:14:56 GMT-0400 (Eastern Daylight Time)","672607","Match,No Match","","null","","","","","","<div class='trialBorder'><div class='vertical-center'><img src='img/fixation2_sml.jpg'</img></div></div>","null","DELAY","","","","","","","","","","",""
"html-keyboard-response","108","352888","0.0-7.0-4.14","63bd81516745e78ee7f50f7f","bdp_wmem","Mon Mar 13 2023 15:14:56 GMT-0400 (Eastern Daylight Time)","672607","Match,No Match","","1556","","","","","","<div class='trialBorder'><div class='targDiv'><div class='tc'><img class='introPic' src='trustrating_stim/white_mw003.bmp'><br><font color='green'><strong>Share</strong></font></div></div><div class='respDiv'><div class='respDivL'>Match<br>(e)</div><div class='respDivR'>No Match<br>(i)</div></div></div>","e","TARGET","1","trustrating_stim/white_mw003.bmp","1","Match","e","1500","trustrating_stim/white_mw003.bmp","green","Share","REAL","1"
"html-keyboard-response","109","353395","0.0-7.0-5.14","63bd81516745e78ee7f50f7f","bdp_wmem","Mon Mar 13 2023 15:14:56 GMT-0400 (Eastern Daylight Time)","672607","Match,No Match","","null","","","","","","<div class='trialBorder'><div class='vertical-center'><img src='img/correct.jpg'></div><div class='respDiv'><div class='respDivL'><font style='color:orange'>Match<br>(e)</font></div><div class='respDivR'>No Match<br>(i)</div></div></div>","null","FEEDBACK","","","","","","","","","","",""
"html-keyboard-response","110","353900","0.0-7.0-1.15","63bd81516745e78ee7f50f7f","bdp_wmem","Mon Mar 13 2023 15:14:56 GMT-0400 (Eastern Daylight Time)","672607","Match,No Match","","null","","","","","","<div class='trialBorder'><div class='vertical-center'><img src='img/fixation2_sml.jpg'</img></div></div>","null","FIX","","","","","","","","","","",""
"html-keyboard-response","111","355404","0.0-7.0-2.15","63bd81516745e78ee7f50f7f","bdp_wmem","Mon Mar 13 2023 15:14:56 GMT-0400 (Eastern Daylight Time)","672607","Match,No Match","","null","","","","","","<div class='trialBorder'><div class='vertical-center'><img style='vertical-align:center; align:center' src='img/fixation2_sml.jpg'></div><div class='arrayDiv1'><div class='tc'><img class='introPic' src='trustrating_stim/white_mw085.bmp'><br><font color='red'><strong>Keep</strong></font></div></div></div>","null","ARRAY","1","trustrating_stim/white_mw085.bmp","0","noMatchOutcome","i","1500","","","","",""
"html-keyboard-response","112","359410","0.0-7.0-3.15","63bd81516745e78ee7f50f7f","bdp_wmem","Mon Mar 13 2023 15:14:56 GMT-0400 (Eastern Daylight Time)","672607","Match,No Match","","null","","","","","","<div class='trialBorder'><div class='vertical-center'><img src='img/fixation2_sml.jpg'</img></div></div>","null","DELAY","","","","","","","","","","",""
"html-keyboard-response","113","360604","0.0-7.0-4.15","63bd81516745e78ee7f50f7f","bdp_wmem","Mon Mar 13 2023 15:14:56 GMT-0400 (Eastern Daylight Time)","672607","Match,No Match","","1192","","","","","","<div class='trialBorder'><div class='targDiv'><div class='tc'><img class='introPic' src='trustrating_stim/white_mw085.bmp'><br><font color='green'><strong>Share</strong></font></div></div><div class='respDiv'><div class='respDivL'>Match<br>(e)</div><div class='respDivR'>No Match<br>(i)</div></div></div>","i","TARGET","1","trustrating_stim/white_mw085.bmp","0","noMatchOutcome","i","1500","trustrating_stim/white_mw085.bmp","green","Share","REAL","1"
"html-keyboard-response","114","361107","0.0-7.0-5.15","63bd81516745e78ee7f50f7f","bdp_wmem","Mon Mar 13 2023 15:14:56 GMT-0400 (Eastern Daylight Time)","672607","Match,No Match","","null","","","","","","<div class='trialBorder'><div class='vertical-center'><img src='img/correct.jpg'></div><div class='respDiv'><div class='respDivL'>Match<br>(e)</div><div class='respDivR'><font style='color:orange'>No Match<br>(i)</font></div></div></div>","null","FEEDBACK","","","","","","","","","","",""
"html-keyboard-response","115","361612","0.0-7.0-1.16","63bd81516745e78ee7f50f7f","bdp_wmem","Mon Mar 13 2023 15:14:56 GMT-0400 (Eastern Daylight Time)","672607","Match,No Match","","null","","","","","","<div class='trialBorder'><div class='vertical-center'><img src='img/fixation2_sml.jpg'</img></div></div>","null","FIX","","","","","","","","","","",""
"html-keyboard-response","116","366119","0.0-7.0-2.16","63bd81516745e78ee7f50f7f","bdp_wmem","Mon Mar 13 2023 15:14:56 GMT-0400 (Eastern Daylight Time)","672607","Match,No Match","","null","","","","","","<div class='trialBorder'><div class='vertical-center'><img style='vertical-align:center; align:center' src='img/fixation2_sml.jpg'></div><div class='arrayDiv3'><div class='tl'><img class='introPic' src='trustrating_stim/white_mw038.bmp'><br><font color='red'><strong>Keep</strong></font></div><div class='tc'><img class='introPic' src='trustrating_stim/white_mw012.bmp'><br><font color='green'><strong>Share</strong></font></div><div class='tr'><img class='introPic' src='trustrating_stim/white_mw042.bmp'><br><font color='red'><strong>Keep</strong></font></div></div></div>","null","ARRAY","3","trustrating_stim/white_mw038.bmp,trustrating_stim/white_mw012.bmp,trustrating_stim/white_mw042.bmp","0,1,0","Match","e","4500","","","","",""
"html-keyboard-response","117","370124","0.0-7.0-3.16","63bd81516745e78ee7f50f7f","bdp_wmem","Mon Mar 13 2023 15:14:56 GMT-0400 (Eastern Daylight Time)","672607","Match,No Match","","null","","","","","","<div class='trialBorder'><div class='vertical-center'><img src='img/fixation2_sml.jpg'</img></div></div>","null","DELAY","","","","","","","","","","",""
"html-keyboard-response","118","371939","0.0-7.0-4.16","63bd81516745e78ee7f50f7f","bdp_wmem","Mon Mar 13 2023 15:14:56 GMT-0400 (Eastern Daylight Time)","672607","Match,No Match","","1813","","","","","","<div class='trialBorder'><div class='targDiv'><div class='tc'><img class='introPic' src='trustrating_stim/white_mw042.bmp'><br><font color='red'><strong>Keep</strong></font></div></div><div class='respDiv'><div class='respDivL'>Match<br>(e)</div><div class='respDivR'>No Match<br>(i)</div></div></div>","e","TARGET","3","trustrating_stim/white_mw038.bmp,trustrating_stim/white_mw012.bmp,trustrating_stim/white_mw042.bmp","0,1,0","Match","e","4500","trustrating_stim/white_mw042.bmp","red","Keep","REAL","1"
"html-keyboard-response","119","372444","0.0-7.0-5.16","63bd81516745e78ee7f50f7f","bdp_wmem","Mon Mar 13 2023 15:14:56 GMT-0400 (Eastern Daylight Time)","672607","Match,No Match","","null","","","","","","<div class='trialBorder'><div class='vertical-center'><img src='img/correct.jpg'></div><div class='respDiv'><div class='respDivL'><font style='color:orange'>Match<br>(e)</font></div><div class='respDivR'>No Match<br>(i)</div></div></div>","null","FEEDBACK","","","","","","","","","","",""
"html-keyboard-response","120","372947","0.0-7.0-1.17","63bd81516745e78ee7f50f7f","bdp_wmem","Mon Mar 13 2023 15:14:56 GMT-0400 (Eastern Daylight Time)","672607","Match,No Match","","null","","","","","","<div class='trialBorder'><div class='vertical-center'><img src='img/fixation2_sml.jpg'</img></div></div>","null","FIX","","","","","","","","","","",""
"html-keyboard-response","121","377452","0.0-7.0-2.17","63bd81516745e78ee7f50f7f","bdp_wmem","Mon Mar 13 2023 15:14:56 GMT-0400 (Eastern Daylight Time)","672607","Match,No Match","","null","","","","","","<div class='trialBorder'><div class='vertical-center'><img style='vertical-align:center; align:center' src='img/fixation2_sml.jpg'></div><div class='arrayDiv3'><div class='tl'><img class='introPic' src='trustrating_stim/white_mw003.bmp'><br><font color='green'><strong>Share</strong></font></div><div class='tc'><img class='introPic' src='trustrating_stim/white_mw012.bmp'><br><font color='red'><strong>Keep</strong></font></div><div class='tr'><img class='introPic' src='trustrating_stim/white_mw085.bmp'><br><font color='red'><strong>Keep</strong></font></div></div></div>","null","ARRAY","3","trustrating_stim/white_mw003.bmp,trustrating_stim/white_mw012.bmp,trustrating_stim/white_mw085.bmp","1,0,0","Match","e","4500","","","","",""
"html-keyboard-response","122","381459","0.0-7.0-3.17","63bd81516745e78ee7f50f7f","bdp_wmem","Mon Mar 13 2023 15:14:56 GMT-0400 (Eastern Daylight Time)","672607","Match,No Match","","null","","","","","","<div class='trialBorder'><div class='vertical-center'><img src='img/fixation2_sml.jpg'</img></div></div>","null","DELAY","","","","","","","","","","",""
"html-keyboard-response","123","382282","0.0-7.0-4.17","63bd81516745e78ee7f50f7f","bdp_wmem","Mon Mar 13 2023 15:14:56 GMT-0400 (Eastern Daylight Time)","672607","Match,No Match","","820","","","","","","<div class='trialBorder'><div class='targDiv'><div class='tc'><img class='introPic' src='trustrating_stim/white_mw003.bmp'><br><font color='green'><strong>Share</strong></font></div></div><div class='respDiv'><div class='respDivL'>Match<br>(e)</div><div class='respDivR'>No Match<br>(i)</div></div></div>","e","TARGET","3","trustrating_stim/white_mw003.bmp,trustrating_stim/white_mw012.bmp,trustrating_stim/white_mw085.bmp","1,0,0","Match","e","4500","trustrating_stim/white_mw003.bmp","green","Share","REAL","1"
"html-keyboard-response","124","382787","0.0-7.0-5.17","63bd81516745e78ee7f50f7f","bdp_wmem","Mon Mar 13 2023 15:14:56 GMT-0400 (Eastern Daylight Time)","672607","Match,No Match","","null","","","","","","<div class='trialBorder'><div class='vertical-center'><img src='img/correct.jpg'></div><div class='respDiv'><div class='respDivL'><font style='color:orange'>Match<br>(e)</font></div><div class='respDivR'>No Match<br>(i)</div></div></div>","null","FEEDBACK","","","","","","","","","","",""
"html-keyboard-response","125","383292","0.0-7.0-1.18","63bd81516745e78ee7f50f7f","bdp_wmem","Mon Mar 13 2023 15:14:56 GMT-0400 (Eastern Daylight Time)","672607","Match,No Match","","null","","","","","","<div class='trialBorder'><div class='vertical-center'><img src='img/fixation2_sml.jpg'</img></div></div>","null","FIX","","","","","","","","","","",""
"html-keyboard-response","126","384799","0.0-7.0-2.18","63bd81516745e78ee7f50f7f","bdp_wmem","Mon Mar 13 2023 15:14:56 GMT-0400 (Eastern Daylight Time)","672607","Match,No Match","","null","","","","","","<div class='trialBorder'><div class='vertical-center'><img style='vertical-align:center; align:center' src='img/fixation2_sml.jpg'></div><div class='arrayDiv1'><div class='tc'><img class='introPic' src='trustrating_stim/white_mw085.bmp'><br><font color='red'><strong>Keep</strong></font></div></div></div>","null","ARRAY","1","trustrating_stim/white_mw085.bmp","0","Match","e","1500","","","","",""
"html-keyboard-response","127","388803","0.0-7.0-3.18","63bd81516745e78ee7f50f7f","bdp_wmem","Mon Mar 13 2023 15:14:56 GMT-0400 (Eastern Daylight Time)","672607","Match,No Match","","null","","","","","","<div class='trialBorder'><div class='vertical-center'><img src='img/fixation2_sml.jpg'</img></div></div>","null","DELAY","","","","","","","","","","",""
"html-keyboard-response","128","391194","0.0-7.0-4.18","63bd81516745e78ee7f50f7f","bdp_wmem","Mon Mar 13 2023 15:14:56 GMT-0400 (Eastern Daylight Time)","672607","Match,No Match","","2390","","","","","","<div class='trialBorder'><div class='targDiv'><div class='tc'><img class='introPic' src='trustrating_stim/white_mw085.bmp'><br><font color='red'><strong>Keep</strong></font></div></div><div class='respDiv'><div class='respDivL'>Match<br>(e)</div><div class='respDivR'>No Match<br>(i)</div></div></div>","e","TARGET","1","trustrating_stim/white_mw085.bmp","0","Match","e","1500","trustrating_stim/white_mw085.bmp","red","Keep","REAL","1"
"html-keyboard-response","129","391699","0.0-7.0-5.18","63bd81516745e78ee7f50f7f","bdp_wmem","Mon Mar 13 2023 15:14:56 GMT-0400 (Eastern Daylight Time)","672607","Match,No Match","","null","","","","","","<div class='trialBorder'><div class='vertical-center'><img src='img/correct.jpg'></div><div class='respDiv'><div class='respDivL'><font style='color:orange'>Match<br>(e)</font></div><div class='respDivR'>No Match<br>(i)</div></div></div>","null","FEEDBACK","","","","","","","","","","",""
"html-keyboard-response","130","392204","0.0-7.0-1.19","63bd81516745e78ee7f50f7f","bdp_wmem","Mon Mar 13 2023 15:14:56 GMT-0400 (Eastern Daylight Time)","672607","Match,No Match","","null","","","","","","<div class='trialBorder'><div class='vertical-center'><img src='img/fixation2_sml.jpg'</img></div></div>","null","FIX","","","","","","","","","","",""
"html-keyboard-response","131","393708","0.0-7.0-2.19","63bd81516745e78ee7f50f7f","bdp_wmem","Mon Mar 13 2023 15:14:56 GMT-0400 (Eastern Daylight Time)","672607","Match,No Match","","null","","","","","","<div class='trialBorder'><div class='vertical-center'><img style='vertical-align:center; align:center' src='img/fixation2_sml.jpg'></div><div class='arrayDiv1'><div class='tc'><img class='introPic' src='trustrating_stim/white_mw003.bmp'><br><font color='red'><strong>Keep</strong></font></div></div></div>","null","ARRAY","1","trustrating_stim/white_mw003.bmp","0","noMatchOutcome","i","1500","","","","",""
"html-keyboard-response","132","397715","0.0-7.0-3.19","63bd81516745e78ee7f50f7f","bdp_wmem","Mon Mar 13 2023 15:14:56 GMT-0400 (Eastern Daylight Time)","672607","Match,No Match","","null","","","","","","<div class='trialBorder'><div class='vertical-center'><img src='img/fixation2_sml.jpg'</img></div></div>","null","DELAY","","","","","","","","","","",""
"html-keyboard-response","133","400230","0.0-7.0-4.19","63bd81516745e78ee7f50f7f","bdp_wmem","Mon Mar 13 2023 15:14:56 GMT-0400 (Eastern Daylight Time)","672607","Match,No Match","","2514","","","","","","<div class='trialBorder'><div class='targDiv'><div class='tc'><img class='introPic' src='trustrating_stim/white_mw003.bmp'><br><font color='green'><strong>Share</strong></font></div></div><div class='respDiv'><div class='respDivL'>Match<br>(e)</div><div class='respDivR'>No Match<br>(i)</div></div></div>","i","TARGET","1","trustrating_stim/white_mw003.bmp","0","noMatchOutcome","i","1500","trustrating_stim/white_mw003.bmp","green","Share","REAL","1"
"html-keyboard-response","134","400739","0.0-7.0-5.19","63bd81516745e78ee7f50f7f","bdp_wmem","Mon Mar 13 2023 15:14:56 GMT-0400 (Eastern Daylight Time)","672607","Match,No Match","","null","","","","","","<div class='trialBorder'><div class='vertical-center'><img src='img/correct.jpg'></div><div class='respDiv'><div class='respDivL'>Match<br>(e)</div><div class='respDivR'><font style='color:orange'>No Match<br>(i)</font></div></div></div>","null","FEEDBACK","","","","","","","","","","",""
"html-keyboard-response","135","401244","0.0-7.0-1.20","63bd81516745e78ee7f50f7f","bdp_wmem","Mon Mar 13 2023 15:14:56 GMT-0400 (Eastern Daylight Time)","672607","Match,No Match","","null","","","","","","<div class='trialBorder'><div class='vertical-center'><img src='img/fixation2_sml.jpg'</img></div></div>","null","FIX","","","","","","","","","","",""
"html-keyboard-response","136","404252","0.0-7.0-2.20","63bd81516745e78ee7f50f7f","bdp_wmem","Mon Mar 13 2023 15:14:56 GMT-0400 (Eastern Daylight Time)","672607","Match,No Match","","null","","","","","","<div class='trialBorder'><div class='vertical-center'><img style='vertical-align:center; align:center' src='img/fixation2_sml.jpg'></div><div class='arrayDiv2'><div class='tl'><img class='introPic' src='trustrating_stim/white_mw003.bmp'><br><font color='green'><strong>Share</strong></font></div><div class='tr'><img class='introPic' src='trustrating_stim/white_mw092.bmp'><br><font color='red'><strong>Keep</strong></font></div></div></div>","null","ARRAY","2","trustrating_stim/white_mw003.bmp,trustrating_stim/white_mw092.bmp","1,0","Match","e","3000","","","","",""
"html-keyboard-response","137","408259","0.0-7.0-3.20","63bd81516745e78ee7f50f7f","bdp_wmem","Mon Mar 13 2023 15:14:56 GMT-0400 (Eastern Daylight Time)","672607","Match,No Match","","null","","","","","","<div class='trialBorder'><div class='vertical-center'><img src='img/fixation2_sml.jpg'</img></div></div>","null","DELAY","","","","","","","","","","",""
"html-keyboard-response","138","409741","0.0-7.0-4.20","63bd81516745e78ee7f50f7f","bdp_wmem","Mon Mar 13 2023 15:14:56 GMT-0400 (Eastern Daylight Time)","672607","Match,No Match","","1481","","","","","","<div class='trialBorder'><div class='targDiv'><div class='tc'><img class='introPic' src='trustrating_stim/white_mw003.bmp'><br><font color='green'><strong>Share</strong></font></div></div><div class='respDiv'><div class='respDivL'>Match<br>(e)</div><div class='respDivR'>No Match<br>(i)</div></div></div>","e","TARGET","2","trustrating_stim/white_mw003.bmp,trustrating_stim/white_mw092.bmp","1,0","Match","e","3000","trustrating_stim/white_mw003.bmp","green","Share","REAL","1"
"html-keyboard-response","139","410243","0.0-7.0-5.20","63bd81516745e78ee7f50f7f","bdp_wmem","Mon Mar 13 2023 15:14:56 GMT-0400 (Eastern Daylight Time)","672607","Match,No Match","","null","","","","","","<div class='trialBorder'><div class='vertical-center'><img src='img/correct.jpg'></div><div class='respDiv'><div class='respDivL'><font style='color:orange'>Match<br>(e)</font></div><div class='respDivR'>No Match<br>(i)</div></div></div>","null","FEEDBACK","","","","","","","","","","",""
"html-keyboard-response","140","410748","0.0-7.0-1.21","63bd81516745e78ee7f50f7f","bdp_wmem","Mon Mar 13 2023 15:14:56 GMT-0400 (Eastern Daylight Time)","672607","Match,No Match","","null","","","","","","<div class='trialBorder'><div class='vertical-center'><img src='img/fixation2_sml.jpg'</img></div></div>","null","FIX","","","","","","","","","","",""
"html-keyboard-response","141","415251","0.0-7.0-2.21","63bd81516745e78ee7f50f7f","bdp_wmem","Mon Mar 13 2023 15:14:56 GMT-0400 (Eastern Daylight Time)","672607","Match,No Match","","null","","","","","","<div class='trialBorder'><div class='vertical-center'><img style='vertical-align:center; align:center' src='img/fixation2_sml.jpg'></div><div class='arrayDiv3'><div class='tl'><img class='introPic' src='trustrating_stim/white_mw091.bmp'><br><font color='red'><strong>Keep</strong></font></div><div class='tc'><img class='introPic' src='trustrating_stim/white_mw013.bmp'><br><font color='green'><strong>Share</strong></font></div><div class='tr'><img class='introPic' src='trustrating_stim/white_mw003.bmp'><br><font color='green'><strong>Share</strong></font></div></div></div>","null","ARRAY","3","trustrating_stim/white_mw091.bmp,trustrating_stim/white_mw013.bmp,trustrating_stim/white_mw003.bmp","0,1,1","noMatchOutcome","i","4500","","","","",""
"html-keyboard-response","142","419260","0.0-7.0-3.21","63bd81516745e78ee7f50f7f","bdp_wmem","Mon Mar 13 2023 15:14:56 GMT-0400 (Eastern Daylight Time)","672607","Match,No Match","","null","","","","","","<div class='trialBorder'><div class='vertical-center'><img src='img/fixation2_sml.jpg'</img></div></div>","null","DELAY","","","","","","","","","","",""
"html-keyboard-response","143","422612","0.0-7.0-4.21","63bd81516745e78ee7f50f7f","bdp_wmem","Mon Mar 13 2023 15:14:56 GMT-0400 (Eastern Daylight Time)","672607","Match,No Match","","3350","","","","","","<div class='trialBorder'><div class='targDiv'><div class='tc'><img class='introPic' src='trustrating_stim/white_mw003.bmp'><br><font color='red'><strong>Keep</strong></font></div></div><div class='respDiv'><div class='respDivL'>Match<br>(e)</div><div class='respDivR'>No Match<br>(i)</div></div></div>","i","TARGET","3","trustrating_stim/white_mw091.bmp,trustrating_stim/white_mw013.bmp,trustrating_stim/white_mw003.bmp","0,1,1","noMatchOutcome","i","4500","trustrating_stim/white_mw003.bmp","red","Keep","REAL","1"
"html-keyboard-response","144","423117","0.0-7.0-5.21","63bd81516745e78ee7f50f7f","bdp_wmem","Mon Mar 13 2023 15:14:56 GMT-0400 (Eastern Daylight Time)","672607","Match,No Match","","null","","","","","","<div class='trialBorder'><div class='vertical-center'><img src='img/correct.jpg'></div><div class='respDiv'><div class='respDivL'>Match<br>(e)</div><div class='respDivR'><font style='color:orange'>No Match<br>(i)</font></div></div></div>","null","FEEDBACK","","","","","","","","","","",""
"html-keyboard-response","145","423619","0.0-7.0-1.22","63bd81516745e78ee7f50f7f","bdp_wmem","Mon Mar 13 2023 15:14:56 GMT-0400 (Eastern Daylight Time)","672607","Match,No Match","","null","","","","","","<div class='trialBorder'><div class='vertical-center'><img src='img/fixation2_sml.jpg'</img></div></div>","null","FIX","","","","","","","","","","",""
"html-keyboard-response","146","425123","0.0-7.0-2.22","63bd81516745e78ee7f50f7f","bdp_wmem","Mon Mar 13 2023 15:14:56 GMT-0400 (Eastern Daylight Time)","672607","Match,No Match","","null","","","","","","<div class='trialBorder'><div class='vertical-center'><img style='vertical-align:center; align:center' src='img/fixation2_sml.jpg'></div><div class='arrayDiv1'><div class='tc'><img class='introPic' src='trustrating_stim/white_mw038.bmp'><br><font color='red'><strong>Keep</strong></font></div></div></div>","null","ARRAY","1","trustrating_stim/white_mw038.bmp","0","Match","e","1500","","","","",""
"html-keyboard-response","147","429133","0.0-7.0-3.22","63bd81516745e78ee7f50f7f","bdp_wmem","Mon Mar 13 2023 15:14:56 GMT-0400 (Eastern Daylight Time)","672607","Match,No Match","","null","","","","","","<div class='trialBorder'><div class='vertical-center'><img src='img/fixation2_sml.jpg'</img></div></div>","null","DELAY","","","","","","","","","","",""
"html-keyboard-response","148","430906","0.0-7.0-4.22","63bd81516745e78ee7f50f7f","bdp_wmem","Mon Mar 13 2023 15:14:56 GMT-0400 (Eastern Daylight Time)","672607","Match,No Match","","1772","","","","","","<div class='trialBorder'><div class='targDiv'><div class='tc'><img class='introPic' src='trustrating_stim/white_mw038.bmp'><br><font color='red'><strong>Keep</strong></font></div></div><div class='respDiv'><div class='respDivL'>Match<br>(e)</div><div class='respDivR'>No Match<br>(i)</div></div></div>","e","TARGET","1","trustrating_stim/white_mw038.bmp","0","Match","e","1500","trustrating_stim/white_mw038.bmp","red","Keep","REAL","1"
"html-keyboard-response","149","431411","0.0-7.0-5.22","63bd81516745e78ee7f50f7f","bdp_wmem","Mon Mar 13 2023 15:14:56 GMT-0400 (Eastern Daylight Time)","672607","Match,No Match","","null","","","","","","<div class='trialBorder'><div class='vertical-center'><img src='img/correct.jpg'></div><div class='respDiv'><div class='respDivL'><font style='color:orange'>Match<br>(e)</font></div><div class='respDivR'>No Match<br>(i)</div></div></div>","null","FEEDBACK","","","","","","","","","","",""
"html-keyboard-response","150","431917","0.0-7.0-1.23","63bd81516745e78ee7f50f7f","bdp_wmem","Mon Mar 13 2023 15:14:56 GMT-0400 (Eastern Daylight Time)","672607","Match,No Match","","null","","","","","","<div class='trialBorder'><div class='vertical-center'><img src='img/fixation2_sml.jpg'</img></div></div>","null","FIX","","","","","","","","","","",""
"html-keyboard-response","151","433421","0.0-7.0-2.23","63bd81516745e78ee7f50f7f","bdp_wmem","Mon Mar 13 2023 15:14:56 GMT-0400 (Eastern Daylight Time)","672607","Match,No Match","","null","","","","","","<div class='trialBorder'><div class='vertical-center'><img style='vertical-align:center; align:center' src='img/fixation2_sml.jpg'></div><div class='arrayDiv1'><div class='tc'><img class='introPic' src='trustrating_stim/white_mw012.bmp'><br><font color='green'><strong>Share</strong></font></div></div></div>","null","ARRAY","1","trustrating_stim/white_mw012.bmp","1","noMatchOutcome","i","1500","","","","",""
"html-keyboard-response","152","437427","0.0-7.0-3.23","63bd81516745e78ee7f50f7f","bdp_wmem","Mon Mar 13 2023 15:14:56 GMT-0400 (Eastern Daylight Time)","672607","Match,No Match","","null","","","","","","<div class='trialBorder'><div class='vertical-center'><img src='img/fixation2_sml.jpg'</img></div></div>","null","DELAY","","","","","","","","","","",""
"html-keyboard-response","153","438654","0.0-7.0-4.23","63bd81516745e78ee7f50f7f","bdp_wmem","Mon Mar 13 2023 15:14:56 GMT-0400 (Eastern Daylight Time)","672607","Match,No Match","","1225","","","","","","<div class='trialBorder'><div class='targDiv'><div class='tc'><img class='introPic' src='trustrating_stim/white_mw012.bmp'><br><font color='red'><strong>Keep</strong></font></div></div><div class='respDiv'><div class='respDivL'>Match<br>(e)</div><div class='respDivR'>No Match<br>(i)</div></div></div>","i","TARGET","1","trustrating_stim/white_mw012.bmp","1","noMatchOutcome","i","1500","trustrating_stim/white_mw012.bmp","red","Keep","REAL","1"
"html-keyboard-response","154","439165","0.0-7.0-5.23","63bd81516745e78ee7f50f7f","bdp_wmem","Mon Mar 13 2023 15:14:56 GMT-0400 (Eastern Daylight Time)","672607","Match,No Match","","null","","","","","","<div class='trialBorder'><div class='vertical-center'><img src='img/correct.jpg'></div><div class='respDiv'><div class='respDivL'>Match<br>(e)</div><div class='respDivR'><font style='color:orange'>No Match<br>(i)</font></div></div></div>","null","FEEDBACK","","","","","","","","","","",""
"html-keyboard-response","155","439667","0.0-7.0-1.24","63bd81516745e78ee7f50f7f","bdp_wmem","Mon Mar 13 2023 15:14:56 GMT-0400 (Eastern Daylight Time)","672607","Match,No Match","","null","","","","","","<div class='trialBorder'><div class='vertical-center'><img src='img/fixation2_sml.jpg'</img></div></div>","null","FIX","","","","","","","","","","",""
"html-keyboard-response","156","444173","0.0-7.0-2.24","63bd81516745e78ee7f50f7f","bdp_wmem","Mon Mar 13 2023 15:14:56 GMT-0400 (Eastern Daylight Time)","672607","Match,No Match","","null","","","","","","<div class='trialBorder'><div class='vertical-center'><img style='vertical-align:center; align:center' src='img/fixation2_sml.jpg'></div><div class='arrayDiv3'><div class='tl'><img class='introPic' src='trustrating_stim/white_mw012.bmp'><br><font color='red'><strong>Keep</strong></font></div><div class='tc'><img class='introPic' src='trustrating_stim/white_mw042.bmp'><br><font color='green'><strong>Share</strong></font></div><div class='tr'><img class='introPic' src='trustrating_stim/white_mw078.bmp'><br><font color='red'><strong>Keep</strong></font></div></div></div>","null","ARRAY","3","trustrating_stim/white_mw012.bmp,trustrating_stim/white_mw042.bmp,trustrating_stim/white_mw078.bmp","0,1,0","noMatchFace","i","4500","","","","",""
"html-keyboard-response","157","448179","0.0-7.0-3.24","63bd81516745e78ee7f50f7f","bdp_wmem","Mon Mar 13 2023 15:14:56 GMT-0400 (Eastern Daylight Time)","672607","Match,No Match","","null","","","","","","<div class='trialBorder'><div class='vertical-center'><img src='img/fixation2_sml.jpg'</img></div></div>","null","DELAY","","","","","","","","","","",""
"html-keyboard-response","158","452262","0.0-7.0-4.24","63bd81516745e78ee7f50f7f","bdp_wmem","Mon Mar 13 2023 15:14:56 GMT-0400 (Eastern Daylight Time)","672607","Match,No Match","","4080","","","","","","<div class='trialBorder'><div class='targDiv'><div class='tc'><img class='introPic' src='trustrating_stim/white_mw091.bmp'><br><font color='red'><strong>Keep</strong></font></div></div><div class='respDiv'><div class='respDivL'>Match<br>(e)</div><div class='respDivR'>No Match<br>(i)</div></div></div>","i","TARGET","3","trustrating_stim/white_mw012.bmp,trustrating_stim/white_mw042.bmp,trustrating_stim/white_mw078.bmp","0,1,0","noMatchFace","i","4500","trustrating_stim/white_mw091.bmp","red","Keep","REAL","1"
"html-keyboard-response","159","452765","0.0-7.0-5.24","63bd81516745e78ee7f50f7f","bdp_wmem","Mon Mar 13 2023 15:14:56 GMT-0400 (Eastern Daylight Time)","672607","Match,No Match","","null","","","","","","<div class='trialBorder'><div class='vertical-center'><img src='img/correct.jpg'></div><div class='respDiv'><div class='respDivL'>Match<br>(e)</div><div class='respDivR'><font style='color:orange'>No Match<br>(i)</font></div></div></div>","null","FEEDBACK","","","","","","","","","","",""
"html-keyboard-response","160","453267","0.0-7.0-1.25","63bd81516745e78ee7f50f7f","bdp_wmem","Mon Mar 13 2023 15:14:56 GMT-0400 (Eastern Daylight Time)","672607","Match,No Match","","null","","","","","","<div class='trialBorder'><div class='vertical-center'><img src='img/fixation2_sml.jpg'</img></div></div>","null","FIX","","","","","","","","","","",""
"html-keyboard-response","161","457773","0.0-7.0-2.25","63bd81516745e78ee7f50f7f","bdp_wmem","Mon Mar 13 2023 15:14:56 GMT-0400 (Eastern Daylight Time)","672607","Match,No Match","","null","","","","","","<div class='trialBorder'><div class='vertical-center'><img style='vertical-align:center; align:center' src='img/fixation2_sml.jpg'></div><div class='arrayDiv3'><div class='tl'><img class='introPic' src='trustrating_stim/white_mw038.bmp'><br><font color='green'><strong>Share</strong></font></div><div class='tc'><img class='introPic' src='trustrating_stim/white_mw085.bmp'><br><font color='green'><strong>Share</strong></font></div><div class='tr'><img class='introPic' src='trustrating_stim/white_mw092.bmp'><br><font color='red'><strong>Keep</strong></font></div></div></div>","null","ARRAY","3","trustrating_stim/white_mw038.bmp,trustrating_stim/white_mw085.bmp,trustrating_stim/white_mw092.bmp","1,1,0","noMatchFace","i","4500","","","","",""
"html-keyboard-response","162","461779","0.0-7.0-3.25","63bd81516745e78ee7f50f7f","bdp_wmem","Mon Mar 13 2023 15:14:56 GMT-0400 (Eastern Daylight Time)","672607","Match,No Match","","null","","","","","","<div class='trialBorder'><div class='vertical-center'><img src='img/fixation2_sml.jpg'</img></div></div>","null","DELAY","","","","","","","","","","",""
"html-keyboard-response","163","463094","0.0-7.0-4.25","63bd81516745e78ee7f50f7f","bdp_wmem","Mon Mar 13 2023 15:14:56 GMT-0400 (Eastern Daylight Time)","672607","Match,No Match","","1313","","","","","","<div class='trialBorder'><div class='targDiv'><div class='tc'><img class='introPic' src='trustrating_stim/white_mw091.bmp'><br><font color='green'><strong>Share</strong></font></div></div><div class='respDiv'><div class='respDivL'>Match<br>(e)</div><div class='respDivR'>No Match<br>(i)</div></div></div>","e","TARGET","3","trustrating_stim/white_mw038.bmp,trustrating_stim/white_mw085.bmp,trustrating_stim/white_mw092.bmp","1,1,0","noMatchFace","i","4500","trustrating_stim/white_mw091.bmp","green","Share","REAL","0"
"html-keyboard-response","164","463597","0.0-7.0-5.25","63bd81516745e78ee7f50f7f","bdp_wmem","Mon Mar 13 2023 15:14:56 GMT-0400 (Eastern Daylight Time)","672607","Match,No Match","","null","","","","","","<div class='trialBorder'><div class='vertical-center'><img src='img/error.jpg'></div><div class='respDiv'><div class='respDivL'><font style='color:orange'>Match<br>(e)</font></div><div class='respDivR'>No Match<br>(i)</div></div></div>","null","FEEDBACK","","","","","","","","","","",""
"html-keyboard-response","165","464099","0.0-7.0-1.26","63bd81516745e78ee7f50f7f","bdp_wmem","Mon Mar 13 2023 15:14:56 GMT-0400 (Eastern Daylight Time)","672607","Match,No Match","","null","","","","","","<div class='trialBorder'><div class='vertical-center'><img src='img/fixation2_sml.jpg'</img></div></div>","null","FIX","","","","","","","","","","",""
"html-keyboard-response","166","465603","0.0-7.0-2.26","63bd81516745e78ee7f50f7f","bdp_wmem","Mon Mar 13 2023 15:14:56 GMT-0400 (Eastern Daylight Time)","672607","Match,No Match","","null","","","","","","<div class='trialBorder'><div class='vertical-center'><img style='vertical-align:center; align:center' src='img/fixation2_sml.jpg'></div><div class='arrayDiv1'><div class='tc'><img class='introPic' src='trustrating_stim/white_mw038.bmp'><br><font color='red'><strong>Keep</strong></font></div></div></div>","null","ARRAY","1","trustrating_stim/white_mw038.bmp","0","Match","e","1500","","","","",""
"html-keyboard-response","167","469613","0.0-7.0-3.26","63bd81516745e78ee7f50f7f","bdp_wmem","Mon Mar 13 2023 15:14:56 GMT-0400 (Eastern Daylight Time)","672607","Match,No Match","","null","","","","","","<div class='trialBorder'><div class='vertical-center'><img src='img/fixation2_sml.jpg'</img></div></div>","null","DELAY","","","","","","","","","","",""
"html-keyboard-response","168","471013","0.0-7.0-4.26","63bd81516745e78ee7f50f7f","bdp_wmem","Mon Mar 13 2023 15:14:56 GMT-0400 (Eastern Daylight Time)","672607","Match,No Match","","1399","","","","","","<div class='trialBorder'><div class='targDiv'><div class='tc'><img class='introPic' src='trustrating_stim/white_mw038.bmp'><br><font color='red'><strong>Keep</strong></font></div></div><div class='respDiv'><div class='respDivL'>Match<br>(e)</div><div class='respDivR'>No Match<br>(i)</div></div></div>","e","TARGET","1","trustrating_stim/white_mw038.bmp","0","Match","e","1500","trustrating_stim/white_mw038.bmp","red","Keep","REAL","1"
"html-keyboard-response","169","471517","0.0-7.0-5.26","63bd81516745e78ee7f50f7f","bdp_wmem","Mon Mar 13 2023 15:14:56 GMT-0400 (Eastern Daylight Time)","672607","Match,No Match","","null","","","","","","<div class='trialBorder'><div class='vertical-center'><img src='img/correct.jpg'></div><div class='respDiv'><div class='respDivL'><font style='color:orange'>Match<br>(e)</font></div><div class='respDivR'>No Match<br>(i)</div></div></div>","null","FEEDBACK","","","","","","","","","","",""
"html-keyboard-response","170","472019","0.0-7.0-1.27","63bd81516745e78ee7f50f7f","bdp_wmem","Mon Mar 13 2023 15:14:56 GMT-0400 (Eastern Daylight Time)","672607","Match,No Match","","null","","","","","","<div class='trialBorder'><div class='vertical-center'><img src='img/fixation2_sml.jpg'</img></div></div>","null","FIX","","","","","","","","","","",""
"html-keyboard-response","171","475027","0.0-7.0-2.27","63bd81516745e78ee7f50f7f","bdp_wmem","Mon Mar 13 2023 15:14:56 GMT-0400 (Eastern Daylight Time)","672607","Match,No Match","","null","","","","","","<div class='trialBorder'><div class='vertical-center'><img style='vertical-align:center; align:center' src='img/fixation2_sml.jpg'></div><div class='arrayDiv2'><div class='tl'><img class='introPic' src='trustrating_stim/white_mw012.bmp'><br><font color='red'><strong>Keep</strong></font></div><div class='tr'><img class='introPic' src='trustrating_stim/white_mw078.bmp'><br><font color='green'><strong>Share</strong></font></div></div></div>","null","ARRAY","2","trustrating_stim/white_mw012.bmp,trustrating_stim/white_mw078.bmp","0,1","noMatchFace","i","3000","","","","",""
"html-keyboard-response","172","479037","0.0-7.0-3.27","63bd81516745e78ee7f50f7f","bdp_wmem","Mon Mar 13 2023 15:14:56 GMT-0400 (Eastern Daylight Time)","672607","Match,No Match","","null","","","","","","<div class='trialBorder'><div class='vertical-center'><img src='img/fixation2_sml.jpg'</img></div></div>","null","DELAY","","","","","","","","","","",""
"html-keyboard-response","173","480460","0.0-7.0-4.27","63bd81516745e78ee7f50f7f","bdp_wmem","Mon Mar 13 2023 15:14:56 GMT-0400 (Eastern Daylight Time)","672607","Match,No Match","","1422","","","","","","<div class='trialBorder'><div class='targDiv'><div class='tc'><img class='introPic' src='trustrating_stim/white_mw038.bmp'><br><font color='red'><strong>Keep</strong></font></div></div><div class='respDiv'><div class='respDivL'>Match<br>(e)</div><div class='respDivR'>No Match<br>(i)</div></div></div>","i","TARGET","2","trustrating_stim/white_mw012.bmp,trustrating_stim/white_mw078.bmp","0,1","noMatchFace","i","3000","trustrating_stim/white_mw038.bmp","red","Keep","REAL","1"
"html-keyboard-response","174","480963","0.0-7.0-5.27","63bd81516745e78ee7f50f7f","bdp_wmem","Mon Mar 13 2023 15:14:56 GMT-0400 (Eastern Daylight Time)","672607","Match,No Match","","null","","","","","","<div class='trialBorder'><div class='vertical-center'><img src='img/correct.jpg'></div><div class='respDiv'><div class='respDivL'>Match<br>(e)</div><div class='respDivR'><font style='color:orange'>No Match<br>(i)</font></div></div></div>","null","FEEDBACK","","","","","","","","","","",""
"html-keyboard-response","175","481469","0.0-7.0-1.28","63bd81516745e78ee7f50f7f","bdp_wmem","Mon Mar 13 2023 15:14:56 GMT-0400 (Eastern Daylight Time)","672607","Match,No Match","","null","","","","","","<div class='trialBorder'><div class='vertical-center'><img src='img/fixation2_sml.jpg'</img></div></div>","null","FIX","","","","","","","","","","",""
"html-keyboard-response","176","482973","0.0-7.0-2.28","63bd81516745e78ee7f50f7f","bdp_wmem","Mon Mar 13 2023 15:14:56 GMT-0400 (Eastern Daylight Time)","672607","Match,No Match","","null","","","","","","<div class='trialBorder'><div class='vertical-center'><img style='vertical-align:center; align:center' src='img/fixation2_sml.jpg'></div><div class='arrayDiv1'><div class='tc'><img class='introPic' src='trustrating_stim/white_mw010.bmp'><br><font color='green'><strong>Share</strong></font></div></div></div>","null","ARRAY","1","trustrating_stim/white_mw010.bmp","1","Match","e","1500","","","","",""
"html-keyboard-response","177","486980","0.0-7.0-3.28","63bd81516745e78ee7f50f7f","bdp_wmem","Mon Mar 13 2023 15:14:56 GMT-0400 (Eastern Daylight Time)","672607","Match,No Match","","null","","","","","","<div class='trialBorder'><div class='vertical-center'><img src='img/fixation2_sml.jpg'</img></div></div>","null","DELAY","","","","","","","","","","",""
"html-keyboard-response","178","488424","0.0-7.0-4.28","63bd81516745e78ee7f50f7f","bdp_wmem","Mon Mar 13 2023 15:14:56 GMT-0400 (Eastern Daylight Time)","672607","Match,No Match","","1443","","","","","","<div class='trialBorder'><div class='targDiv'><div class='tc'><img class='introPic' src='trustrating_stim/white_mw010.bmp'><br><font color='green'><strong>Share</strong></font></div></div><div class='respDiv'><div class='respDivL'>Match<br>(e)</div><div class='respDivR'>No Match<br>(i)</div></div></div>","e","TARGET","1","trustrating_stim/white_mw010.bmp","1","Match","e","1500","trustrating_stim/white_mw010.bmp","green","Share","REAL","1"
"html-keyboard-response","179","488932","0.0-7.0-5.28","63bd81516745e78ee7f50f7f","bdp_wmem","Mon Mar 13 2023 15:14:56 GMT-0400 (Eastern Daylight Time)","672607","Match,No Match","","null","","","","","","<div class='trialBorder'><div class='vertical-center'><img src='img/correct.jpg'></div><div class='respDiv'><div class='respDivL'><font style='color:orange'>Match<br>(e)</font></div><div class='respDivR'>No Match<br>(i)</div></div></div>","null","FEEDBACK","","","","","","","","","","",""
"html-keyboard-response","180","489437","0.0-7.0-1.29","63bd81516745e78ee7f50f7f","bdp_wmem","Mon Mar 13 2023 15:14:56 GMT-0400 (Eastern Daylight Time)","672607","Match,No Match","","null","","","","","","<div class='trialBorder'><div class='vertical-center'><img src='img/fixation2_sml.jpg'</img></div></div>","null","FIX","","","","","","","","","","",""
"html-keyboard-response","181","492445","0.0-7.0-2.29","63bd81516745e78ee7f50f7f","bdp_wmem","Mon Mar 13 2023 15:14:56 GMT-0400 (Eastern Daylight Time)","672607","Match,No Match","","null","","","","","","<div class='trialBorder'><div class='vertical-center'><img style='vertical-align:center; align:center' src='img/fixation2_sml.jpg'></div><div class='arrayDiv2'><div class='tl'><img class='introPic' src='trustrating_stim/white_mw078.bmp'><br><font color='green'><strong>Share</strong></font></div><div class='tr'><img class='introPic' src='trustrating_stim/white_mw042.bmp'><br><font color='red'><strong>Keep</strong></font></div></div></div>","null","ARRAY","2","trustrating_stim/white_mw078.bmp,trustrating_stim/white_mw042.bmp","1,0","Match","e","3000","","","","",""
"html-keyboard-response","182","496452","0.0-7.0-3.29","63bd81516745e78ee7f50f7f","bdp_wmem","Mon Mar 13 2023 15:14:56 GMT-0400 (Eastern Daylight Time)","672607","Match,No Match","","null","","","","","","<div class='trialBorder'><div class='vertical-center'><img src='img/fixation2_sml.jpg'</img></div></div>","null","DELAY","","","","","","","","","","",""
"html-keyboard-response","183","498006","0.0-7.0-4.29","63bd81516745e78ee7f50f7f","bdp_wmem","Mon Mar 13 2023 15:14:56 GMT-0400 (Eastern Daylight Time)","672607","Match,No Match","","1552","","","","","","<div class='trialBorder'><div class='targDiv'><div class='tc'><img class='introPic' src='trustrating_stim/white_mw042.bmp'><br><font color='red'><strong>Keep</strong></font></div></div><div class='respDiv'><div class='respDivL'>Match<br>(e)</div><div class='respDivR'>No Match<br>(i)</div></div></div>","e","TARGET","2","trustrating_stim/white_mw078.bmp,trustrating_stim/white_mw042.bmp","1,0","Match","e","3000","trustrating_stim/white_mw042.bmp","red","Keep","REAL","1"
"html-keyboard-response","184","498509","0.0-7.0-5.29","63bd81516745e78ee7f50f7f","bdp_wmem","Mon Mar 13 2023 15:14:56 GMT-0400 (Eastern Daylight Time)","672607","Match,No Match","","null","","","","","","<div class='trialBorder'><div class='vertical-center'><img src='img/correct.jpg'></div><div class='respDiv'><div class='respDivL'><font style='color:orange'>Match<br>(e)</font></div><div class='respDivR'>No Match<br>(i)</div></div></div>","null","FEEDBACK","","","","","","","","","","",""
"html-keyboard-response","185","499012","0.0-7.0-1.30","63bd81516745e78ee7f50f7f","bdp_wmem","Mon Mar 13 2023 15:14:56 GMT-0400 (Eastern Daylight Time)","672607","Match,No Match","","null","","","","","","<div class='trialBorder'><div class='vertical-center'><img src='img/fixation2_sml.jpg'</img></div></div>","null","FIX","","","","","","","","","","",""
"html-keyboard-response","186","503517","0.0-7.0-2.30","63bd81516745e78ee7f50f7f","bdp_wmem","Mon Mar 13 2023 15:14:56 GMT-0400 (Eastern Daylight Time)","672607","Match,No Match","","null","","","","","","<div class='trialBorder'><div class='vertical-center'><img style='vertical-align:center; align:center' src='img/fixation2_sml.jpg'></div><div class='arrayDiv3'><div class='tl'><img class='introPic' src='trustrating_stim/white_mw070.bmp'><br><font color='red'><strong>Keep</strong></font></div><div class='tc'><img class='introPic' src='trustrating_stim/white_mw085.bmp'><br><font color='green'><strong>Share</strong></font></div><div class='tr'><img class='introPic' src='trustrating_stim/white_mw012.bmp'><br><font color='red'><strong>Keep</strong></font></div></div></div>","null","ARRAY","3","trustrating_stim/white_mw070.bmp,trustrating_stim/white_mw085.bmp,trustrating_stim/white_mw012.bmp","0,1,0","noMatchFace","i","4500","","","","",""
"html-keyboard-response","187","507524","0.0-7.0-3.30","63bd81516745e78ee7f50f7f","bdp_wmem","Mon Mar 13 2023 15:14:56 GMT-0400 (Eastern Daylight Time)","672607","Match,No Match","","null","","","","","","<div class='trialBorder'><div class='vertical-center'><img src='img/fixation2_sml.jpg'</img></div></div>","null","DELAY","","","","","","","","","","",""
