"trial_type","trial_index","time_elapsed","internal_node_id","subject_id","task","startTime","totalTime","labels","view_history","rt","event","trial","time","trialtype","success","stimulus","key_press","stimType","arraySize","arrayFaces","arrayOutcomes","matchType","corrResp","arrayDur","targFace","targCol","targOutcome","trialType","corr"
"pavlovia","0","2","0.0-0.0","5fa9fffcf843322ce7456283","bdp_wmem","Tue Mar 14 2023 14:54:22 GMT-0400 (Eastern Daylight Time)","615759","Match,No Match","","","","","","","","","","","","","","","","","","","","",""
"instructions","1","2542","0.0-1.0","5fa9fffcf843322ce7456283","bdp_wmem","Tue Mar 14 2023 14:54:22 GMT-0400 (Eastern Daylight Time)","615759","Match,No Match","[{""page_index"":0,""viewing_time"":2539}]","2539","","","","","","","","","","","","","","","","","","",""
"","","","","5fa9fffcf843322ce7456283","bdp_wmem","Tue Mar 14 2023 14:54:22 GMT-0400 (Eastern Daylight Time)","615759","Match,No Match","","","fullscreenenter","2","3891","fullscreenenter","","","","","","","","","","","","","","",""
"fullscreen","2","4883","0.0-2.0","5fa9fffcf843322ce7456283","bdp_wmem","Tue Mar 14 2023 14:54:22 GMT-0400 (Eastern Daylight Time)","615759","Match,No Match","","","","","","","true","","","","","","","","","","","","","",""
"instructions","3","115767","0.0-4.0","5fa9fffcf843322ce7456283","bdp_wmem","Tue Mar 14 2023 14:54:22 GMT-0400 (Eastern Daylight Time)","615759","Match,No Match","[{""page_index"":0,""viewing_time"":20717},{""page_index"":1,""viewing_time"":59668},{""page_index"":2,""viewing_time"":9525},{""page_index"":3,""viewing_time"":4847},{""page_index"":4,""viewing_time"":16127}]","110884","","","","","","","","","","","","","","","","","","",""
"html-keyboard-response","4","116269","0.0-5.0-1.0","5fa9fffcf843322ce7456283","bdp_wmem","Tue Mar 14 2023 14:54:22 GMT-0400 (Eastern Daylight Time)","615759","Match,No Match","","null","","","","","","<div class='trialBorder'><div class='vertical-center'><img src='img/fixation2_sml.jpg'</img></div></div>","null","FIX","","","","","","","","","","",""
"html-keyboard-response","5","119271","0.0-5.0-2.0","5fa9fffcf843322ce7456283","bdp_wmem","Tue Mar 14 2023 14:54:22 GMT-0400 (Eastern Daylight Time)","615759","Match,No Match","","null","","","","","","<div class='trialBorder'><div class='vertical-center'><img style='vertical-align:center; align:center' src='img/fixation2_sml.jpg'></div><div class='arrayDiv2'><div class='tl'><img class='introPic' src='trustrating_stim/white_mw040.bmp'><br><font color='green'><strong>Share</strong></font></div><div class='tr'><img class='introPic' src='trustrating_stim/white_mw070.bmp'><br><font color='red'><strong>Keep</strong></font></div></div></div>","null","ARRAY","2","trustrating_stim/white_mw040.bmp,trustrating_stim/white_mw070.bmp","1,0","noMatchFace","i","3000","","","","",""
"html-keyboard-response","6","123273","0.0-5.0-3.0","5fa9fffcf843322ce7456283","bdp_wmem","Tue Mar 14 2023 14:54:22 GMT-0400 (Eastern Daylight Time)","615759","Match,No Match","","null","","","","","","<div class='trialBorder'><div class='vertical-center'><img src='img/fixation2_sml.jpg'</img></div></div>","null","DELAY","","","","","","","","","","",""
"html-keyboard-response","7","124499","0.0-5.0-4.0","5fa9fffcf843322ce7456283","bdp_wmem","Tue Mar 14 2023 14:54:22 GMT-0400 (Eastern Daylight Time)","615759","Match,No Match","","1225","","","","","","<div class='trialBorder'><div class='targDiv'><div class='tc'><img class='introPic' src='trustrating_stim/white_mw010.bmp'><br><font color='green'><strong>Share</strong></font></div></div><div class='respDiv'><div class='respDivL'>Match<br>(e)</div><div class='respDivR'>No Match<br>(i)</div></div></div>","i","TARGET","2","trustrating_stim/white_mw040.bmp,trustrating_stim/white_mw070.bmp","1,0","noMatchFace","i","3000","trustrating_stim/white_mw010.bmp","green","Share","PRACTICE","1"
"html-keyboard-response","8","125000","0.0-5.0-5.0","5fa9fffcf843322ce7456283","bdp_wmem","Tue Mar 14 2023 14:54:22 GMT-0400 (Eastern Daylight Time)","615759","Match,No Match","","null","","","","","","<div class='trialBorder'><div class='vertical-center'><img src='img/correct.jpg'></div><div class='respDiv'><div class='respDivL'>Match<br>(e)</div><div class='respDivR'><font style='color:orange'>No Match<br>(i)</font></div></div></div>","null","FEEDBACK","","","","","","","","","","",""
"html-keyboard-response","9","125502","0.0-5.0-1.1","5fa9fffcf843322ce7456283","bdp_wmem","Tue Mar 14 2023 14:54:22 GMT-0400 (Eastern Daylight Time)","615759","Match,No Match","","null","","","","","","<div class='trialBorder'><div class='vertical-center'><img src='img/fixation2_sml.jpg'</img></div></div>","null","FIX","","","","","","","","","","",""
"html-keyboard-response","10","127003","0.0-5.0-2.1","5fa9fffcf843322ce7456283","bdp_wmem","Tue Mar 14 2023 14:54:22 GMT-0400 (Eastern Daylight Time)","615759","Match,No Match","","null","","","","","","<div class='trialBorder'><div class='vertical-center'><img style='vertical-align:center; align:center' src='img/fixation2_sml.jpg'></div><div class='arrayDiv1'><div class='tc'><img class='introPic' src='trustrating_stim/white_mw091.bmp'><br><font color='red'><strong>Keep</strong></font></div></div></div>","null","ARRAY","1","trustrating_stim/white_mw091.bmp","0","Match","e","1500","","","","",""
"html-keyboard-response","11","131005","0.0-5.0-3.1","5fa9fffcf843322ce7456283","bdp_wmem","Tue Mar 14 2023 14:54:22 GMT-0400 (Eastern Daylight Time)","615759","Match,No Match","","null","","","","","","<div class='trialBorder'><div class='vertical-center'><img src='img/fixation2_sml.jpg'</img></div></div>","null","DELAY","","","","","","","","","","",""
"html-keyboard-response","12","132222","0.0-5.0-4.1","5fa9fffcf843322ce7456283","bdp_wmem","Tue Mar 14 2023 14:54:22 GMT-0400 (Eastern Daylight Time)","615759","Match,No Match","","1216","","","","","","<div class='trialBorder'><div class='targDiv'><div class='tc'><img class='introPic' src='trustrating_stim/white_mw091.bmp'><br><font color='red'><strong>Keep</strong></font></div></div><div class='respDiv'><div class='respDivL'>Match<br>(e)</div><div class='respDivR'>No Match<br>(i)</div></div></div>","e","TARGET","1","trustrating_stim/white_mw091.bmp","0","Match","e","1500","trustrating_stim/white_mw091.bmp","red","Keep","PRACTICE","1"
"html-keyboard-response","13","132724","0.0-5.0-5.1","5fa9fffcf843322ce7456283","bdp_wmem","Tue Mar 14 2023 14:54:22 GMT-0400 (Eastern Daylight Time)","615759","Match,No Match","","null","","","","","","<div class='trialBorder'><div class='vertical-center'><img src='img/correct.jpg'></div><div class='respDiv'><div class='respDivL'><font style='color:orange'>Match<br>(e)</font></div><div class='respDivR'>No Match<br>(i)</div></div></div>","null","FEEDBACK","","","","","","","","","","",""
"html-keyboard-response","14","133224","0.0-5.0-1.2","5fa9fffcf843322ce7456283","bdp_wmem","Tue Mar 14 2023 14:54:22 GMT-0400 (Eastern Daylight Time)","615759","Match,No Match","","null","","","","","","<div class='trialBorder'><div class='vertical-center'><img src='img/fixation2_sml.jpg'</img></div></div>","null","FIX","","","","","","","","","","",""
"html-keyboard-response","15","136226","0.0-5.0-2.2","5fa9fffcf843322ce7456283","bdp_wmem","Tue Mar 14 2023 14:54:22 GMT-0400 (Eastern Daylight Time)","615759","Match,No Match","","null","","","","","","<div class='trialBorder'><div class='vertical-center'><img style='vertical-align:center; align:center' src='img/fixation2_sml.jpg'></div><div class='arrayDiv2'><div class='tl'><img class='introPic' src='trustrating_stim/white_mw040.bmp'><br><font color='green'><strong>Share</strong></font></div><div class='tr'><img class='introPic' src='trustrating_stim/white_mw012.bmp'><br><font color='red'><strong>Keep</strong></font></div></div></div>","null","ARRAY","2","trustrating_stim/white_mw040.bmp,trustrating_stim/white_mw012.bmp","1,0","Match","e","3000","","","","",""
"html-keyboard-response","16","140227","0.0-5.0-3.2","5fa9fffcf843322ce7456283","bdp_wmem","Tue Mar 14 2023 14:54:22 GMT-0400 (Eastern Daylight Time)","615759","Match,No Match","","null","","","","","","<div class='trialBorder'><div class='vertical-center'><img src='img/fixation2_sml.jpg'</img></div></div>","null","DELAY","","","","","","","","","","",""
"html-keyboard-response","17","141141","0.0-5.0-4.2","5fa9fffcf843322ce7456283","bdp_wmem","Tue Mar 14 2023 14:54:22 GMT-0400 (Eastern Daylight Time)","615759","Match,No Match","","913","","","","","","<div class='trialBorder'><div class='targDiv'><div class='tc'><img class='introPic' src='trustrating_stim/white_mw040.bmp'><br><font color='green'><strong>Share</strong></font></div></div><div class='respDiv'><div class='respDivL'>Match<br>(e)</div><div class='respDivR'>No Match<br>(i)</div></div></div>","e","TARGET","2","trustrating_stim/white_mw040.bmp,trustrating_stim/white_mw012.bmp","1,0","Match","e","3000","trustrating_stim/white_mw040.bmp","green","Share","PRACTICE","1"
"html-keyboard-response","18","141643","0.0-5.0-5.2","5fa9fffcf843322ce7456283","bdp_wmem","Tue Mar 14 2023 14:54:22 GMT-0400 (Eastern Daylight Time)","615759","Match,No Match","","null","","","","","","<div class='trialBorder'><div class='vertical-center'><img src='img/correct.jpg'></div><div class='respDiv'><div class='respDivL'><font style='color:orange'>Match<br>(e)</font></div><div class='respDivR'>No Match<br>(i)</div></div></div>","null","FEEDBACK","","","","","","","","","","",""
"html-keyboard-response","19","142144","0.0-5.0-1.3","5fa9fffcf843322ce7456283","bdp_wmem","Tue Mar 14 2023 14:54:22 GMT-0400 (Eastern Daylight Time)","615759","Match,No Match","","null","","","","","","<div class='trialBorder'><div class='vertical-center'><img src='img/fixation2_sml.jpg'</img></div></div>","null","FIX","","","","","","","","","","",""
"html-keyboard-response","20","143645","0.0-5.0-2.3","5fa9fffcf843322ce7456283","bdp_wmem","Tue Mar 14 2023 14:54:22 GMT-0400 (Eastern Daylight Time)","615759","Match,No Match","","null","","","","","","<div class='trialBorder'><div class='vertical-center'><img style='vertical-align:center; align:center' src='img/fixation2_sml.jpg'></div><div class='arrayDiv1'><div class='tc'><img class='introPic' src='trustrating_stim/white_mw091.bmp'><br><font color='green'><strong>Share</strong></font></div></div></div>","null","ARRAY","1","trustrating_stim/white_mw091.bmp","1","noMatchFace","i","1500","","","","",""
"html-keyboard-response","21","147646","0.0-5.0-3.3","5fa9fffcf843322ce7456283","bdp_wmem","Tue Mar 14 2023 14:54:22 GMT-0400 (Eastern Daylight Time)","615759","Match,No Match","","null","","","","","","<div class='trialBorder'><div class='vertical-center'><img src='img/fixation2_sml.jpg'</img></div></div>","null","DELAY","","","","","","","","","","",""
"html-keyboard-response","22","149848","0.0-5.0-4.3","5fa9fffcf843322ce7456283","bdp_wmem","Tue Mar 14 2023 14:54:22 GMT-0400 (Eastern Daylight Time)","615759","Match,No Match","","2201","","","","","","<div class='trialBorder'><div class='targDiv'><div class='tc'><img class='introPic' src='trustrating_stim/white_mw070.bmp'><br><font color='green'><strong>Share</strong></font></div></div><div class='respDiv'><div class='respDivL'>Match<br>(e)</div><div class='respDivR'>No Match<br>(i)</div></div></div>","i","TARGET","1","trustrating_stim/white_mw091.bmp","1","noMatchFace","i","1500","trustrating_stim/white_mw070.bmp","green","Share","PRACTICE","1"
"html-keyboard-response","23","150350","0.0-5.0-5.3","5fa9fffcf843322ce7456283","bdp_wmem","Tue Mar 14 2023 14:54:22 GMT-0400 (Eastern Daylight Time)","615759","Match,No Match","","null","","","","","","<div class='trialBorder'><div class='vertical-center'><img src='img/correct.jpg'></div><div class='respDiv'><div class='respDivL'>Match<br>(e)</div><div class='respDivR'><font style='color:orange'>No Match<br>(i)</font></div></div></div>","null","FEEDBACK","","","","","","","","","","",""
"html-keyboard-response","24","150851","0.0-5.0-1.4","5fa9fffcf843322ce7456283","bdp_wmem","Tue Mar 14 2023 14:54:22 GMT-0400 (Eastern Daylight Time)","615759","Match,No Match","","null","","","","","","<div class='trialBorder'><div class='vertical-center'><img src='img/fixation2_sml.jpg'</img></div></div>","null","FIX","","","","","","","","","","",""
"html-keyboard-response","25","155352","0.0-5.0-2.4","5fa9fffcf843322ce7456283","bdp_wmem","Tue Mar 14 2023 14:54:22 GMT-0400 (Eastern Daylight Time)","615759","Match,No Match","","null","","","","","","<div class='trialBorder'><div class='vertical-center'><img style='vertical-align:center; align:center' src='img/fixation2_sml.jpg'></div><div class='arrayDiv3'><div class='tl'><img class='introPic' src='trustrating_stim/white_mw091.bmp'><br><font color='red'><strong>Keep</strong></font></div><div class='tc'><img class='introPic' src='trustrating_stim/white_mw070.bmp'><br><font color='red'><strong>Keep</strong></font></div><div class='tr'><img class='introPic' src='trustrating_stim/white_mw013.bmp'><br><font color='green'><strong>Share</strong></font></div></div></div>","null","ARRAY","3","trustrating_stim/white_mw091.bmp,trustrating_stim/white_mw070.bmp,trustrating_stim/white_mw013.bmp","0,0,1","Match","e","4500","","","","",""
"html-keyboard-response","26","159354","0.0-5.0-3.4","5fa9fffcf843322ce7456283","bdp_wmem","Tue Mar 14 2023 14:54:22 GMT-0400 (Eastern Daylight Time)","615759","Match,No Match","","null","","","","","","<div class='trialBorder'><div class='vertical-center'><img src='img/fixation2_sml.jpg'</img></div></div>","null","DELAY","","","","","","","","","","",""
"html-keyboard-response","27","160746","0.0-5.0-4.4","5fa9fffcf843322ce7456283","bdp_wmem","Tue Mar 14 2023 14:54:22 GMT-0400 (Eastern Daylight Time)","615759","Match,No Match","","1391","","","","","","<div class='trialBorder'><div class='targDiv'><div class='tc'><img class='introPic' src='trustrating_stim/white_mw070.bmp'><br><font color='red'><strong>Keep</strong></font></div></div><div class='respDiv'><div class='respDivL'>Match<br>(e)</div><div class='respDivR'>No Match<br>(i)</div></div></div>","e","TARGET","3","trustrating_stim/white_mw091.bmp,trustrating_stim/white_mw070.bmp,trustrating_stim/white_mw013.bmp","0,0,1","Match","e","4500","trustrating_stim/white_mw070.bmp","red","Keep","PRACTICE","1"
"html-keyboard-response","28","161247","0.0-5.0-5.4","5fa9fffcf843322ce7456283","bdp_wmem","Tue Mar 14 2023 14:54:22 GMT-0400 (Eastern Daylight Time)","615759","Match,No Match","","null","","","","","","<div class='trialBorder'><div class='vertical-center'><img src='img/correct.jpg'></div><div class='respDiv'><div class='respDivL'><font style='color:orange'>Match<br>(e)</font></div><div class='respDivR'>No Match<br>(i)</div></div></div>","null","FEEDBACK","","","","","","","","","","",""
"html-keyboard-response","29","161748","0.0-5.0-1.5","5fa9fffcf843322ce7456283","bdp_wmem","Tue Mar 14 2023 14:54:22 GMT-0400 (Eastern Daylight Time)","615759","Match,No Match","","null","","","","","","<div class='trialBorder'><div class='vertical-center'><img src='img/fixation2_sml.jpg'</img></div></div>","null","FIX","","","","","","","","","","",""
"html-keyboard-response","30","166249","0.0-5.0-2.5","5fa9fffcf843322ce7456283","bdp_wmem","Tue Mar 14 2023 14:54:22 GMT-0400 (Eastern Daylight Time)","615759","Match,No Match","","null","","","","","","<div class='trialBorder'><div class='vertical-center'><img style='vertical-align:center; align:center' src='img/fixation2_sml.jpg'></div><div class='arrayDiv3'><div class='tl'><img class='introPic' src='trustrating_stim/white_mw070.bmp'><br><font color='green'><strong>Share</strong></font></div><div class='tc'><img class='introPic' src='trustrating_stim/white_mw092.bmp'><br><font color='red'><strong>Keep</strong></font></div><div class='tr'><img class='introPic' src='trustrating_stim/white_mw091.bmp'><br><font color='red'><strong>Keep</strong></font></div></div></div>","null","ARRAY","3","trustrating_stim/white_mw070.bmp,trustrating_stim/white_mw092.bmp,trustrating_stim/white_mw091.bmp","1,0,0","noMatchOutcome","i","4500","","","","",""
"html-keyboard-response","31","170250","0.0-5.0-3.5","5fa9fffcf843322ce7456283","bdp_wmem","Tue Mar 14 2023 14:54:22 GMT-0400 (Eastern Daylight Time)","615759","Match,No Match","","null","","","","","","<div class='trialBorder'><div class='vertical-center'><img src='img/fixation2_sml.jpg'</img></div></div>","null","DELAY","","","","","","","","","","",""
"html-keyboard-response","32","172355","0.0-5.0-4.5","5fa9fffcf843322ce7456283","bdp_wmem","Tue Mar 14 2023 14:54:22 GMT-0400 (Eastern Daylight Time)","615759","Match,No Match","","2103","","","","","","<div class='trialBorder'><div class='targDiv'><div class='tc'><img class='introPic' src='trustrating_stim/white_mw091.bmp'><br><font color='green'><strong>Share</strong></font></div></div><div class='respDiv'><div class='respDivL'>Match<br>(e)</div><div class='respDivR'>No Match<br>(i)</div></div></div>","i","TARGET","3","trustrating_stim/white_mw070.bmp,trustrating_stim/white_mw092.bmp,trustrating_stim/white_mw091.bmp","1,0,0","noMatchOutcome","i","4500","trustrating_stim/white_mw091.bmp","green","Share","PRACTICE","1"
"html-keyboard-response","33","172856","0.0-5.0-5.5","5fa9fffcf843322ce7456283","bdp_wmem","Tue Mar 14 2023 14:54:22 GMT-0400 (Eastern Daylight Time)","615759","Match,No Match","","null","","","","","","<div class='trialBorder'><div class='vertical-center'><img src='img/correct.jpg'></div><div class='respDiv'><div class='respDivL'>Match<br>(e)</div><div class='respDivR'><font style='color:orange'>No Match<br>(i)</font></div></div></div>","null","FEEDBACK","","","","","","","","","","",""
"instructions","34","178977","0.0-6.0","5fa9fffcf843322ce7456283","bdp_wmem","Tue Mar 14 2023 14:54:22 GMT-0400 (Eastern Daylight Time)","615759","Match,No Match","[{""page_index"":0,""viewing_time"":6121}]","6121","","","","","","","","","","","","","","","","","","",""
"html-keyboard-response","35","179479","0.0-7.0-1.0","5fa9fffcf843322ce7456283","bdp_wmem","Tue Mar 14 2023 14:54:22 GMT-0400 (Eastern Daylight Time)","615759","Match,No Match","","null","","","","","","<div class='trialBorder'><div class='vertical-center'><img src='img/fixation2_sml.jpg'</img></div></div>","null","FIX","","","","","","","","","","",""
"html-keyboard-response","36","180981","0.0-7.0-2.0","5fa9fffcf843322ce7456283","bdp_wmem","Tue Mar 14 2023 14:54:22 GMT-0400 (Eastern Daylight Time)","615759","Match,No Match","","null","","","","","","<div class='trialBorder'><div class='vertical-center'><img style='vertical-align:center; align:center' src='img/fixation2_sml.jpg'></div><div class='arrayDiv1'><div class='tc'><img class='introPic' src='trustrating_stim/white_mw070.bmp'><br><font color='red'><strong>Keep</strong></font></div></div></div>","null","ARRAY","1","trustrating_stim/white_mw070.bmp","0","noMatchOutcome","i","1500","","","","",""
"html-keyboard-response","37","184982","0.0-7.0-3.0","5fa9fffcf843322ce7456283","bdp_wmem","Tue Mar 14 2023 14:54:22 GMT-0400 (Eastern Daylight Time)","615759","Match,No Match","","null","","","","","","<div class='trialBorder'><div class='vertical-center'><img src='img/fixation2_sml.jpg'</img></div></div>","null","DELAY","","","","","","","","","","",""
"html-keyboard-response","38","186411","0.0-7.0-4.0","5fa9fffcf843322ce7456283","bdp_wmem","Tue Mar 14 2023 14:54:22 GMT-0400 (Eastern Daylight Time)","615759","Match,No Match","","1428","","","","","","<div class='trialBorder'><div class='targDiv'><div class='tc'><img class='introPic' src='trustrating_stim/white_mw070.bmp'><br><font color='green'><strong>Share</strong></font></div></div><div class='respDiv'><div class='respDivL'>Match<br>(e)</div><div class='respDivR'>No Match<br>(i)</div></div></div>","i","TARGET","1","trustrating_stim/white_mw070.bmp","0","noMatchOutcome","i","1500","trustrating_stim/white_mw070.bmp","green","Share","REAL","1"
"html-keyboard-response","39","186912","0.0-7.0-5.0","5fa9fffcf843322ce7456283","bdp_wmem","Tue Mar 14 2023 14:54:22 GMT-0400 (Eastern Daylight Time)","615759","Match,No Match","","null","","","","","","<div class='trialBorder'><div class='vertical-center'><img src='img/correct.jpg'></div><div class='respDiv'><div class='respDivL'>Match<br>(e)</div><div class='respDivR'><font style='color:orange'>No Match<br>(i)</font></div></div></div>","null","FEEDBACK","","","","","","","","","","",""
"html-keyboard-response","40","187413","0.0-7.0-1.1","5fa9fffcf843322ce7456283","bdp_wmem","Tue Mar 14 2023 14:54:22 GMT-0400 (Eastern Daylight Time)","615759","Match,No Match","","null","","","","","","<div class='trialBorder'><div class='vertical-center'><img src='img/fixation2_sml.jpg'</img></div></div>","null","FIX","","","","","","","","","","",""
"html-keyboard-response","41","191914","0.0-7.0-2.1","5fa9fffcf843322ce7456283","bdp_wmem","Tue Mar 14 2023 14:54:22 GMT-0400 (Eastern Daylight Time)","615759","Match,No Match","","null","","","","","","<div class='trialBorder'><div class='vertical-center'><img style='vertical-align:center; align:center' src='img/fixation2_sml.jpg'></div><div class='arrayDiv3'><div class='tl'><img class='introPic' src='trustrating_stim/white_mw085.bmp'><br><font color='red'><strong>Keep</strong></font></div><div class='tc'><img class='introPic' src='trustrating_stim/white_mw078.bmp'><br><font color='green'><strong>Share</strong></font></div><div class='tr'><img class='introPic' src='trustrating_stim/white_mw013.bmp'><br><font color='green'><strong>Share</strong></font></div></div></div>","null","ARRAY","3","trustrating_stim/white_mw085.bmp,trustrating_stim/white_mw078.bmp,trustrating_stim/white_mw013.bmp","0,1,1","noMatchFace","i","4500","","","","",""
"html-keyboard-response","42","195915","0.0-7.0-3.1","5fa9fffcf843322ce7456283","bdp_wmem","Tue Mar 14 2023 14:54:22 GMT-0400 (Eastern Daylight Time)","615759","Match,No Match","","null","","","","","","<div class='trialBorder'><div class='vertical-center'><img src='img/fixation2_sml.jpg'</img></div></div>","null","DELAY","","","","","","","","","","",""
"html-keyboard-response","43","196765","0.0-7.0-4.1","5fa9fffcf843322ce7456283","bdp_wmem","Tue Mar 14 2023 14:54:22 GMT-0400 (Eastern Daylight Time)","615759","Match,No Match","","849","","","","","","<div class='trialBorder'><div class='targDiv'><div class='tc'><img class='introPic' src='trustrating_stim/white_mw091.bmp'><br><font color='red'><strong>Keep</strong></font></div></div><div class='respDiv'><div class='respDivL'>Match<br>(e)</div><div class='respDivR'>No Match<br>(i)</div></div></div>","i","TARGET","3","trustrating_stim/white_mw085.bmp,trustrating_stim/white_mw078.bmp,trustrating_stim/white_mw013.bmp","0,1,1","noMatchFace","i","4500","trustrating_stim/white_mw091.bmp","red","Keep","REAL","1"
"html-keyboard-response","44","197266","0.0-7.0-5.1","5fa9fffcf843322ce7456283","bdp_wmem","Tue Mar 14 2023 14:54:22 GMT-0400 (Eastern Daylight Time)","615759","Match,No Match","","null","","","","","","<div class='trialBorder'><div class='vertical-center'><img src='img/correct.jpg'></div><div class='respDiv'><div class='respDivL'>Match<br>(e)</div><div class='respDivR'><font style='color:orange'>No Match<br>(i)</font></div></div></div>","null","FEEDBACK","","","","","","","","","","",""
"html-keyboard-response","45","197767","0.0-7.0-1.2","5fa9fffcf843322ce7456283","bdp_wmem","Tue Mar 14 2023 14:54:22 GMT-0400 (Eastern Daylight Time)","615759","Match,No Match","","null","","","","","","<div class='trialBorder'><div class='vertical-center'><img src='img/fixation2_sml.jpg'</img></div></div>","null","FIX","","","","","","","","","","",""
"html-keyboard-response","46","200768","0.0-7.0-2.2","5fa9fffcf843322ce7456283","bdp_wmem","Tue Mar 14 2023 14:54:22 GMT-0400 (Eastern Daylight Time)","615759","Match,No Match","","null","","","","","","<div class='trialBorder'><div class='vertical-center'><img style='vertical-align:center; align:center' src='img/fixation2_sml.jpg'></div><div class='arrayDiv2'><div class='tl'><img class='introPic' src='trustrating_stim/white_mw092.bmp'><br><font color='red'><strong>Keep</strong></font></div><div class='tr'><img class='introPic' src='trustrating_stim/white_mw042.bmp'><br><font color='green'><strong>Share</strong></font></div></div></div>","null","ARRAY","2","trustrating_stim/white_mw092.bmp,trustrating_stim/white_mw042.bmp","0,1","Match","e","3000","","","","",""
"html-keyboard-response","47","204769","0.0-7.0-3.2","5fa9fffcf843322ce7456283","bdp_wmem","Tue Mar 14 2023 14:54:22 GMT-0400 (Eastern Daylight Time)","615759","Match,No Match","","null","","","","","","<div class='trialBorder'><div class='vertical-center'><img src='img/fixation2_sml.jpg'</img></div></div>","null","DELAY","","","","","","","","","","",""
"html-keyboard-response","48","206137","0.0-7.0-4.2","5fa9fffcf843322ce7456283","bdp_wmem","Tue Mar 14 2023 14:54:22 GMT-0400 (Eastern Daylight Time)","615759","Match,No Match","","1366","","","","","","<div class='trialBorder'><div class='targDiv'><div class='tc'><img class='introPic' src='trustrating_stim/white_mw092.bmp'><br><font color='red'><strong>Keep</strong></font></div></div><div class='respDiv'><div class='respDivL'>Match<br>(e)</div><div class='respDivR'>No Match<br>(i)</div></div></div>","e","TARGET","2","trustrating_stim/white_mw092.bmp,trustrating_stim/white_mw042.bmp","0,1","Match","e","3000","trustrating_stim/white_mw092.bmp","red","Keep","REAL","1"
"html-keyboard-response","49","206638","0.0-7.0-5.2","5fa9fffcf843322ce7456283","bdp_wmem","Tue Mar 14 2023 14:54:22 GMT-0400 (Eastern Daylight Time)","615759","Match,No Match","","null","","","","","","<div class='trialBorder'><div class='vertical-center'><img src='img/correct.jpg'></div><div class='respDiv'><div class='respDivL'><font style='color:orange'>Match<br>(e)</font></div><div class='respDivR'>No Match<br>(i)</div></div></div>","null","FEEDBACK","","","","","","","","","","",""
"html-keyboard-response","50","207139","0.0-7.0-1.3","5fa9fffcf843322ce7456283","bdp_wmem","Tue Mar 14 2023 14:54:22 GMT-0400 (Eastern Daylight Time)","615759","Match,No Match","","null","","","","","","<div class='trialBorder'><div class='vertical-center'><img src='img/fixation2_sml.jpg'</img></div></div>","null","FIX","","","","","","","","","","",""
"html-keyboard-response","51","211641","0.0-7.0-2.3","5fa9fffcf843322ce7456283","bdp_wmem","Tue Mar 14 2023 14:54:22 GMT-0400 (Eastern Daylight Time)","615759","Match,No Match","","null","","","","","","<div class='trialBorder'><div class='vertical-center'><img style='vertical-align:center; align:center' src='img/fixation2_sml.jpg'></div><div class='arrayDiv3'><div class='tl'><img class='introPic' src='trustrating_stim/white_mw042.bmp'><br><font color='green'><strong>Share</strong></font></div><div class='tc'><img class='introPic' src='trustrating_stim/white_mw070.bmp'><br><font color='red'><strong>Keep</strong></font></div><div class='tr'><img class='introPic' src='trustrating_stim/white_mw040.bmp'><br><font color='green'><strong>Share</strong></font></div></div></div>","null","ARRAY","3","trustrating_stim/white_mw042.bmp,trustrating_stim/white_mw070.bmp,trustrating_stim/white_mw040.bmp","1,0,1","Match","e","4500","","","","",""
"html-keyboard-response","52","215642","0.0-7.0-3.3","5fa9fffcf843322ce7456283","bdp_wmem","Tue Mar 14 2023 14:54:22 GMT-0400 (Eastern Daylight Time)","615759","Match,No Match","","null","","","","","","<div class='trialBorder'><div class='vertical-center'><img src='img/fixation2_sml.jpg'</img></div></div>","null","DELAY","","","","","","","","","","",""
"html-keyboard-response","53","216774","0.0-7.0-4.3","5fa9fffcf843322ce7456283","bdp_wmem","Tue Mar 14 2023 14:54:22 GMT-0400 (Eastern Daylight Time)","615759","Match,No Match","","1131","","","","","","<div class='trialBorder'><div class='targDiv'><div class='tc'><img class='introPic' src='trustrating_stim/white_mw070.bmp'><br><font color='red'><strong>Keep</strong></font></div></div><div class='respDiv'><div class='respDivL'>Match<br>(e)</div><div class='respDivR'>No Match<br>(i)</div></div></div>","e","TARGET","3","trustrating_stim/white_mw042.bmp,trustrating_stim/white_mw070.bmp,trustrating_stim/white_mw040.bmp","1,0,1","Match","e","4500","trustrating_stim/white_mw070.bmp","red","Keep","REAL","1"
"html-keyboard-response","54","217275","0.0-7.0-5.3","5fa9fffcf843322ce7456283","bdp_wmem","Tue Mar 14 2023 14:54:22 GMT-0400 (Eastern Daylight Time)","615759","Match,No Match","","null","","","","","","<div class='trialBorder'><div class='vertical-center'><img src='img/correct.jpg'></div><div class='respDiv'><div class='respDivL'><font style='color:orange'>Match<br>(e)</font></div><div class='respDivR'>No Match<br>(i)</div></div></div>","null","FEEDBACK","","","","","","","","","","",""
"html-keyboard-response","55","217777","0.0-7.0-1.4","5fa9fffcf843322ce7456283","bdp_wmem","Tue Mar 14 2023 14:54:22 GMT-0400 (Eastern Daylight Time)","615759","Match,No Match","","null","","","","","","<div class='trialBorder'><div class='vertical-center'><img src='img/fixation2_sml.jpg'</img></div></div>","null","FIX","","","","","","","","","","",""
"html-keyboard-response","56","219279","0.0-7.0-2.4","5fa9fffcf843322ce7456283","bdp_wmem","Tue Mar 14 2023 14:54:22 GMT-0400 (Eastern Daylight Time)","615759","Match,No Match","","null","","","","","","<div class='trialBorder'><div class='vertical-center'><img style='vertical-align:center; align:center' src='img/fixation2_sml.jpg'></div><div class='arrayDiv1'><div class='tc'><img class='introPic' src='trustrating_stim/white_mw091.bmp'><br><font color='red'><strong>Keep</strong></font></div></div></div>","null","ARRAY","1","trustrating_stim/white_mw091.bmp","0","Match","e","1500","","","","",""
"html-keyboard-response","57","223281","0.0-7.0-3.4","5fa9fffcf843322ce7456283","bdp_wmem","Tue Mar 14 2023 14:54:22 GMT-0400 (Eastern Daylight Time)","615759","Match,No Match","","null","","","","","","<div class='trialBorder'><div class='vertical-center'><img src='img/fixation2_sml.jpg'</img></div></div>","null","DELAY","","","","","","","","","","",""
"html-keyboard-response","58","224277","0.0-7.0-4.4","5fa9fffcf843322ce7456283","bdp_wmem","Tue Mar 14 2023 14:54:22 GMT-0400 (Eastern Daylight Time)","615759","Match,No Match","","995","","","","","","<div class='trialBorder'><div class='targDiv'><div class='tc'><img class='introPic' src='trustrating_stim/white_mw091.bmp'><br><font color='red'><strong>Keep</strong></font></div></div><div class='respDiv'><div class='respDivL'>Match<br>(e)</div><div class='respDivR'>No Match<br>(i)</div></div></div>","e","TARGET","1","trustrating_stim/white_mw091.bmp","0","Match","e","1500","trustrating_stim/white_mw091.bmp","red","Keep","REAL","1"
"html-keyboard-response","59","224779","0.0-7.0-5.4","5fa9fffcf843322ce7456283","bdp_wmem","Tue Mar 14 2023 14:54:22 GMT-0400 (Eastern Daylight Time)","615759","Match,No Match","","null","","","","","","<div class='trialBorder'><div class='vertical-center'><img src='img/correct.jpg'></div><div class='respDiv'><div class='respDivL'><font style='color:orange'>Match<br>(e)</font></div><div class='respDivR'>No Match<br>(i)</div></div></div>","null","FEEDBACK","","","","","","","","","","",""
"html-keyboard-response","60","225280","0.0-7.0-1.5","5fa9fffcf843322ce7456283","bdp_wmem","Tue Mar 14 2023 14:54:22 GMT-0400 (Eastern Daylight Time)","615759","Match,No Match","","null","","","","","","<div class='trialBorder'><div class='vertical-center'><img src='img/fixation2_sml.jpg'</img></div></div>","null","FIX","","","","","","","","","","",""
"html-keyboard-response","61","228281","0.0-7.0-2.5","5fa9fffcf843322ce7456283","bdp_wmem","Tue Mar 14 2023 14:54:22 GMT-0400 (Eastern Daylight Time)","615759","Match,No Match","","null","","","","","","<div class='trialBorder'><div class='vertical-center'><img style='vertical-align:center; align:center' src='img/fixation2_sml.jpg'></div><div class='arrayDiv2'><div class='tl'><img class='introPic' src='trustrating_stim/white_mw013.bmp'><br><font color='red'><strong>Keep</strong></font></div><div class='tr'><img class='introPic' src='trustrating_stim/white_mw070.bmp'><br><font color='green'><strong>Share</strong></font></div></div></div>","null","ARRAY","2","trustrating_stim/white_mw013.bmp,trustrating_stim/white_mw070.bmp","0,1","Match","e","3000","","","","",""
"html-keyboard-response","62","232282","0.0-7.0-3.5","5fa9fffcf843322ce7456283","bdp_wmem","Tue Mar 14 2023 14:54:22 GMT-0400 (Eastern Daylight Time)","615759","Match,No Match","","null","","","","","","<div class='trialBorder'><div class='vertical-center'><img src='img/fixation2_sml.jpg'</img></div></div>","null","DELAY","","","","","","","","","","",""
"html-keyboard-response","63","233241","0.0-7.0-4.5","5fa9fffcf843322ce7456283","bdp_wmem","Tue Mar 14 2023 14:54:22 GMT-0400 (Eastern Daylight Time)","615759","Match,No Match","","958","","","","","","<div class='trialBorder'><div class='targDiv'><div class='tc'><img class='introPic' src='trustrating_stim/white_mw070.bmp'><br><font color='green'><strong>Share</strong></font></div></div><div class='respDiv'><div class='respDivL'>Match<br>(e)</div><div class='respDivR'>No Match<br>(i)</div></div></div>","e","TARGET","2","trustrating_stim/white_mw013.bmp,trustrating_stim/white_mw070.bmp","0,1","Match","e","3000","trustrating_stim/white_mw070.bmp","green","Share","REAL","1"
"html-keyboard-response","64","233742","0.0-7.0-5.5","5fa9fffcf843322ce7456283","bdp_wmem","Tue Mar 14 2023 14:54:22 GMT-0400 (Eastern Daylight Time)","615759","Match,No Match","","null","","","","","","<div class='trialBorder'><div class='vertical-center'><img src='img/correct.jpg'></div><div class='respDiv'><div class='respDivL'><font style='color:orange'>Match<br>(e)</font></div><div class='respDivR'>No Match<br>(i)</div></div></div>","null","FEEDBACK","","","","","","","","","","",""
"html-keyboard-response","65","234243","0.0-7.0-1.6","5fa9fffcf843322ce7456283","bdp_wmem","Tue Mar 14 2023 14:54:22 GMT-0400 (Eastern Daylight Time)","615759","Match,No Match","","null","","","","","","<div class='trialBorder'><div class='vertical-center'><img src='img/fixation2_sml.jpg'</img></div></div>","null","FIX","","","","","","","","","","",""
"html-keyboard-response","66","235744","0.0-7.0-2.6","5fa9fffcf843322ce7456283","bdp_wmem","Tue Mar 14 2023 14:54:22 GMT-0400 (Eastern Daylight Time)","615759","Match,No Match","","null","","","","","","<div class='trialBorder'><div class='vertical-center'><img style='vertical-align:center; align:center' src='img/fixation2_sml.jpg'></div><div class='arrayDiv1'><div class='tc'><img class='introPic' src='trustrating_stim/white_mw042.bmp'><br><font color='red'><strong>Keep</strong></font></div></div></div>","null","ARRAY","1","trustrating_stim/white_mw042.bmp","0","noMatchFace","i","1500","","","","",""
"html-keyboard-response","67","239746","0.0-7.0-3.6","5fa9fffcf843322ce7456283","bdp_wmem","Tue Mar 14 2023 14:54:22 GMT-0400 (Eastern Daylight Time)","615759","Match,No Match","","null","","","","","","<div class='trialBorder'><div class='vertical-center'><img src='img/fixation2_sml.jpg'</img></div></div>","null","DELAY","","","","","","","","","","",""
"html-keyboard-response","68","240538","0.0-7.0-4.6","5fa9fffcf843322ce7456283","bdp_wmem","Tue Mar 14 2023 14:54:22 GMT-0400 (Eastern Daylight Time)","615759","Match,No Match","","791","","","","","","<div class='trialBorder'><div class='targDiv'><div class='tc'><img class='introPic' src='trustrating_stim/white_mw085.bmp'><br><font color='red'><strong>Keep</strong></font></div></div><div class='respDiv'><div class='respDivL'>Match<br>(e)</div><div class='respDivR'>No Match<br>(i)</div></div></div>","i","TARGET","1","trustrating_stim/white_mw042.bmp","0","noMatchFace","i","1500","trustrating_stim/white_mw085.bmp","red","Keep","REAL","1"
"html-keyboard-response","69","241039","0.0-7.0-5.6","5fa9fffcf843322ce7456283","bdp_wmem","Tue Mar 14 2023 14:54:22 GMT-0400 (Eastern Daylight Time)","615759","Match,No Match","","null","","","","","","<div class='trialBorder'><div class='vertical-center'><img src='img/correct.jpg'></div><div class='respDiv'><div class='respDivL'>Match<br>(e)</div><div class='respDivR'><font style='color:orange'>No Match<br>(i)</font></div></div></div>","null","FEEDBACK","","","","","","","","","","",""
"html-keyboard-response","70","241540","0.0-7.0-1.7","5fa9fffcf843322ce7456283","bdp_wmem","Tue Mar 14 2023 14:54:22 GMT-0400 (Eastern Daylight Time)","615759","Match,No Match","","null","","","","","","<div class='trialBorder'><div class='vertical-center'><img src='img/fixation2_sml.jpg'</img></div></div>","null","FIX","","","","","","","","","","",""
"html-keyboard-response","71","246041","0.0-7.0-2.7","5fa9fffcf843322ce7456283","bdp_wmem","Tue Mar 14 2023 14:54:22 GMT-0400 (Eastern Daylight Time)","615759","Match,No Match","","null","","","","","","<div class='trialBorder'><div class='vertical-center'><img style='vertical-align:center; align:center' src='img/fixation2_sml.jpg'></div><div class='arrayDiv3'><div class='tl'><img class='introPic' src='trustrating_stim/white_mw085.bmp'><br><font color='green'><strong>Share</strong></font></div><div class='tc'><img class='introPic' src='trustrating_stim/white_mw042.bmp'><br><font color='green'><strong>Share</strong></font></div><div class='tr'><img class='introPic' src='trustrating_stim/white_mw078.bmp'><br><font color='red'><strong>Keep</strong></font></div></div></div>","null","ARRAY","3","trustrating_stim/white_mw085.bmp,trustrating_stim/white_mw042.bmp,trustrating_stim/white_mw078.bmp","1,1,0","Match","e","4500","","","","",""
"html-keyboard-response","72","250043","0.0-7.0-3.7","5fa9fffcf843322ce7456283","bdp_wmem","Tue Mar 14 2023 14:54:22 GMT-0400 (Eastern Daylight Time)","615759","Match,No Match","","null","","","","","","<div class='trialBorder'><div class='vertical-center'><img src='img/fixation2_sml.jpg'</img></div></div>","null","DELAY","","","","","","","","","","",""
"html-keyboard-response","73","251113","0.0-7.0-4.7","5fa9fffcf843322ce7456283","bdp_wmem","Tue Mar 14 2023 14:54:22 GMT-0400 (Eastern Daylight Time)","615759","Match,No Match","","1069","","","","","","<div class='trialBorder'><div class='targDiv'><div class='tc'><img class='introPic' src='trustrating_stim/white_mw085.bmp'><br><font color='green'><strong>Share</strong></font></div></div><div class='respDiv'><div class='respDivL'>Match<br>(e)</div><div class='respDivR'>No Match<br>(i)</div></div></div>","i","TARGET","3","trustrating_stim/white_mw085.bmp,trustrating_stim/white_mw042.bmp,trustrating_stim/white_mw078.bmp","1,1,0","Match","e","4500","trustrating_stim/white_mw085.bmp","green","Share","REAL","0"
"html-keyboard-response","74","251614","0.0-7.0-5.7","5fa9fffcf843322ce7456283","bdp_wmem","Tue Mar 14 2023 14:54:22 GMT-0400 (Eastern Daylight Time)","615759","Match,No Match","","null","","","","","","<div class='trialBorder'><div class='vertical-center'><img src='img/error.jpg'></div><div class='respDiv'><div class='respDivL'>Match<br>(e)</div><div class='respDivR'><font style='color:orange'>No Match<br>(i)</font></div></div></div>","null","FEEDBACK","","","","","","","","","","",""
"html-keyboard-response","75","252115","0.0-7.0-1.8","5fa9fffcf843322ce7456283","bdp_wmem","Tue Mar 14 2023 14:54:22 GMT-0400 (Eastern Daylight Time)","615759","Match,No Match","","null","","","","","","<div class='trialBorder'><div class='vertical-center'><img src='img/fixation2_sml.jpg'</img></div></div>","null","FIX","","","","","","","","","","",""
"html-keyboard-response","76","253616","0.0-7.0-2.8","5fa9fffcf843322ce7456283","bdp_wmem","Tue Mar 14 2023 14:54:22 GMT-0400 (Eastern Daylight Time)","615759","Match,No Match","","null","","","","","","<div class='trialBorder'><div class='vertical-center'><img style='vertical-align:center; align:center' src='img/fixation2_sml.jpg'></div><div class='arrayDiv1'><div class='tc'><img class='introPic' src='trustrating_stim/white_mw012.bmp'><br><font color='red'><strong>Keep</strong></font></div></div></div>","null","ARRAY","1","trustrating_stim/white_mw012.bmp","0","Match","e","1500","","","","",""
"html-keyboard-response","77","257618","0.0-7.0-3.8","5fa9fffcf843322ce7456283","bdp_wmem","Tue Mar 14 2023 14:54:22 GMT-0400 (Eastern Daylight Time)","615759","Match,No Match","","null","","","","","","<div class='trialBorder'><div class='vertical-center'><img src='img/fixation2_sml.jpg'</img></div></div>","null","DELAY","","","","","","","","","","",""
"html-keyboard-response","78","258628","0.0-7.0-4.8","5fa9fffcf843322ce7456283","bdp_wmem","Tue Mar 14 2023 14:54:22 GMT-0400 (Eastern Daylight Time)","615759","Match,No Match","","1008","","","","","","<div class='trialBorder'><div class='targDiv'><div class='tc'><img class='introPic' src='trustrating_stim/white_mw012.bmp'><br><font color='red'><strong>Keep</strong></font></div></div><div class='respDiv'><div class='respDivL'>Match<br>(e)</div><div class='respDivR'>No Match<br>(i)</div></div></div>","e","TARGET","1","trustrating_stim/white_mw012.bmp","0","Match","e","1500","trustrating_stim/white_mw012.bmp","red","Keep","REAL","1"
"html-keyboard-response","79","259129","0.0-7.0-5.8","5fa9fffcf843322ce7456283","bdp_wmem","Tue Mar 14 2023 14:54:22 GMT-0400 (Eastern Daylight Time)","615759","Match,No Match","","null","","","","","","<div class='trialBorder'><div class='vertical-center'><img src='img/correct.jpg'></div><div class='respDiv'><div class='respDivL'><font style='color:orange'>Match<br>(e)</font></div><div class='respDivR'>No Match<br>(i)</div></div></div>","null","FEEDBACK","","","","","","","","","","",""
"html-keyboard-response","80","259630","0.0-7.0-1.9","5fa9fffcf843322ce7456283","bdp_wmem","Tue Mar 14 2023 14:54:22 GMT-0400 (Eastern Daylight Time)","615759","Match,No Match","","null","","","","","","<div class='trialBorder'><div class='vertical-center'><img src='img/fixation2_sml.jpg'</img></div></div>","null","FIX","","","","","","","","","","",""
"html-keyboard-response","81","264131","0.0-7.0-2.9","5fa9fffcf843322ce7456283","bdp_wmem","Tue Mar 14 2023 14:54:22 GMT-0400 (Eastern Daylight Time)","615759","Match,No Match","","null","","","","","","<div class='trialBorder'><div class='vertical-center'><img style='vertical-align:center; align:center' src='img/fixation2_sml.jpg'></div><div class='arrayDiv3'><div class='tl'><img class='introPic' src='trustrating_stim/white_mw003.bmp'><br><font color='green'><strong>Share</strong></font></div><div class='tc'><img class='introPic' src='trustrating_stim/white_mw078.bmp'><br><font color='red'><strong>Keep</strong></font></div><div class='tr'><img class='introPic' src='trustrating_stim/white_mw010.bmp'><br><font color='red'><strong>Keep</strong></font></div></div></div>","null","ARRAY","3","trustrating_stim/white_mw003.bmp,trustrating_stim/white_mw078.bmp,trustrating_stim/white_mw010.bmp","1,0,0","Match","e","4500","","","","",""
"html-keyboard-response","82","268133","0.0-7.0-3.9","5fa9fffcf843322ce7456283","bdp_wmem","Tue Mar 14 2023 14:54:22 GMT-0400 (Eastern Daylight Time)","615759","Match,No Match","","null","","","","","","<div class='trialBorder'><div class='vertical-center'><img src='img/fixation2_sml.jpg'</img></div></div>","null","DELAY","","","","","","","","","","",""
"html-keyboard-response","83","269167","0.0-7.0-4.9","5fa9fffcf843322ce7456283","bdp_wmem","Tue Mar 14 2023 14:54:22 GMT-0400 (Eastern Daylight Time)","615759","Match,No Match","","1033","","","","","","<div class='trialBorder'><div class='targDiv'><div class='tc'><img class='introPic' src='trustrating_stim/white_mw010.bmp'><br><font color='red'><strong>Keep</strong></font></div></div><div class='respDiv'><div class='respDivL'>Match<br>(e)</div><div class='respDivR'>No Match<br>(i)</div></div></div>","i","TARGET","3","trustrating_stim/white_mw003.bmp,trustrating_stim/white_mw078.bmp,trustrating_stim/white_mw010.bmp","1,0,0","Match","e","4500","trustrating_stim/white_mw010.bmp","red","Keep","REAL","0"
"html-keyboard-response","84","269669","0.0-7.0-5.9","5fa9fffcf843322ce7456283","bdp_wmem","Tue Mar 14 2023 14:54:22 GMT-0400 (Eastern Daylight Time)","615759","Match,No Match","","null","","","","","","<div class='trialBorder'><div class='vertical-center'><img src='img/error.jpg'></div><div class='respDiv'><div class='respDivL'>Match<br>(e)</div><div class='respDivR'><font style='color:orange'>No Match<br>(i)</font></div></div></div>","null","FEEDBACK","","","","","","","","","","",""
"html-keyboard-response","85","270170","0.0-7.0-1.10","5fa9fffcf843322ce7456283","bdp_wmem","Tue Mar 14 2023 14:54:22 GMT-0400 (Eastern Daylight Time)","615759","Match,No Match","","null","","","","","","<div class='trialBorder'><div class='vertical-center'><img src='img/fixation2_sml.jpg'</img></div></div>","null","FIX","","","","","","","","","","",""
"html-keyboard-response","86","273171","0.0-7.0-2.10","5fa9fffcf843322ce7456283","bdp_wmem","Tue Mar 14 2023 14:54:22 GMT-0400 (Eastern Daylight Time)","615759","Match,No Match","","null","","","","","","<div class='trialBorder'><div class='vertical-center'><img style='vertical-align:center; align:center' src='img/fixation2_sml.jpg'></div><div class='arrayDiv2'><div class='tl'><img class='introPic' src='trustrating_stim/white_mw042.bmp'><br><font color='red'><strong>Keep</strong></font></div><div class='tr'><img class='introPic' src='trustrating_stim/white_mw040.bmp'><br><font color='green'><strong>Share</strong></font></div></div></div>","null","ARRAY","2","trustrating_stim/white_mw042.bmp,trustrating_stim/white_mw040.bmp","0,1","Match","e","3000","","","","",""
"html-keyboard-response","87","277173","0.0-7.0-3.10","5fa9fffcf843322ce7456283","bdp_wmem","Tue Mar 14 2023 14:54:22 GMT-0400 (Eastern Daylight Time)","615759","Match,No Match","","null","","","","","","<div class='trialBorder'><div class='vertical-center'><img src='img/fixation2_sml.jpg'</img></div></div>","null","DELAY","","","","","","","","","","",""
"html-keyboard-response","88","277728","0.0-7.0-4.10","5fa9fffcf843322ce7456283","bdp_wmem","Tue Mar 14 2023 14:54:22 GMT-0400 (Eastern Daylight Time)","615759","Match,No Match","","555","","","","","","<div class='trialBorder'><div class='targDiv'><div class='tc'><img class='introPic' src='trustrating_stim/white_mw040.bmp'><br><font color='green'><strong>Share</strong></font></div></div><div class='respDiv'><div class='respDivL'>Match<br>(e)</div><div class='respDivR'>No Match<br>(i)</div></div></div>","e","TARGET","2","trustrating_stim/white_mw042.bmp,trustrating_stim/white_mw040.bmp","0,1","Match","e","3000","trustrating_stim/white_mw040.bmp","green","Share","REAL","1"
"html-keyboard-response","89","278229","0.0-7.0-5.10","5fa9fffcf843322ce7456283","bdp_wmem","Tue Mar 14 2023 14:54:22 GMT-0400 (Eastern Daylight Time)","615759","Match,No Match","","null","","","","","","<div class='trialBorder'><div class='vertical-center'><img src='img/correct.jpg'></div><div class='respDiv'><div class='respDivL'><font style='color:orange'>Match<br>(e)</font></div><div class='respDivR'>No Match<br>(i)</div></div></div>","null","FEEDBACK","","","","","","","","","","",""
"html-keyboard-response","90","278730","0.0-7.0-1.11","5fa9fffcf843322ce7456283","bdp_wmem","Tue Mar 14 2023 14:54:22 GMT-0400 (Eastern Daylight Time)","615759","Match,No Match","","null","","","","","","<div class='trialBorder'><div class='vertical-center'><img src='img/fixation2_sml.jpg'</img></div></div>","null","FIX","","","","","","","","","","",""
"html-keyboard-response","91","283232","0.0-7.0-2.11","5fa9fffcf843322ce7456283","bdp_wmem","Tue Mar 14 2023 14:54:22 GMT-0400 (Eastern Daylight Time)","615759","Match,No Match","","null","","","","","","<div class='trialBorder'><div class='vertical-center'><img style='vertical-align:center; align:center' src='img/fixation2_sml.jpg'></div><div class='arrayDiv3'><div class='tl'><img class='introPic' src='trustrating_stim/white_mw003.bmp'><br><font color='red'><strong>Keep</strong></font></div><div class='tc'><img class='introPic' src='trustrating_stim/white_mw085.bmp'><br><font color='green'><strong>Share</strong></font></div><div class='tr'><img class='introPic' src='trustrating_stim/white_mw042.bmp'><br><font color='red'><strong>Keep</strong></font></div></div></div>","null","ARRAY","3","trustrating_stim/white_mw003.bmp,trustrating_stim/white_mw085.bmp,trustrating_stim/white_mw042.bmp","0,1,0","noMatchFace","i","4500","","","","",""
"html-keyboard-response","92","287234","0.0-7.0-3.11","5fa9fffcf843322ce7456283","bdp_wmem","Tue Mar 14 2023 14:54:22 GMT-0400 (Eastern Daylight Time)","615759","Match,No Match","","null","","","","","","<div class='trialBorder'><div class='vertical-center'><img src='img/fixation2_sml.jpg'</img></div></div>","null","DELAY","","","","","","","","","","",""
"html-keyboard-response","93","287932","0.0-7.0-4.11","5fa9fffcf843322ce7456283","bdp_wmem","Tue Mar 14 2023 14:54:22 GMT-0400 (Eastern Daylight Time)","615759","Match,No Match","","698","","","","","","<div class='trialBorder'><div class='targDiv'><div class='tc'><img class='introPic' src='trustrating_stim/white_mw012.bmp'><br><font color='red'><strong>Keep</strong></font></div></div><div class='respDiv'><div class='respDivL'>Match<br>(e)</div><div class='respDivR'>No Match<br>(i)</div></div></div>","i","TARGET","3","trustrating_stim/white_mw003.bmp,trustrating_stim/white_mw085.bmp,trustrating_stim/white_mw042.bmp","0,1,0","noMatchFace","i","4500","trustrating_stim/white_mw012.bmp","red","Keep","REAL","1"
"html-keyboard-response","94","288433","0.0-7.0-5.11","5fa9fffcf843322ce7456283","bdp_wmem","Tue Mar 14 2023 14:54:22 GMT-0400 (Eastern Daylight Time)","615759","Match,No Match","","null","","","","","","<div class='trialBorder'><div class='vertical-center'><img src='img/correct.jpg'></div><div class='respDiv'><div class='respDivL'>Match<br>(e)</div><div class='respDivR'><font style='color:orange'>No Match<br>(i)</font></div></div></div>","null","FEEDBACK","","","","","","","","","","",""
"html-keyboard-response","95","288934","0.0-7.0-1.12","5fa9fffcf843322ce7456283","bdp_wmem","Tue Mar 14 2023 14:54:22 GMT-0400 (Eastern Daylight Time)","615759","Match,No Match","","null","","","","","","<div class='trialBorder'><div class='vertical-center'><img src='img/fixation2_sml.jpg'</img></div></div>","null","FIX","","","","","","","","","","",""
"html-keyboard-response","96","293436","0.0-7.0-2.12","5fa9fffcf843322ce7456283","bdp_wmem","Tue Mar 14 2023 14:54:22 GMT-0400 (Eastern Daylight Time)","615759","Match,No Match","","null","","","","","","<div class='trialBorder'><div class='vertical-center'><img style='vertical-align:center; align:center' src='img/fixation2_sml.jpg'></div><div class='arrayDiv3'><div class='tl'><img class='introPic' src='trustrating_stim/white_mw038.bmp'><br><font color='green'><strong>Share</strong></font></div><div class='tc'><img class='introPic' src='trustrating_stim/white_mw078.bmp'><br><font color='red'><strong>Keep</strong></font></div><div class='tr'><img class='introPic' src='trustrating_stim/white_mw085.bmp'><br><font color='green'><strong>Share</strong></font></div></div></div>","null","ARRAY","3","trustrating_stim/white_mw038.bmp,trustrating_stim/white_mw078.bmp,trustrating_stim/white_mw085.bmp","1,0,1","Match","e","4500","","","","",""
"html-keyboard-response","97","297437","0.0-7.0-3.12","5fa9fffcf843322ce7456283","bdp_wmem","Tue Mar 14 2023 14:54:22 GMT-0400 (Eastern Daylight Time)","615759","Match,No Match","","null","","","","","","<div class='trialBorder'><div class='vertical-center'><img src='img/fixation2_sml.jpg'</img></div></div>","null","DELAY","","","","","","","","","","",""
"html-keyboard-response","98","298331","0.0-7.0-4.12","5fa9fffcf843322ce7456283","bdp_wmem","Tue Mar 14 2023 14:54:22 GMT-0400 (Eastern Daylight Time)","615759","Match,No Match","","892","","","","","","<div class='trialBorder'><div class='targDiv'><div class='tc'><img class='introPic' src='trustrating_stim/white_mw038.bmp'><br><font color='green'><strong>Share</strong></font></div></div><div class='respDiv'><div class='respDivL'>Match<br>(e)</div><div class='respDivR'>No Match<br>(i)</div></div></div>","e","TARGET","3","trustrating_stim/white_mw038.bmp,trustrating_stim/white_mw078.bmp,trustrating_stim/white_mw085.bmp","1,0,1","Match","e","4500","trustrating_stim/white_mw038.bmp","green","Share","REAL","1"
"html-keyboard-response","99","298832","0.0-7.0-5.12","5fa9fffcf843322ce7456283","bdp_wmem","Tue Mar 14 2023 14:54:22 GMT-0400 (Eastern Daylight Time)","615759","Match,No Match","","null","","","","","","<div class='trialBorder'><div class='vertical-center'><img src='img/correct.jpg'></div><div class='respDiv'><div class='respDivL'><font style='color:orange'>Match<br>(e)</font></div><div class='respDivR'>No Match<br>(i)</div></div></div>","null","FEEDBACK","","","","","","","","","","",""
"html-keyboard-response","100","299333","0.0-7.0-1.13","5fa9fffcf843322ce7456283","bdp_wmem","Tue Mar 14 2023 14:54:22 GMT-0400 (Eastern Daylight Time)","615759","Match,No Match","","null","","","","","","<div class='trialBorder'><div class='vertical-center'><img src='img/fixation2_sml.jpg'</img></div></div>","null","FIX","","","","","","","","","","",""
"html-keyboard-response","101","303834","0.0-7.0-2.13","5fa9fffcf843322ce7456283","bdp_wmem","Tue Mar 14 2023 14:54:22 GMT-0400 (Eastern Daylight Time)","615759","Match,No Match","","null","","","","","","<div class='trialBorder'><div class='vertical-center'><img style='vertical-align:center; align:center' src='img/fixation2_sml.jpg'></div><div class='arrayDiv3'><div class='tl'><img class='introPic' src='trustrating_stim/white_mw040.bmp'><br><font color='red'><strong>Keep</strong></font></div><div class='tc'><img class='introPic' src='trustrating_stim/white_mw042.bmp'><br><font color='red'><strong>Keep</strong></font></div><div class='tr'><img class='introPic' src='trustrating_stim/white_mw003.bmp'><br><font color='green'><strong>Share</strong></font></div></div></div>","null","ARRAY","3","trustrating_stim/white_mw040.bmp,trustrating_stim/white_mw042.bmp,trustrating_stim/white_mw003.bmp","0,0,1","noMatchOutcome","i","4500","","","","",""
"html-keyboard-response","102","307834","0.0-7.0-3.13","5fa9fffcf843322ce7456283","bdp_wmem","Tue Mar 14 2023 14:54:22 GMT-0400 (Eastern Daylight Time)","615759","Match,No Match","","null","","","","","","<div class='trialBorder'><div class='vertical-center'><img src='img/fixation2_sml.jpg'</img></div></div>","null","DELAY","","","","","","","","","","",""
"html-keyboard-response","103","309927","0.0-7.0-4.13","5fa9fffcf843322ce7456283","bdp_wmem","Tue Mar 14 2023 14:54:22 GMT-0400 (Eastern Daylight Time)","615759","Match,No Match","","2092","","","","","","<div class='trialBorder'><div class='targDiv'><div class='tc'><img class='introPic' src='trustrating_stim/white_mw042.bmp'><br><font color='green'><strong>Share</strong></font></div></div><div class='respDiv'><div class='respDivL'>Match<br>(e)</div><div class='respDivR'>No Match<br>(i)</div></div></div>","e","TARGET","3","trustrating_stim/white_mw040.bmp,trustrating_stim/white_mw042.bmp,trustrating_stim/white_mw003.bmp","0,0,1","noMatchOutcome","i","4500","trustrating_stim/white_mw042.bmp","green","Share","REAL","0"
"html-keyboard-response","104","310428","0.0-7.0-5.13","5fa9fffcf843322ce7456283","bdp_wmem","Tue Mar 14 2023 14:54:22 GMT-0400 (Eastern Daylight Time)","615759","Match,No Match","","null","","","","","","<div class='trialBorder'><div class='vertical-center'><img src='img/error.jpg'></div><div class='respDiv'><div class='respDivL'><font style='color:orange'>Match<br>(e)</font></div><div class='respDivR'>No Match<br>(i)</div></div></div>","null","FEEDBACK","","","","","","","","","","",""
"html-keyboard-response","105","310929","0.0-7.0-1.14","5fa9fffcf843322ce7456283","bdp_wmem","Tue Mar 14 2023 14:54:22 GMT-0400 (Eastern Daylight Time)","615759","Match,No Match","","null","","","","","","<div class='trialBorder'><div class='vertical-center'><img src='img/fixation2_sml.jpg'</img></div></div>","null","FIX","","","","","","","","","","",""
"html-keyboard-response","106","315435","0.0-7.0-2.14","5fa9fffcf843322ce7456283","bdp_wmem","Tue Mar 14 2023 14:54:22 GMT-0400 (Eastern Daylight Time)","615759","Match,No Match","","null","","","","","","<div class='trialBorder'><div class='vertical-center'><img style='vertical-align:center; align:center' src='img/fixation2_sml.jpg'></div><div class='arrayDiv3'><div class='tl'><img class='introPic' src='trustrating_stim/white_mw010.bmp'><br><font color='green'><strong>Share</strong></font></div><div class='tc'><img class='introPic' src='trustrating_stim/white_mw092.bmp'><br><font color='green'><strong>Share</strong></font></div><div class='tr'><img class='introPic' src='trustrating_stim/white_mw038.bmp'><br><font color='red'><strong>Keep</strong></font></div></div></div>","null","ARRAY","3","trustrating_stim/white_mw010.bmp,trustrating_stim/white_mw092.bmp,trustrating_stim/white_mw038.bmp","1,1,0","noMatchFace","i","4500","","","","",""
"html-keyboard-response","107","319437","0.0-7.0-3.14","5fa9fffcf843322ce7456283","bdp_wmem","Tue Mar 14 2023 14:54:22 GMT-0400 (Eastern Daylight Time)","615759","Match,No Match","","null","","","","","","<div class='trialBorder'><div class='vertical-center'><img src='img/fixation2_sml.jpg'</img></div></div>","null","DELAY","","","","","","","","","","",""
"html-keyboard-response","108","320356","0.0-7.0-4.14","5fa9fffcf843322ce7456283","bdp_wmem","Tue Mar 14 2023 14:54:22 GMT-0400 (Eastern Daylight Time)","615759","Match,No Match","","918","","","","","","<div class='trialBorder'><div class='targDiv'><div class='tc'><img class='introPic' src='trustrating_stim/white_mw091.bmp'><br><font color='green'><strong>Share</strong></font></div></div><div class='respDiv'><div class='respDivL'>Match<br>(e)</div><div class='respDivR'>No Match<br>(i)</div></div></div>","i","TARGET","3","trustrating_stim/white_mw010.bmp,trustrating_stim/white_mw092.bmp,trustrating_stim/white_mw038.bmp","1,1,0","noMatchFace","i","4500","trustrating_stim/white_mw091.bmp","green","Share","REAL","1"
"html-keyboard-response","109","320857","0.0-7.0-5.14","5fa9fffcf843322ce7456283","bdp_wmem","Tue Mar 14 2023 14:54:22 GMT-0400 (Eastern Daylight Time)","615759","Match,No Match","","null","","","","","","<div class='trialBorder'><div class='vertical-center'><img src='img/correct.jpg'></div><div class='respDiv'><div class='respDivL'>Match<br>(e)</div><div class='respDivR'><font style='color:orange'>No Match<br>(i)</font></div></div></div>","null","FEEDBACK","","","","","","","","","","",""
"html-keyboard-response","110","321358","0.0-7.0-1.15","5fa9fffcf843322ce7456283","bdp_wmem","Tue Mar 14 2023 14:54:22 GMT-0400 (Eastern Daylight Time)","615759","Match,No Match","","null","","","","","","<div class='trialBorder'><div class='vertical-center'><img src='img/fixation2_sml.jpg'</img></div></div>","null","FIX","","","","","","","","","","",""
"html-keyboard-response","111","324360","0.0-7.0-2.15","5fa9fffcf843322ce7456283","bdp_wmem","Tue Mar 14 2023 14:54:22 GMT-0400 (Eastern Daylight Time)","615759","Match,No Match","","null","","","","","","<div class='trialBorder'><div class='vertical-center'><img style='vertical-align:center; align:center' src='img/fixation2_sml.jpg'></div><div class='arrayDiv2'><div class='tl'><img class='introPic' src='trustrating_stim/white_mw038.bmp'><br><font color='red'><strong>Keep</strong></font></div><div class='tr'><img class='introPic' src='trustrating_stim/white_mw013.bmp'><br><font color='green'><strong>Share</strong></font></div></div></div>","null","ARRAY","2","trustrating_stim/white_mw038.bmp,trustrating_stim/white_mw013.bmp","0,1","noMatchFace","i","3000","","","","",""
"html-keyboard-response","112","328361","0.0-7.0-3.15","5fa9fffcf843322ce7456283","bdp_wmem","Tue Mar 14 2023 14:54:22 GMT-0400 (Eastern Daylight Time)","615759","Match,No Match","","null","","","","","","<div class='trialBorder'><div class='vertical-center'><img src='img/fixation2_sml.jpg'</img></div></div>","null","DELAY","","","","","","","","","","",""
"html-keyboard-response","113","329221","0.0-7.0-4.15","5fa9fffcf843322ce7456283","bdp_wmem","Tue Mar 14 2023 14:54:22 GMT-0400 (Eastern Daylight Time)","615759","Match,No Match","","860","","","","","","<div class='trialBorder'><div class='targDiv'><div class='tc'><img class='introPic' src='trustrating_stim/white_mw091.bmp'><br><font color='red'><strong>Keep</strong></font></div></div><div class='respDiv'><div class='respDivL'>Match<br>(e)</div><div class='respDivR'>No Match<br>(i)</div></div></div>","i","TARGET","2","trustrating_stim/white_mw038.bmp,trustrating_stim/white_mw013.bmp","0,1","noMatchFace","i","3000","trustrating_stim/white_mw091.bmp","red","Keep","REAL","1"
"html-keyboard-response","114","329722","0.0-7.0-5.15","5fa9fffcf843322ce7456283","bdp_wmem","Tue Mar 14 2023 14:54:22 GMT-0400 (Eastern Daylight Time)","615759","Match,No Match","","null","","","","","","<div class='trialBorder'><div class='vertical-center'><img src='img/correct.jpg'></div><div class='respDiv'><div class='respDivL'>Match<br>(e)</div><div class='respDivR'><font style='color:orange'>No Match<br>(i)</font></div></div></div>","null","FEEDBACK","","","","","","","","","","",""
"html-keyboard-response","115","330224","0.0-7.0-1.16","5fa9fffcf843322ce7456283","bdp_wmem","Tue Mar 14 2023 14:54:22 GMT-0400 (Eastern Daylight Time)","615759","Match,No Match","","null","","","","","","<div class='trialBorder'><div class='vertical-center'><img src='img/fixation2_sml.jpg'</img></div></div>","null","FIX","","","","","","","","","","",""
"html-keyboard-response","116","331725","0.0-7.0-2.16","5fa9fffcf843322ce7456283","bdp_wmem","Tue Mar 14 2023 14:54:22 GMT-0400 (Eastern Daylight Time)","615759","Match,No Match","","null","","","","","","<div class='trialBorder'><div class='vertical-center'><img style='vertical-align:center; align:center' src='img/fixation2_sml.jpg'></div><div class='arrayDiv1'><div class='tc'><img class='introPic' src='trustrating_stim/white_mw092.bmp'><br><font color='red'><strong>Keep</strong></font></div></div></div>","null","ARRAY","1","trustrating_stim/white_mw092.bmp","0","noMatchOutcome","i","1500","","","","",""
"html-keyboard-response","117","335726","0.0-7.0-3.16","5fa9fffcf843322ce7456283","bdp_wmem","Tue Mar 14 2023 14:54:22 GMT-0400 (Eastern Daylight Time)","615759","Match,No Match","","null","","","","","","<div class='trialBorder'><div class='vertical-center'><img src='img/fixation2_sml.jpg'</img></div></div>","null","DELAY","","","","","","","","","","",""
"html-keyboard-response","118","336801","0.0-7.0-4.16","5fa9fffcf843322ce7456283","bdp_wmem","Tue Mar 14 2023 14:54:22 GMT-0400 (Eastern Daylight Time)","615759","Match,No Match","","1074","","","","","","<div class='trialBorder'><div class='targDiv'><div class='tc'><img class='introPic' src='trustrating_stim/white_mw092.bmp'><br><font color='green'><strong>Share</strong></font></div></div><div class='respDiv'><div class='respDivL'>Match<br>(e)</div><div class='respDivR'>No Match<br>(i)</div></div></div>","i","TARGET","1","trustrating_stim/white_mw092.bmp","0","noMatchOutcome","i","1500","trustrating_stim/white_mw092.bmp","green","Share","REAL","1"
"html-keyboard-response","119","337302","0.0-7.0-5.16","5fa9fffcf843322ce7456283","bdp_wmem","Tue Mar 14 2023 14:54:22 GMT-0400 (Eastern Daylight Time)","615759","Match,No Match","","null","","","","","","<div class='trialBorder'><div class='vertical-center'><img src='img/correct.jpg'></div><div class='respDiv'><div class='respDivL'>Match<br>(e)</div><div class='respDivR'><font style='color:orange'>No Match<br>(i)</font></div></div></div>","null","FEEDBACK","","","","","","","","","","",""
"html-keyboard-response","120","337803","0.0-7.0-1.17","5fa9fffcf843322ce7456283","bdp_wmem","Tue Mar 14 2023 14:54:22 GMT-0400 (Eastern Daylight Time)","615759","Match,No Match","","null","","","","","","<div class='trialBorder'><div class='vertical-center'><img src='img/fixation2_sml.jpg'</img></div></div>","null","FIX","","","","","","","","","","",""
"html-keyboard-response","121","340804","0.0-7.0-2.17","5fa9fffcf843322ce7456283","bdp_wmem","Tue Mar 14 2023 14:54:22 GMT-0400 (Eastern Daylight Time)","615759","Match,No Match","","null","","","","","","<div class='trialBorder'><div class='vertical-center'><img style='vertical-align:center; align:center' src='img/fixation2_sml.jpg'></div><div class='arrayDiv2'><div class='tl'><img class='introPic' src='trustrating_stim/white_mw012.bmp'><br><font color='green'><strong>Share</strong></font></div><div class='tr'><img class='introPic' src='trustrating_stim/white_mw040.bmp'><br><font color='red'><strong>Keep</strong></font></div></div></div>","null","ARRAY","2","trustrating_stim/white_mw012.bmp,trustrating_stim/white_mw040.bmp","1,0","noMatchFace","i","3000","","","","",""
"html-keyboard-response","122","344805","0.0-7.0-3.17","5fa9fffcf843322ce7456283","bdp_wmem","Tue Mar 14 2023 14:54:22 GMT-0400 (Eastern Daylight Time)","615759","Match,No Match","","null","","","","","","<div class='trialBorder'><div class='vertical-center'><img src='img/fixation2_sml.jpg'</img></div></div>","null","DELAY","","","","","","","","","","",""
"html-keyboard-response","123","345993","0.0-7.0-4.17","5fa9fffcf843322ce7456283","bdp_wmem","Tue Mar 14 2023 14:54:22 GMT-0400 (Eastern Daylight Time)","615759","Match,No Match","","1187","","","","","","<div class='trialBorder'><div class='targDiv'><div class='tc'><img class='introPic' src='trustrating_stim/white_mw038.bmp'><br><font color='red'><strong>Keep</strong></font></div></div><div class='respDiv'><div class='respDivL'>Match<br>(e)</div><div class='respDivR'>No Match<br>(i)</div></div></div>","i","TARGET","2","trustrating_stim/white_mw012.bmp,trustrating_stim/white_mw040.bmp","1,0","noMatchFace","i","3000","trustrating_stim/white_mw038.bmp","red","Keep","REAL","1"
"html-keyboard-response","124","346493","0.0-7.0-5.17","5fa9fffcf843322ce7456283","bdp_wmem","Tue Mar 14 2023 14:54:22 GMT-0400 (Eastern Daylight Time)","615759","Match,No Match","","null","","","","","","<div class='trialBorder'><div class='vertical-center'><img src='img/correct.jpg'></div><div class='respDiv'><div class='respDivL'>Match<br>(e)</div><div class='respDivR'><font style='color:orange'>No Match<br>(i)</font></div></div></div>","null","FEEDBACK","","","","","","","","","","",""
"html-keyboard-response","125","346995","0.0-7.0-1.18","5fa9fffcf843322ce7456283","bdp_wmem","Tue Mar 14 2023 14:54:22 GMT-0400 (Eastern Daylight Time)","615759","Match,No Match","","null","","","","","","<div class='trialBorder'><div class='vertical-center'><img src='img/fixation2_sml.jpg'</img></div></div>","null","FIX","","","","","","","","","","",""
"html-keyboard-response","126","348496","0.0-7.0-2.18","5fa9fffcf843322ce7456283","bdp_wmem","Tue Mar 14 2023 14:54:22 GMT-0400 (Eastern Daylight Time)","615759","Match,No Match","","null","","","","","","<div class='trialBorder'><div class='vertical-center'><img style='vertical-align:center; align:center' src='img/fixation2_sml.jpg'></div><div class='arrayDiv1'><div class='tc'><img class='introPic' src='trustrating_stim/white_mw042.bmp'><br><font color='green'><strong>Share</strong></font></div></div></div>","null","ARRAY","1","trustrating_stim/white_mw042.bmp","1","noMatchOutcome","i","1500","","","","",""
"html-keyboard-response","127","352497","0.0-7.0-3.18","5fa9fffcf843322ce7456283","bdp_wmem","Tue Mar 14 2023 14:54:22 GMT-0400 (Eastern Daylight Time)","615759","Match,No Match","","null","","","","","","<div class='trialBorder'><div class='vertical-center'><img src='img/fixation2_sml.jpg'</img></div></div>","null","DELAY","","","","","","","","","","",""
"html-keyboard-response","128","353704","0.0-7.0-4.18","5fa9fffcf843322ce7456283","bdp_wmem","Tue Mar 14 2023 14:54:22 GMT-0400 (Eastern Daylight Time)","615759","Match,No Match","","1206","","","","","","<div class='trialBorder'><div class='targDiv'><div class='tc'><img class='introPic' src='trustrating_stim/white_mw042.bmp'><br><font color='red'><strong>Keep</strong></font></div></div><div class='respDiv'><div class='respDivL'>Match<br>(e)</div><div class='respDivR'>No Match<br>(i)</div></div></div>","i","TARGET","1","trustrating_stim/white_mw042.bmp","1","noMatchOutcome","i","1500","trustrating_stim/white_mw042.bmp","red","Keep","REAL","1"
"html-keyboard-response","129","354205","0.0-7.0-5.18","5fa9fffcf843322ce7456283","bdp_wmem","Tue Mar 14 2023 14:54:22 GMT-0400 (Eastern Daylight Time)","615759","Match,No Match","","null","","","","","","<div class='trialBorder'><div class='vertical-center'><img src='img/correct.jpg'></div><div class='respDiv'><div class='respDivL'>Match<br>(e)</div><div class='respDivR'><font style='color:orange'>No Match<br>(i)</font></div></div></div>","null","FEEDBACK","","","","","","","","","","",""
"html-keyboard-response","130","354706","0.0-7.0-1.19","5fa9fffcf843322ce7456283","bdp_wmem","Tue Mar 14 2023 14:54:22 GMT-0400 (Eastern Daylight Time)","615759","Match,No Match","","null","","","","","","<div class='trialBorder'><div class='vertical-center'><img src='img/fixation2_sml.jpg'</img></div></div>","null","FIX","","","","","","","","","","",""
"html-keyboard-response","131","359207","0.0-7.0-2.19","5fa9fffcf843322ce7456283","bdp_wmem","Tue Mar 14 2023 14:54:22 GMT-0400 (Eastern Daylight Time)","615759","Match,No Match","","null","","","","","","<div class='trialBorder'><div class='vertical-center'><img style='vertical-align:center; align:center' src='img/fixation2_sml.jpg'></div><div class='arrayDiv3'><div class='tl'><img class='introPic' src='trustrating_stim/white_mw070.bmp'><br><font color='red'><strong>Keep</strong></font></div><div class='tc'><img class='introPic' src='trustrating_stim/white_mw012.bmp'><br><font color='green'><strong>Share</strong></font></div><div class='tr'><img class='introPic' src='trustrating_stim/white_mw085.bmp'><br><font color='red'><strong>Keep</strong></font></div></div></div>","null","ARRAY","3","trustrating_stim/white_mw070.bmp,trustrating_stim/white_mw012.bmp,trustrating_stim/white_mw085.bmp","0,1,0","noMatchOutcome","i","4500","","","","",""
"html-keyboard-response","132","363209","0.0-7.0-3.19","5fa9fffcf843322ce7456283","bdp_wmem","Tue Mar 14 2023 14:54:22 GMT-0400 (Eastern Daylight Time)","615759","Match,No Match","","null","","","","","","<div class='trialBorder'><div class='vertical-center'><img src='img/fixation2_sml.jpg'</img></div></div>","null","DELAY","","","","","","","","","","",""
"html-keyboard-response","133","364521","0.0-7.0-4.19","5fa9fffcf843322ce7456283","bdp_wmem","Tue Mar 14 2023 14:54:22 GMT-0400 (Eastern Daylight Time)","615759","Match,No Match","","1312","","","","","","<div class='trialBorder'><div class='targDiv'><div class='tc'><img class='introPic' src='trustrating_stim/white_mw085.bmp'><br><font color='green'><strong>Share</strong></font></div></div><div class='respDiv'><div class='respDivL'>Match<br>(e)</div><div class='respDivR'>No Match<br>(i)</div></div></div>","e","TARGET","3","trustrating_stim/white_mw070.bmp,trustrating_stim/white_mw012.bmp,trustrating_stim/white_mw085.bmp","0,1,0","noMatchOutcome","i","4500","trustrating_stim/white_mw085.bmp","green","Share","REAL","0"
"html-keyboard-response","134","365022","0.0-7.0-5.19","5fa9fffcf843322ce7456283","bdp_wmem","Tue Mar 14 2023 14:54:22 GMT-0400 (Eastern Daylight Time)","615759","Match,No Match","","null","","","","","","<div class='trialBorder'><div class='vertical-center'><img src='img/error.jpg'></div><div class='respDiv'><div class='respDivL'><font style='color:orange'>Match<br>(e)</font></div><div class='respDivR'>No Match<br>(i)</div></div></div>","null","FEEDBACK","","","","","","","","","","",""
"html-keyboard-response","135","365523","0.0-7.0-1.20","5fa9fffcf843322ce7456283","bdp_wmem","Tue Mar 14 2023 14:54:22 GMT-0400 (Eastern Daylight Time)","615759","Match,No Match","","null","","","","","","<div class='trialBorder'><div class='vertical-center'><img src='img/fixation2_sml.jpg'</img></div></div>","null","FIX","","","","","","","","","","",""
"html-keyboard-response","136","368524","0.0-7.0-2.20","5fa9fffcf843322ce7456283","bdp_wmem","Tue Mar 14 2023 14:54:22 GMT-0400 (Eastern Daylight Time)","615759","Match,No Match","","null","","","","","","<div class='trialBorder'><div class='vertical-center'><img style='vertical-align:center; align:center' src='img/fixation2_sml.jpg'></div><div class='arrayDiv2'><div class='tl'><img class='introPic' src='trustrating_stim/white_mw042.bmp'><br><font color='green'><strong>Share</strong></font></div><div class='tr'><img class='introPic' src='trustrating_stim/white_mw092.bmp'><br><font color='red'><strong>Keep</strong></font></div></div></div>","null","ARRAY","2","trustrating_stim/white_mw042.bmp,trustrating_stim/white_mw092.bmp","1,0","Match","e","3000","","","","",""
"html-keyboard-response","137","372525","0.0-7.0-3.20","5fa9fffcf843322ce7456283","bdp_wmem","Tue Mar 14 2023 14:54:22 GMT-0400 (Eastern Daylight Time)","615759","Match,No Match","","null","","","","","","<div class='trialBorder'><div class='vertical-center'><img src='img/fixation2_sml.jpg'</img></div></div>","null","DELAY","","","","","","","","","","",""
"html-keyboard-response","138","373535","0.0-7.0-4.20","5fa9fffcf843322ce7456283","bdp_wmem","Tue Mar 14 2023 14:54:22 GMT-0400 (Eastern Daylight Time)","615759","Match,No Match","","1009","","","","","","<div class='trialBorder'><div class='targDiv'><div class='tc'><img class='introPic' src='trustrating_stim/white_mw042.bmp'><br><font color='green'><strong>Share</strong></font></div></div><div class='respDiv'><div class='respDivL'>Match<br>(e)</div><div class='respDivR'>No Match<br>(i)</div></div></div>","e","TARGET","2","trustrating_stim/white_mw042.bmp,trustrating_stim/white_mw092.bmp","1,0","Match","e","3000","trustrating_stim/white_mw042.bmp","green","Share","REAL","1"
"html-keyboard-response","139","374036","0.0-7.0-5.20","5fa9fffcf843322ce7456283","bdp_wmem","Tue Mar 14 2023 14:54:22 GMT-0400 (Eastern Daylight Time)","615759","Match,No Match","","null","","","","","","<div class='trialBorder'><div class='vertical-center'><img src='img/correct.jpg'></div><div class='respDiv'><div class='respDivL'><font style='color:orange'>Match<br>(e)</font></div><div class='respDivR'>No Match<br>(i)</div></div></div>","null","FEEDBACK","","","","","","","","","","",""
"html-keyboard-response","140","374537","0.0-7.0-1.21","5fa9fffcf843322ce7456283","bdp_wmem","Tue Mar 14 2023 14:54:22 GMT-0400 (Eastern Daylight Time)","615759","Match,No Match","","null","","","","","","<div class='trialBorder'><div class='vertical-center'><img src='img/fixation2_sml.jpg'</img></div></div>","null","FIX","","","","","","","","","","",""
"html-keyboard-response","141","376038","0.0-7.0-2.21","5fa9fffcf843322ce7456283","bdp_wmem","Tue Mar 14 2023 14:54:22 GMT-0400 (Eastern Daylight Time)","615759","Match,No Match","","null","","","","","","<div class='trialBorder'><div class='vertical-center'><img style='vertical-align:center; align:center' src='img/fixation2_sml.jpg'></div><div class='arrayDiv1'><div class='tc'><img class='introPic' src='trustrating_stim/white_mw040.bmp'><br><font color='red'><strong>Keep</strong></font></div></div></div>","null","ARRAY","1","trustrating_stim/white_mw040.bmp","0","Match","e","1500","","","","",""
"html-keyboard-response","142","380039","0.0-7.0-3.21","5fa9fffcf843322ce7456283","bdp_wmem","Tue Mar 14 2023 14:54:22 GMT-0400 (Eastern Daylight Time)","615759","Match,No Match","","null","","","","","","<div class='trialBorder'><div class='vertical-center'><img src='img/fixation2_sml.jpg'</img></div></div>","null","DELAY","","","","","","","","","","",""
"html-keyboard-response","143","381219","0.0-7.0-4.21","5fa9fffcf843322ce7456283","bdp_wmem","Tue Mar 14 2023 14:54:22 GMT-0400 (Eastern Daylight Time)","615759","Match,No Match","","1179","","","","","","<div class='trialBorder'><div class='targDiv'><div class='tc'><img class='introPic' src='trustrating_stim/white_mw040.bmp'><br><font color='red'><strong>Keep</strong></font></div></div><div class='respDiv'><div class='respDivL'>Match<br>(e)</div><div class='respDivR'>No Match<br>(i)</div></div></div>","e","TARGET","1","trustrating_stim/white_mw040.bmp","0","Match","e","1500","trustrating_stim/white_mw040.bmp","red","Keep","REAL","1"
"html-keyboard-response","144","381720","0.0-7.0-5.21","5fa9fffcf843322ce7456283","bdp_wmem","Tue Mar 14 2023 14:54:22 GMT-0400 (Eastern Daylight Time)","615759","Match,No Match","","null","","","","","","<div class='trialBorder'><div class='vertical-center'><img src='img/correct.jpg'></div><div class='respDiv'><div class='respDivL'><font style='color:orange'>Match<br>(e)</font></div><div class='respDivR'>No Match<br>(i)</div></div></div>","null","FEEDBACK","","","","","","","","","","",""
"html-keyboard-response","145","382222","0.0-7.0-1.22","5fa9fffcf843322ce7456283","bdp_wmem","Tue Mar 14 2023 14:54:22 GMT-0400 (Eastern Daylight Time)","615759","Match,No Match","","null","","","","","","<div class='trialBorder'><div class='vertical-center'><img src='img/fixation2_sml.jpg'</img></div></div>","null","FIX","","","","","","","","","","",""
"html-keyboard-response","146","386723","0.0-7.0-2.22","5fa9fffcf843322ce7456283","bdp_wmem","Tue Mar 14 2023 14:54:22 GMT-0400 (Eastern Daylight Time)","615759","Match,No Match","","null","","","","","","<div class='trialBorder'><div class='vertical-center'><img style='vertical-align:center; align:center' src='img/fixation2_sml.jpg'></div><div class='arrayDiv3'><div class='tl'><img class='introPic' src='trustrating_stim/white_mw012.bmp'><br><font color='red'><strong>Keep</strong></font></div><div class='tc'><img class='introPic' src='trustrating_stim/white_mw042.bmp'><br><font color='green'><strong>Share</strong></font></div><div class='tr'><img class='introPic' src='trustrating_stim/white_mw013.bmp'><br><font color='red'><strong>Keep</strong></font></div></div></div>","null","ARRAY","3","trustrating_stim/white_mw012.bmp,trustrating_stim/white_mw042.bmp,trustrating_stim/white_mw013.bmp","0,1,0","Match","e","4500","","","","",""
"html-keyboard-response","147","390724","0.0-7.0-3.22","5fa9fffcf843322ce7456283","bdp_wmem","Tue Mar 14 2023 14:54:22 GMT-0400 (Eastern Daylight Time)","615759","Match,No Match","","null","","","","","","<div class='trialBorder'><div class='vertical-center'><img src='img/fixation2_sml.jpg'</img></div></div>","null","DELAY","","","","","","","","","","",""
"html-keyboard-response","148","392265","0.0-7.0-4.22","5fa9fffcf843322ce7456283","bdp_wmem","Tue Mar 14 2023 14:54:22 GMT-0400 (Eastern Daylight Time)","615759","Match,No Match","","1540","","","","","","<div class='trialBorder'><div class='targDiv'><div class='tc'><img class='introPic' src='trustrating_stim/white_mw042.bmp'><br><font color='green'><strong>Share</strong></font></div></div><div class='respDiv'><div class='respDivL'>Match<br>(e)</div><div class='respDivR'>No Match<br>(i)</div></div></div>","e","TARGET","3","trustrating_stim/white_mw012.bmp,trustrating_stim/white_mw042.bmp,trustrating_stim/white_mw013.bmp","0,1,0","Match","e","4500","trustrating_stim/white_mw042.bmp","green","Share","REAL","1"
"html-keyboard-response","149","392766","0.0-7.0-5.22","5fa9fffcf843322ce7456283","bdp_wmem","Tue Mar 14 2023 14:54:22 GMT-0400 (Eastern Daylight Time)","615759","Match,No Match","","null","","","","","","<div class='trialBorder'><div class='vertical-center'><img src='img/correct.jpg'></div><div class='respDiv'><div class='respDivL'><font style='color:orange'>Match<br>(e)</font></div><div class='respDivR'>No Match<br>(i)</div></div></div>","null","FEEDBACK","","","","","","","","","","",""
"html-keyboard-response","150","393267","0.0-7.0-1.23","5fa9fffcf843322ce7456283","bdp_wmem","Tue Mar 14 2023 14:54:22 GMT-0400 (Eastern Daylight Time)","615759","Match,No Match","","null","","","","","","<div class='trialBorder'><div class='vertical-center'><img src='img/fixation2_sml.jpg'</img></div></div>","null","FIX","","","","","","","","","","",""
"html-keyboard-response","151","396269","0.0-7.0-2.23","5fa9fffcf843322ce7456283","bdp_wmem","Tue Mar 14 2023 14:54:22 GMT-0400 (Eastern Daylight Time)","615759","Match,No Match","","null","","","","","","<div class='trialBorder'><div class='vertical-center'><img style='vertical-align:center; align:center' src='img/fixation2_sml.jpg'></div><div class='arrayDiv2'><div class='tl'><img class='introPic' src='trustrating_stim/white_mw085.bmp'><br><font color='green'><strong>Share</strong></font></div><div class='tr'><img class='introPic' src='trustrating_stim/white_mw040.bmp'><br><font color='red'><strong>Keep</strong></font></div></div></div>","null","ARRAY","2","trustrating_stim/white_mw085.bmp,trustrating_stim/white_mw040.bmp","1,0","Match","e","3000","","","","",""
"html-keyboard-response","152","400271","0.0-7.0-3.23","5fa9fffcf843322ce7456283","bdp_wmem","Tue Mar 14 2023 14:54:22 GMT-0400 (Eastern Daylight Time)","615759","Match,No Match","","null","","","","","","<div class='trialBorder'><div class='vertical-center'><img src='img/fixation2_sml.jpg'</img></div></div>","null","DELAY","","","","","","","","","","",""
"html-keyboard-response","153","401227","0.0-7.0-4.23","5fa9fffcf843322ce7456283","bdp_wmem","Tue Mar 14 2023 14:54:22 GMT-0400 (Eastern Daylight Time)","615759","Match,No Match","","955","","","","","","<div class='trialBorder'><div class='targDiv'><div class='tc'><img class='introPic' src='trustrating_stim/white_mw085.bmp'><br><font color='green'><strong>Share</strong></font></div></div><div class='respDiv'><div class='respDivL'>Match<br>(e)</div><div class='respDivR'>No Match<br>(i)</div></div></div>","e","TARGET","2","trustrating_stim/white_mw085.bmp,trustrating_stim/white_mw040.bmp","1,0","Match","e","3000","trustrating_stim/white_mw085.bmp","green","Share","REAL","1"
"html-keyboard-response","154","401727","0.0-7.0-5.23","5fa9fffcf843322ce7456283","bdp_wmem","Tue Mar 14 2023 14:54:22 GMT-0400 (Eastern Daylight Time)","615759","Match,No Match","","null","","","","","","<div class='trialBorder'><div class='vertical-center'><img src='img/correct.jpg'></div><div class='respDiv'><div class='respDivL'><font style='color:orange'>Match<br>(e)</font></div><div class='respDivR'>No Match<br>(i)</div></div></div>","null","FEEDBACK","","","","","","","","","","",""
"html-keyboard-response","155","402229","0.0-7.0-1.24","5fa9fffcf843322ce7456283","bdp_wmem","Tue Mar 14 2023 14:54:22 GMT-0400 (Eastern Daylight Time)","615759","Match,No Match","","null","","","","","","<div class='trialBorder'><div class='vertical-center'><img src='img/fixation2_sml.jpg'</img></div></div>","null","FIX","","","","","","","","","","",""
"html-keyboard-response","156","403730","0.0-7.0-2.24","5fa9fffcf843322ce7456283","bdp_wmem","Tue Mar 14 2023 14:54:22 GMT-0400 (Eastern Daylight Time)","615759","Match,No Match","","null","","","","","","<div class='trialBorder'><div class='vertical-center'><img style='vertical-align:center; align:center' src='img/fixation2_sml.jpg'></div><div class='arrayDiv1'><div class='tc'><img class='introPic' src='trustrating_stim/white_mw085.bmp'><br><font color='green'><strong>Share</strong></font></div></div></div>","null","ARRAY","1","trustrating_stim/white_mw085.bmp","1","Match","e","1500","","","","",""
"html-keyboard-response","157","407731","0.0-7.0-3.24","5fa9fffcf843322ce7456283","bdp_wmem","Tue Mar 14 2023 14:54:22 GMT-0400 (Eastern Daylight Time)","615759","Match,No Match","","null","","","","","","<div class='trialBorder'><div class='vertical-center'><img src='img/fixation2_sml.jpg'</img></div></div>","null","DELAY","","","","","","","","","","",""
"html-keyboard-response","158","408346","0.0-7.0-4.24","5fa9fffcf843322ce7456283","bdp_wmem","Tue Mar 14 2023 14:54:22 GMT-0400 (Eastern Daylight Time)","615759","Match,No Match","","614","","","","","","<div class='trialBorder'><div class='targDiv'><div class='tc'><img class='introPic' src='trustrating_stim/white_mw085.bmp'><br><font color='green'><strong>Share</strong></font></div></div><div class='respDiv'><div class='respDivL'>Match<br>(e)</div><div class='respDivR'>No Match<br>(i)</div></div></div>","e","TARGET","1","trustrating_stim/white_mw085.bmp","1","Match","e","1500","trustrating_stim/white_mw085.bmp","green","Share","REAL","1"
"html-keyboard-response","159","408847","0.0-7.0-5.24","5fa9fffcf843322ce7456283","bdp_wmem","Tue Mar 14 2023 14:54:22 GMT-0400 (Eastern Daylight Time)","615759","Match,No Match","","null","","","","","","<div class='trialBorder'><div class='vertical-center'><img src='img/correct.jpg'></div><div class='respDiv'><div class='respDivL'><font style='color:orange'>Match<br>(e)</font></div><div class='respDivR'>No Match<br>(i)</div></div></div>","null","FEEDBACK","","","","","","","","","","",""
"html-keyboard-response","160","409348","0.0-7.0-1.25","5fa9fffcf843322ce7456283","bdp_wmem","Tue Mar 14 2023 14:54:22 GMT-0400 (Eastern Daylight Time)","615759","Match,No Match","","null","","","","","","<div class='trialBorder'><div class='vertical-center'><img src='img/fixation2_sml.jpg'</img></div></div>","null","FIX","","","","","","","","","","",""
"html-keyboard-response","161","412350","0.0-7.0-2.25","5fa9fffcf843322ce7456283","bdp_wmem","Tue Mar 14 2023 14:54:22 GMT-0400 (Eastern Daylight Time)","615759","Match,No Match","","null","","","","","","<div class='trialBorder'><div class='vertical-center'><img style='vertical-align:center; align:center' src='img/fixation2_sml.jpg'></div><div class='arrayDiv2'><div class='tl'><img class='introPic' src='trustrating_stim/white_mw085.bmp'><br><font color='green'><strong>Share</strong></font></div><div class='tr'><img class='introPic' src='trustrating_stim/white_mw013.bmp'><br><font color='red'><strong>Keep</strong></font></div></div></div>","null","ARRAY","2","trustrating_stim/white_mw085.bmp,trustrating_stim/white_mw013.bmp","1,0","noMatchOutcome","i","3000","","","","",""
"html-keyboard-response","162","416352","0.0-7.0-3.25","5fa9fffcf843322ce7456283","bdp_wmem","Tue Mar 14 2023 14:54:22 GMT-0400 (Eastern Daylight Time)","615759","Match,No Match","","null","","","","","","<div class='trialBorder'><div class='vertical-center'><img src='img/fixation2_sml.jpg'</img></div></div>","null","DELAY","","","","","","","","","","",""
"html-keyboard-response","163","417512","0.0-7.0-4.25","5fa9fffcf843322ce7456283","bdp_wmem","Tue Mar 14 2023 14:54:22 GMT-0400 (Eastern Daylight Time)","615759","Match,No Match","","1159","","","","","","<div class='trialBorder'><div class='targDiv'><div class='tc'><img class='introPic' src='trustrating_stim/white_mw013.bmp'><br><font color='green'><strong>Share</strong></font></div></div><div class='respDiv'><div class='respDivL'>Match<br>(e)</div><div class='respDivR'>No Match<br>(i)</div></div></div>","i","TARGET","2","trustrating_stim/white_mw085.bmp,trustrating_stim/white_mw013.bmp","1,0","noMatchOutcome","i","3000","trustrating_stim/white_mw013.bmp","green","Share","REAL","1"
"html-keyboard-response","164","418013","0.0-7.0-5.25","5fa9fffcf843322ce7456283","bdp_wmem","Tue Mar 14 2023 14:54:22 GMT-0400 (Eastern Daylight Time)","615759","Match,No Match","","null","","","","","","<div class='trialBorder'><div class='vertical-center'><img src='img/correct.jpg'></div><div class='respDiv'><div class='respDivL'>Match<br>(e)</div><div class='respDivR'><font style='color:orange'>No Match<br>(i)</font></div></div></div>","null","FEEDBACK","","","","","","","","","","",""
"html-keyboard-response","165","418515","0.0-7.0-1.26","5fa9fffcf843322ce7456283","bdp_wmem","Tue Mar 14 2023 14:54:22 GMT-0400 (Eastern Daylight Time)","615759","Match,No Match","","null","","","","","","<div class='trialBorder'><div class='vertical-center'><img src='img/fixation2_sml.jpg'</img></div></div>","null","FIX","","","","","","","","","","",""
"html-keyboard-response","166","423016","0.0-7.0-2.26","5fa9fffcf843322ce7456283","bdp_wmem","Tue Mar 14 2023 14:54:22 GMT-0400 (Eastern Daylight Time)","615759","Match,No Match","","null","","","","","","<div class='trialBorder'><div class='vertical-center'><img style='vertical-align:center; align:center' src='img/fixation2_sml.jpg'></div><div class='arrayDiv3'><div class='tl'><img class='introPic' src='trustrating_stim/white_mw070.bmp'><br><font color='green'><strong>Share</strong></font></div><div class='tc'><img class='introPic' src='trustrating_stim/white_mw010.bmp'><br><font color='red'><strong>Keep</strong></font></div><div class='tr'><img class='introPic' src='trustrating_stim/white_mw078.bmp'><br><font color='red'><strong>Keep</strong></font></div></div></div>","null","ARRAY","3","trustrating_stim/white_mw070.bmp,trustrating_stim/white_mw010.bmp,trustrating_stim/white_mw078.bmp","1,0,0","noMatchOutcome","i","4500","","","","",""
"html-keyboard-response","167","427018","0.0-7.0-3.26","5fa9fffcf843322ce7456283","bdp_wmem","Tue Mar 14 2023 14:54:22 GMT-0400 (Eastern Daylight Time)","615759","Match,No Match","","null","","","","","","<div class='trialBorder'><div class='vertical-center'><img src='img/fixation2_sml.jpg'</img></div></div>","null","DELAY","","","","","","","","","","",""
"html-keyboard-response","168","428868","0.0-7.0-4.26","5fa9fffcf843322ce7456283","bdp_wmem","Tue Mar 14 2023 14:54:22 GMT-0400 (Eastern Daylight Time)","615759","Match,No Match","","1849","","","","","","<div class='trialBorder'><div class='targDiv'><div class='tc'><img class='introPic' src='trustrating_stim/white_mw078.bmp'><br><font color='green'><strong>Share</strong></font></div></div><div class='respDiv'><div class='respDivL'>Match<br>(e)</div><div class='respDivR'>No Match<br>(i)</div></div></div>","i","TARGET","3","trustrating_stim/white_mw070.bmp,trustrating_stim/white_mw010.bmp,trustrating_stim/white_mw078.bmp","1,0,0","noMatchOutcome","i","4500","trustrating_stim/white_mw078.bmp","green","Share","REAL","1"
"html-keyboard-response","169","429369","0.0-7.0-5.26","5fa9fffcf843322ce7456283","bdp_wmem","Tue Mar 14 2023 14:54:22 GMT-0400 (Eastern Daylight Time)","615759","Match,No Match","","null","","","","","","<div class='trialBorder'><div class='vertical-center'><img src='img/correct.jpg'></div><div class='respDiv'><div class='respDivL'>Match<br>(e)</div><div class='respDivR'><font style='color:orange'>No Match<br>(i)</font></div></div></div>","null","FEEDBACK","","","","","","","","","","",""
"html-keyboard-response","170","429870","0.0-7.0-1.27","5fa9fffcf843322ce7456283","bdp_wmem","Tue Mar 14 2023 14:54:22 GMT-0400 (Eastern Daylight Time)","615759","Match,No Match","","null","","","","","","<div class='trialBorder'><div class='vertical-center'><img src='img/fixation2_sml.jpg'</img></div></div>","null","FIX","","","","","","","","","","",""
"html-keyboard-response","171","432871","0.0-7.0-2.27","5fa9fffcf843322ce7456283","bdp_wmem","Tue Mar 14 2023 14:54:22 GMT-0400 (Eastern Daylight Time)","615759","Match,No Match","","null","","","","","","<div class='trialBorder'><div class='vertical-center'><img style='vertical-align:center; align:center' src='img/fixation2_sml.jpg'></div><div class='arrayDiv2'><div class='tl'><img class='introPic' src='trustrating_stim/white_mw091.bmp'><br><font color='green'><strong>Share</strong></font></div><div class='tr'><img class='introPic' src='trustrating_stim/white_mw038.bmp'><br><font color='red'><strong>Keep</strong></font></div></div></div>","null","ARRAY","2","trustrating_stim/white_mw091.bmp,trustrating_stim/white_mw038.bmp","1,0","Match","e","3000","","","","",""
"html-keyboard-response","172","436873","0.0-7.0-3.27","5fa9fffcf843322ce7456283","bdp_wmem","Tue Mar 14 2023 14:54:22 GMT-0400 (Eastern Daylight Time)","615759","Match,No Match","","null","","","","","","<div class='trialBorder'><div class='vertical-center'><img src='img/fixation2_sml.jpg'</img></div></div>","null","DELAY","","","","","","","","","","",""
"html-keyboard-response","173","437569","0.0-7.0-4.27","5fa9fffcf843322ce7456283","bdp_wmem","Tue Mar 14 2023 14:54:22 GMT-0400 (Eastern Daylight Time)","615759","Match,No Match","","696","","","","","","<div class='trialBorder'><div class='targDiv'><div class='tc'><img class='introPic' src='trustrating_stim/white_mw091.bmp'><br><font color='green'><strong>Share</strong></font></div></div><div class='respDiv'><div class='respDivL'>Match<br>(e)</div><div class='respDivR'>No Match<br>(i)</div></div></div>","e","TARGET","2","trustrating_stim/white_mw091.bmp,trustrating_stim/white_mw038.bmp","1,0","Match","e","3000","trustrating_stim/white_mw091.bmp","green","Share","REAL","1"
"html-keyboard-response","174","438070","0.0-7.0-5.27","5fa9fffcf843322ce7456283","bdp_wmem","Tue Mar 14 2023 14:54:22 GMT-0400 (Eastern Daylight Time)","615759","Match,No Match","","null","","","","","","<div class='trialBorder'><div class='vertical-center'><img src='img/correct.jpg'></div><div class='respDiv'><div class='respDivL'><font style='color:orange'>Match<br>(e)</font></div><div class='respDivR'>No Match<br>(i)</div></div></div>","null","FEEDBACK","","","","","","","","","","",""
"html-keyboard-response","175","438571","0.0-7.0-1.28","5fa9fffcf843322ce7456283","bdp_wmem","Tue Mar 14 2023 14:54:22 GMT-0400 (Eastern Daylight Time)","615759","Match,No Match","","null","","","","","","<div class='trialBorder'><div class='vertical-center'><img src='img/fixation2_sml.jpg'</img></div></div>","null","FIX","","","","","","","","","","",""
"html-keyboard-response","176","443073","0.0-7.0-2.28","5fa9fffcf843322ce7456283","bdp_wmem","Tue Mar 14 2023 14:54:22 GMT-0400 (Eastern Daylight Time)","615759","Match,No Match","","null","","","","","","<div class='trialBorder'><div class='vertical-center'><img style='vertical-align:center; align:center' src='img/fixation2_sml.jpg'></div><div class='arrayDiv3'><div class='tl'><img class='introPic' src='trustrating_stim/white_mw040.bmp'><br><font color='red'><strong>Keep</strong></font></div><div class='tc'><img class='introPic' src='trustrating_stim/white_mw042.bmp'><br><font color='green'><strong>Share</strong></font></div><div class='tr'><img class='introPic' src='trustrating_stim/white_mw091.bmp'><br><font color='red'><strong>Keep</strong></font></div></div></div>","null","ARRAY","3","trustrating_stim/white_mw040.bmp,trustrating_stim/white_mw042.bmp,trustrating_stim/white_mw091.bmp","0,1,0","Match","e","4500","","","","",""
"html-keyboard-response","177","447074","0.0-7.0-3.28","5fa9fffcf843322ce7456283","bdp_wmem","Tue Mar 14 2023 14:54:22 GMT-0400 (Eastern Daylight Time)","615759","Match,No Match","","null","","","","","","<div class='trialBorder'><div class='vertical-center'><img src='img/fixation2_sml.jpg'</img></div></div>","null","DELAY","","","","","","","","","","",""
"html-keyboard-response","178","448067","0.0-7.0-4.28","5fa9fffcf843322ce7456283","bdp_wmem","Tue Mar 14 2023 14:54:22 GMT-0400 (Eastern Daylight Time)","615759","Match,No Match","","992","","","","","","<div class='trialBorder'><div class='targDiv'><div class='tc'><img class='introPic' src='trustrating_stim/white_mw042.bmp'><br><font color='green'><strong>Share</strong></font></div></div><div class='respDiv'><div class='respDivL'>Match<br>(e)</div><div class='respDivR'>No Match<br>(i)</div></div></div>","e","TARGET","3","trustrating_stim/white_mw040.bmp,trustrating_stim/white_mw042.bmp,trustrating_stim/white_mw091.bmp","0,1,0","Match","e","4500","trustrating_stim/white_mw042.bmp","green","Share","REAL","1"
"html-keyboard-response","179","448568","0.0-7.0-5.28","5fa9fffcf843322ce7456283","bdp_wmem","Tue Mar 14 2023 14:54:22 GMT-0400 (Eastern Daylight Time)","615759","Match,No Match","","null","","","","","","<div class='trialBorder'><div class='vertical-center'><img src='img/correct.jpg'></div><div class='respDiv'><div class='respDivL'><font style='color:orange'>Match<br>(e)</font></div><div class='respDivR'>No Match<br>(i)</div></div></div>","null","FEEDBACK","","","","","","","","","","",""
"html-keyboard-response","180","449069","0.0-7.0-1.29","5fa9fffcf843322ce7456283","bdp_wmem","Tue Mar 14 2023 14:54:22 GMT-0400 (Eastern Daylight Time)","615759","Match,No Match","","null","","","","","","<div class='trialBorder'><div class='vertical-center'><img src='img/fixation2_sml.jpg'</img></div></div>","null","FIX","","","","","","","","","","",""
"html-keyboard-response","181","450571","0.0-7.0-2.29","5fa9fffcf843322ce7456283","bdp_wmem","Tue Mar 14 2023 14:54:22 GMT-0400 (Eastern Daylight Time)","615759","Match,No Match","","null","","","","","","<div class='trialBorder'><div class='vertical-center'><img style='vertical-align:center; align:center' src='img/fixation2_sml.jpg'></div><div class='arrayDiv1'><div class='tc'><img class='introPic' src='trustrating_stim/white_mw070.bmp'><br><font color='red'><strong>Keep</strong></font></div></div></div>","null","ARRAY","1","trustrating_stim/white_mw070.bmp","0","noMatchFace","i","1500","","","","",""
"html-keyboard-response","182","454571","0.0-7.0-3.29","5fa9fffcf843322ce7456283","bdp_wmem","Tue Mar 14 2023 14:54:22 GMT-0400 (Eastern Daylight Time)","615759","Match,No Match","","null","","","","","","<div class='trialBorder'><div class='vertical-center'><img src='img/fixation2_sml.jpg'</img></div></div>","null","DELAY","","","","","","","","","","",""
"html-keyboard-response","183","455610","0.0-7.0-4.29","5fa9fffcf843322ce7456283","bdp_wmem","Tue Mar 14 2023 14:54:22 GMT-0400 (Eastern Daylight Time)","615759","Match,No Match","","1038","","","","","","<div class='trialBorder'><div class='targDiv'><div class='tc'><img class='introPic' src='trustrating_stim/white_mw092.bmp'><br><font color='red'><strong>Keep</strong></font></div></div><div class='respDiv'><div class='respDivL'>Match<br>(e)</div><div class='respDivR'>No Match<br>(i)</div></div></div>","i","TARGET","1","trustrating_stim/white_mw070.bmp","0","noMatchFace","i","1500","trustrating_stim/white_mw092.bmp","red","Keep","REAL","1"
"html-keyboard-response","184","456112","0.0-7.0-5.29","5fa9fffcf843322ce7456283","bdp_wmem","Tue Mar 14 2023 14:54:22 GMT-0400 (Eastern Daylight Time)","615759","Match,No Match","","null","","","","","","<div class='trialBorder'><div class='vertical-center'><img src='img/correct.jpg'></div><div class='respDiv'><div class='respDivL'>Match<br>(e)</div><div class='respDivR'><font style='color:orange'>No Match<br>(i)</font></div></div></div>","null","FEEDBACK","","","","","","","","","","",""
"html-keyboard-response","185","456614","0.0-7.0-1.30","5fa9fffcf843322ce7456283","bdp_wmem","Tue Mar 14 2023 14:54:22 GMT-0400 (Eastern Daylight Time)","615759","Match,No Match","","null","","","","","","<div class='trialBorder'><div class='vertical-center'><img src='img/fixation2_sml.jpg'</img></div></div>","null","FIX","","","","","","","","","","",""
"html-keyboard-response","186","459615","0.0-7.0-2.30","5fa9fffcf843322ce7456283","bdp_wmem","Tue Mar 14 2023 14:54:22 GMT-0400 (Eastern Daylight Time)","615759","Match,No Match","","null","","","","","","<div class='trialBorder'><div class='vertical-center'><img style='vertical-align:center; align:center' src='img/fixation2_sml.jpg'></div><div class='arrayDiv2'><div class='tl'><img class='introPic' src='trustrating_stim/white_mw085.bmp'><br><font color='green'><strong>Share</strong></font></div><div class='tr'><img class='introPic' src='trustrating_stim/white_mw070.bmp'><br><font color='red'><strong>Keep</strong></font></div></div></div>","null","ARRAY","2","trustrating_stim/white_mw085.bmp,trustrating_stim/white_mw070.bmp","1,0","noMatchFace","i","3000","","","","",""
