"trial_type","trial_index","time_elapsed","internal_node_id","subject_id","task","startTime","totalTime","labels","view_history","rt","event","trial","time","trialtype","success","stimulus","key_press","stimType","arraySize","arrayFaces","arrayOutcomes","matchType","corrResp","arrayDur","targFace","targCol","targOutcome","trialType","corr"
"pavlovia","0","4","0.0-0.0","62951043176ada9a9de2faa4","bdp_wmem","Wed Mar 15 2023 13:25:06 GMT-0600 (Mountain Daylight Time)","578130","Match,No Match","","","","","","","","","","","","","","","","","","","","",""
"instructions","1","2627","0.0-1.0","62951043176ada9a9de2faa4","bdp_wmem","Wed Mar 15 2023 13:25:06 GMT-0600 (Mountain Daylight Time)","578130","Match,No Match","[{""page_index"":0,""viewing_time"":2622}]","2622","","","","","","","","","","","","","","","","","","",""
"","","","","62951043176ada9a9de2faa4","bdp_wmem","Wed Mar 15 2023 13:25:06 GMT-0600 (Mountain Daylight Time)","578130","Match,No Match","","","fullscreenenter","2","4383","fullscreenenter","","","","","","","","","","","","","","",""
"fullscreen","2","5373","0.0-2.0","62951043176ada9a9de2faa4","bdp_wmem","Wed Mar 15 2023 13:25:06 GMT-0600 (Mountain Daylight Time)","578130","Match,No Match","","","","","","","true","","","","","","","","","","","","","",""
"instructions","3","69830","0.0-4.0","62951043176ada9a9de2faa4","bdp_wmem","Wed Mar 15 2023 13:25:06 GMT-0600 (Mountain Daylight Time)","578130","Match,No Match","[{""page_index"":0,""viewing_time"":18940},{""page_index"":1,""viewing_time"":9648},{""page_index"":2,""viewing_time"":11726},{""page_index"":3,""viewing_time"":10800},{""page_index"":4,""viewing_time"":13341}]","64455","","","","","","","","","","","","","","","","","","",""
"html-keyboard-response","4","70341","0.0-5.0-1.0","62951043176ada9a9de2faa4","bdp_wmem","Wed Mar 15 2023 13:25:06 GMT-0600 (Mountain Daylight Time)","578130","Match,No Match","","null","","","","","","<div class='trialBorder'><div class='vertical-center'><img src='img/fixation2_sml.jpg'</img></div></div>","null","FIX","","","","","","","","","","",""
"html-keyboard-response","5","71844","0.0-5.0-2.0","62951043176ada9a9de2faa4","bdp_wmem","Wed Mar 15 2023 13:25:06 GMT-0600 (Mountain Daylight Time)","578130","Match,No Match","","null","","","","","","<div class='trialBorder'><div class='vertical-center'><img style='vertical-align:center; align:center' src='img/fixation2_sml.jpg'></div><div class='arrayDiv1'><div class='tc'><img class='introPic' src='trustrating_stim/white_mw012.bmp'><br><font color='red'><strong>Keep</strong></font></div></div></div>","null","ARRAY","1","trustrating_stim/white_mw012.bmp","0","Match","e","1500","","","","",""
"html-keyboard-response","6","75851","0.0-5.0-3.0","62951043176ada9a9de2faa4","bdp_wmem","Wed Mar 15 2023 13:25:06 GMT-0600 (Mountain Daylight Time)","578130","Match,No Match","","null","","","","","","<div class='trialBorder'><div class='vertical-center'><img src='img/fixation2_sml.jpg'</img></div></div>","null","DELAY","","","","","","","","","","",""
"html-keyboard-response","7","78151","0.0-5.0-4.0","62951043176ada9a9de2faa4","bdp_wmem","Wed Mar 15 2023 13:25:06 GMT-0600 (Mountain Daylight Time)","578130","Match,No Match","","2298","","","","","","<div class='trialBorder'><div class='targDiv'><div class='tc'><img class='introPic' src='trustrating_stim/white_mw012.bmp'><br><font color='red'><strong>Keep</strong></font></div></div><div class='respDiv'><div class='respDivL'>Match<br>(e)</div><div class='respDivR'>No Match<br>(i)</div></div></div>","e","TARGET","1","trustrating_stim/white_mw012.bmp","0","Match","e","1500","trustrating_stim/white_mw012.bmp","red","Keep","PRACTICE","1"
"html-keyboard-response","8","78660","0.0-5.0-5.0","62951043176ada9a9de2faa4","bdp_wmem","Wed Mar 15 2023 13:25:06 GMT-0600 (Mountain Daylight Time)","578130","Match,No Match","","null","","","","","","<div class='trialBorder'><div class='vertical-center'><img src='img/correct.jpg'></div><div class='respDiv'><div class='respDivL'><font style='color:orange'>Match<br>(e)</font></div><div class='respDivR'>No Match<br>(i)</div></div></div>","null","FEEDBACK","","","","","","","","","","",""
"html-keyboard-response","9","79163","0.0-5.0-1.1","62951043176ada9a9de2faa4","bdp_wmem","Wed Mar 15 2023 13:25:06 GMT-0600 (Mountain Daylight Time)","578130","Match,No Match","","null","","","","","","<div class='trialBorder'><div class='vertical-center'><img src='img/fixation2_sml.jpg'</img></div></div>","null","FIX","","","","","","","","","","",""
"html-keyboard-response","10","82171","0.0-5.0-2.1","62951043176ada9a9de2faa4","bdp_wmem","Wed Mar 15 2023 13:25:06 GMT-0600 (Mountain Daylight Time)","578130","Match,No Match","","null","","","","","","<div class='trialBorder'><div class='vertical-center'><img style='vertical-align:center; align:center' src='img/fixation2_sml.jpg'></div><div class='arrayDiv2'><div class='tl'><img class='introPic' src='trustrating_stim/white_mw038.bmp'><br><font color='green'><strong>Share</strong></font></div><div class='tr'><img class='introPic' src='trustrating_stim/white_mw042.bmp'><br><font color='red'><strong>Keep</strong></font></div></div></div>","null","ARRAY","2","trustrating_stim/white_mw038.bmp,trustrating_stim/white_mw042.bmp","1,0","Match","e","3000","","","","",""
"html-keyboard-response","11","86179","0.0-5.0-3.1","62951043176ada9a9de2faa4","bdp_wmem","Wed Mar 15 2023 13:25:06 GMT-0600 (Mountain Daylight Time)","578130","Match,No Match","","null","","","","","","<div class='trialBorder'><div class='vertical-center'><img src='img/fixation2_sml.jpg'</img></div></div>","null","DELAY","","","","","","","","","","",""
"html-keyboard-response","12","89067","0.0-5.0-4.1","62951043176ada9a9de2faa4","bdp_wmem","Wed Mar 15 2023 13:25:06 GMT-0600 (Mountain Daylight Time)","578130","Match,No Match","","2885","","","","","","<div class='trialBorder'><div class='targDiv'><div class='tc'><img class='introPic' src='trustrating_stim/white_mw042.bmp'><br><font color='red'><strong>Keep</strong></font></div></div><div class='respDiv'><div class='respDivL'>Match<br>(e)</div><div class='respDivR'>No Match<br>(i)</div></div></div>","e","TARGET","2","trustrating_stim/white_mw038.bmp,trustrating_stim/white_mw042.bmp","1,0","Match","e","3000","trustrating_stim/white_mw042.bmp","red","Keep","PRACTICE","1"
"html-keyboard-response","13","89571","0.0-5.0-5.1","62951043176ada9a9de2faa4","bdp_wmem","Wed Mar 15 2023 13:25:06 GMT-0600 (Mountain Daylight Time)","578130","Match,No Match","","null","","","","","","<div class='trialBorder'><div class='vertical-center'><img src='img/correct.jpg'></div><div class='respDiv'><div class='respDivL'><font style='color:orange'>Match<br>(e)</font></div><div class='respDivR'>No Match<br>(i)</div></div></div>","null","FEEDBACK","","","","","","","","","","",""
"html-keyboard-response","14","90074","0.0-5.0-1.2","62951043176ada9a9de2faa4","bdp_wmem","Wed Mar 15 2023 13:25:06 GMT-0600 (Mountain Daylight Time)","578130","Match,No Match","","null","","","","","","<div class='trialBorder'><div class='vertical-center'><img src='img/fixation2_sml.jpg'</img></div></div>","null","FIX","","","","","","","","","","",""
"html-keyboard-response","15","93082","0.0-5.0-2.2","62951043176ada9a9de2faa4","bdp_wmem","Wed Mar 15 2023 13:25:06 GMT-0600 (Mountain Daylight Time)","578130","Match,No Match","","null","","","","","","<div class='trialBorder'><div class='vertical-center'><img style='vertical-align:center; align:center' src='img/fixation2_sml.jpg'></div><div class='arrayDiv2'><div class='tl'><img class='introPic' src='trustrating_stim/white_mw085.bmp'><br><font color='red'><strong>Keep</strong></font></div><div class='tr'><img class='introPic' src='trustrating_stim/white_mw012.bmp'><br><font color='green'><strong>Share</strong></font></div></div></div>","null","ARRAY","2","trustrating_stim/white_mw085.bmp,trustrating_stim/white_mw012.bmp","0,1","noMatchFace","i","3000","","","","",""
"html-keyboard-response","16","97091","0.0-5.0-3.2","62951043176ada9a9de2faa4","bdp_wmem","Wed Mar 15 2023 13:25:06 GMT-0600 (Mountain Daylight Time)","578130","Match,No Match","","null","","","","","","<div class='trialBorder'><div class='vertical-center'><img src='img/fixation2_sml.jpg'</img></div></div>","null","DELAY","","","","","","","","","","",""
"html-keyboard-response","17","99418","0.0-5.0-4.2","62951043176ada9a9de2faa4","bdp_wmem","Wed Mar 15 2023 13:25:06 GMT-0600 (Mountain Daylight Time)","578130","Match,No Match","","2324","","","","","","<div class='trialBorder'><div class='targDiv'><div class='tc'><img class='introPic' src='trustrating_stim/white_mw078.bmp'><br><font color='green'><strong>Share</strong></font></div></div><div class='respDiv'><div class='respDivL'>Match<br>(e)</div><div class='respDivR'>No Match<br>(i)</div></div></div>","i","TARGET","2","trustrating_stim/white_mw085.bmp,trustrating_stim/white_mw012.bmp","0,1","noMatchFace","i","3000","trustrating_stim/white_mw078.bmp","green","Share","PRACTICE","1"
"html-keyboard-response","18","99923","0.0-5.0-5.2","62951043176ada9a9de2faa4","bdp_wmem","Wed Mar 15 2023 13:25:06 GMT-0600 (Mountain Daylight Time)","578130","Match,No Match","","null","","","","","","<div class='trialBorder'><div class='vertical-center'><img src='img/correct.jpg'></div><div class='respDiv'><div class='respDivL'>Match<br>(e)</div><div class='respDivR'><font style='color:orange'>No Match<br>(i)</font></div></div></div>","null","FEEDBACK","","","","","","","","","","",""
"html-keyboard-response","19","100426","0.0-5.0-1.3","62951043176ada9a9de2faa4","bdp_wmem","Wed Mar 15 2023 13:25:06 GMT-0600 (Mountain Daylight Time)","578130","Match,No Match","","null","","","","","","<div class='trialBorder'><div class='vertical-center'><img src='img/fixation2_sml.jpg'</img></div></div>","null","FIX","","","","","","","","","","",""
"html-keyboard-response","20","101930","0.0-5.0-2.3","62951043176ada9a9de2faa4","bdp_wmem","Wed Mar 15 2023 13:25:06 GMT-0600 (Mountain Daylight Time)","578130","Match,No Match","","null","","","","","","<div class='trialBorder'><div class='vertical-center'><img style='vertical-align:center; align:center' src='img/fixation2_sml.jpg'></div><div class='arrayDiv1'><div class='tc'><img class='introPic' src='trustrating_stim/white_mw078.bmp'><br><font color='red'><strong>Keep</strong></font></div></div></div>","null","ARRAY","1","trustrating_stim/white_mw078.bmp","0","noMatchFace","i","1500","","","","",""
"html-keyboard-response","21","105942","0.0-5.0-3.3","62951043176ada9a9de2faa4","bdp_wmem","Wed Mar 15 2023 13:25:06 GMT-0600 (Mountain Daylight Time)","578130","Match,No Match","","null","","","","","","<div class='trialBorder'><div class='vertical-center'><img src='img/fixation2_sml.jpg'</img></div></div>","null","DELAY","","","","","","","","","","",""
"html-keyboard-response","22","106977","0.0-5.0-4.3","62951043176ada9a9de2faa4","bdp_wmem","Wed Mar 15 2023 13:25:06 GMT-0600 (Mountain Daylight Time)","578130","Match,No Match","","1033","","","","","","<div class='trialBorder'><div class='targDiv'><div class='tc'><img class='introPic' src='trustrating_stim/white_mw038.bmp'><br><font color='red'><strong>Keep</strong></font></div></div><div class='respDiv'><div class='respDivL'>Match<br>(e)</div><div class='respDivR'>No Match<br>(i)</div></div></div>","i","TARGET","1","trustrating_stim/white_mw078.bmp","0","noMatchFace","i","1500","trustrating_stim/white_mw038.bmp","red","Keep","PRACTICE","1"
"html-keyboard-response","23","107482","0.0-5.0-5.3","62951043176ada9a9de2faa4","bdp_wmem","Wed Mar 15 2023 13:25:06 GMT-0600 (Mountain Daylight Time)","578130","Match,No Match","","null","","","","","","<div class='trialBorder'><div class='vertical-center'><img src='img/correct.jpg'></div><div class='respDiv'><div class='respDivL'>Match<br>(e)</div><div class='respDivR'><font style='color:orange'>No Match<br>(i)</font></div></div></div>","null","FEEDBACK","","","","","","","","","","",""
"html-keyboard-response","24","107987","0.0-5.0-1.4","62951043176ada9a9de2faa4","bdp_wmem","Wed Mar 15 2023 13:25:06 GMT-0600 (Mountain Daylight Time)","578130","Match,No Match","","null","","","","","","<div class='trialBorder'><div class='vertical-center'><img src='img/fixation2_sml.jpg'</img></div></div>","null","FIX","","","","","","","","","","",""
"html-keyboard-response","25","112490","0.0-5.0-2.4","62951043176ada9a9de2faa4","bdp_wmem","Wed Mar 15 2023 13:25:06 GMT-0600 (Mountain Daylight Time)","578130","Match,No Match","","null","","","","","","<div class='trialBorder'><div class='vertical-center'><img style='vertical-align:center; align:center' src='img/fixation2_sml.jpg'></div><div class='arrayDiv3'><div class='tl'><img class='introPic' src='trustrating_stim/white_mw010.bmp'><br><font color='red'><strong>Keep</strong></font></div><div class='tc'><img class='introPic' src='trustrating_stim/white_mw085.bmp'><br><font color='green'><strong>Share</strong></font></div><div class='tr'><img class='introPic' src='trustrating_stim/white_mw038.bmp'><br><font color='green'><strong>Share</strong></font></div></div></div>","null","ARRAY","3","trustrating_stim/white_mw010.bmp,trustrating_stim/white_mw085.bmp,trustrating_stim/white_mw038.bmp","0,1,1","noMatchOutcome","i","4500","","","","",""
"html-keyboard-response","26","116498","0.0-5.0-3.4","62951043176ada9a9de2faa4","bdp_wmem","Wed Mar 15 2023 13:25:06 GMT-0600 (Mountain Daylight Time)","578130","Match,No Match","","null","","","","","","<div class='trialBorder'><div class='vertical-center'><img src='img/fixation2_sml.jpg'</img></div></div>","null","DELAY","","","","","","","","","","",""
"html-keyboard-response","27","119281","0.0-5.0-4.4","62951043176ada9a9de2faa4","bdp_wmem","Wed Mar 15 2023 13:25:06 GMT-0600 (Mountain Daylight Time)","578130","Match,No Match","","2780","","","","","","<div class='trialBorder'><div class='targDiv'><div class='tc'><img class='introPic' src='trustrating_stim/white_mw010.bmp'><br><font color='green'><strong>Share</strong></font></div></div><div class='respDiv'><div class='respDivL'>Match<br>(e)</div><div class='respDivR'>No Match<br>(i)</div></div></div>","e","TARGET","3","trustrating_stim/white_mw010.bmp,trustrating_stim/white_mw085.bmp,trustrating_stim/white_mw038.bmp","0,1,1","noMatchOutcome","i","4500","trustrating_stim/white_mw010.bmp","green","Share","PRACTICE","0"
"html-keyboard-response","28","119789","0.0-5.0-5.4","62951043176ada9a9de2faa4","bdp_wmem","Wed Mar 15 2023 13:25:06 GMT-0600 (Mountain Daylight Time)","578130","Match,No Match","","null","","","","","","<div class='trialBorder'><div class='vertical-center'><img src='img/error.jpg'></div><div class='respDiv'><div class='respDivL'><font style='color:orange'>Match<br>(e)</font></div><div class='respDivR'>No Match<br>(i)</div></div></div>","null","FEEDBACK","","","","","","","","","","",""
"html-keyboard-response","29","120290","0.0-5.0-1.5","62951043176ada9a9de2faa4","bdp_wmem","Wed Mar 15 2023 13:25:06 GMT-0600 (Mountain Daylight Time)","578130","Match,No Match","","null","","","","","","<div class='trialBorder'><div class='vertical-center'><img src='img/fixation2_sml.jpg'</img></div></div>","null","FIX","","","","","","","","","","",""
"html-keyboard-response","30","124795","0.0-5.0-2.5","62951043176ada9a9de2faa4","bdp_wmem","Wed Mar 15 2023 13:25:06 GMT-0600 (Mountain Daylight Time)","578130","Match,No Match","","null","","","","","","<div class='trialBorder'><div class='vertical-center'><img style='vertical-align:center; align:center' src='img/fixation2_sml.jpg'></div><div class='arrayDiv3'><div class='tl'><img class='introPic' src='trustrating_stim/white_mw010.bmp'><br><font color='green'><strong>Share</strong></font></div><div class='tc'><img class='introPic' src='trustrating_stim/white_mw038.bmp'><br><font color='red'><strong>Keep</strong></font></div><div class='tr'><img class='introPic' src='trustrating_stim/white_mw078.bmp'><br><font color='red'><strong>Keep</strong></font></div></div></div>","null","ARRAY","3","trustrating_stim/white_mw010.bmp,trustrating_stim/white_mw038.bmp,trustrating_stim/white_mw078.bmp","1,0,0","Match","e","4500","","","","",""
"html-keyboard-response","31","128802","0.0-5.0-3.5","62951043176ada9a9de2faa4","bdp_wmem","Wed Mar 15 2023 13:25:06 GMT-0600 (Mountain Daylight Time)","578130","Match,No Match","","null","","","","","","<div class='trialBorder'><div class='vertical-center'><img src='img/fixation2_sml.jpg'</img></div></div>","null","DELAY","","","","","","","","","","",""
"html-keyboard-response","32","130282","0.0-5.0-4.5","62951043176ada9a9de2faa4","bdp_wmem","Wed Mar 15 2023 13:25:06 GMT-0600 (Mountain Daylight Time)","578130","Match,No Match","","1478","","","","","","<div class='trialBorder'><div class='targDiv'><div class='tc'><img class='introPic' src='trustrating_stim/white_mw038.bmp'><br><font color='red'><strong>Keep</strong></font></div></div><div class='respDiv'><div class='respDivL'>Match<br>(e)</div><div class='respDivR'>No Match<br>(i)</div></div></div>","e","TARGET","3","trustrating_stim/white_mw010.bmp,trustrating_stim/white_mw038.bmp,trustrating_stim/white_mw078.bmp","1,0,0","Match","e","4500","trustrating_stim/white_mw038.bmp","red","Keep","PRACTICE","1"
"html-keyboard-response","33","130786","0.0-5.0-5.5","62951043176ada9a9de2faa4","bdp_wmem","Wed Mar 15 2023 13:25:06 GMT-0600 (Mountain Daylight Time)","578130","Match,No Match","","null","","","","","","<div class='trialBorder'><div class='vertical-center'><img src='img/correct.jpg'></div><div class='respDiv'><div class='respDivL'><font style='color:orange'>Match<br>(e)</font></div><div class='respDivR'>No Match<br>(i)</div></div></div>","null","FEEDBACK","","","","","","","","","","",""
"instructions","34","135373","0.0-6.0","62951043176ada9a9de2faa4","bdp_wmem","Wed Mar 15 2023 13:25:06 GMT-0600 (Mountain Daylight Time)","578130","Match,No Match","[{""page_index"":0,""viewing_time"":4586}]","4587","","","","","","","","","","","","","","","","","","",""
"html-keyboard-response","35","135881","0.0-7.0-1.0","62951043176ada9a9de2faa4","bdp_wmem","Wed Mar 15 2023 13:25:06 GMT-0600 (Mountain Daylight Time)","578130","Match,No Match","","null","","","","","","<div class='trialBorder'><div class='vertical-center'><img src='img/fixation2_sml.jpg'</img></div></div>","null","FIX","","","","","","","","","","",""
"html-keyboard-response","36","137390","0.0-7.0-2.0","62951043176ada9a9de2faa4","bdp_wmem","Wed Mar 15 2023 13:25:06 GMT-0600 (Mountain Daylight Time)","578130","Match,No Match","","null","","","","","","<div class='trialBorder'><div class='vertical-center'><img style='vertical-align:center; align:center' src='img/fixation2_sml.jpg'></div><div class='arrayDiv1'><div class='tc'><img class='introPic' src='trustrating_stim/white_mw078.bmp'><br><font color='green'><strong>Share</strong></font></div></div></div>","null","ARRAY","1","trustrating_stim/white_mw078.bmp","1","Match","e","1500","","","","",""
"html-keyboard-response","37","141394","0.0-7.0-3.0","62951043176ada9a9de2faa4","bdp_wmem","Wed Mar 15 2023 13:25:06 GMT-0600 (Mountain Daylight Time)","578130","Match,No Match","","null","","","","","","<div class='trialBorder'><div class='vertical-center'><img src='img/fixation2_sml.jpg'</img></div></div>","null","DELAY","","","","","","","","","","",""
"html-keyboard-response","38","142254","0.0-7.0-4.0","62951043176ada9a9de2faa4","bdp_wmem","Wed Mar 15 2023 13:25:06 GMT-0600 (Mountain Daylight Time)","578130","Match,No Match","","858","","","","","","<div class='trialBorder'><div class='targDiv'><div class='tc'><img class='introPic' src='trustrating_stim/white_mw078.bmp'><br><font color='green'><strong>Share</strong></font></div></div><div class='respDiv'><div class='respDivL'>Match<br>(e)</div><div class='respDivR'>No Match<br>(i)</div></div></div>","e","TARGET","1","trustrating_stim/white_mw078.bmp","1","Match","e","1500","trustrating_stim/white_mw078.bmp","green","Share","REAL","1"
"html-keyboard-response","39","142761","0.0-7.0-5.0","62951043176ada9a9de2faa4","bdp_wmem","Wed Mar 15 2023 13:25:06 GMT-0600 (Mountain Daylight Time)","578130","Match,No Match","","null","","","","","","<div class='trialBorder'><div class='vertical-center'><img src='img/correct.jpg'></div><div class='respDiv'><div class='respDivL'><font style='color:orange'>Match<br>(e)</font></div><div class='respDivR'>No Match<br>(i)</div></div></div>","null","FEEDBACK","","","","","","","","","","",""
"html-keyboard-response","40","143265","0.0-7.0-1.1","62951043176ada9a9de2faa4","bdp_wmem","Wed Mar 15 2023 13:25:06 GMT-0600 (Mountain Daylight Time)","578130","Match,No Match","","null","","","","","","<div class='trialBorder'><div class='vertical-center'><img src='img/fixation2_sml.jpg'</img></div></div>","null","FIX","","","","","","","","","","",""
"html-keyboard-response","41","147769","0.0-7.0-2.1","62951043176ada9a9de2faa4","bdp_wmem","Wed Mar 15 2023 13:25:06 GMT-0600 (Mountain Daylight Time)","578130","Match,No Match","","null","","","","","","<div class='trialBorder'><div class='vertical-center'><img style='vertical-align:center; align:center' src='img/fixation2_sml.jpg'></div><div class='arrayDiv3'><div class='tl'><img class='introPic' src='trustrating_stim/white_mw042.bmp'><br><font color='green'><strong>Share</strong></font></div><div class='tc'><img class='introPic' src='trustrating_stim/white_mw038.bmp'><br><font color='red'><strong>Keep</strong></font></div><div class='tr'><img class='introPic' src='trustrating_stim/white_mw091.bmp'><br><font color='green'><strong>Share</strong></font></div></div></div>","null","ARRAY","3","trustrating_stim/white_mw042.bmp,trustrating_stim/white_mw038.bmp,trustrating_stim/white_mw091.bmp","1,0,1","noMatchOutcome","i","4500","","","","",""
"html-keyboard-response","42","151777","0.0-7.0-3.1","62951043176ada9a9de2faa4","bdp_wmem","Wed Mar 15 2023 13:25:06 GMT-0600 (Mountain Daylight Time)","578130","Match,No Match","","null","","","","","","<div class='trialBorder'><div class='vertical-center'><img src='img/fixation2_sml.jpg'</img></div></div>","null","DELAY","","","","","","","","","","",""
"html-keyboard-response","43","154540","0.0-7.0-4.1","62951043176ada9a9de2faa4","bdp_wmem","Wed Mar 15 2023 13:25:06 GMT-0600 (Mountain Daylight Time)","578130","Match,No Match","","2762","","","","","","<div class='trialBorder'><div class='targDiv'><div class='tc'><img class='introPic' src='trustrating_stim/white_mw038.bmp'><br><font color='green'><strong>Share</strong></font></div></div><div class='respDiv'><div class='respDivL'>Match<br>(e)</div><div class='respDivR'>No Match<br>(i)</div></div></div>","e","TARGET","3","trustrating_stim/white_mw042.bmp,trustrating_stim/white_mw038.bmp,trustrating_stim/white_mw091.bmp","1,0,1","noMatchOutcome","i","4500","trustrating_stim/white_mw038.bmp","green","Share","REAL","0"
"html-keyboard-response","44","155048","0.0-7.0-5.1","62951043176ada9a9de2faa4","bdp_wmem","Wed Mar 15 2023 13:25:06 GMT-0600 (Mountain Daylight Time)","578130","Match,No Match","","null","","","","","","<div class='trialBorder'><div class='vertical-center'><img src='img/error.jpg'></div><div class='respDiv'><div class='respDivL'><font style='color:orange'>Match<br>(e)</font></div><div class='respDivR'>No Match<br>(i)</div></div></div>","null","FEEDBACK","","","","","","","","","","",""
"html-keyboard-response","45","155553","0.0-7.0-1.2","62951043176ada9a9de2faa4","bdp_wmem","Wed Mar 15 2023 13:25:06 GMT-0600 (Mountain Daylight Time)","578130","Match,No Match","","null","","","","","","<div class='trialBorder'><div class='vertical-center'><img src='img/fixation2_sml.jpg'</img></div></div>","null","FIX","","","","","","","","","","",""
"html-keyboard-response","46","160058","0.0-7.0-2.2","62951043176ada9a9de2faa4","bdp_wmem","Wed Mar 15 2023 13:25:06 GMT-0600 (Mountain Daylight Time)","578130","Match,No Match","","null","","","","","","<div class='trialBorder'><div class='vertical-center'><img style='vertical-align:center; align:center' src='img/fixation2_sml.jpg'></div><div class='arrayDiv3'><div class='tl'><img class='introPic' src='trustrating_stim/white_mw042.bmp'><br><font color='red'><strong>Keep</strong></font></div><div class='tc'><img class='introPic' src='trustrating_stim/white_mw038.bmp'><br><font color='green'><strong>Share</strong></font></div><div class='tr'><img class='introPic' src='trustrating_stim/white_mw010.bmp'><br><font color='red'><strong>Keep</strong></font></div></div></div>","null","ARRAY","3","trustrating_stim/white_mw042.bmp,trustrating_stim/white_mw038.bmp,trustrating_stim/white_mw010.bmp","0,1,0","Match","e","4500","","","","",""
"html-keyboard-response","47","164065","0.0-7.0-3.2","62951043176ada9a9de2faa4","bdp_wmem","Wed Mar 15 2023 13:25:06 GMT-0600 (Mountain Daylight Time)","578130","Match,No Match","","null","","","","","","<div class='trialBorder'><div class='vertical-center'><img src='img/fixation2_sml.jpg'</img></div></div>","null","DELAY","","","","","","","","","","",""
"html-keyboard-response","48","165697","0.0-7.0-4.2","62951043176ada9a9de2faa4","bdp_wmem","Wed Mar 15 2023 13:25:06 GMT-0600 (Mountain Daylight Time)","578130","Match,No Match","","1629","","","","","","<div class='trialBorder'><div class='targDiv'><div class='tc'><img class='introPic' src='trustrating_stim/white_mw042.bmp'><br><font color='red'><strong>Keep</strong></font></div></div><div class='respDiv'><div class='respDivL'>Match<br>(e)</div><div class='respDivR'>No Match<br>(i)</div></div></div>","i","TARGET","3","trustrating_stim/white_mw042.bmp,trustrating_stim/white_mw038.bmp,trustrating_stim/white_mw010.bmp","0,1,0","Match","e","4500","trustrating_stim/white_mw042.bmp","red","Keep","REAL","0"
"html-keyboard-response","49","166200","0.0-7.0-5.2","62951043176ada9a9de2faa4","bdp_wmem","Wed Mar 15 2023 13:25:06 GMT-0600 (Mountain Daylight Time)","578130","Match,No Match","","null","","","","","","<div class='trialBorder'><div class='vertical-center'><img src='img/error.jpg'></div><div class='respDiv'><div class='respDivL'>Match<br>(e)</div><div class='respDivR'><font style='color:orange'>No Match<br>(i)</font></div></div></div>","null","FEEDBACK","","","","","","","","","","",""
"html-keyboard-response","50","166705","0.0-7.0-1.3","62951043176ada9a9de2faa4","bdp_wmem","Wed Mar 15 2023 13:25:06 GMT-0600 (Mountain Daylight Time)","578130","Match,No Match","","null","","","","","","<div class='trialBorder'><div class='vertical-center'><img src='img/fixation2_sml.jpg'</img></div></div>","null","FIX","","","","","","","","","","",""
"html-keyboard-response","51","171208","0.0-7.0-2.3","62951043176ada9a9de2faa4","bdp_wmem","Wed Mar 15 2023 13:25:06 GMT-0600 (Mountain Daylight Time)","578130","Match,No Match","","null","","","","","","<div class='trialBorder'><div class='vertical-center'><img style='vertical-align:center; align:center' src='img/fixation2_sml.jpg'></div><div class='arrayDiv3'><div class='tl'><img class='introPic' src='trustrating_stim/white_mw010.bmp'><br><font color='red'><strong>Keep</strong></font></div><div class='tc'><img class='introPic' src='trustrating_stim/white_mw003.bmp'><br><font color='green'><strong>Share</strong></font></div><div class='tr'><img class='introPic' src='trustrating_stim/white_mw092.bmp'><br><font color='red'><strong>Keep</strong></font></div></div></div>","null","ARRAY","3","trustrating_stim/white_mw010.bmp,trustrating_stim/white_mw003.bmp,trustrating_stim/white_mw092.bmp","0,1,0","noMatchFace","i","4500","","","","",""
"html-keyboard-response","52","175216","0.0-7.0-3.3","62951043176ada9a9de2faa4","bdp_wmem","Wed Mar 15 2023 13:25:06 GMT-0600 (Mountain Daylight Time)","578130","Match,No Match","","null","","","","","","<div class='trialBorder'><div class='vertical-center'><img src='img/fixation2_sml.jpg'</img></div></div>","null","DELAY","","","","","","","","","","",""
"html-keyboard-response","53","176478","0.0-7.0-4.3","62951043176ada9a9de2faa4","bdp_wmem","Wed Mar 15 2023 13:25:06 GMT-0600 (Mountain Daylight Time)","578130","Match,No Match","","1258","","","","","","<div class='trialBorder'><div class='targDiv'><div class='tc'><img class='introPic' src='trustrating_stim/white_mw042.bmp'><br><font color='red'><strong>Keep</strong></font></div></div><div class='respDiv'><div class='respDivL'>Match<br>(e)</div><div class='respDivR'>No Match<br>(i)</div></div></div>","e","TARGET","3","trustrating_stim/white_mw010.bmp,trustrating_stim/white_mw003.bmp,trustrating_stim/white_mw092.bmp","0,1,0","noMatchFace","i","4500","trustrating_stim/white_mw042.bmp","red","Keep","REAL","0"
"html-keyboard-response","54","176984","0.0-7.0-5.3","62951043176ada9a9de2faa4","bdp_wmem","Wed Mar 15 2023 13:25:06 GMT-0600 (Mountain Daylight Time)","578130","Match,No Match","","null","","","","","","<div class='trialBorder'><div class='vertical-center'><img src='img/error.jpg'></div><div class='respDiv'><div class='respDivL'><font style='color:orange'>Match<br>(e)</font></div><div class='respDivR'>No Match<br>(i)</div></div></div>","null","FEEDBACK","","","","","","","","","","",""
"html-keyboard-response","55","177488","0.0-7.0-1.4","62951043176ada9a9de2faa4","bdp_wmem","Wed Mar 15 2023 13:25:06 GMT-0600 (Mountain Daylight Time)","578130","Match,No Match","","null","","","","","","<div class='trialBorder'><div class='vertical-center'><img src='img/fixation2_sml.jpg'</img></div></div>","null","FIX","","","","","","","","","","",""
"html-keyboard-response","56","178993","0.0-7.0-2.4","62951043176ada9a9de2faa4","bdp_wmem","Wed Mar 15 2023 13:25:06 GMT-0600 (Mountain Daylight Time)","578130","Match,No Match","","null","","","","","","<div class='trialBorder'><div class='vertical-center'><img style='vertical-align:center; align:center' src='img/fixation2_sml.jpg'></div><div class='arrayDiv1'><div class='tc'><img class='introPic' src='trustrating_stim/white_mw003.bmp'><br><font color='green'><strong>Share</strong></font></div></div></div>","null","ARRAY","1","trustrating_stim/white_mw003.bmp","1","noMatchFace","i","1500","","","","",""
"html-keyboard-response","57","182999","0.0-7.0-3.4","62951043176ada9a9de2faa4","bdp_wmem","Wed Mar 15 2023 13:25:06 GMT-0600 (Mountain Daylight Time)","578130","Match,No Match","","null","","","","","","<div class='trialBorder'><div class='vertical-center'><img src='img/fixation2_sml.jpg'</img></div></div>","null","DELAY","","","","","","","","","","",""
"html-keyboard-response","58","183947","0.0-7.0-4.4","62951043176ada9a9de2faa4","bdp_wmem","Wed Mar 15 2023 13:25:06 GMT-0600 (Mountain Daylight Time)","578130","Match,No Match","","946","","","","","","<div class='trialBorder'><div class='targDiv'><div class='tc'><img class='introPic' src='trustrating_stim/white_mw038.bmp'><br><font color='green'><strong>Share</strong></font></div></div><div class='respDiv'><div class='respDivL'>Match<br>(e)</div><div class='respDivR'>No Match<br>(i)</div></div></div>","i","TARGET","1","trustrating_stim/white_mw003.bmp","1","noMatchFace","i","1500","trustrating_stim/white_mw038.bmp","green","Share","REAL","1"
"html-keyboard-response","59","184455","0.0-7.0-5.4","62951043176ada9a9de2faa4","bdp_wmem","Wed Mar 15 2023 13:25:06 GMT-0600 (Mountain Daylight Time)","578130","Match,No Match","","null","","","","","","<div class='trialBorder'><div class='vertical-center'><img src='img/correct.jpg'></div><div class='respDiv'><div class='respDivL'>Match<br>(e)</div><div class='respDivR'><font style='color:orange'>No Match<br>(i)</font></div></div></div>","null","FEEDBACK","","","","","","","","","","",""
"html-keyboard-response","60","184960","0.0-7.0-1.5","62951043176ada9a9de2faa4","bdp_wmem","Wed Mar 15 2023 13:25:06 GMT-0600 (Mountain Daylight Time)","578130","Match,No Match","","null","","","","","","<div class='trialBorder'><div class='vertical-center'><img src='img/fixation2_sml.jpg'</img></div></div>","null","FIX","","","","","","","","","","",""
"html-keyboard-response","61","187968","0.0-7.0-2.5","62951043176ada9a9de2faa4","bdp_wmem","Wed Mar 15 2023 13:25:06 GMT-0600 (Mountain Daylight Time)","578130","Match,No Match","","null","","","","","","<div class='trialBorder'><div class='vertical-center'><img style='vertical-align:center; align:center' src='img/fixation2_sml.jpg'></div><div class='arrayDiv2'><div class='tl'><img class='introPic' src='trustrating_stim/white_mw003.bmp'><br><font color='green'><strong>Share</strong></font></div><div class='tr'><img class='introPic' src='trustrating_stim/white_mw013.bmp'><br><font color='red'><strong>Keep</strong></font></div></div></div>","null","ARRAY","2","trustrating_stim/white_mw003.bmp,trustrating_stim/white_mw013.bmp","1,0","noMatchOutcome","i","3000","","","","",""
"html-keyboard-response","62","191975","0.0-7.0-3.5","62951043176ada9a9de2faa4","bdp_wmem","Wed Mar 15 2023 13:25:06 GMT-0600 (Mountain Daylight Time)","578130","Match,No Match","","null","","","","","","<div class='trialBorder'><div class='vertical-center'><img src='img/fixation2_sml.jpg'</img></div></div>","null","DELAY","","","","","","","","","","",""
"html-keyboard-response","63","193330","0.0-7.0-4.5","62951043176ada9a9de2faa4","bdp_wmem","Wed Mar 15 2023 13:25:06 GMT-0600 (Mountain Daylight Time)","578130","Match,No Match","","1352","","","","","","<div class='trialBorder'><div class='targDiv'><div class='tc'><img class='introPic' src='trustrating_stim/white_mw013.bmp'><br><font color='green'><strong>Share</strong></font></div></div><div class='respDiv'><div class='respDivL'>Match<br>(e)</div><div class='respDivR'>No Match<br>(i)</div></div></div>","e","TARGET","2","trustrating_stim/white_mw003.bmp,trustrating_stim/white_mw013.bmp","1,0","noMatchOutcome","i","3000","trustrating_stim/white_mw013.bmp","green","Share","REAL","0"
"html-keyboard-response","64","193831","0.0-7.0-5.5","62951043176ada9a9de2faa4","bdp_wmem","Wed Mar 15 2023 13:25:06 GMT-0600 (Mountain Daylight Time)","578130","Match,No Match","","null","","","","","","<div class='trialBorder'><div class='vertical-center'><img src='img/error.jpg'></div><div class='respDiv'><div class='respDivL'><font style='color:orange'>Match<br>(e)</font></div><div class='respDivR'>No Match<br>(i)</div></div></div>","null","FEEDBACK","","","","","","","","","","",""
"html-keyboard-response","65","194336","0.0-7.0-1.6","62951043176ada9a9de2faa4","bdp_wmem","Wed Mar 15 2023 13:25:06 GMT-0600 (Mountain Daylight Time)","578130","Match,No Match","","null","","","","","","<div class='trialBorder'><div class='vertical-center'><img src='img/fixation2_sml.jpg'</img></div></div>","null","FIX","","","","","","","","","","",""
"html-keyboard-response","66","195840","0.0-7.0-2.6","62951043176ada9a9de2faa4","bdp_wmem","Wed Mar 15 2023 13:25:06 GMT-0600 (Mountain Daylight Time)","578130","Match,No Match","","null","","","","","","<div class='trialBorder'><div class='vertical-center'><img style='vertical-align:center; align:center' src='img/fixation2_sml.jpg'></div><div class='arrayDiv1'><div class='tc'><img class='introPic' src='trustrating_stim/white_mw091.bmp'><br><font color='red'><strong>Keep</strong></font></div></div></div>","null","ARRAY","1","trustrating_stim/white_mw091.bmp","0","Match","e","1500","","","","",""
"html-keyboard-response","67","199847","0.0-7.0-3.6","62951043176ada9a9de2faa4","bdp_wmem","Wed Mar 15 2023 13:25:06 GMT-0600 (Mountain Daylight Time)","578130","Match,No Match","","null","","","","","","<div class='trialBorder'><div class='vertical-center'><img src='img/fixation2_sml.jpg'</img></div></div>","null","DELAY","","","","","","","","","","",""
"html-keyboard-response","68","200840","0.0-7.0-4.6","62951043176ada9a9de2faa4","bdp_wmem","Wed Mar 15 2023 13:25:06 GMT-0600 (Mountain Daylight Time)","578130","Match,No Match","","991","","","","","","<div class='trialBorder'><div class='targDiv'><div class='tc'><img class='introPic' src='trustrating_stim/white_mw091.bmp'><br><font color='red'><strong>Keep</strong></font></div></div><div class='respDiv'><div class='respDivL'>Match<br>(e)</div><div class='respDivR'>No Match<br>(i)</div></div></div>","e","TARGET","1","trustrating_stim/white_mw091.bmp","0","Match","e","1500","trustrating_stim/white_mw091.bmp","red","Keep","REAL","1"
"html-keyboard-response","69","201344","0.0-7.0-5.6","62951043176ada9a9de2faa4","bdp_wmem","Wed Mar 15 2023 13:25:06 GMT-0600 (Mountain Daylight Time)","578130","Match,No Match","","null","","","","","","<div class='trialBorder'><div class='vertical-center'><img src='img/correct.jpg'></div><div class='respDiv'><div class='respDivL'><font style='color:orange'>Match<br>(e)</font></div><div class='respDivR'>No Match<br>(i)</div></div></div>","null","FEEDBACK","","","","","","","","","","",""
"html-keyboard-response","70","201847","0.0-7.0-1.7","62951043176ada9a9de2faa4","bdp_wmem","Wed Mar 15 2023 13:25:06 GMT-0600 (Mountain Daylight Time)","578130","Match,No Match","","null","","","","","","<div class='trialBorder'><div class='vertical-center'><img src='img/fixation2_sml.jpg'</img></div></div>","null","FIX","","","","","","","","","","",""
"html-keyboard-response","71","203351","0.0-7.0-2.7","62951043176ada9a9de2faa4","bdp_wmem","Wed Mar 15 2023 13:25:06 GMT-0600 (Mountain Daylight Time)","578130","Match,No Match","","null","","","","","","<div class='trialBorder'><div class='vertical-center'><img style='vertical-align:center; align:center' src='img/fixation2_sml.jpg'></div><div class='arrayDiv1'><div class='tc'><img class='introPic' src='trustrating_stim/white_mw010.bmp'><br><font color='red'><strong>Keep</strong></font></div></div></div>","null","ARRAY","1","trustrating_stim/white_mw010.bmp","0","Match","e","1500","","","","",""
"html-keyboard-response","72","207359","0.0-7.0-3.7","62951043176ada9a9de2faa4","bdp_wmem","Wed Mar 15 2023 13:25:06 GMT-0600 (Mountain Daylight Time)","578130","Match,No Match","","null","","","","","","<div class='trialBorder'><div class='vertical-center'><img src='img/fixation2_sml.jpg'</img></div></div>","null","DELAY","","","","","","","","","","",""
"html-keyboard-response","73","208021","0.0-7.0-4.7","62951043176ada9a9de2faa4","bdp_wmem","Wed Mar 15 2023 13:25:06 GMT-0600 (Mountain Daylight Time)","578130","Match,No Match","","660","","","","","","<div class='trialBorder'><div class='targDiv'><div class='tc'><img class='introPic' src='trustrating_stim/white_mw010.bmp'><br><font color='red'><strong>Keep</strong></font></div></div><div class='respDiv'><div class='respDivL'>Match<br>(e)</div><div class='respDivR'>No Match<br>(i)</div></div></div>","e","TARGET","1","trustrating_stim/white_mw010.bmp","0","Match","e","1500","trustrating_stim/white_mw010.bmp","red","Keep","REAL","1"
"html-keyboard-response","74","208527","0.0-7.0-5.7","62951043176ada9a9de2faa4","bdp_wmem","Wed Mar 15 2023 13:25:06 GMT-0600 (Mountain Daylight Time)","578130","Match,No Match","","null","","","","","","<div class='trialBorder'><div class='vertical-center'><img src='img/correct.jpg'></div><div class='respDiv'><div class='respDivL'><font style='color:orange'>Match<br>(e)</font></div><div class='respDivR'>No Match<br>(i)</div></div></div>","null","FEEDBACK","","","","","","","","","","",""
"html-keyboard-response","75","209030","0.0-7.0-1.8","62951043176ada9a9de2faa4","bdp_wmem","Wed Mar 15 2023 13:25:06 GMT-0600 (Mountain Daylight Time)","578130","Match,No Match","","null","","","","","","<div class='trialBorder'><div class='vertical-center'><img src='img/fixation2_sml.jpg'</img></div></div>","null","FIX","","","","","","","","","","",""
"html-keyboard-response","76","212038","0.0-7.0-2.8","62951043176ada9a9de2faa4","bdp_wmem","Wed Mar 15 2023 13:25:06 GMT-0600 (Mountain Daylight Time)","578130","Match,No Match","","null","","","","","","<div class='trialBorder'><div class='vertical-center'><img style='vertical-align:center; align:center' src='img/fixation2_sml.jpg'></div><div class='arrayDiv2'><div class='tl'><img class='introPic' src='trustrating_stim/white_mw091.bmp'><br><font color='green'><strong>Share</strong></font></div><div class='tr'><img class='introPic' src='trustrating_stim/white_mw013.bmp'><br><font color='red'><strong>Keep</strong></font></div></div></div>","null","ARRAY","2","trustrating_stim/white_mw091.bmp,trustrating_stim/white_mw013.bmp","1,0","Match","e","3000","","","","",""
"html-keyboard-response","77","216051","0.0-7.0-3.8","62951043176ada9a9de2faa4","bdp_wmem","Wed Mar 15 2023 13:25:06 GMT-0600 (Mountain Daylight Time)","578130","Match,No Match","","null","","","","","","<div class='trialBorder'><div class='vertical-center'><img src='img/fixation2_sml.jpg'</img></div></div>","null","DELAY","","","","","","","","","","",""
"html-keyboard-response","78","218214","0.0-7.0-4.8","62951043176ada9a9de2faa4","bdp_wmem","Wed Mar 15 2023 13:25:06 GMT-0600 (Mountain Daylight Time)","578130","Match,No Match","","2160","","","","","","<div class='trialBorder'><div class='targDiv'><div class='tc'><img class='introPic' src='trustrating_stim/white_mw013.bmp'><br><font color='red'><strong>Keep</strong></font></div></div><div class='respDiv'><div class='respDivL'>Match<br>(e)</div><div class='respDivR'>No Match<br>(i)</div></div></div>","e","TARGET","2","trustrating_stim/white_mw091.bmp,trustrating_stim/white_mw013.bmp","1,0","Match","e","3000","trustrating_stim/white_mw013.bmp","red","Keep","REAL","1"
"html-keyboard-response","79","218719","0.0-7.0-5.8","62951043176ada9a9de2faa4","bdp_wmem","Wed Mar 15 2023 13:25:06 GMT-0600 (Mountain Daylight Time)","578130","Match,No Match","","null","","","","","","<div class='trialBorder'><div class='vertical-center'><img src='img/correct.jpg'></div><div class='respDiv'><div class='respDivL'><font style='color:orange'>Match<br>(e)</font></div><div class='respDivR'>No Match<br>(i)</div></div></div>","null","FEEDBACK","","","","","","","","","","",""
"html-keyboard-response","80","219222","0.0-7.0-1.9","62951043176ada9a9de2faa4","bdp_wmem","Wed Mar 15 2023 13:25:06 GMT-0600 (Mountain Daylight Time)","578130","Match,No Match","","null","","","","","","<div class='trialBorder'><div class='vertical-center'><img src='img/fixation2_sml.jpg'</img></div></div>","null","FIX","","","","","","","","","","",""
"html-keyboard-response","81","220726","0.0-7.0-2.9","62951043176ada9a9de2faa4","bdp_wmem","Wed Mar 15 2023 13:25:06 GMT-0600 (Mountain Daylight Time)","578130","Match,No Match","","null","","","","","","<div class='trialBorder'><div class='vertical-center'><img style='vertical-align:center; align:center' src='img/fixation2_sml.jpg'></div><div class='arrayDiv1'><div class='tc'><img class='introPic' src='trustrating_stim/white_mw070.bmp'><br><font color='green'><strong>Share</strong></font></div></div></div>","null","ARRAY","1","trustrating_stim/white_mw070.bmp","1","noMatchFace","i","1500","","","","",""
"html-keyboard-response","82","224735","0.0-7.0-3.9","62951043176ada9a9de2faa4","bdp_wmem","Wed Mar 15 2023 13:25:06 GMT-0600 (Mountain Daylight Time)","578130","Match,No Match","","null","","","","","","<div class='trialBorder'><div class='vertical-center'><img src='img/fixation2_sml.jpg'</img></div></div>","null","DELAY","","","","","","","","","","",""
"html-keyboard-response","83","225702","0.0-7.0-4.9","62951043176ada9a9de2faa4","bdp_wmem","Wed Mar 15 2023 13:25:06 GMT-0600 (Mountain Daylight Time)","578130","Match,No Match","","964","","","","","","<div class='trialBorder'><div class='targDiv'><div class='tc'><img class='introPic' src='trustrating_stim/white_mw013.bmp'><br><font color='green'><strong>Share</strong></font></div></div><div class='respDiv'><div class='respDivL'>Match<br>(e)</div><div class='respDivR'>No Match<br>(i)</div></div></div>","i","TARGET","1","trustrating_stim/white_mw070.bmp","1","noMatchFace","i","1500","trustrating_stim/white_mw013.bmp","green","Share","REAL","1"
"html-keyboard-response","84","226209","0.0-7.0-5.9","62951043176ada9a9de2faa4","bdp_wmem","Wed Mar 15 2023 13:25:06 GMT-0600 (Mountain Daylight Time)","578130","Match,No Match","","null","","","","","","<div class='trialBorder'><div class='vertical-center'><img src='img/correct.jpg'></div><div class='respDiv'><div class='respDivL'>Match<br>(e)</div><div class='respDivR'><font style='color:orange'>No Match<br>(i)</font></div></div></div>","null","FEEDBACK","","","","","","","","","","",""
"html-keyboard-response","85","226719","0.0-7.0-1.10","62951043176ada9a9de2faa4","bdp_wmem","Wed Mar 15 2023 13:25:06 GMT-0600 (Mountain Daylight Time)","578130","Match,No Match","","null","","","","","","<div class='trialBorder'><div class='vertical-center'><img src='img/fixation2_sml.jpg'</img></div></div>","null","FIX","","","","","","","","","","",""
"html-keyboard-response","86","229727","0.0-7.0-2.10","62951043176ada9a9de2faa4","bdp_wmem","Wed Mar 15 2023 13:25:06 GMT-0600 (Mountain Daylight Time)","578130","Match,No Match","","null","","","","","","<div class='trialBorder'><div class='vertical-center'><img style='vertical-align:center; align:center' src='img/fixation2_sml.jpg'></div><div class='arrayDiv2'><div class='tl'><img class='introPic' src='trustrating_stim/white_mw010.bmp'><br><font color='red'><strong>Keep</strong></font></div><div class='tr'><img class='introPic' src='trustrating_stim/white_mw091.bmp'><br><font color='green'><strong>Share</strong></font></div></div></div>","null","ARRAY","2","trustrating_stim/white_mw010.bmp,trustrating_stim/white_mw091.bmp","0,1","Match","e","3000","","","","",""
"html-keyboard-response","87","233734","0.0-7.0-3.10","62951043176ada9a9de2faa4","bdp_wmem","Wed Mar 15 2023 13:25:06 GMT-0600 (Mountain Daylight Time)","578130","Match,No Match","","null","","","","","","<div class='trialBorder'><div class='vertical-center'><img src='img/fixation2_sml.jpg'</img></div></div>","null","DELAY","","","","","","","","","","",""
"html-keyboard-response","88","234526","0.0-7.0-4.10","62951043176ada9a9de2faa4","bdp_wmem","Wed Mar 15 2023 13:25:06 GMT-0600 (Mountain Daylight Time)","578130","Match,No Match","","789","","","","","","<div class='trialBorder'><div class='targDiv'><div class='tc'><img class='introPic' src='trustrating_stim/white_mw010.bmp'><br><font color='red'><strong>Keep</strong></font></div></div><div class='respDiv'><div class='respDivL'>Match<br>(e)</div><div class='respDivR'>No Match<br>(i)</div></div></div>","e","TARGET","2","trustrating_stim/white_mw010.bmp,trustrating_stim/white_mw091.bmp","0,1","Match","e","3000","trustrating_stim/white_mw010.bmp","red","Keep","REAL","1"
"html-keyboard-response","89","235030","0.0-7.0-5.10","62951043176ada9a9de2faa4","bdp_wmem","Wed Mar 15 2023 13:25:06 GMT-0600 (Mountain Daylight Time)","578130","Match,No Match","","null","","","","","","<div class='trialBorder'><div class='vertical-center'><img src='img/correct.jpg'></div><div class='respDiv'><div class='respDivL'><font style='color:orange'>Match<br>(e)</font></div><div class='respDivR'>No Match<br>(i)</div></div></div>","null","FEEDBACK","","","","","","","","","","",""
"html-keyboard-response","90","235534","0.0-7.0-1.11","62951043176ada9a9de2faa4","bdp_wmem","Wed Mar 15 2023 13:25:06 GMT-0600 (Mountain Daylight Time)","578130","Match,No Match","","null","","","","","","<div class='trialBorder'><div class='vertical-center'><img src='img/fixation2_sml.jpg'</img></div></div>","null","FIX","","","","","","","","","","",""
"html-keyboard-response","91","238542","0.0-7.0-2.11","62951043176ada9a9de2faa4","bdp_wmem","Wed Mar 15 2023 13:25:06 GMT-0600 (Mountain Daylight Time)","578130","Match,No Match","","null","","","","","","<div class='trialBorder'><div class='vertical-center'><img style='vertical-align:center; align:center' src='img/fixation2_sml.jpg'></div><div class='arrayDiv2'><div class='tl'><img class='introPic' src='trustrating_stim/white_mw013.bmp'><br><font color='red'><strong>Keep</strong></font></div><div class='tr'><img class='introPic' src='trustrating_stim/white_mw085.bmp'><br><font color='green'><strong>Share</strong></font></div></div></div>","null","ARRAY","2","trustrating_stim/white_mw013.bmp,trustrating_stim/white_mw085.bmp","0,1","Match","e","3000","","","","",""
"html-keyboard-response","92","242549","0.0-7.0-3.11","62951043176ada9a9de2faa4","bdp_wmem","Wed Mar 15 2023 13:25:06 GMT-0600 (Mountain Daylight Time)","578130","Match,No Match","","null","","","","","","<div class='trialBorder'><div class='vertical-center'><img src='img/fixation2_sml.jpg'</img></div></div>","null","DELAY","","","","","","","","","","",""
"html-keyboard-response","93","244241","0.0-7.0-4.11","62951043176ada9a9de2faa4","bdp_wmem","Wed Mar 15 2023 13:25:06 GMT-0600 (Mountain Daylight Time)","578130","Match,No Match","","1689","","","","","","<div class='trialBorder'><div class='targDiv'><div class='tc'><img class='introPic' src='trustrating_stim/white_mw085.bmp'><br><font color='green'><strong>Share</strong></font></div></div><div class='respDiv'><div class='respDivL'>Match<br>(e)</div><div class='respDivR'>No Match<br>(i)</div></div></div>","e","TARGET","2","trustrating_stim/white_mw013.bmp,trustrating_stim/white_mw085.bmp","0,1","Match","e","3000","trustrating_stim/white_mw085.bmp","green","Share","REAL","1"
"html-keyboard-response","94","244750","0.0-7.0-5.11","62951043176ada9a9de2faa4","bdp_wmem","Wed Mar 15 2023 13:25:06 GMT-0600 (Mountain Daylight Time)","578130","Match,No Match","","null","","","","","","<div class='trialBorder'><div class='vertical-center'><img src='img/correct.jpg'></div><div class='respDiv'><div class='respDivL'><font style='color:orange'>Match<br>(e)</font></div><div class='respDivR'>No Match<br>(i)</div></div></div>","null","FEEDBACK","","","","","","","","","","",""
"html-keyboard-response","95","245253","0.0-7.0-1.12","62951043176ada9a9de2faa4","bdp_wmem","Wed Mar 15 2023 13:25:06 GMT-0600 (Mountain Daylight Time)","578130","Match,No Match","","null","","","","","","<div class='trialBorder'><div class='vertical-center'><img src='img/fixation2_sml.jpg'</img></div></div>","null","FIX","","","","","","","","","","",""
"html-keyboard-response","96","246757","0.0-7.0-2.12","62951043176ada9a9de2faa4","bdp_wmem","Wed Mar 15 2023 13:25:06 GMT-0600 (Mountain Daylight Time)","578130","Match,No Match","","null","","","","","","<div class='trialBorder'><div class='vertical-center'><img style='vertical-align:center; align:center' src='img/fixation2_sml.jpg'></div><div class='arrayDiv1'><div class='tc'><img class='introPic' src='trustrating_stim/white_mw092.bmp'><br><font color='red'><strong>Keep</strong></font></div></div></div>","null","ARRAY","1","trustrating_stim/white_mw092.bmp","0","noMatchOutcome","i","1500","","","","",""
"html-keyboard-response","97","250766","0.0-7.0-3.12","62951043176ada9a9de2faa4","bdp_wmem","Wed Mar 15 2023 13:25:06 GMT-0600 (Mountain Daylight Time)","578130","Match,No Match","","null","","","","","","<div class='trialBorder'><div class='vertical-center'><img src='img/fixation2_sml.jpg'</img></div></div>","null","DELAY","","","","","","","","","","",""
"html-keyboard-response","98","251806","0.0-7.0-4.12","62951043176ada9a9de2faa4","bdp_wmem","Wed Mar 15 2023 13:25:06 GMT-0600 (Mountain Daylight Time)","578130","Match,No Match","","1037","","","","","","<div class='trialBorder'><div class='targDiv'><div class='tc'><img class='introPic' src='trustrating_stim/white_mw092.bmp'><br><font color='green'><strong>Share</strong></font></div></div><div class='respDiv'><div class='respDivL'>Match<br>(e)</div><div class='respDivR'>No Match<br>(i)</div></div></div>","i","TARGET","1","trustrating_stim/white_mw092.bmp","0","noMatchOutcome","i","1500","trustrating_stim/white_mw092.bmp","green","Share","REAL","1"
"html-keyboard-response","99","252309","0.0-7.0-5.12","62951043176ada9a9de2faa4","bdp_wmem","Wed Mar 15 2023 13:25:06 GMT-0600 (Mountain Daylight Time)","578130","Match,No Match","","null","","","","","","<div class='trialBorder'><div class='vertical-center'><img src='img/correct.jpg'></div><div class='respDiv'><div class='respDivL'>Match<br>(e)</div><div class='respDivR'><font style='color:orange'>No Match<br>(i)</font></div></div></div>","null","FEEDBACK","","","","","","","","","","",""
"html-keyboard-response","100","252814","0.0-7.0-1.13","62951043176ada9a9de2faa4","bdp_wmem","Wed Mar 15 2023 13:25:06 GMT-0600 (Mountain Daylight Time)","578130","Match,No Match","","null","","","","","","<div class='trialBorder'><div class='vertical-center'><img src='img/fixation2_sml.jpg'</img></div></div>","null","FIX","","","","","","","","","","",""
"html-keyboard-response","101","257317","0.0-7.0-2.13","62951043176ada9a9de2faa4","bdp_wmem","Wed Mar 15 2023 13:25:06 GMT-0600 (Mountain Daylight Time)","578130","Match,No Match","","null","","","","","","<div class='trialBorder'><div class='vertical-center'><img style='vertical-align:center; align:center' src='img/fixation2_sml.jpg'></div><div class='arrayDiv3'><div class='tl'><img class='introPic' src='trustrating_stim/white_mw038.bmp'><br><font color='red'><strong>Keep</strong></font></div><div class='tc'><img class='introPic' src='trustrating_stim/white_mw013.bmp'><br><font color='green'><strong>Share</strong></font></div><div class='tr'><img class='introPic' src='trustrating_stim/white_mw040.bmp'><br><font color='red'><strong>Keep</strong></font></div></div></div>","null","ARRAY","3","trustrating_stim/white_mw038.bmp,trustrating_stim/white_mw013.bmp,trustrating_stim/white_mw040.bmp","0,1,0","noMatchFace","i","4500","","","","",""
"html-keyboard-response","102","261326","0.0-7.0-3.13","62951043176ada9a9de2faa4","bdp_wmem","Wed Mar 15 2023 13:25:06 GMT-0600 (Mountain Daylight Time)","578130","Match,No Match","","null","","","","","","<div class='trialBorder'><div class='vertical-center'><img src='img/fixation2_sml.jpg'</img></div></div>","null","DELAY","","","","","","","","","","",""
"html-keyboard-response","103","262601","0.0-7.0-4.13","62951043176ada9a9de2faa4","bdp_wmem","Wed Mar 15 2023 13:25:06 GMT-0600 (Mountain Daylight Time)","578130","Match,No Match","","1273","","","","","","<div class='trialBorder'><div class='targDiv'><div class='tc'><img class='introPic' src='trustrating_stim/white_mw092.bmp'><br><font color='red'><strong>Keep</strong></font></div></div><div class='respDiv'><div class='respDivL'>Match<br>(e)</div><div class='respDivR'>No Match<br>(i)</div></div></div>","e","TARGET","3","trustrating_stim/white_mw038.bmp,trustrating_stim/white_mw013.bmp,trustrating_stim/white_mw040.bmp","0,1,0","noMatchFace","i","4500","trustrating_stim/white_mw092.bmp","red","Keep","REAL","0"
"html-keyboard-response","104","263109","0.0-7.0-5.13","62951043176ada9a9de2faa4","bdp_wmem","Wed Mar 15 2023 13:25:06 GMT-0600 (Mountain Daylight Time)","578130","Match,No Match","","null","","","","","","<div class='trialBorder'><div class='vertical-center'><img src='img/error.jpg'></div><div class='respDiv'><div class='respDivL'><font style='color:orange'>Match<br>(e)</font></div><div class='respDivR'>No Match<br>(i)</div></div></div>","null","FEEDBACK","","","","","","","","","","",""
"html-keyboard-response","105","263614","0.0-7.0-1.14","62951043176ada9a9de2faa4","bdp_wmem","Wed Mar 15 2023 13:25:06 GMT-0600 (Mountain Daylight Time)","578130","Match,No Match","","null","","","","","","<div class='trialBorder'><div class='vertical-center'><img src='img/fixation2_sml.jpg'</img></div></div>","null","FIX","","","","","","","","","","",""
"html-keyboard-response","106","268117","0.0-7.0-2.14","62951043176ada9a9de2faa4","bdp_wmem","Wed Mar 15 2023 13:25:06 GMT-0600 (Mountain Daylight Time)","578130","Match,No Match","","null","","","","","","<div class='trialBorder'><div class='vertical-center'><img style='vertical-align:center; align:center' src='img/fixation2_sml.jpg'></div><div class='arrayDiv3'><div class='tl'><img class='introPic' src='trustrating_stim/white_mw003.bmp'><br><font color='green'><strong>Share</strong></font></div><div class='tc'><img class='introPic' src='trustrating_stim/white_mw078.bmp'><br><font color='red'><strong>Keep</strong></font></div><div class='tr'><img class='introPic' src='trustrating_stim/white_mw092.bmp'><br><font color='green'><strong>Share</strong></font></div></div></div>","null","ARRAY","3","trustrating_stim/white_mw003.bmp,trustrating_stim/white_mw078.bmp,trustrating_stim/white_mw092.bmp","1,0,1","noMatchOutcome","i","4500","","","","",""
"html-keyboard-response","107","272125","0.0-7.0-3.14","62951043176ada9a9de2faa4","bdp_wmem","Wed Mar 15 2023 13:25:06 GMT-0600 (Mountain Daylight Time)","578130","Match,No Match","","null","","","","","","<div class='trialBorder'><div class='vertical-center'><img src='img/fixation2_sml.jpg'</img></div></div>","null","DELAY","","","","","","","","","","",""
"html-keyboard-response","108","273269","0.0-7.0-4.14","62951043176ada9a9de2faa4","bdp_wmem","Wed Mar 15 2023 13:25:06 GMT-0600 (Mountain Daylight Time)","578130","Match,No Match","","1142","","","","","","<div class='trialBorder'><div class='targDiv'><div class='tc'><img class='introPic' src='trustrating_stim/white_mw003.bmp'><br><font color='red'><strong>Keep</strong></font></div></div><div class='respDiv'><div class='respDivL'>Match<br>(e)</div><div class='respDivR'>No Match<br>(i)</div></div></div>","e","TARGET","3","trustrating_stim/white_mw003.bmp,trustrating_stim/white_mw078.bmp,trustrating_stim/white_mw092.bmp","1,0,1","noMatchOutcome","i","4500","trustrating_stim/white_mw003.bmp","red","Keep","REAL","0"
"html-keyboard-response","109","273773","0.0-7.0-5.14","62951043176ada9a9de2faa4","bdp_wmem","Wed Mar 15 2023 13:25:06 GMT-0600 (Mountain Daylight Time)","578130","Match,No Match","","null","","","","","","<div class='trialBorder'><div class='vertical-center'><img src='img/error.jpg'></div><div class='respDiv'><div class='respDivL'><font style='color:orange'>Match<br>(e)</font></div><div class='respDivR'>No Match<br>(i)</div></div></div>","null","FEEDBACK","","","","","","","","","","",""
"html-keyboard-response","110","274276","0.0-7.0-1.15","62951043176ada9a9de2faa4","bdp_wmem","Wed Mar 15 2023 13:25:06 GMT-0600 (Mountain Daylight Time)","578130","Match,No Match","","null","","","","","","<div class='trialBorder'><div class='vertical-center'><img src='img/fixation2_sml.jpg'</img></div></div>","null","FIX","","","","","","","","","","",""
"html-keyboard-response","111","275780","0.0-7.0-2.15","62951043176ada9a9de2faa4","bdp_wmem","Wed Mar 15 2023 13:25:06 GMT-0600 (Mountain Daylight Time)","578130","Match,No Match","","null","","","","","","<div class='trialBorder'><div class='vertical-center'><img style='vertical-align:center; align:center' src='img/fixation2_sml.jpg'></div><div class='arrayDiv1'><div class='tc'><img class='introPic' src='trustrating_stim/white_mw085.bmp'><br><font color='red'><strong>Keep</strong></font></div></div></div>","null","ARRAY","1","trustrating_stim/white_mw085.bmp","0","Match","e","1500","","","","",""
"html-keyboard-response","112","279793","0.0-7.0-3.15","62951043176ada9a9de2faa4","bdp_wmem","Wed Mar 15 2023 13:25:06 GMT-0600 (Mountain Daylight Time)","578130","Match,No Match","","null","","","","","","<div class='trialBorder'><div class='vertical-center'><img src='img/fixation2_sml.jpg'</img></div></div>","null","DELAY","","","","","","","","","","",""
"html-keyboard-response","113","281050","0.0-7.0-4.15","62951043176ada9a9de2faa4","bdp_wmem","Wed Mar 15 2023 13:25:06 GMT-0600 (Mountain Daylight Time)","578130","Match,No Match","","1255","","","","","","<div class='trialBorder'><div class='targDiv'><div class='tc'><img class='introPic' src='trustrating_stim/white_mw085.bmp'><br><font color='red'><strong>Keep</strong></font></div></div><div class='respDiv'><div class='respDivL'>Match<br>(e)</div><div class='respDivR'>No Match<br>(i)</div></div></div>","e","TARGET","1","trustrating_stim/white_mw085.bmp","0","Match","e","1500","trustrating_stim/white_mw085.bmp","red","Keep","REAL","1"
"html-keyboard-response","114","281556","0.0-7.0-5.15","62951043176ada9a9de2faa4","bdp_wmem","Wed Mar 15 2023 13:25:06 GMT-0600 (Mountain Daylight Time)","578130","Match,No Match","","null","","","","","","<div class='trialBorder'><div class='vertical-center'><img src='img/correct.jpg'></div><div class='respDiv'><div class='respDivL'><font style='color:orange'>Match<br>(e)</font></div><div class='respDivR'>No Match<br>(i)</div></div></div>","null","FEEDBACK","","","","","","","","","","",""
"html-keyboard-response","115","282061","0.0-7.0-1.16","62951043176ada9a9de2faa4","bdp_wmem","Wed Mar 15 2023 13:25:06 GMT-0600 (Mountain Daylight Time)","578130","Match,No Match","","null","","","","","","<div class='trialBorder'><div class='vertical-center'><img src='img/fixation2_sml.jpg'</img></div></div>","null","FIX","","","","","","","","","","",""
"html-keyboard-response","116","285069","0.0-7.0-2.16","62951043176ada9a9de2faa4","bdp_wmem","Wed Mar 15 2023 13:25:06 GMT-0600 (Mountain Daylight Time)","578130","Match,No Match","","null","","","","","","<div class='trialBorder'><div class='vertical-center'><img style='vertical-align:center; align:center' src='img/fixation2_sml.jpg'></div><div class='arrayDiv2'><div class='tl'><img class='introPic' src='trustrating_stim/white_mw092.bmp'><br><font color='green'><strong>Share</strong></font></div><div class='tr'><img class='introPic' src='trustrating_stim/white_mw038.bmp'><br><font color='red'><strong>Keep</strong></font></div></div></div>","null","ARRAY","2","trustrating_stim/white_mw092.bmp,trustrating_stim/white_mw038.bmp","1,0","Match","e","3000","","","","",""
"html-keyboard-response","117","289076","0.0-7.0-3.16","62951043176ada9a9de2faa4","bdp_wmem","Wed Mar 15 2023 13:25:06 GMT-0600 (Mountain Daylight Time)","578130","Match,No Match","","null","","","","","","<div class='trialBorder'><div class='vertical-center'><img src='img/fixation2_sml.jpg'</img></div></div>","null","DELAY","","","","","","","","","","",""
"html-keyboard-response","118","290571","0.0-7.0-4.16","62951043176ada9a9de2faa4","bdp_wmem","Wed Mar 15 2023 13:25:06 GMT-0600 (Mountain Daylight Time)","578130","Match,No Match","","1493","","","","","","<div class='trialBorder'><div class='targDiv'><div class='tc'><img class='introPic' src='trustrating_stim/white_mw092.bmp'><br><font color='green'><strong>Share</strong></font></div></div><div class='respDiv'><div class='respDivL'>Match<br>(e)</div><div class='respDivR'>No Match<br>(i)</div></div></div>","e","TARGET","2","trustrating_stim/white_mw092.bmp,trustrating_stim/white_mw038.bmp","1,0","Match","e","3000","trustrating_stim/white_mw092.bmp","green","Share","REAL","1"
"html-keyboard-response","119","291076","0.0-7.0-5.16","62951043176ada9a9de2faa4","bdp_wmem","Wed Mar 15 2023 13:25:06 GMT-0600 (Mountain Daylight Time)","578130","Match,No Match","","null","","","","","","<div class='trialBorder'><div class='vertical-center'><img src='img/correct.jpg'></div><div class='respDiv'><div class='respDivL'><font style='color:orange'>Match<br>(e)</font></div><div class='respDivR'>No Match<br>(i)</div></div></div>","null","FEEDBACK","","","","","","","","","","",""
"html-keyboard-response","120","291581","0.0-7.0-1.17","62951043176ada9a9de2faa4","bdp_wmem","Wed Mar 15 2023 13:25:06 GMT-0600 (Mountain Daylight Time)","578130","Match,No Match","","null","","","","","","<div class='trialBorder'><div class='vertical-center'><img src='img/fixation2_sml.jpg'</img></div></div>","null","FIX","","","","","","","","","","",""
"html-keyboard-response","121","293085","0.0-7.0-2.17","62951043176ada9a9de2faa4","bdp_wmem","Wed Mar 15 2023 13:25:06 GMT-0600 (Mountain Daylight Time)","578130","Match,No Match","","null","","","","","","<div class='trialBorder'><div class='vertical-center'><img style='vertical-align:center; align:center' src='img/fixation2_sml.jpg'></div><div class='arrayDiv1'><div class='tc'><img class='introPic' src='trustrating_stim/white_mw010.bmp'><br><font color='red'><strong>Keep</strong></font></div></div></div>","null","ARRAY","1","trustrating_stim/white_mw010.bmp","0","Match","e","1500","","","","",""
"html-keyboard-response","122","297092","0.0-7.0-3.17","62951043176ada9a9de2faa4","bdp_wmem","Wed Mar 15 2023 13:25:06 GMT-0600 (Mountain Daylight Time)","578130","Match,No Match","","null","","","","","","<div class='trialBorder'><div class='vertical-center'><img src='img/fixation2_sml.jpg'</img></div></div>","null","DELAY","","","","","","","","","","",""
"html-keyboard-response","123","298290","0.0-7.0-4.17","62951043176ada9a9de2faa4","bdp_wmem","Wed Mar 15 2023 13:25:06 GMT-0600 (Mountain Daylight Time)","578130","Match,No Match","","1196","","","","","","<div class='trialBorder'><div class='targDiv'><div class='tc'><img class='introPic' src='trustrating_stim/white_mw010.bmp'><br><font color='red'><strong>Keep</strong></font></div></div><div class='respDiv'><div class='respDivL'>Match<br>(e)</div><div class='respDivR'>No Match<br>(i)</div></div></div>","e","TARGET","1","trustrating_stim/white_mw010.bmp","0","Match","e","1500","trustrating_stim/white_mw010.bmp","red","Keep","REAL","1"
"html-keyboard-response","124","298796","0.0-7.0-5.17","62951043176ada9a9de2faa4","bdp_wmem","Wed Mar 15 2023 13:25:06 GMT-0600 (Mountain Daylight Time)","578130","Match,No Match","","null","","","","","","<div class='trialBorder'><div class='vertical-center'><img src='img/correct.jpg'></div><div class='respDiv'><div class='respDivL'><font style='color:orange'>Match<br>(e)</font></div><div class='respDivR'>No Match<br>(i)</div></div></div>","null","FEEDBACK","","","","","","","","","","",""
"html-keyboard-response","125","299299","0.0-7.0-1.18","62951043176ada9a9de2faa4","bdp_wmem","Wed Mar 15 2023 13:25:06 GMT-0600 (Mountain Daylight Time)","578130","Match,No Match","","null","","","","","","<div class='trialBorder'><div class='vertical-center'><img src='img/fixation2_sml.jpg'</img></div></div>","null","FIX","","","","","","","","","","",""
"html-keyboard-response","126","303804","0.0-7.0-2.18","62951043176ada9a9de2faa4","bdp_wmem","Wed Mar 15 2023 13:25:06 GMT-0600 (Mountain Daylight Time)","578130","Match,No Match","","null","","","","","","<div class='trialBorder'><div class='vertical-center'><img style='vertical-align:center; align:center' src='img/fixation2_sml.jpg'></div><div class='arrayDiv3'><div class='tl'><img class='introPic' src='trustrating_stim/white_mw042.bmp'><br><font color='green'><strong>Share</strong></font></div><div class='tc'><img class='introPic' src='trustrating_stim/white_mw010.bmp'><br><font color='red'><strong>Keep</strong></font></div><div class='tr'><img class='introPic' src='trustrating_stim/white_mw003.bmp'><br><font color='red'><strong>Keep</strong></font></div></div></div>","null","ARRAY","3","trustrating_stim/white_mw042.bmp,trustrating_stim/white_mw010.bmp,trustrating_stim/white_mw003.bmp","1,0,0","noMatchFace","i","4500","","","","",""
"html-keyboard-response","127","307811","0.0-7.0-3.18","62951043176ada9a9de2faa4","bdp_wmem","Wed Mar 15 2023 13:25:06 GMT-0600 (Mountain Daylight Time)","578130","Match,No Match","","null","","","","","","<div class='trialBorder'><div class='vertical-center'><img src='img/fixation2_sml.jpg'</img></div></div>","null","DELAY","","","","","","","","","","",""
"html-keyboard-response","128","309089","0.0-7.0-4.18","62951043176ada9a9de2faa4","bdp_wmem","Wed Mar 15 2023 13:25:06 GMT-0600 (Mountain Daylight Time)","578130","Match,No Match","","1276","","","","","","<div class='trialBorder'><div class='targDiv'><div class='tc'><img class='introPic' src='trustrating_stim/white_mw038.bmp'><br><font color='red'><strong>Keep</strong></font></div></div><div class='respDiv'><div class='respDivL'>Match<br>(e)</div><div class='respDivR'>No Match<br>(i)</div></div></div>","e","TARGET","3","trustrating_stim/white_mw042.bmp,trustrating_stim/white_mw010.bmp,trustrating_stim/white_mw003.bmp","1,0,0","noMatchFace","i","4500","trustrating_stim/white_mw038.bmp","red","Keep","REAL","0"
"html-keyboard-response","129","309596","0.0-7.0-5.18","62951043176ada9a9de2faa4","bdp_wmem","Wed Mar 15 2023 13:25:06 GMT-0600 (Mountain Daylight Time)","578130","Match,No Match","","null","","","","","","<div class='trialBorder'><div class='vertical-center'><img src='img/error.jpg'></div><div class='respDiv'><div class='respDivL'><font style='color:orange'>Match<br>(e)</font></div><div class='respDivR'>No Match<br>(i)</div></div></div>","null","FEEDBACK","","","","","","","","","","",""
"html-keyboard-response","130","310099","0.0-7.0-1.19","62951043176ada9a9de2faa4","bdp_wmem","Wed Mar 15 2023 13:25:06 GMT-0600 (Mountain Daylight Time)","578130","Match,No Match","","null","","","","","","<div class='trialBorder'><div class='vertical-center'><img src='img/fixation2_sml.jpg'</img></div></div>","null","FIX","","","","","","","","","","",""
"html-keyboard-response","131","313107","0.0-7.0-2.19","62951043176ada9a9de2faa4","bdp_wmem","Wed Mar 15 2023 13:25:06 GMT-0600 (Mountain Daylight Time)","578130","Match,No Match","","null","","","","","","<div class='trialBorder'><div class='vertical-center'><img style='vertical-align:center; align:center' src='img/fixation2_sml.jpg'></div><div class='arrayDiv2'><div class='tl'><img class='introPic' src='trustrating_stim/white_mw070.bmp'><br><font color='red'><strong>Keep</strong></font></div><div class='tr'><img class='introPic' src='trustrating_stim/white_mw091.bmp'><br><font color='green'><strong>Share</strong></font></div></div></div>","null","ARRAY","2","trustrating_stim/white_mw070.bmp,trustrating_stim/white_mw091.bmp","0,1","Match","e","3000","","","","",""
"html-keyboard-response","132","317116","0.0-7.0-3.19","62951043176ada9a9de2faa4","bdp_wmem","Wed Mar 15 2023 13:25:06 GMT-0600 (Mountain Daylight Time)","578130","Match,No Match","","null","","","","","","<div class='trialBorder'><div class='vertical-center'><img src='img/fixation2_sml.jpg'</img></div></div>","null","DELAY","","","","","","","","","","",""
"html-keyboard-response","133","318133","0.0-7.0-4.19","62951043176ada9a9de2faa4","bdp_wmem","Wed Mar 15 2023 13:25:06 GMT-0600 (Mountain Daylight Time)","578130","Match,No Match","","1015","","","","","","<div class='trialBorder'><div class='targDiv'><div class='tc'><img class='introPic' src='trustrating_stim/white_mw091.bmp'><br><font color='green'><strong>Share</strong></font></div></div><div class='respDiv'><div class='respDivL'>Match<br>(e)</div><div class='respDivR'>No Match<br>(i)</div></div></div>","e","TARGET","2","trustrating_stim/white_mw070.bmp,trustrating_stim/white_mw091.bmp","0,1","Match","e","3000","trustrating_stim/white_mw091.bmp","green","Share","REAL","1"
"html-keyboard-response","134","318636","0.0-7.0-5.19","62951043176ada9a9de2faa4","bdp_wmem","Wed Mar 15 2023 13:25:06 GMT-0600 (Mountain Daylight Time)","578130","Match,No Match","","null","","","","","","<div class='trialBorder'><div class='vertical-center'><img src='img/correct.jpg'></div><div class='respDiv'><div class='respDivL'><font style='color:orange'>Match<br>(e)</font></div><div class='respDivR'>No Match<br>(i)</div></div></div>","null","FEEDBACK","","","","","","","","","","",""
"html-keyboard-response","135","319139","0.0-7.0-1.20","62951043176ada9a9de2faa4","bdp_wmem","Wed Mar 15 2023 13:25:06 GMT-0600 (Mountain Daylight Time)","578130","Match,No Match","","null","","","","","","<div class='trialBorder'><div class='vertical-center'><img src='img/fixation2_sml.jpg'</img></div></div>","null","FIX","","","","","","","","","","",""
"html-keyboard-response","136","323644","0.0-7.0-2.20","62951043176ada9a9de2faa4","bdp_wmem","Wed Mar 15 2023 13:25:06 GMT-0600 (Mountain Daylight Time)","578130","Match,No Match","","null","","","","","","<div class='trialBorder'><div class='vertical-center'><img style='vertical-align:center; align:center' src='img/fixation2_sml.jpg'></div><div class='arrayDiv3'><div class='tl'><img class='introPic' src='trustrating_stim/white_mw012.bmp'><br><font color='red'><strong>Keep</strong></font></div><div class='tc'><img class='introPic' src='trustrating_stim/white_mw078.bmp'><br><font color='green'><strong>Share</strong></font></div><div class='tr'><img class='introPic' src='trustrating_stim/white_mw042.bmp'><br><font color='green'><strong>Share</strong></font></div></div></div>","null","ARRAY","3","trustrating_stim/white_mw012.bmp,trustrating_stim/white_mw078.bmp,trustrating_stim/white_mw042.bmp","0,1,1","Match","e","4500","","","","",""
"html-keyboard-response","137","327651","0.0-7.0-3.20","62951043176ada9a9de2faa4","bdp_wmem","Wed Mar 15 2023 13:25:06 GMT-0600 (Mountain Daylight Time)","578130","Match,No Match","","null","","","","","","<div class='trialBorder'><div class='vertical-center'><img src='img/fixation2_sml.jpg'</img></div></div>","null","DELAY","","","","","","","","","","",""
"html-keyboard-response","138","328755","0.0-7.0-4.20","62951043176ada9a9de2faa4","bdp_wmem","Wed Mar 15 2023 13:25:06 GMT-0600 (Mountain Daylight Time)","578130","Match,No Match","","1101","","","","","","<div class='trialBorder'><div class='targDiv'><div class='tc'><img class='introPic' src='trustrating_stim/white_mw012.bmp'><br><font color='red'><strong>Keep</strong></font></div></div><div class='respDiv'><div class='respDivL'>Match<br>(e)</div><div class='respDivR'>No Match<br>(i)</div></div></div>","e","TARGET","3","trustrating_stim/white_mw012.bmp,trustrating_stim/white_mw078.bmp,trustrating_stim/white_mw042.bmp","0,1,1","Match","e","4500","trustrating_stim/white_mw012.bmp","red","Keep","REAL","1"
"html-keyboard-response","139","329259","0.0-7.0-5.20","62951043176ada9a9de2faa4","bdp_wmem","Wed Mar 15 2023 13:25:06 GMT-0600 (Mountain Daylight Time)","578130","Match,No Match","","null","","","","","","<div class='trialBorder'><div class='vertical-center'><img src='img/correct.jpg'></div><div class='respDiv'><div class='respDivL'><font style='color:orange'>Match<br>(e)</font></div><div class='respDivR'>No Match<br>(i)</div></div></div>","null","FEEDBACK","","","","","","","","","","",""
"html-keyboard-response","140","329763","0.0-7.0-1.21","62951043176ada9a9de2faa4","bdp_wmem","Wed Mar 15 2023 13:25:06 GMT-0600 (Mountain Daylight Time)","578130","Match,No Match","","null","","","","","","<div class='trialBorder'><div class='vertical-center'><img src='img/fixation2_sml.jpg'</img></div></div>","null","FIX","","","","","","","","","","",""
"html-keyboard-response","141","334267","0.0-7.0-2.21","62951043176ada9a9de2faa4","bdp_wmem","Wed Mar 15 2023 13:25:06 GMT-0600 (Mountain Daylight Time)","578130","Match,No Match","","null","","","","","","<div class='trialBorder'><div class='vertical-center'><img style='vertical-align:center; align:center' src='img/fixation2_sml.jpg'></div><div class='arrayDiv3'><div class='tl'><img class='introPic' src='trustrating_stim/white_mw070.bmp'><br><font color='green'><strong>Share</strong></font></div><div class='tc'><img class='introPic' src='trustrating_stim/white_mw092.bmp'><br><font color='red'><strong>Keep</strong></font></div><div class='tr'><img class='introPic' src='trustrating_stim/white_mw012.bmp'><br><font color='green'><strong>Share</strong></font></div></div></div>","null","ARRAY","3","trustrating_stim/white_mw070.bmp,trustrating_stim/white_mw092.bmp,trustrating_stim/white_mw012.bmp","1,0,1","Match","e","4500","","","","",""
"html-keyboard-response","142","338274","0.0-7.0-3.21","62951043176ada9a9de2faa4","bdp_wmem","Wed Mar 15 2023 13:25:06 GMT-0600 (Mountain Daylight Time)","578130","Match,No Match","","null","","","","","","<div class='trialBorder'><div class='vertical-center'><img src='img/fixation2_sml.jpg'</img></div></div>","null","DELAY","","","","","","","","","","",""
"html-keyboard-response","143","339440","0.0-7.0-4.21","62951043176ada9a9de2faa4","bdp_wmem","Wed Mar 15 2023 13:25:06 GMT-0600 (Mountain Daylight Time)","578130","Match,No Match","","1164","","","","","","<div class='trialBorder'><div class='targDiv'><div class='tc'><img class='introPic' src='trustrating_stim/white_mw012.bmp'><br><font color='green'><strong>Share</strong></font></div></div><div class='respDiv'><div class='respDivL'>Match<br>(e)</div><div class='respDivR'>No Match<br>(i)</div></div></div>","e","TARGET","3","trustrating_stim/white_mw070.bmp,trustrating_stim/white_mw092.bmp,trustrating_stim/white_mw012.bmp","1,0,1","Match","e","4500","trustrating_stim/white_mw012.bmp","green","Share","REAL","1"
"html-keyboard-response","144","339947","0.0-7.0-5.21","62951043176ada9a9de2faa4","bdp_wmem","Wed Mar 15 2023 13:25:06 GMT-0600 (Mountain Daylight Time)","578130","Match,No Match","","null","","","","","","<div class='trialBorder'><div class='vertical-center'><img src='img/correct.jpg'></div><div class='respDiv'><div class='respDivL'><font style='color:orange'>Match<br>(e)</font></div><div class='respDivR'>No Match<br>(i)</div></div></div>","null","FEEDBACK","","","","","","","","","","",""
"html-keyboard-response","145","340450","0.0-7.0-1.22","62951043176ada9a9de2faa4","bdp_wmem","Wed Mar 15 2023 13:25:06 GMT-0600 (Mountain Daylight Time)","578130","Match,No Match","","null","","","","","","<div class='trialBorder'><div class='vertical-center'><img src='img/fixation2_sml.jpg'</img></div></div>","null","FIX","","","","","","","","","","",""
"html-keyboard-response","146","344955","0.0-7.0-2.22","62951043176ada9a9de2faa4","bdp_wmem","Wed Mar 15 2023 13:25:06 GMT-0600 (Mountain Daylight Time)","578130","Match,No Match","","null","","","","","","<div class='trialBorder'><div class='vertical-center'><img style='vertical-align:center; align:center' src='img/fixation2_sml.jpg'></div><div class='arrayDiv3'><div class='tl'><img class='introPic' src='trustrating_stim/white_mw042.bmp'><br><font color='green'><strong>Share</strong></font></div><div class='tc'><img class='introPic' src='trustrating_stim/white_mw070.bmp'><br><font color='green'><strong>Share</strong></font></div><div class='tr'><img class='introPic' src='trustrating_stim/white_mw092.bmp'><br><font color='red'><strong>Keep</strong></font></div></div></div>","null","ARRAY","3","trustrating_stim/white_mw042.bmp,trustrating_stim/white_mw070.bmp,trustrating_stim/white_mw092.bmp","1,1,0","noMatchOutcome","i","4500","","","","",""
"html-keyboard-response","147","348965","0.0-7.0-3.22","62951043176ada9a9de2faa4","bdp_wmem","Wed Mar 15 2023 13:25:06 GMT-0600 (Mountain Daylight Time)","578130","Match,No Match","","null","","","","","","<div class='trialBorder'><div class='vertical-center'><img src='img/fixation2_sml.jpg'</img></div></div>","null","DELAY","","","","","","","","","","",""
"html-keyboard-response","148","349857","0.0-7.0-4.22","62951043176ada9a9de2faa4","bdp_wmem","Wed Mar 15 2023 13:25:06 GMT-0600 (Mountain Daylight Time)","578130","Match,No Match","","890","","","","","","<div class='trialBorder'><div class='targDiv'><div class='tc'><img class='introPic' src='trustrating_stim/white_mw092.bmp'><br><font color='green'><strong>Share</strong></font></div></div><div class='respDiv'><div class='respDivL'>Match<br>(e)</div><div class='respDivR'>No Match<br>(i)</div></div></div>","i","TARGET","3","trustrating_stim/white_mw042.bmp,trustrating_stim/white_mw070.bmp,trustrating_stim/white_mw092.bmp","1,1,0","noMatchOutcome","i","4500","trustrating_stim/white_mw092.bmp","green","Share","REAL","1"
"html-keyboard-response","149","350362","0.0-7.0-5.22","62951043176ada9a9de2faa4","bdp_wmem","Wed Mar 15 2023 13:25:06 GMT-0600 (Mountain Daylight Time)","578130","Match,No Match","","null","","","","","","<div class='trialBorder'><div class='vertical-center'><img src='img/correct.jpg'></div><div class='respDiv'><div class='respDivL'>Match<br>(e)</div><div class='respDivR'><font style='color:orange'>No Match<br>(i)</font></div></div></div>","null","FEEDBACK","","","","","","","","","","",""
"html-keyboard-response","150","350866","0.0-7.0-1.23","62951043176ada9a9de2faa4","bdp_wmem","Wed Mar 15 2023 13:25:06 GMT-0600 (Mountain Daylight Time)","578130","Match,No Match","","null","","","","","","<div class='trialBorder'><div class='vertical-center'><img src='img/fixation2_sml.jpg'</img></div></div>","null","FIX","","","","","","","","","","",""
"html-keyboard-response","151","353874","0.0-7.0-2.23","62951043176ada9a9de2faa4","bdp_wmem","Wed Mar 15 2023 13:25:06 GMT-0600 (Mountain Daylight Time)","578130","Match,No Match","","null","","","","","","<div class='trialBorder'><div class='vertical-center'><img style='vertical-align:center; align:center' src='img/fixation2_sml.jpg'></div><div class='arrayDiv2'><div class='tl'><img class='introPic' src='trustrating_stim/white_mw003.bmp'><br><font color='red'><strong>Keep</strong></font></div><div class='tr'><img class='introPic' src='trustrating_stim/white_mw092.bmp'><br><font color='green'><strong>Share</strong></font></div></div></div>","null","ARRAY","2","trustrating_stim/white_mw003.bmp,trustrating_stim/white_mw092.bmp","0,1","noMatchOutcome","i","3000","","","","",""
"html-keyboard-response","152","357883","0.0-7.0-3.23","62951043176ada9a9de2faa4","bdp_wmem","Wed Mar 15 2023 13:25:06 GMT-0600 (Mountain Daylight Time)","578130","Match,No Match","","null","","","","","","<div class='trialBorder'><div class='vertical-center'><img src='img/fixation2_sml.jpg'</img></div></div>","null","DELAY","","","","","","","","","","",""
"html-keyboard-response","153","359149","0.0-7.0-4.23","62951043176ada9a9de2faa4","bdp_wmem","Wed Mar 15 2023 13:25:06 GMT-0600 (Mountain Daylight Time)","578130","Match,No Match","","1264","","","","","","<div class='trialBorder'><div class='targDiv'><div class='tc'><img class='introPic' src='trustrating_stim/white_mw003.bmp'><br><font color='green'><strong>Share</strong></font></div></div><div class='respDiv'><div class='respDivL'>Match<br>(e)</div><div class='respDivR'>No Match<br>(i)</div></div></div>","e","TARGET","2","trustrating_stim/white_mw003.bmp,trustrating_stim/white_mw092.bmp","0,1","noMatchOutcome","i","3000","trustrating_stim/white_mw003.bmp","green","Share","REAL","0"
"html-keyboard-response","154","359658","0.0-7.0-5.23","62951043176ada9a9de2faa4","bdp_wmem","Wed Mar 15 2023 13:25:06 GMT-0600 (Mountain Daylight Time)","578130","Match,No Match","","null","","","","","","<div class='trialBorder'><div class='vertical-center'><img src='img/error.jpg'></div><div class='respDiv'><div class='respDivL'><font style='color:orange'>Match<br>(e)</font></div><div class='respDivR'>No Match<br>(i)</div></div></div>","null","FEEDBACK","","","","","","","","","","",""
"html-keyboard-response","155","360161","0.0-7.0-1.24","62951043176ada9a9de2faa4","bdp_wmem","Wed Mar 15 2023 13:25:06 GMT-0600 (Mountain Daylight Time)","578130","Match,No Match","","null","","","","","","<div class='trialBorder'><div class='vertical-center'><img src='img/fixation2_sml.jpg'</img></div></div>","null","FIX","","","","","","","","","","",""
"html-keyboard-response","156","363169","0.0-7.0-2.24","62951043176ada9a9de2faa4","bdp_wmem","Wed Mar 15 2023 13:25:06 GMT-0600 (Mountain Daylight Time)","578130","Match,No Match","","null","","","","","","<div class='trialBorder'><div class='vertical-center'><img style='vertical-align:center; align:center' src='img/fixation2_sml.jpg'></div><div class='arrayDiv2'><div class='tl'><img class='introPic' src='trustrating_stim/white_mw012.bmp'><br><font color='green'><strong>Share</strong></font></div><div class='tr'><img class='introPic' src='trustrating_stim/white_mw013.bmp'><br><font color='red'><strong>Keep</strong></font></div></div></div>","null","ARRAY","2","trustrating_stim/white_mw012.bmp,trustrating_stim/white_mw013.bmp","1,0","noMatchFace","i","3000","","","","",""
"html-keyboard-response","157","367178","0.0-7.0-3.24","62951043176ada9a9de2faa4","bdp_wmem","Wed Mar 15 2023 13:25:06 GMT-0600 (Mountain Daylight Time)","578130","Match,No Match","","null","","","","","","<div class='trialBorder'><div class='vertical-center'><img src='img/fixation2_sml.jpg'</img></div></div>","null","DELAY","","","","","","","","","","",""
"html-keyboard-response","158","368013","0.0-7.0-4.24","62951043176ada9a9de2faa4","bdp_wmem","Wed Mar 15 2023 13:25:06 GMT-0600 (Mountain Daylight Time)","578130","Match,No Match","","833","","","","","","<div class='trialBorder'><div class='targDiv'><div class='tc'><img class='introPic' src='trustrating_stim/white_mw092.bmp'><br><font color='green'><strong>Share</strong></font></div></div><div class='respDiv'><div class='respDivL'>Match<br>(e)</div><div class='respDivR'>No Match<br>(i)</div></div></div>","e","TARGET","2","trustrating_stim/white_mw012.bmp,trustrating_stim/white_mw013.bmp","1,0","noMatchFace","i","3000","trustrating_stim/white_mw092.bmp","green","Share","REAL","0"
"html-keyboard-response","159","368522","0.0-7.0-5.24","62951043176ada9a9de2faa4","bdp_wmem","Wed Mar 15 2023 13:25:06 GMT-0600 (Mountain Daylight Time)","578130","Match,No Match","","null","","","","","","<div class='trialBorder'><div class='vertical-center'><img src='img/error.jpg'></div><div class='respDiv'><div class='respDivL'><font style='color:orange'>Match<br>(e)</font></div><div class='respDivR'>No Match<br>(i)</div></div></div>","null","FEEDBACK","","","","","","","","","","",""
"html-keyboard-response","160","369025","0.0-7.0-1.25","62951043176ada9a9de2faa4","bdp_wmem","Wed Mar 15 2023 13:25:06 GMT-0600 (Mountain Daylight Time)","578130","Match,No Match","","null","","","","","","<div class='trialBorder'><div class='vertical-center'><img src='img/fixation2_sml.jpg'</img></div></div>","null","FIX","","","","","","","","","","",""
"html-keyboard-response","161","370529","0.0-7.0-2.25","62951043176ada9a9de2faa4","bdp_wmem","Wed Mar 15 2023 13:25:06 GMT-0600 (Mountain Daylight Time)","578130","Match,No Match","","null","","","","","","<div class='trialBorder'><div class='vertical-center'><img style='vertical-align:center; align:center' src='img/fixation2_sml.jpg'></div><div class='arrayDiv1'><div class='tc'><img class='introPic' src='trustrating_stim/white_mw040.bmp'><br><font color='red'><strong>Keep</strong></font></div></div></div>","null","ARRAY","1","trustrating_stim/white_mw040.bmp","0","Match","e","1500","","","","",""
"html-keyboard-response","162","374538","0.0-7.0-3.25","62951043176ada9a9de2faa4","bdp_wmem","Wed Mar 15 2023 13:25:06 GMT-0600 (Mountain Daylight Time)","578130","Match,No Match","","null","","","","","","<div class='trialBorder'><div class='vertical-center'><img src='img/fixation2_sml.jpg'</img></div></div>","null","DELAY","","","","","","","","","","",""
"html-keyboard-response","163","375393","0.0-7.0-4.25","62951043176ada9a9de2faa4","bdp_wmem","Wed Mar 15 2023 13:25:06 GMT-0600 (Mountain Daylight Time)","578130","Match,No Match","","853","","","","","","<div class='trialBorder'><div class='targDiv'><div class='tc'><img class='introPic' src='trustrating_stim/white_mw040.bmp'><br><font color='red'><strong>Keep</strong></font></div></div><div class='respDiv'><div class='respDivL'>Match<br>(e)</div><div class='respDivR'>No Match<br>(i)</div></div></div>","e","TARGET","1","trustrating_stim/white_mw040.bmp","0","Match","e","1500","trustrating_stim/white_mw040.bmp","red","Keep","REAL","1"
"html-keyboard-response","164","375898","0.0-7.0-5.25","62951043176ada9a9de2faa4","bdp_wmem","Wed Mar 15 2023 13:25:06 GMT-0600 (Mountain Daylight Time)","578130","Match,No Match","","null","","","","","","<div class='trialBorder'><div class='vertical-center'><img src='img/correct.jpg'></div><div class='respDiv'><div class='respDivL'><font style='color:orange'>Match<br>(e)</font></div><div class='respDivR'>No Match<br>(i)</div></div></div>","null","FEEDBACK","","","","","","","","","","",""
"html-keyboard-response","165","376401","0.0-7.0-1.26","62951043176ada9a9de2faa4","bdp_wmem","Wed Mar 15 2023 13:25:06 GMT-0600 (Mountain Daylight Time)","578130","Match,No Match","","null","","","","","","<div class='trialBorder'><div class='vertical-center'><img src='img/fixation2_sml.jpg'</img></div></div>","null","FIX","","","","","","","","","","",""
"html-keyboard-response","166","379409","0.0-7.0-2.26","62951043176ada9a9de2faa4","bdp_wmem","Wed Mar 15 2023 13:25:06 GMT-0600 (Mountain Daylight Time)","578130","Match,No Match","","null","","","","","","<div class='trialBorder'><div class='vertical-center'><img style='vertical-align:center; align:center' src='img/fixation2_sml.jpg'></div><div class='arrayDiv2'><div class='tl'><img class='introPic' src='trustrating_stim/white_mw070.bmp'><br><font color='red'><strong>Keep</strong></font></div><div class='tr'><img class='introPic' src='trustrating_stim/white_mw003.bmp'><br><font color='green'><strong>Share</strong></font></div></div></div>","null","ARRAY","2","trustrating_stim/white_mw070.bmp,trustrating_stim/white_mw003.bmp","0,1","Match","e","3000","","","","",""
"html-keyboard-response","167","383418","0.0-7.0-3.26","62951043176ada9a9de2faa4","bdp_wmem","Wed Mar 15 2023 13:25:06 GMT-0600 (Mountain Daylight Time)","578130","Match,No Match","","null","","","","","","<div class='trialBorder'><div class='vertical-center'><img src='img/fixation2_sml.jpg'</img></div></div>","null","DELAY","","","","","","","","","","",""
"html-keyboard-response","168","384461","0.0-7.0-4.26","62951043176ada9a9de2faa4","bdp_wmem","Wed Mar 15 2023 13:25:06 GMT-0600 (Mountain Daylight Time)","578130","Match,No Match","","1041","","","","","","<div class='trialBorder'><div class='targDiv'><div class='tc'><img class='introPic' src='trustrating_stim/white_mw070.bmp'><br><font color='red'><strong>Keep</strong></font></div></div><div class='respDiv'><div class='respDivL'>Match<br>(e)</div><div class='respDivR'>No Match<br>(i)</div></div></div>","e","TARGET","2","trustrating_stim/white_mw070.bmp,trustrating_stim/white_mw003.bmp","0,1","Match","e","3000","trustrating_stim/white_mw070.bmp","red","Keep","REAL","1"
"html-keyboard-response","169","384970","0.0-7.0-5.26","62951043176ada9a9de2faa4","bdp_wmem","Wed Mar 15 2023 13:25:06 GMT-0600 (Mountain Daylight Time)","578130","Match,No Match","","null","","","","","","<div class='trialBorder'><div class='vertical-center'><img src='img/correct.jpg'></div><div class='respDiv'><div class='respDivL'><font style='color:orange'>Match<br>(e)</font></div><div class='respDivR'>No Match<br>(i)</div></div></div>","null","FEEDBACK","","","","","","","","","","",""
"html-keyboard-response","170","385473","0.0-7.0-1.27","62951043176ada9a9de2faa4","bdp_wmem","Wed Mar 15 2023 13:25:06 GMT-0600 (Mountain Daylight Time)","578130","Match,No Match","","null","","","","","","<div class='trialBorder'><div class='vertical-center'><img src='img/fixation2_sml.jpg'</img></div></div>","null","FIX","","","","","","","","","","",""
"html-keyboard-response","171","388481","0.0-7.0-2.27","62951043176ada9a9de2faa4","bdp_wmem","Wed Mar 15 2023 13:25:06 GMT-0600 (Mountain Daylight Time)","578130","Match,No Match","","null","","","","","","<div class='trialBorder'><div class='vertical-center'><img style='vertical-align:center; align:center' src='img/fixation2_sml.jpg'></div><div class='arrayDiv2'><div class='tl'><img class='introPic' src='trustrating_stim/white_mw070.bmp'><br><font color='red'><strong>Keep</strong></font></div><div class='tr'><img class='introPic' src='trustrating_stim/white_mw038.bmp'><br><font color='green'><strong>Share</strong></font></div></div></div>","null","ARRAY","2","trustrating_stim/white_mw070.bmp,trustrating_stim/white_mw038.bmp","0,1","noMatchFace","i","3000","","","","",""
"html-keyboard-response","172","392489","0.0-7.0-3.27","62951043176ada9a9de2faa4","bdp_wmem","Wed Mar 15 2023 13:25:06 GMT-0600 (Mountain Daylight Time)","578130","Match,No Match","","null","","","","","","<div class='trialBorder'><div class='vertical-center'><img src='img/fixation2_sml.jpg'</img></div></div>","null","DELAY","","","","","","","","","","",""
"html-keyboard-response","173","393708","0.0-7.0-4.27","62951043176ada9a9de2faa4","bdp_wmem","Wed Mar 15 2023 13:25:06 GMT-0600 (Mountain Daylight Time)","578130","Match,No Match","","1217","","","","","","<div class='trialBorder'><div class='targDiv'><div class='tc'><img class='introPic' src='trustrating_stim/white_mw042.bmp'><br><font color='green'><strong>Share</strong></font></div></div><div class='respDiv'><div class='respDivL'>Match<br>(e)</div><div class='respDivR'>No Match<br>(i)</div></div></div>","i","TARGET","2","trustrating_stim/white_mw070.bmp,trustrating_stim/white_mw038.bmp","0,1","noMatchFace","i","3000","trustrating_stim/white_mw042.bmp","green","Share","REAL","1"
"html-keyboard-response","174","394217","0.0-7.0-5.27","62951043176ada9a9de2faa4","bdp_wmem","Wed Mar 15 2023 13:25:06 GMT-0600 (Mountain Daylight Time)","578130","Match,No Match","","null","","","","","","<div class='trialBorder'><div class='vertical-center'><img src='img/correct.jpg'></div><div class='respDiv'><div class='respDivL'>Match<br>(e)</div><div class='respDivR'><font style='color:orange'>No Match<br>(i)</font></div></div></div>","null","FEEDBACK","","","","","","","","","","",""
"html-keyboard-response","175","394720","0.0-7.0-1.28","62951043176ada9a9de2faa4","bdp_wmem","Wed Mar 15 2023 13:25:06 GMT-0600 (Mountain Daylight Time)","578130","Match,No Match","","null","","","","","","<div class='trialBorder'><div class='vertical-center'><img src='img/fixation2_sml.jpg'</img></div></div>","null","FIX","","","","","","","","","","",""
"html-keyboard-response","176","399225","0.0-7.0-2.28","62951043176ada9a9de2faa4","bdp_wmem","Wed Mar 15 2023 13:25:06 GMT-0600 (Mountain Daylight Time)","578130","Match,No Match","","null","","","","","","<div class='trialBorder'><div class='vertical-center'><img style='vertical-align:center; align:center' src='img/fixation2_sml.jpg'></div><div class='arrayDiv3'><div class='tl'><img class='introPic' src='trustrating_stim/white_mw042.bmp'><br><font color='green'><strong>Share</strong></font></div><div class='tc'><img class='introPic' src='trustrating_stim/white_mw012.bmp'><br><font color='green'><strong>Share</strong></font></div><div class='tr'><img class='introPic' src='trustrating_stim/white_mw040.bmp'><br><font color='red'><strong>Keep</strong></font></div></div></div>","null","ARRAY","3","trustrating_stim/white_mw042.bmp,trustrating_stim/white_mw012.bmp,trustrating_stim/white_mw040.bmp","1,1,0","noMatchOutcome","i","4500","","","","",""
"html-keyboard-response","177","403232","0.0-7.0-3.28","62951043176ada9a9de2faa4","bdp_wmem","Wed Mar 15 2023 13:25:06 GMT-0600 (Mountain Daylight Time)","578130","Match,No Match","","null","","","","","","<div class='trialBorder'><div class='vertical-center'><img src='img/fixation2_sml.jpg'</img></div></div>","null","DELAY","","","","","","","","","","",""
"html-keyboard-response","178","404711","0.0-7.0-4.28","62951043176ada9a9de2faa4","bdp_wmem","Wed Mar 15 2023 13:25:06 GMT-0600 (Mountain Daylight Time)","578130","Match,No Match","","1476","","","","","","<div class='trialBorder'><div class='targDiv'><div class='tc'><img class='introPic' src='trustrating_stim/white_mw042.bmp'><br><font color='red'><strong>Keep</strong></font></div></div><div class='respDiv'><div class='respDivL'>Match<br>(e)</div><div class='respDivR'>No Match<br>(i)</div></div></div>","i","TARGET","3","trustrating_stim/white_mw042.bmp,trustrating_stim/white_mw012.bmp,trustrating_stim/white_mw040.bmp","1,1,0","noMatchOutcome","i","4500","trustrating_stim/white_mw042.bmp","red","Keep","REAL","1"
"html-keyboard-response","179","405216","0.0-7.0-5.28","62951043176ada9a9de2faa4","bdp_wmem","Wed Mar 15 2023 13:25:06 GMT-0600 (Mountain Daylight Time)","578130","Match,No Match","","null","","","","","","<div class='trialBorder'><div class='vertical-center'><img src='img/correct.jpg'></div><div class='respDiv'><div class='respDivL'>Match<br>(e)</div><div class='respDivR'><font style='color:orange'>No Match<br>(i)</font></div></div></div>","null","FEEDBACK","","","","","","","","","","",""
"html-keyboard-response","180","405721","0.0-7.0-1.29","62951043176ada9a9de2faa4","bdp_wmem","Wed Mar 15 2023 13:25:06 GMT-0600 (Mountain Daylight Time)","578130","Match,No Match","","null","","","","","","<div class='trialBorder'><div class='vertical-center'><img src='img/fixation2_sml.jpg'</img></div></div>","null","FIX","","","","","","","","","","",""
"html-keyboard-response","181","408729","0.0-7.0-2.29","62951043176ada9a9de2faa4","bdp_wmem","Wed Mar 15 2023 13:25:06 GMT-0600 (Mountain Daylight Time)","578130","Match,No Match","","null","","","","","","<div class='trialBorder'><div class='vertical-center'><img style='vertical-align:center; align:center' src='img/fixation2_sml.jpg'></div><div class='arrayDiv2'><div class='tl'><img class='introPic' src='trustrating_stim/white_mw003.bmp'><br><font color='red'><strong>Keep</strong></font></div><div class='tr'><img class='introPic' src='trustrating_stim/white_mw042.bmp'><br><font color='green'><strong>Share</strong></font></div></div></div>","null","ARRAY","2","trustrating_stim/white_mw003.bmp,trustrating_stim/white_mw042.bmp","0,1","Match","e","3000","","","","",""
"html-keyboard-response","182","412736","0.0-7.0-3.29","62951043176ada9a9de2faa4","bdp_wmem","Wed Mar 15 2023 13:25:06 GMT-0600 (Mountain Daylight Time)","578130","Match,No Match","","null","","","","","","<div class='trialBorder'><div class='vertical-center'><img src='img/fixation2_sml.jpg'</img></div></div>","null","DELAY","","","","","","","","","","",""
"html-keyboard-response","183","413485","0.0-7.0-4.29","62951043176ada9a9de2faa4","bdp_wmem","Wed Mar 15 2023 13:25:06 GMT-0600 (Mountain Daylight Time)","578130","Match,No Match","","747","","","","","","<div class='trialBorder'><div class='targDiv'><div class='tc'><img class='introPic' src='trustrating_stim/white_mw003.bmp'><br><font color='red'><strong>Keep</strong></font></div></div><div class='respDiv'><div class='respDivL'>Match<br>(e)</div><div class='respDivR'>No Match<br>(i)</div></div></div>","e","TARGET","2","trustrating_stim/white_mw003.bmp,trustrating_stim/white_mw042.bmp","0,1","Match","e","3000","trustrating_stim/white_mw003.bmp","red","Keep","REAL","1"
"html-keyboard-response","184","413993","0.0-7.0-5.29","62951043176ada9a9de2faa4","bdp_wmem","Wed Mar 15 2023 13:25:06 GMT-0600 (Mountain Daylight Time)","578130","Match,No Match","","null","","","","","","<div class='trialBorder'><div class='vertical-center'><img src='img/correct.jpg'></div><div class='respDiv'><div class='respDivL'><font style='color:orange'>Match<br>(e)</font></div><div class='respDivR'>No Match<br>(i)</div></div></div>","null","FEEDBACK","","","","","","","","","","",""
"html-keyboard-response","185","414496","0.0-7.0-1.30","62951043176ada9a9de2faa4","bdp_wmem","Wed Mar 15 2023 13:25:06 GMT-0600 (Mountain Daylight Time)","578130","Match,No Match","","null","","","","","","<div class='trialBorder'><div class='vertical-center'><img src='img/fixation2_sml.jpg'</img></div></div>","null","FIX","","","","","","","","","","",""
"html-keyboard-response","186","417504","0.0-7.0-2.30","62951043176ada9a9de2faa4","bdp_wmem","Wed Mar 15 2023 13:25:06 GMT-0600 (Mountain Daylight Time)","578130","Match,No Match","","null","","","","","","<div class='trialBorder'><div class='vertical-center'><img style='vertical-align:center; align:center' src='img/fixation2_sml.jpg'></div><div class='arrayDiv2'><div class='tl'><img class='introPic' src='trustrating_stim/white_mw012.bmp'><br><font color='red'><strong>Keep</strong></font></div><div class='tr'><img class='introPic' src='trustrating_stim/white_mw010.bmp'><br><font color='green'><strong>Share</strong></font></div></div></div>","null","ARRAY","2","trustrating_stim/white_mw012.bmp,trustrating_stim/white_mw010.bmp","0,1","Match","e","3000","","","","",""
"html-keyboard-response","187","421512","0.0-7.0-3.30","62951043176ada9a9de2faa4","bdp_wmem","Wed Mar 15 2023 13:25:06 GMT-0600 (Mountain Daylight Time)","578130","Match,No Match","","null","","","","","","<div class='trialBorder'><div class='vertical-center'><img src='img/fixation2_sml.jpg'</img></div></div>","null","DELAY","","","","","","","","","","",""
