"trial_type","trial_index","time_elapsed","internal_node_id","subject_id","task","startTime","totalTime","labels","view_history","rt","event","trial","time","trialtype","success","stimulus","key_press","stimType","arraySize","arrayFaces","arrayOutcomes","matchType","corrResp","arrayDur","targFace","targCol","targOutcome","trialType","corr","numBlurs"
"pavlovia","0","12","0.0-0.0","60fdb99f392d7600a5d42c1f","bdp_wmem","Thu Jul 28 2022 09:13:38 GMT-0700 (Pacific Daylight Time)","1775134","Match,No Match","","","","","","","","","","","","","","","","","","","","","",""
"instructions","1","96561","0.0-1.0","60fdb99f392d7600a5d42c1f","bdp_wmem","Thu Jul 28 2022 09:13:38 GMT-0700 (Pacific Daylight Time)","1775134","Match,No Match","[{""page_index"":0,""viewing_time"":96548}]","96548","","","","","","","","","","","","","","","","","","","",""
"","","","","60fdb99f392d7600a5d42c1f","bdp_wmem","Thu Jul 28 2022 09:13:38 GMT-0700 (Pacific Daylight Time)","1775134","Match,No Match","","","fullscreenenter","2","101739","fullscreenenter","","","","","","","","","","","","","","","",""
"fullscreen","2","102692","0.0-2.0","60fdb99f392d7600a5d42c1f","bdp_wmem","Thu Jul 28 2022 09:13:38 GMT-0700 (Pacific Daylight Time)","1775134","Match,No Match","","","","","","","true","","","","","","","","","","","","","","",""
"","","","","60fdb99f392d7600a5d42c1f","bdp_wmem","Thu Jul 28 2022 09:13:38 GMT-0700 (Pacific Daylight Time)","1775134","Match,No Match","","","fullscreenexit","3","103346","fullscreenexit","","","","","","","","","","","","","","","",""
"instructions","3","415525","0.0-4.0","60fdb99f392d7600a5d42c1f","bdp_wmem","Thu Jul 28 2022 09:13:38 GMT-0700 (Pacific Daylight Time)","1775134","Match,No Match","[{""page_index"":0,""viewing_time"":22179},{""page_index"":1,""viewing_time"":112526},{""page_index"":2,""viewing_time"":9086},{""page_index"":3,""viewing_time"":5597},{""page_index"":4,""viewing_time"":163442}]","312831","","","","","","","","","","","","","","","","","","","",""
"html-keyboard-response","4","416029","0.0-5.0-1.0","60fdb99f392d7600a5d42c1f","bdp_wmem","Thu Jul 28 2022 09:13:38 GMT-0700 (Pacific Daylight Time)","1775134","Match,No Match","","null","","","","","","<div class='trialBorder'><div class='vertical-center'><img src='img/fixation2_sml.jpg'</img></div></div>","null","FIX","","","","","","","","","","","",""
"html-keyboard-response","5","417533","0.0-5.0-2.0","60fdb99f392d7600a5d42c1f","bdp_wmem","Thu Jul 28 2022 09:13:38 GMT-0700 (Pacific Daylight Time)","1775134","Match,No Match","","null","","","","","","<div class='trialBorder'><div class='vertical-center'><img style='vertical-align:center; align:center' src='img/fixation2_sml.jpg'></div><div class='arrayDiv1'><div class='tc'><img class='introPic' src='trustrating_stim/white_mw085.bmp'><br><font color='green'><strong>Share</strong></font></div></div></div>","null","ARRAY","1","trustrating_stim/white_mw085.bmp","1","noMatchFace","i","1500","","","","","",""
"html-keyboard-response","6","421536","0.0-5.0-3.0","60fdb99f392d7600a5d42c1f","bdp_wmem","Thu Jul 28 2022 09:13:38 GMT-0700 (Pacific Daylight Time)","1775134","Match,No Match","","null","","","","","","<div class='trialBorder'><div class='vertical-center'><img src='img/fixation2_sml.jpg'</img></div></div>","null","DELAY","","","","","","","","","","","",""
"html-keyboard-response","7","424501","0.0-5.0-4.0","60fdb99f392d7600a5d42c1f","bdp_wmem","Thu Jul 28 2022 09:13:38 GMT-0700 (Pacific Daylight Time)","1775134","Match,No Match","","2961","","","","","","<div class='trialBorder'><div class='targDiv'><div class='tc'><img class='introPic' src='trustrating_stim/white_mw042.bmp'><br><font color='green'><strong>Share</strong></font></div></div><div class='respDiv'><div class='respDivL'>Match<br>(e)</div><div class='respDivR'>No Match<br>(i)</div></div></div>","i","TARGET","1","trustrating_stim/white_mw085.bmp","1","noMatchFace","i","1500","trustrating_stim/white_mw042.bmp","green","Share","PRACTICE","1",""
"html-keyboard-response","8","425005","0.0-5.0-5.0","60fdb99f392d7600a5d42c1f","bdp_wmem","Thu Jul 28 2022 09:13:38 GMT-0700 (Pacific Daylight Time)","1775134","Match,No Match","","null","","","","","","<div class='trialBorder'><div class='vertical-center'><img src='img/correct.jpg'></div><div class='respDiv'><div class='respDivL'>Match<br>(e)</div><div class='respDivR'><font style='color:orange'>No Match<br>(i)</font></div></div></div>","null","FEEDBACK","","","","","","","","","","","",""
"html-keyboard-response","9","425508","0.0-5.0-1.1","60fdb99f392d7600a5d42c1f","bdp_wmem","Thu Jul 28 2022 09:13:38 GMT-0700 (Pacific Daylight Time)","1775134","Match,No Match","","null","","","","","","<div class='trialBorder'><div class='vertical-center'><img src='img/fixation2_sml.jpg'</img></div></div>","null","FIX","","","","","","","","","","","",""
"html-keyboard-response","10","427012","0.0-5.0-2.1","60fdb99f392d7600a5d42c1f","bdp_wmem","Thu Jul 28 2022 09:13:38 GMT-0700 (Pacific Daylight Time)","1775134","Match,No Match","","null","","","","","","<div class='trialBorder'><div class='vertical-center'><img style='vertical-align:center; align:center' src='img/fixation2_sml.jpg'></div><div class='arrayDiv1'><div class='tc'><img class='introPic' src='trustrating_stim/white_mw070.bmp'><br><font color='green'><strong>Share</strong></font></div></div></div>","null","ARRAY","1","trustrating_stim/white_mw070.bmp","1","Match","e","1500","","","","","",""
"html-keyboard-response","11","431015","0.0-5.0-3.1","60fdb99f392d7600a5d42c1f","bdp_wmem","Thu Jul 28 2022 09:13:38 GMT-0700 (Pacific Daylight Time)","1775134","Match,No Match","","null","","","","","","<div class='trialBorder'><div class='vertical-center'><img src='img/fixation2_sml.jpg'</img></div></div>","null","DELAY","","","","","","","","","","","",""
"html-keyboard-response","12","432279","0.0-5.0-4.1","60fdb99f392d7600a5d42c1f","bdp_wmem","Thu Jul 28 2022 09:13:38 GMT-0700 (Pacific Daylight Time)","1775134","Match,No Match","","1262","","","","","","<div class='trialBorder'><div class='targDiv'><div class='tc'><img class='introPic' src='trustrating_stim/white_mw070.bmp'><br><font color='green'><strong>Share</strong></font></div></div><div class='respDiv'><div class='respDivL'>Match<br>(e)</div><div class='respDivR'>No Match<br>(i)</div></div></div>","e","TARGET","1","trustrating_stim/white_mw070.bmp","1","Match","e","1500","trustrating_stim/white_mw070.bmp","green","Share","PRACTICE","1",""
"html-keyboard-response","13","432782","0.0-5.0-5.1","60fdb99f392d7600a5d42c1f","bdp_wmem","Thu Jul 28 2022 09:13:38 GMT-0700 (Pacific Daylight Time)","1775134","Match,No Match","","null","","","","","","<div class='trialBorder'><div class='vertical-center'><img src='img/correct.jpg'></div><div class='respDiv'><div class='respDivL'><font style='color:orange'>Match<br>(e)</font></div><div class='respDivR'>No Match<br>(i)</div></div></div>","null","FEEDBACK","","","","","","","","","","","",""
"html-keyboard-response","14","433285","0.0-5.0-1.2","60fdb99f392d7600a5d42c1f","bdp_wmem","Thu Jul 28 2022 09:13:38 GMT-0700 (Pacific Daylight Time)","1775134","Match,No Match","","null","","","","","","<div class='trialBorder'><div class='vertical-center'><img src='img/fixation2_sml.jpg'</img></div></div>","null","FIX","","","","","","","","","","","",""
"html-keyboard-response","15","437788","0.0-5.0-2.2","60fdb99f392d7600a5d42c1f","bdp_wmem","Thu Jul 28 2022 09:13:38 GMT-0700 (Pacific Daylight Time)","1775134","Match,No Match","","null","","","","","","<div class='trialBorder'><div class='vertical-center'><img style='vertical-align:center; align:center' src='img/fixation2_sml.jpg'></div><div class='arrayDiv3'><div class='tl'><img class='introPic' src='trustrating_stim/white_mw012.bmp'><br><font color='red'><strong>Keep</strong></font></div><div class='tc'><img class='introPic' src='trustrating_stim/white_mw010.bmp'><br><font color='green'><strong>Share</strong></font></div><div class='tr'><img class='introPic' src='trustrating_stim/white_mw040.bmp'><br><font color='red'><strong>Keep</strong></font></div></div></div>","null","ARRAY","3","trustrating_stim/white_mw012.bmp,trustrating_stim/white_mw010.bmp,trustrating_stim/white_mw040.bmp","0,1,0","noMatchOutcome","i","4500","","","","","",""
"html-keyboard-response","16","441791","0.0-5.0-3.2","60fdb99f392d7600a5d42c1f","bdp_wmem","Thu Jul 28 2022 09:13:38 GMT-0700 (Pacific Daylight Time)","1775134","Match,No Match","","null","","","","","","<div class='trialBorder'><div class='vertical-center'><img src='img/fixation2_sml.jpg'</img></div></div>","null","DELAY","","","","","","","","","","","",""
"html-keyboard-response","17","444702","0.0-5.0-4.2","60fdb99f392d7600a5d42c1f","bdp_wmem","Thu Jul 28 2022 09:13:38 GMT-0700 (Pacific Daylight Time)","1775134","Match,No Match","","2907","","","","","","<div class='trialBorder'><div class='targDiv'><div class='tc'><img class='introPic' src='trustrating_stim/white_mw010.bmp'><br><font color='red'><strong>Keep</strong></font></div></div><div class='respDiv'><div class='respDivL'>Match<br>(e)</div><div class='respDivR'>No Match<br>(i)</div></div></div>","i","TARGET","3","trustrating_stim/white_mw012.bmp,trustrating_stim/white_mw010.bmp,trustrating_stim/white_mw040.bmp","0,1,0","noMatchOutcome","i","4500","trustrating_stim/white_mw010.bmp","red","Keep","PRACTICE","1",""
"html-keyboard-response","18","445204","0.0-5.0-5.2","60fdb99f392d7600a5d42c1f","bdp_wmem","Thu Jul 28 2022 09:13:38 GMT-0700 (Pacific Daylight Time)","1775134","Match,No Match","","null","","","","","","<div class='trialBorder'><div class='vertical-center'><img src='img/correct.jpg'></div><div class='respDiv'><div class='respDivL'>Match<br>(e)</div><div class='respDivR'><font style='color:orange'>No Match<br>(i)</font></div></div></div>","null","FEEDBACK","","","","","","","","","","","",""
"html-keyboard-response","19","445707","0.0-5.0-1.3","60fdb99f392d7600a5d42c1f","bdp_wmem","Thu Jul 28 2022 09:13:38 GMT-0700 (Pacific Daylight Time)","1775134","Match,No Match","","null","","","","","","<div class='trialBorder'><div class='vertical-center'><img src='img/fixation2_sml.jpg'</img></div></div>","null","FIX","","","","","","","","","","","",""
"html-keyboard-response","20","450211","0.0-5.0-2.3","60fdb99f392d7600a5d42c1f","bdp_wmem","Thu Jul 28 2022 09:13:38 GMT-0700 (Pacific Daylight Time)","1775134","Match,No Match","","null","","","","","","<div class='trialBorder'><div class='vertical-center'><img style='vertical-align:center; align:center' src='img/fixation2_sml.jpg'></div><div class='arrayDiv3'><div class='tl'><img class='introPic' src='trustrating_stim/white_mw003.bmp'><br><font color='red'><strong>Keep</strong></font></div><div class='tc'><img class='introPic' src='trustrating_stim/white_mw038.bmp'><br><font color='green'><strong>Share</strong></font></div><div class='tr'><img class='introPic' src='trustrating_stim/white_mw042.bmp'><br><font color='red'><strong>Keep</strong></font></div></div></div>","null","ARRAY","3","trustrating_stim/white_mw003.bmp,trustrating_stim/white_mw038.bmp,trustrating_stim/white_mw042.bmp","0,1,0","Match","e","4500","","","","","",""
"html-keyboard-response","21","454214","0.0-5.0-3.3","60fdb99f392d7600a5d42c1f","bdp_wmem","Thu Jul 28 2022 09:13:38 GMT-0700 (Pacific Daylight Time)","1775134","Match,No Match","","null","","","","","","<div class='trialBorder'><div class='vertical-center'><img src='img/fixation2_sml.jpg'</img></div></div>","null","DELAY","","","","","","","","","","","",""
"html-keyboard-response","22","457713","0.0-5.0-4.3","60fdb99f392d7600a5d42c1f","bdp_wmem","Thu Jul 28 2022 09:13:38 GMT-0700 (Pacific Daylight Time)","1775134","Match,No Match","","3495","","","","","","<div class='trialBorder'><div class='targDiv'><div class='tc'><img class='introPic' src='trustrating_stim/white_mw038.bmp'><br><font color='green'><strong>Share</strong></font></div></div><div class='respDiv'><div class='respDivL'>Match<br>(e)</div><div class='respDivR'>No Match<br>(i)</div></div></div>","e","TARGET","3","trustrating_stim/white_mw003.bmp,trustrating_stim/white_mw038.bmp,trustrating_stim/white_mw042.bmp","0,1,0","Match","e","4500","trustrating_stim/white_mw038.bmp","green","Share","PRACTICE","1",""
"html-keyboard-response","23","458216","0.0-5.0-5.3","60fdb99f392d7600a5d42c1f","bdp_wmem","Thu Jul 28 2022 09:13:38 GMT-0700 (Pacific Daylight Time)","1775134","Match,No Match","","null","","","","","","<div class='trialBorder'><div class='vertical-center'><img src='img/correct.jpg'></div><div class='respDiv'><div class='respDivL'><font style='color:orange'>Match<br>(e)</font></div><div class='respDivR'>No Match<br>(i)</div></div></div>","null","FEEDBACK","","","","","","","","","","","",""
"html-keyboard-response","24","458717","0.0-5.0-1.4","60fdb99f392d7600a5d42c1f","bdp_wmem","Thu Jul 28 2022 09:13:38 GMT-0700 (Pacific Daylight Time)","1775134","Match,No Match","","null","","","","","","<div class='trialBorder'><div class='vertical-center'><img src='img/fixation2_sml.jpg'</img></div></div>","null","FIX","","","","","","","","","","","",""
"html-keyboard-response","25","461722","0.0-5.0-2.4","60fdb99f392d7600a5d42c1f","bdp_wmem","Thu Jul 28 2022 09:13:38 GMT-0700 (Pacific Daylight Time)","1775134","Match,No Match","","null","","","","","","<div class='trialBorder'><div class='vertical-center'><img style='vertical-align:center; align:center' src='img/fixation2_sml.jpg'></div><div class='arrayDiv2'><div class='tl'><img class='introPic' src='trustrating_stim/white_mw003.bmp'><br><font color='red'><strong>Keep</strong></font></div><div class='tr'><img class='introPic' src='trustrating_stim/white_mw042.bmp'><br><font color='green'><strong>Share</strong></font></div></div></div>","null","ARRAY","2","trustrating_stim/white_mw003.bmp,trustrating_stim/white_mw042.bmp","0,1","Match","e","3000","","","","","",""
"html-keyboard-response","26","465724","0.0-5.0-3.4","60fdb99f392d7600a5d42c1f","bdp_wmem","Thu Jul 28 2022 09:13:38 GMT-0700 (Pacific Daylight Time)","1775134","Match,No Match","","null","","","","","","<div class='trialBorder'><div class='vertical-center'><img src='img/fixation2_sml.jpg'</img></div></div>","null","DELAY","","","","","","","","","","","",""
"html-keyboard-response","27","467836","0.0-5.0-4.4","60fdb99f392d7600a5d42c1f","bdp_wmem","Thu Jul 28 2022 09:13:38 GMT-0700 (Pacific Daylight Time)","1775134","Match,No Match","","2109","","","","","","<div class='trialBorder'><div class='targDiv'><div class='tc'><img class='introPic' src='trustrating_stim/white_mw003.bmp'><br><font color='red'><strong>Keep</strong></font></div></div><div class='respDiv'><div class='respDivL'>Match<br>(e)</div><div class='respDivR'>No Match<br>(i)</div></div></div>","e","TARGET","2","trustrating_stim/white_mw003.bmp,trustrating_stim/white_mw042.bmp","0,1","Match","e","3000","trustrating_stim/white_mw003.bmp","red","Keep","PRACTICE","1",""
"html-keyboard-response","28","468340","0.0-5.0-5.4","60fdb99f392d7600a5d42c1f","bdp_wmem","Thu Jul 28 2022 09:13:38 GMT-0700 (Pacific Daylight Time)","1775134","Match,No Match","","null","","","","","","<div class='trialBorder'><div class='vertical-center'><img src='img/correct.jpg'></div><div class='respDiv'><div class='respDivL'><font style='color:orange'>Match<br>(e)</font></div><div class='respDivR'>No Match<br>(i)</div></div></div>","null","FEEDBACK","","","","","","","","","","","",""
"html-keyboard-response","29","468841","0.0-5.0-1.5","60fdb99f392d7600a5d42c1f","bdp_wmem","Thu Jul 28 2022 09:13:38 GMT-0700 (Pacific Daylight Time)","1775134","Match,No Match","","null","","","","","","<div class='trialBorder'><div class='vertical-center'><img src='img/fixation2_sml.jpg'</img></div></div>","null","FIX","","","","","","","","","","","",""
"html-keyboard-response","30","471846","0.0-5.0-2.5","60fdb99f392d7600a5d42c1f","bdp_wmem","Thu Jul 28 2022 09:13:38 GMT-0700 (Pacific Daylight Time)","1775134","Match,No Match","","null","","","","","","<div class='trialBorder'><div class='vertical-center'><img style='vertical-align:center; align:center' src='img/fixation2_sml.jpg'></div><div class='arrayDiv2'><div class='tl'><img class='introPic' src='trustrating_stim/white_mw085.bmp'><br><font color='green'><strong>Share</strong></font></div><div class='tr'><img class='introPic' src='trustrating_stim/white_mw003.bmp'><br><font color='red'><strong>Keep</strong></font></div></div></div>","null","ARRAY","2","trustrating_stim/white_mw085.bmp,trustrating_stim/white_mw003.bmp","1,0","noMatchOutcome","i","3000","","","","","",""
"html-keyboard-response","31","475848","0.0-5.0-3.5","60fdb99f392d7600a5d42c1f","bdp_wmem","Thu Jul 28 2022 09:13:38 GMT-0700 (Pacific Daylight Time)","1775134","Match,No Match","","null","","","","","","<div class='trialBorder'><div class='vertical-center'><img src='img/fixation2_sml.jpg'</img></div></div>","null","DELAY","","","","","","","","","","","",""
"html-keyboard-response","32","477200","0.0-5.0-4.5","60fdb99f392d7600a5d42c1f","bdp_wmem","Thu Jul 28 2022 09:13:38 GMT-0700 (Pacific Daylight Time)","1775134","Match,No Match","","1350","","","","","","<div class='trialBorder'><div class='targDiv'><div class='tc'><img class='introPic' src='trustrating_stim/white_mw003.bmp'><br><font color='green'><strong>Share</strong></font></div></div><div class='respDiv'><div class='respDivL'>Match<br>(e)</div><div class='respDivR'>No Match<br>(i)</div></div></div>","e","TARGET","2","trustrating_stim/white_mw085.bmp,trustrating_stim/white_mw003.bmp","1,0","noMatchOutcome","i","3000","trustrating_stim/white_mw003.bmp","green","Share","PRACTICE","0",""
"html-keyboard-response","33","477703","0.0-5.0-5.5","60fdb99f392d7600a5d42c1f","bdp_wmem","Thu Jul 28 2022 09:13:38 GMT-0700 (Pacific Daylight Time)","1775134","Match,No Match","","null","","","","","","<div class='trialBorder'><div class='vertical-center'><img src='img/error.jpg'></div><div class='respDiv'><div class='respDivL'><font style='color:orange'>Match<br>(e)</font></div><div class='respDivR'>No Match<br>(i)</div></div></div>","null","FEEDBACK","","","","","","","","","","","",""
"instructions","34","999725","0.0-6.0","60fdb99f392d7600a5d42c1f","bdp_wmem","Thu Jul 28 2022 09:13:38 GMT-0700 (Pacific Daylight Time)","1775134","Match,No Match","[{""page_index"":0,""viewing_time"":522020}]","522021","","","","","","","","","","","","","","","","","","","",""
"html-keyboard-response","35","1000228","0.0-7.0-1.0","60fdb99f392d7600a5d42c1f","bdp_wmem","Thu Jul 28 2022 09:13:38 GMT-0700 (Pacific Daylight Time)","1775134","Match,No Match","","null","","","","","","<div class='trialBorder'><div class='vertical-center'><img src='img/fixation2_sml.jpg'</img></div></div>","null","FIX","","","","","","","","","","","",""
"html-keyboard-response","36","1001733","0.0-7.0-2.0","60fdb99f392d7600a5d42c1f","bdp_wmem","Thu Jul 28 2022 09:13:38 GMT-0700 (Pacific Daylight Time)","1775134","Match,No Match","","null","","","","","","<div class='trialBorder'><div class='vertical-center'><img style='vertical-align:center; align:center' src='img/fixation2_sml.jpg'></div><div class='arrayDiv1'><div class='tc'><img class='introPic' src='trustrating_stim/white_mw092.bmp'><br><font color='green'><strong>Share</strong></font></div></div></div>","null","ARRAY","1","trustrating_stim/white_mw092.bmp","1","noMatchFace","i","1500","","","","","",""
"html-keyboard-response","37","1005735","0.0-7.0-3.0","60fdb99f392d7600a5d42c1f","bdp_wmem","Thu Jul 28 2022 09:13:38 GMT-0700 (Pacific Daylight Time)","1775134","Match,No Match","","null","","","","","","<div class='trialBorder'><div class='vertical-center'><img src='img/fixation2_sml.jpg'</img></div></div>","null","DELAY","","","","","","","","","","","",""
"html-keyboard-response","38","1033313","0.0-7.0-4.0","60fdb99f392d7600a5d42c1f","bdp_wmem","Thu Jul 28 2022 09:13:38 GMT-0700 (Pacific Daylight Time)","1775134","Match,No Match","","27576","","","","","","<div class='trialBorder'><div class='targDiv'><div class='tc'><img class='introPic' src='trustrating_stim/white_mw013.bmp'><br><font color='green'><strong>Share</strong></font></div></div><div class='respDiv'><div class='respDivL'>Match<br>(e)</div><div class='respDivR'>No Match<br>(i)</div></div></div>","i","TARGET","1","trustrating_stim/white_mw092.bmp","1","noMatchFace","i","1500","trustrating_stim/white_mw013.bmp","green","Share","REAL","1",""
"html-keyboard-response","39","1033816","0.0-7.0-5.0","60fdb99f392d7600a5d42c1f","bdp_wmem","Thu Jul 28 2022 09:13:38 GMT-0700 (Pacific Daylight Time)","1775134","Match,No Match","","null","","","","","","<div class='trialBorder'><div class='vertical-center'><img src='img/correct.jpg'></div><div class='respDiv'><div class='respDivL'>Match<br>(e)</div><div class='respDivR'><font style='color:orange'>No Match<br>(i)</font></div></div></div>","null","FEEDBACK","","","","","","","","","","","",""
"html-keyboard-response","40","1034319","0.0-7.0-1.1","60fdb99f392d7600a5d42c1f","bdp_wmem","Thu Jul 28 2022 09:13:38 GMT-0700 (Pacific Daylight Time)","1775134","Match,No Match","","null","","","","","","<div class='trialBorder'><div class='vertical-center'><img src='img/fixation2_sml.jpg'</img></div></div>","null","FIX","","","","","","","","","","","",""
"html-keyboard-response","41","1037323","0.0-7.0-2.1","60fdb99f392d7600a5d42c1f","bdp_wmem","Thu Jul 28 2022 09:13:38 GMT-0700 (Pacific Daylight Time)","1775134","Match,No Match","","null","","","","","","<div class='trialBorder'><div class='vertical-center'><img style='vertical-align:center; align:center' src='img/fixation2_sml.jpg'></div><div class='arrayDiv2'><div class='tl'><img class='introPic' src='trustrating_stim/white_mw038.bmp'><br><font color='red'><strong>Keep</strong></font></div><div class='tr'><img class='introPic' src='trustrating_stim/white_mw003.bmp'><br><font color='green'><strong>Share</strong></font></div></div></div>","null","ARRAY","2","trustrating_stim/white_mw038.bmp,trustrating_stim/white_mw003.bmp","0,1","Match","e","3000","","","","","",""
"html-keyboard-response","42","1041325","0.0-7.0-3.1","60fdb99f392d7600a5d42c1f","bdp_wmem","Thu Jul 28 2022 09:13:38 GMT-0700 (Pacific Daylight Time)","1775134","Match,No Match","","null","","","","","","<div class='trialBorder'><div class='vertical-center'><img src='img/fixation2_sml.jpg'</img></div></div>","null","DELAY","","","","","","","","","","","",""
"html-keyboard-response","43","1044085","0.0-7.0-4.1","60fdb99f392d7600a5d42c1f","bdp_wmem","Thu Jul 28 2022 09:13:38 GMT-0700 (Pacific Daylight Time)","1775134","Match,No Match","","2758","","","","","","<div class='trialBorder'><div class='targDiv'><div class='tc'><img class='introPic' src='trustrating_stim/white_mw038.bmp'><br><font color='red'><strong>Keep</strong></font></div></div><div class='respDiv'><div class='respDivL'>Match<br>(e)</div><div class='respDivR'>No Match<br>(i)</div></div></div>","i","TARGET","2","trustrating_stim/white_mw038.bmp,trustrating_stim/white_mw003.bmp","0,1","Match","e","3000","trustrating_stim/white_mw038.bmp","red","Keep","REAL","0",""
"html-keyboard-response","44","1044588","0.0-7.0-5.1","60fdb99f392d7600a5d42c1f","bdp_wmem","Thu Jul 28 2022 09:13:38 GMT-0700 (Pacific Daylight Time)","1775134","Match,No Match","","null","","","","","","<div class='trialBorder'><div class='vertical-center'><img src='img/error.jpg'></div><div class='respDiv'><div class='respDivL'>Match<br>(e)</div><div class='respDivR'><font style='color:orange'>No Match<br>(i)</font></div></div></div>","null","FEEDBACK","","","","","","","","","","","",""
"html-keyboard-response","45","1045090","0.0-7.0-1.2","60fdb99f392d7600a5d42c1f","bdp_wmem","Thu Jul 28 2022 09:13:38 GMT-0700 (Pacific Daylight Time)","1775134","Match,No Match","","null","","","","","","<div class='trialBorder'><div class='vertical-center'><img src='img/fixation2_sml.jpg'</img></div></div>","null","FIX","","","","","","","","","","","",""
"html-keyboard-response","46","1046594","0.0-7.0-2.2","60fdb99f392d7600a5d42c1f","bdp_wmem","Thu Jul 28 2022 09:13:38 GMT-0700 (Pacific Daylight Time)","1775134","Match,No Match","","null","","","","","","<div class='trialBorder'><div class='vertical-center'><img style='vertical-align:center; align:center' src='img/fixation2_sml.jpg'></div><div class='arrayDiv1'><div class='tc'><img class='introPic' src='trustrating_stim/white_mw012.bmp'><br><font color='red'><strong>Keep</strong></font></div></div></div>","null","ARRAY","1","trustrating_stim/white_mw012.bmp","0","noMatchOutcome","i","1500","","","","","",""
"html-keyboard-response","47","1050596","0.0-7.0-3.2","60fdb99f392d7600a5d42c1f","bdp_wmem","Thu Jul 28 2022 09:13:38 GMT-0700 (Pacific Daylight Time)","1775134","Match,No Match","","null","","","","","","<div class='trialBorder'><div class='vertical-center'><img src='img/fixation2_sml.jpg'</img></div></div>","null","DELAY","","","","","","","","","","","",""
"html-keyboard-response","48","1052283","0.0-7.0-4.2","60fdb99f392d7600a5d42c1f","bdp_wmem","Thu Jul 28 2022 09:13:38 GMT-0700 (Pacific Daylight Time)","1775134","Match,No Match","","1684","","","","","","<div class='trialBorder'><div class='targDiv'><div class='tc'><img class='introPic' src='trustrating_stim/white_mw012.bmp'><br><font color='green'><strong>Share</strong></font></div></div><div class='respDiv'><div class='respDivL'>Match<br>(e)</div><div class='respDivR'>No Match<br>(i)</div></div></div>","i","TARGET","1","trustrating_stim/white_mw012.bmp","0","noMatchOutcome","i","1500","trustrating_stim/white_mw012.bmp","green","Share","REAL","1",""
"html-keyboard-response","49","1052785","0.0-7.0-5.2","60fdb99f392d7600a5d42c1f","bdp_wmem","Thu Jul 28 2022 09:13:38 GMT-0700 (Pacific Daylight Time)","1775134","Match,No Match","","null","","","","","","<div class='trialBorder'><div class='vertical-center'><img src='img/correct.jpg'></div><div class='respDiv'><div class='respDivL'>Match<br>(e)</div><div class='respDivR'><font style='color:orange'>No Match<br>(i)</font></div></div></div>","null","FEEDBACK","","","","","","","","","","","",""
"html-keyboard-response","50","1053287","0.0-7.0-1.3","60fdb99f392d7600a5d42c1f","bdp_wmem","Thu Jul 28 2022 09:13:38 GMT-0700 (Pacific Daylight Time)","1775134","Match,No Match","","null","","","","","","<div class='trialBorder'><div class='vertical-center'><img src='img/fixation2_sml.jpg'</img></div></div>","null","FIX","","","","","","","","","","","",""
"html-keyboard-response","51","1057790","0.0-7.0-2.3","60fdb99f392d7600a5d42c1f","bdp_wmem","Thu Jul 28 2022 09:13:38 GMT-0700 (Pacific Daylight Time)","1775134","Match,No Match","","null","","","","","","<div class='trialBorder'><div class='vertical-center'><img style='vertical-align:center; align:center' src='img/fixation2_sml.jpg'></div><div class='arrayDiv3'><div class='tl'><img class='introPic' src='trustrating_stim/white_mw010.bmp'><br><font color='green'><strong>Share</strong></font></div><div class='tc'><img class='introPic' src='trustrating_stim/white_mw012.bmp'><br><font color='red'><strong>Keep</strong></font></div><div class='tr'><img class='introPic' src='trustrating_stim/white_mw013.bmp'><br><font color='red'><strong>Keep</strong></font></div></div></div>","null","ARRAY","3","trustrating_stim/white_mw010.bmp,trustrating_stim/white_mw012.bmp,trustrating_stim/white_mw013.bmp","1,0,0","noMatchOutcome","i","4500","","","","","",""
"html-keyboard-response","52","1061792","0.0-7.0-3.3","60fdb99f392d7600a5d42c1f","bdp_wmem","Thu Jul 28 2022 09:13:38 GMT-0700 (Pacific Daylight Time)","1775134","Match,No Match","","null","","","","","","<div class='trialBorder'><div class='vertical-center'><img src='img/fixation2_sml.jpg'</img></div></div>","null","DELAY","","","","","","","","","","","",""
"html-keyboard-response","53","1069795","0.0-7.0-4.3","60fdb99f392d7600a5d42c1f","bdp_wmem","Thu Jul 28 2022 09:13:38 GMT-0700 (Pacific Daylight Time)","1775134","Match,No Match","","8000","","","","","","<div class='trialBorder'><div class='targDiv'><div class='tc'><img class='introPic' src='trustrating_stim/white_mw013.bmp'><br><font color='green'><strong>Share</strong></font></div></div><div class='respDiv'><div class='respDivL'>Match<br>(e)</div><div class='respDivR'>No Match<br>(i)</div></div></div>","i","TARGET","3","trustrating_stim/white_mw010.bmp,trustrating_stim/white_mw012.bmp,trustrating_stim/white_mw013.bmp","1,0,0","noMatchOutcome","i","4500","trustrating_stim/white_mw013.bmp","green","Share","REAL","1",""
"html-keyboard-response","54","1070297","0.0-7.0-5.3","60fdb99f392d7600a5d42c1f","bdp_wmem","Thu Jul 28 2022 09:13:38 GMT-0700 (Pacific Daylight Time)","1775134","Match,No Match","","null","","","","","","<div class='trialBorder'><div class='vertical-center'><img src='img/correct.jpg'></div><div class='respDiv'><div class='respDivL'>Match<br>(e)</div><div class='respDivR'><font style='color:orange'>No Match<br>(i)</font></div></div></div>","null","FEEDBACK","","","","","","","","","","","",""
"html-keyboard-response","55","1070800","0.0-7.0-1.4","60fdb99f392d7600a5d42c1f","bdp_wmem","Thu Jul 28 2022 09:13:38 GMT-0700 (Pacific Daylight Time)","1775134","Match,No Match","","null","","","","","","<div class='trialBorder'><div class='vertical-center'><img src='img/fixation2_sml.jpg'</img></div></div>","null","FIX","","","","","","","","","","","",""
"html-keyboard-response","56","1072304","0.0-7.0-2.4","60fdb99f392d7600a5d42c1f","bdp_wmem","Thu Jul 28 2022 09:13:38 GMT-0700 (Pacific Daylight Time)","1775134","Match,No Match","","null","","","","","","<div class='trialBorder'><div class='vertical-center'><img style='vertical-align:center; align:center' src='img/fixation2_sml.jpg'></div><div class='arrayDiv1'><div class='tc'><img class='introPic' src='trustrating_stim/white_mw010.bmp'><br><font color='green'><strong>Share</strong></font></div></div></div>","null","ARRAY","1","trustrating_stim/white_mw010.bmp","1","Match","e","1500","","","","","",""
"html-keyboard-response","57","1076306","0.0-7.0-3.4","60fdb99f392d7600a5d42c1f","bdp_wmem","Thu Jul 28 2022 09:13:38 GMT-0700 (Pacific Daylight Time)","1775134","Match,No Match","","null","","","","","","<div class='trialBorder'><div class='vertical-center'><img src='img/fixation2_sml.jpg'</img></div></div>","null","DELAY","","","","","","","","","","","",""
"html-keyboard-response","58","1078589","0.0-7.0-4.4","60fdb99f392d7600a5d42c1f","bdp_wmem","Thu Jul 28 2022 09:13:38 GMT-0700 (Pacific Daylight Time)","1775134","Match,No Match","","2279","","","","","","<div class='trialBorder'><div class='targDiv'><div class='tc'><img class='introPic' src='trustrating_stim/white_mw010.bmp'><br><font color='green'><strong>Share</strong></font></div></div><div class='respDiv'><div class='respDivL'>Match<br>(e)</div><div class='respDivR'>No Match<br>(i)</div></div></div>","e","TARGET","1","trustrating_stim/white_mw010.bmp","1","Match","e","1500","trustrating_stim/white_mw010.bmp","green","Share","REAL","1",""
"html-keyboard-response","59","1079091","0.0-7.0-5.4","60fdb99f392d7600a5d42c1f","bdp_wmem","Thu Jul 28 2022 09:13:38 GMT-0700 (Pacific Daylight Time)","1775134","Match,No Match","","null","","","","","","<div class='trialBorder'><div class='vertical-center'><img src='img/correct.jpg'></div><div class='respDiv'><div class='respDivL'><font style='color:orange'>Match<br>(e)</font></div><div class='respDivR'>No Match<br>(i)</div></div></div>","null","FEEDBACK","","","","","","","","","","","",""
"html-keyboard-response","60","1079595","0.0-7.0-1.5","60fdb99f392d7600a5d42c1f","bdp_wmem","Thu Jul 28 2022 09:13:38 GMT-0700 (Pacific Daylight Time)","1775134","Match,No Match","","null","","","","","","<div class='trialBorder'><div class='vertical-center'><img src='img/fixation2_sml.jpg'</img></div></div>","null","FIX","","","","","","","","","","","",""
"html-keyboard-response","61","1084099","0.0-7.0-2.5","60fdb99f392d7600a5d42c1f","bdp_wmem","Thu Jul 28 2022 09:13:38 GMT-0700 (Pacific Daylight Time)","1775134","Match,No Match","","null","","","","","","<div class='trialBorder'><div class='vertical-center'><img style='vertical-align:center; align:center' src='img/fixation2_sml.jpg'></div><div class='arrayDiv3'><div class='tl'><img class='introPic' src='trustrating_stim/white_mw042.bmp'><br><font color='red'><strong>Keep</strong></font></div><div class='tc'><img class='introPic' src='trustrating_stim/white_mw010.bmp'><br><font color='green'><strong>Share</strong></font></div><div class='tr'><img class='introPic' src='trustrating_stim/white_mw070.bmp'><br><font color='green'><strong>Share</strong></font></div></div></div>","null","ARRAY","3","trustrating_stim/white_mw042.bmp,trustrating_stim/white_mw010.bmp,trustrating_stim/white_mw070.bmp","0,1,1","Match","e","4500","","","","","",""
"html-keyboard-response","62","1088103","0.0-7.0-3.5","60fdb99f392d7600a5d42c1f","bdp_wmem","Thu Jul 28 2022 09:13:38 GMT-0700 (Pacific Daylight Time)","1775134","Match,No Match","","null","","","","","","<div class='trialBorder'><div class='vertical-center'><img src='img/fixation2_sml.jpg'</img></div></div>","null","DELAY","","","","","","","","","","","",""
"html-keyboard-response","63","1092384","0.0-7.0-4.5","60fdb99f392d7600a5d42c1f","bdp_wmem","Thu Jul 28 2022 09:13:38 GMT-0700 (Pacific Daylight Time)","1775134","Match,No Match","","4279","","","","","","<div class='trialBorder'><div class='targDiv'><div class='tc'><img class='introPic' src='trustrating_stim/white_mw042.bmp'><br><font color='red'><strong>Keep</strong></font></div></div><div class='respDiv'><div class='respDivL'>Match<br>(e)</div><div class='respDivR'>No Match<br>(i)</div></div></div>","e","TARGET","3","trustrating_stim/white_mw042.bmp,trustrating_stim/white_mw010.bmp,trustrating_stim/white_mw070.bmp","0,1,1","Match","e","4500","trustrating_stim/white_mw042.bmp","red","Keep","REAL","1",""
"html-keyboard-response","64","1092887","0.0-7.0-5.5","60fdb99f392d7600a5d42c1f","bdp_wmem","Thu Jul 28 2022 09:13:38 GMT-0700 (Pacific Daylight Time)","1775134","Match,No Match","","null","","","","","","<div class='trialBorder'><div class='vertical-center'><img src='img/correct.jpg'></div><div class='respDiv'><div class='respDivL'><font style='color:orange'>Match<br>(e)</font></div><div class='respDivR'>No Match<br>(i)</div></div></div>","null","FEEDBACK","","","","","","","","","","","",""
"html-keyboard-response","65","1093390","0.0-7.0-1.6","60fdb99f392d7600a5d42c1f","bdp_wmem","Thu Jul 28 2022 09:13:38 GMT-0700 (Pacific Daylight Time)","1775134","Match,No Match","","null","","","","","","<div class='trialBorder'><div class='vertical-center'><img src='img/fixation2_sml.jpg'</img></div></div>","null","FIX","","","","","","","","","","","",""
"html-keyboard-response","66","1097894","0.0-7.0-2.6","60fdb99f392d7600a5d42c1f","bdp_wmem","Thu Jul 28 2022 09:13:38 GMT-0700 (Pacific Daylight Time)","1775134","Match,No Match","","null","","","","","","<div class='trialBorder'><div class='vertical-center'><img style='vertical-align:center; align:center' src='img/fixation2_sml.jpg'></div><div class='arrayDiv3'><div class='tl'><img class='introPic' src='trustrating_stim/white_mw092.bmp'><br><font color='green'><strong>Share</strong></font></div><div class='tc'><img class='introPic' src='trustrating_stim/white_mw091.bmp'><br><font color='red'><strong>Keep</strong></font></div><div class='tr'><img class='introPic' src='trustrating_stim/white_mw013.bmp'><br><font color='red'><strong>Keep</strong></font></div></div></div>","null","ARRAY","3","trustrating_stim/white_mw092.bmp,trustrating_stim/white_mw091.bmp,trustrating_stim/white_mw013.bmp","1,0,0","noMatchFace","i","4500","","","","","",""
"html-keyboard-response","67","1101895","0.0-7.0-3.6","60fdb99f392d7600a5d42c1f","bdp_wmem","Thu Jul 28 2022 09:13:38 GMT-0700 (Pacific Daylight Time)","1775134","Match,No Match","","null","","","","","","<div class='trialBorder'><div class='vertical-center'><img src='img/fixation2_sml.jpg'</img></div></div>","null","DELAY","","","","","","","","","","","",""
"html-keyboard-response","68","1104072","0.0-7.0-4.6","60fdb99f392d7600a5d42c1f","bdp_wmem","Thu Jul 28 2022 09:13:38 GMT-0700 (Pacific Daylight Time)","1775134","Match,No Match","","2173","","","","","","<div class='trialBorder'><div class='targDiv'><div class='tc'><img class='introPic' src='trustrating_stim/white_mw012.bmp'><br><font color='red'><strong>Keep</strong></font></div></div><div class='respDiv'><div class='respDivL'>Match<br>(e)</div><div class='respDivR'>No Match<br>(i)</div></div></div>","i","TARGET","3","trustrating_stim/white_mw092.bmp,trustrating_stim/white_mw091.bmp,trustrating_stim/white_mw013.bmp","1,0,0","noMatchFace","i","4500","trustrating_stim/white_mw012.bmp","red","Keep","REAL","1",""
"html-keyboard-response","69","1104575","0.0-7.0-5.6","60fdb99f392d7600a5d42c1f","bdp_wmem","Thu Jul 28 2022 09:13:38 GMT-0700 (Pacific Daylight Time)","1775134","Match,No Match","","null","","","","","","<div class='trialBorder'><div class='vertical-center'><img src='img/correct.jpg'></div><div class='respDiv'><div class='respDivL'>Match<br>(e)</div><div class='respDivR'><font style='color:orange'>No Match<br>(i)</font></div></div></div>","null","FEEDBACK","","","","","","","","","","","",""
"html-keyboard-response","70","1105077","0.0-7.0-1.7","60fdb99f392d7600a5d42c1f","bdp_wmem","Thu Jul 28 2022 09:13:38 GMT-0700 (Pacific Daylight Time)","1775134","Match,No Match","","null","","","","","","<div class='trialBorder'><div class='vertical-center'><img src='img/fixation2_sml.jpg'</img></div></div>","null","FIX","","","","","","","","","","","",""
"html-keyboard-response","71","1106582","0.0-7.0-2.7","60fdb99f392d7600a5d42c1f","bdp_wmem","Thu Jul 28 2022 09:13:38 GMT-0700 (Pacific Daylight Time)","1775134","Match,No Match","","null","","","","","","<div class='trialBorder'><div class='vertical-center'><img style='vertical-align:center; align:center' src='img/fixation2_sml.jpg'></div><div class='arrayDiv1'><div class='tc'><img class='introPic' src='trustrating_stim/white_mw012.bmp'><br><font color='green'><strong>Share</strong></font></div></div></div>","null","ARRAY","1","trustrating_stim/white_mw012.bmp","1","Match","e","1500","","","","","",""
"html-keyboard-response","72","1110584","0.0-7.0-3.7","60fdb99f392d7600a5d42c1f","bdp_wmem","Thu Jul 28 2022 09:13:38 GMT-0700 (Pacific Daylight Time)","1775134","Match,No Match","","null","","","","","","<div class='trialBorder'><div class='vertical-center'><img src='img/fixation2_sml.jpg'</img></div></div>","null","DELAY","","","","","","","","","","","",""
"html-keyboard-response","73","1111854","0.0-7.0-4.7","60fdb99f392d7600a5d42c1f","bdp_wmem","Thu Jul 28 2022 09:13:38 GMT-0700 (Pacific Daylight Time)","1775134","Match,No Match","","1268","","","","","","<div class='trialBorder'><div class='targDiv'><div class='tc'><img class='introPic' src='trustrating_stim/white_mw012.bmp'><br><font color='green'><strong>Share</strong></font></div></div><div class='respDiv'><div class='respDivL'>Match<br>(e)</div><div class='respDivR'>No Match<br>(i)</div></div></div>","e","TARGET","1","trustrating_stim/white_mw012.bmp","1","Match","e","1500","trustrating_stim/white_mw012.bmp","green","Share","REAL","1",""
"html-keyboard-response","74","1112357","0.0-7.0-5.7","60fdb99f392d7600a5d42c1f","bdp_wmem","Thu Jul 28 2022 09:13:38 GMT-0700 (Pacific Daylight Time)","1775134","Match,No Match","","null","","","","","","<div class='trialBorder'><div class='vertical-center'><img src='img/correct.jpg'></div><div class='respDiv'><div class='respDivL'><font style='color:orange'>Match<br>(e)</font></div><div class='respDivR'>No Match<br>(i)</div></div></div>","null","FEEDBACK","","","","","","","","","","","",""
"html-keyboard-response","75","1112859","0.0-7.0-1.8","60fdb99f392d7600a5d42c1f","bdp_wmem","Thu Jul 28 2022 09:13:38 GMT-0700 (Pacific Daylight Time)","1775134","Match,No Match","","null","","","","","","<div class='trialBorder'><div class='vertical-center'><img src='img/fixation2_sml.jpg'</img></div></div>","null","FIX","","","","","","","","","","","",""
"html-keyboard-response","76","1117362","0.0-7.0-2.8","60fdb99f392d7600a5d42c1f","bdp_wmem","Thu Jul 28 2022 09:13:38 GMT-0700 (Pacific Daylight Time)","1775134","Match,No Match","","null","","","","","","<div class='trialBorder'><div class='vertical-center'><img style='vertical-align:center; align:center' src='img/fixation2_sml.jpg'></div><div class='arrayDiv3'><div class='tl'><img class='introPic' src='trustrating_stim/white_mw040.bmp'><br><font color='green'><strong>Share</strong></font></div><div class='tc'><img class='introPic' src='trustrating_stim/white_mw092.bmp'><br><font color='red'><strong>Keep</strong></font></div><div class='tr'><img class='introPic' src='trustrating_stim/white_mw013.bmp'><br><font color='green'><strong>Share</strong></font></div></div></div>","null","ARRAY","3","trustrating_stim/white_mw040.bmp,trustrating_stim/white_mw092.bmp,trustrating_stim/white_mw013.bmp","1,0,1","Match","e","4500","","","","","",""
"html-keyboard-response","77","1121365","0.0-7.0-3.8","60fdb99f392d7600a5d42c1f","bdp_wmem","Thu Jul 28 2022 09:13:38 GMT-0700 (Pacific Daylight Time)","1775134","Match,No Match","","null","","","","","","<div class='trialBorder'><div class='vertical-center'><img src='img/fixation2_sml.jpg'</img></div></div>","null","DELAY","","","","","","","","","","","",""
"html-keyboard-response","78","1123247","0.0-7.0-4.8","60fdb99f392d7600a5d42c1f","bdp_wmem","Thu Jul 28 2022 09:13:38 GMT-0700 (Pacific Daylight Time)","1775134","Match,No Match","","1878","","","","","","<div class='trialBorder'><div class='targDiv'><div class='tc'><img class='introPic' src='trustrating_stim/white_mw040.bmp'><br><font color='green'><strong>Share</strong></font></div></div><div class='respDiv'><div class='respDivL'>Match<br>(e)</div><div class='respDivR'>No Match<br>(i)</div></div></div>","e","TARGET","3","trustrating_stim/white_mw040.bmp,trustrating_stim/white_mw092.bmp,trustrating_stim/white_mw013.bmp","1,0,1","Match","e","4500","trustrating_stim/white_mw040.bmp","green","Share","REAL","1",""
"html-keyboard-response","79","1123749","0.0-7.0-5.8","60fdb99f392d7600a5d42c1f","bdp_wmem","Thu Jul 28 2022 09:13:38 GMT-0700 (Pacific Daylight Time)","1775134","Match,No Match","","null","","","","","","<div class='trialBorder'><div class='vertical-center'><img src='img/correct.jpg'></div><div class='respDiv'><div class='respDivL'><font style='color:orange'>Match<br>(e)</font></div><div class='respDivR'>No Match<br>(i)</div></div></div>","null","FEEDBACK","","","","","","","","","","","",""
"html-keyboard-response","80","1124252","0.0-7.0-1.9","60fdb99f392d7600a5d42c1f","bdp_wmem","Thu Jul 28 2022 09:13:38 GMT-0700 (Pacific Daylight Time)","1775134","Match,No Match","","null","","","","","","<div class='trialBorder'><div class='vertical-center'><img src='img/fixation2_sml.jpg'</img></div></div>","null","FIX","","","","","","","","","","","",""
"html-keyboard-response","81","1127255","0.0-7.0-2.9","60fdb99f392d7600a5d42c1f","bdp_wmem","Thu Jul 28 2022 09:13:38 GMT-0700 (Pacific Daylight Time)","1775134","Match,No Match","","null","","","","","","<div class='trialBorder'><div class='vertical-center'><img style='vertical-align:center; align:center' src='img/fixation2_sml.jpg'></div><div class='arrayDiv2'><div class='tl'><img class='introPic' src='trustrating_stim/white_mw038.bmp'><br><font color='green'><strong>Share</strong></font></div><div class='tr'><img class='introPic' src='trustrating_stim/white_mw003.bmp'><br><font color='red'><strong>Keep</strong></font></div></div></div>","null","ARRAY","2","trustrating_stim/white_mw038.bmp,trustrating_stim/white_mw003.bmp","1,0","noMatchFace","i","3000","","","","","",""
"html-keyboard-response","82","1131258","0.0-7.0-3.9","60fdb99f392d7600a5d42c1f","bdp_wmem","Thu Jul 28 2022 09:13:38 GMT-0700 (Pacific Daylight Time)","1775134","Match,No Match","","null","","","","","","<div class='trialBorder'><div class='vertical-center'><img src='img/fixation2_sml.jpg'</img></div></div>","null","DELAY","","","","","","","","","","","",""
"html-keyboard-response","83","1133339","0.0-7.0-4.9","60fdb99f392d7600a5d42c1f","bdp_wmem","Thu Jul 28 2022 09:13:38 GMT-0700 (Pacific Daylight Time)","1775134","Match,No Match","","2077","","","","","","<div class='trialBorder'><div class='targDiv'><div class='tc'><img class='introPic' src='trustrating_stim/white_mw092.bmp'><br><font color='green'><strong>Share</strong></font></div></div><div class='respDiv'><div class='respDivL'>Match<br>(e)</div><div class='respDivR'>No Match<br>(i)</div></div></div>","i","TARGET","2","trustrating_stim/white_mw038.bmp,trustrating_stim/white_mw003.bmp","1,0","noMatchFace","i","3000","trustrating_stim/white_mw092.bmp","green","Share","REAL","1",""
"html-keyboard-response","84","1133841","0.0-7.0-5.9","60fdb99f392d7600a5d42c1f","bdp_wmem","Thu Jul 28 2022 09:13:38 GMT-0700 (Pacific Daylight Time)","1775134","Match,No Match","","null","","","","","","<div class='trialBorder'><div class='vertical-center'><img src='img/correct.jpg'></div><div class='respDiv'><div class='respDivL'>Match<br>(e)</div><div class='respDivR'><font style='color:orange'>No Match<br>(i)</font></div></div></div>","null","FEEDBACK","","","","","","","","","","","",""
"html-keyboard-response","85","1134344","0.0-7.0-1.10","60fdb99f392d7600a5d42c1f","bdp_wmem","Thu Jul 28 2022 09:13:38 GMT-0700 (Pacific Daylight Time)","1775134","Match,No Match","","null","","","","","","<div class='trialBorder'><div class='vertical-center'><img src='img/fixation2_sml.jpg'</img></div></div>","null","FIX","","","","","","","","","","","",""
"html-keyboard-response","86","1135847","0.0-7.0-2.10","60fdb99f392d7600a5d42c1f","bdp_wmem","Thu Jul 28 2022 09:13:38 GMT-0700 (Pacific Daylight Time)","1775134","Match,No Match","","null","","","","","","<div class='trialBorder'><div class='vertical-center'><img style='vertical-align:center; align:center' src='img/fixation2_sml.jpg'></div><div class='arrayDiv1'><div class='tc'><img class='introPic' src='trustrating_stim/white_mw042.bmp'><br><font color='red'><strong>Keep</strong></font></div></div></div>","null","ARRAY","1","trustrating_stim/white_mw042.bmp","0","noMatchFace","i","1500","","","","","",""
"html-keyboard-response","87","1139848","0.0-7.0-3.10","60fdb99f392d7600a5d42c1f","bdp_wmem","Thu Jul 28 2022 09:13:38 GMT-0700 (Pacific Daylight Time)","1775134","Match,No Match","","null","","","","","","<div class='trialBorder'><div class='vertical-center'><img src='img/fixation2_sml.jpg'</img></div></div>","null","DELAY","","","","","","","","","","","",""
"html-keyboard-response","88","1141603","0.0-7.0-4.10","60fdb99f392d7600a5d42c1f","bdp_wmem","Thu Jul 28 2022 09:13:38 GMT-0700 (Pacific Daylight Time)","1775134","Match,No Match","","1750","","","","","","<div class='trialBorder'><div class='targDiv'><div class='tc'><img class='introPic' src='trustrating_stim/white_mw040.bmp'><br><font color='red'><strong>Keep</strong></font></div></div><div class='respDiv'><div class='respDivL'>Match<br>(e)</div><div class='respDivR'>No Match<br>(i)</div></div></div>","i","TARGET","1","trustrating_stim/white_mw042.bmp","0","noMatchFace","i","1500","trustrating_stim/white_mw040.bmp","red","Keep","REAL","1",""
"html-keyboard-response","89","1142106","0.0-7.0-5.10","60fdb99f392d7600a5d42c1f","bdp_wmem","Thu Jul 28 2022 09:13:38 GMT-0700 (Pacific Daylight Time)","1775134","Match,No Match","","null","","","","","","<div class='trialBorder'><div class='vertical-center'><img src='img/correct.jpg'></div><div class='respDiv'><div class='respDivL'>Match<br>(e)</div><div class='respDivR'><font style='color:orange'>No Match<br>(i)</font></div></div></div>","null","FEEDBACK","","","","","","","","","","","",""
"html-keyboard-response","90","1142608","0.0-7.0-1.11","60fdb99f392d7600a5d42c1f","bdp_wmem","Thu Jul 28 2022 09:13:38 GMT-0700 (Pacific Daylight Time)","1775134","Match,No Match","","null","","","","","","<div class='trialBorder'><div class='vertical-center'><img src='img/fixation2_sml.jpg'</img></div></div>","null","FIX","","","","","","","","","","","",""
"html-keyboard-response","91","1144110","0.0-7.0-2.11","60fdb99f392d7600a5d42c1f","bdp_wmem","Thu Jul 28 2022 09:13:38 GMT-0700 (Pacific Daylight Time)","1775134","Match,No Match","","null","","","","","","<div class='trialBorder'><div class='vertical-center'><img style='vertical-align:center; align:center' src='img/fixation2_sml.jpg'></div><div class='arrayDiv1'><div class='tc'><img class='introPic' src='trustrating_stim/white_mw042.bmp'><br><font color='green'><strong>Share</strong></font></div></div></div>","null","ARRAY","1","trustrating_stim/white_mw042.bmp","1","Match","e","1500","","","","","",""
"html-keyboard-response","92","1148113","0.0-7.0-3.11","60fdb99f392d7600a5d42c1f","bdp_wmem","Thu Jul 28 2022 09:13:38 GMT-0700 (Pacific Daylight Time)","1775134","Match,No Match","","null","","","","","","<div class='trialBorder'><div class='vertical-center'><img src='img/fixation2_sml.jpg'</img></div></div>","null","DELAY","","","","","","","","","","","",""
"html-keyboard-response","93","1149966","0.0-7.0-4.11","60fdb99f392d7600a5d42c1f","bdp_wmem","Thu Jul 28 2022 09:13:38 GMT-0700 (Pacific Daylight Time)","1775134","Match,No Match","","1851","","","","","","<div class='trialBorder'><div class='targDiv'><div class='tc'><img class='introPic' src='trustrating_stim/white_mw042.bmp'><br><font color='green'><strong>Share</strong></font></div></div><div class='respDiv'><div class='respDivL'>Match<br>(e)</div><div class='respDivR'>No Match<br>(i)</div></div></div>","e","TARGET","1","trustrating_stim/white_mw042.bmp","1","Match","e","1500","trustrating_stim/white_mw042.bmp","green","Share","REAL","1",""
"html-keyboard-response","94","1150469","0.0-7.0-5.11","60fdb99f392d7600a5d42c1f","bdp_wmem","Thu Jul 28 2022 09:13:38 GMT-0700 (Pacific Daylight Time)","1775134","Match,No Match","","null","","","","","","<div class='trialBorder'><div class='vertical-center'><img src='img/correct.jpg'></div><div class='respDiv'><div class='respDivL'><font style='color:orange'>Match<br>(e)</font></div><div class='respDivR'>No Match<br>(i)</div></div></div>","null","FEEDBACK","","","","","","","","","","","",""
"html-keyboard-response","95","1150971","0.0-7.0-1.12","60fdb99f392d7600a5d42c1f","bdp_wmem","Thu Jul 28 2022 09:13:38 GMT-0700 (Pacific Daylight Time)","1775134","Match,No Match","","null","","","","","","<div class='trialBorder'><div class='vertical-center'><img src='img/fixation2_sml.jpg'</img></div></div>","null","FIX","","","","","","","","","","","",""
"html-keyboard-response","96","1153975","0.0-7.0-2.12","60fdb99f392d7600a5d42c1f","bdp_wmem","Thu Jul 28 2022 09:13:38 GMT-0700 (Pacific Daylight Time)","1775134","Match,No Match","","null","","","","","","<div class='trialBorder'><div class='vertical-center'><img style='vertical-align:center; align:center' src='img/fixation2_sml.jpg'></div><div class='arrayDiv2'><div class='tl'><img class='introPic' src='trustrating_stim/white_mw078.bmp'><br><font color='red'><strong>Keep</strong></font></div><div class='tr'><img class='introPic' src='trustrating_stim/white_mw038.bmp'><br><font color='green'><strong>Share</strong></font></div></div></div>","null","ARRAY","2","trustrating_stim/white_mw078.bmp,trustrating_stim/white_mw038.bmp","0,1","noMatchFace","i","3000","","","","","",""
"html-keyboard-response","97","1157977","0.0-7.0-3.12","60fdb99f392d7600a5d42c1f","bdp_wmem","Thu Jul 28 2022 09:13:38 GMT-0700 (Pacific Daylight Time)","1775134","Match,No Match","","null","","","","","","<div class='trialBorder'><div class='vertical-center'><img src='img/fixation2_sml.jpg'</img></div></div>","null","DELAY","","","","","","","","","","","",""
"html-keyboard-response","98","1159753","0.0-7.0-4.12","60fdb99f392d7600a5d42c1f","bdp_wmem","Thu Jul 28 2022 09:13:38 GMT-0700 (Pacific Daylight Time)","1775134","Match,No Match","","1772","","","","","","<div class='trialBorder'><div class='targDiv'><div class='tc'><img class='introPic' src='trustrating_stim/white_mw013.bmp'><br><font color='red'><strong>Keep</strong></font></div></div><div class='respDiv'><div class='respDivL'>Match<br>(e)</div><div class='respDivR'>No Match<br>(i)</div></div></div>","i","TARGET","2","trustrating_stim/white_mw078.bmp,trustrating_stim/white_mw038.bmp","0,1","noMatchFace","i","3000","trustrating_stim/white_mw013.bmp","red","Keep","REAL","1",""
"html-keyboard-response","99","1160255","0.0-7.0-5.12","60fdb99f392d7600a5d42c1f","bdp_wmem","Thu Jul 28 2022 09:13:38 GMT-0700 (Pacific Daylight Time)","1775134","Match,No Match","","null","","","","","","<div class='trialBorder'><div class='vertical-center'><img src='img/correct.jpg'></div><div class='respDiv'><div class='respDivL'>Match<br>(e)</div><div class='respDivR'><font style='color:orange'>No Match<br>(i)</font></div></div></div>","null","FEEDBACK","","","","","","","","","","","",""
"html-keyboard-response","100","1160757","0.0-7.0-1.13","60fdb99f392d7600a5d42c1f","bdp_wmem","Thu Jul 28 2022 09:13:38 GMT-0700 (Pacific Daylight Time)","1775134","Match,No Match","","null","","","","","","<div class='trialBorder'><div class='vertical-center'><img src='img/fixation2_sml.jpg'</img></div></div>","null","FIX","","","","","","","","","","","",""
"html-keyboard-response","101","1165260","0.0-7.0-2.13","60fdb99f392d7600a5d42c1f","bdp_wmem","Thu Jul 28 2022 09:13:38 GMT-0700 (Pacific Daylight Time)","1775134","Match,No Match","","null","","","","","","<div class='trialBorder'><div class='vertical-center'><img style='vertical-align:center; align:center' src='img/fixation2_sml.jpg'></div><div class='arrayDiv3'><div class='tl'><img class='introPic' src='trustrating_stim/white_mw038.bmp'><br><font color='red'><strong>Keep</strong></font></div><div class='tc'><img class='introPic' src='trustrating_stim/white_mw010.bmp'><br><font color='green'><strong>Share</strong></font></div><div class='tr'><img class='introPic' src='trustrating_stim/white_mw085.bmp'><br><font color='red'><strong>Keep</strong></font></div></div></div>","null","ARRAY","3","trustrating_stim/white_mw038.bmp,trustrating_stim/white_mw010.bmp,trustrating_stim/white_mw085.bmp","0,1,0","Match","e","4500","","","","","",""
"html-keyboard-response","102","1169263","0.0-7.0-3.13","60fdb99f392d7600a5d42c1f","bdp_wmem","Thu Jul 28 2022 09:13:38 GMT-0700 (Pacific Daylight Time)","1775134","Match,No Match","","null","","","","","","<div class='trialBorder'><div class='vertical-center'><img src='img/fixation2_sml.jpg'</img></div></div>","null","DELAY","","","","","","","","","","","",""
"html-keyboard-response","103","1172059","0.0-7.0-4.13","60fdb99f392d7600a5d42c1f","bdp_wmem","Thu Jul 28 2022 09:13:38 GMT-0700 (Pacific Daylight Time)","1775134","Match,No Match","","2793","","","","","","<div class='trialBorder'><div class='targDiv'><div class='tc'><img class='introPic' src='trustrating_stim/white_mw085.bmp'><br><font color='red'><strong>Keep</strong></font></div></div><div class='respDiv'><div class='respDivL'>Match<br>(e)</div><div class='respDivR'>No Match<br>(i)</div></div></div>","e","TARGET","3","trustrating_stim/white_mw038.bmp,trustrating_stim/white_mw010.bmp,trustrating_stim/white_mw085.bmp","0,1,0","Match","e","4500","trustrating_stim/white_mw085.bmp","red","Keep","REAL","1",""
"html-keyboard-response","104","1172561","0.0-7.0-5.13","60fdb99f392d7600a5d42c1f","bdp_wmem","Thu Jul 28 2022 09:13:38 GMT-0700 (Pacific Daylight Time)","1775134","Match,No Match","","null","","","","","","<div class='trialBorder'><div class='vertical-center'><img src='img/correct.jpg'></div><div class='respDiv'><div class='respDivL'><font style='color:orange'>Match<br>(e)</font></div><div class='respDivR'>No Match<br>(i)</div></div></div>","null","FEEDBACK","","","","","","","","","","","",""
"html-keyboard-response","105","1173064","0.0-7.0-1.14","60fdb99f392d7600a5d42c1f","bdp_wmem","Thu Jul 28 2022 09:13:38 GMT-0700 (Pacific Daylight Time)","1775134","Match,No Match","","null","","","","","","<div class='trialBorder'><div class='vertical-center'><img src='img/fixation2_sml.jpg'</img></div></div>","null","FIX","","","","","","","","","","","",""
"html-keyboard-response","106","1177567","0.0-7.0-2.14","60fdb99f392d7600a5d42c1f","bdp_wmem","Thu Jul 28 2022 09:13:38 GMT-0700 (Pacific Daylight Time)","1775134","Match,No Match","","null","","","","","","<div class='trialBorder'><div class='vertical-center'><img style='vertical-align:center; align:center' src='img/fixation2_sml.jpg'></div><div class='arrayDiv3'><div class='tl'><img class='introPic' src='trustrating_stim/white_mw078.bmp'><br><font color='red'><strong>Keep</strong></font></div><div class='tc'><img class='introPic' src='trustrating_stim/white_mw092.bmp'><br><font color='green'><strong>Share</strong></font></div><div class='tr'><img class='introPic' src='trustrating_stim/white_mw040.bmp'><br><font color='green'><strong>Share</strong></font></div></div></div>","null","ARRAY","3","trustrating_stim/white_mw078.bmp,trustrating_stim/white_mw092.bmp,trustrating_stim/white_mw040.bmp","0,1,1","noMatchOutcome","i","4500","","","","","",""
"html-keyboard-response","107","1181570","0.0-7.0-3.14","60fdb99f392d7600a5d42c1f","bdp_wmem","Thu Jul 28 2022 09:13:38 GMT-0700 (Pacific Daylight Time)","1775134","Match,No Match","","null","","","","","","<div class='trialBorder'><div class='vertical-center'><img src='img/fixation2_sml.jpg'</img></div></div>","null","DELAY","","","","","","","","","","","",""
"html-keyboard-response","108","1186180","0.0-7.0-4.14","60fdb99f392d7600a5d42c1f","bdp_wmem","Thu Jul 28 2022 09:13:38 GMT-0700 (Pacific Daylight Time)","1775134","Match,No Match","","4607","","","","","","<div class='trialBorder'><div class='targDiv'><div class='tc'><img class='introPic' src='trustrating_stim/white_mw078.bmp'><br><font color='green'><strong>Share</strong></font></div></div><div class='respDiv'><div class='respDivL'>Match<br>(e)</div><div class='respDivR'>No Match<br>(i)</div></div></div>","e","TARGET","3","trustrating_stim/white_mw078.bmp,trustrating_stim/white_mw092.bmp,trustrating_stim/white_mw040.bmp","0,1,1","noMatchOutcome","i","4500","trustrating_stim/white_mw078.bmp","green","Share","REAL","0",""
"html-keyboard-response","109","1186682","0.0-7.0-5.14","60fdb99f392d7600a5d42c1f","bdp_wmem","Thu Jul 28 2022 09:13:38 GMT-0700 (Pacific Daylight Time)","1775134","Match,No Match","","null","","","","","","<div class='trialBorder'><div class='vertical-center'><img src='img/error.jpg'></div><div class='respDiv'><div class='respDivL'><font style='color:orange'>Match<br>(e)</font></div><div class='respDivR'>No Match<br>(i)</div></div></div>","null","FEEDBACK","","","","","","","","","","","",""
"html-keyboard-response","110","1187185","0.0-7.0-1.15","60fdb99f392d7600a5d42c1f","bdp_wmem","Thu Jul 28 2022 09:13:38 GMT-0700 (Pacific Daylight Time)","1775134","Match,No Match","","null","","","","","","<div class='trialBorder'><div class='vertical-center'><img src='img/fixation2_sml.jpg'</img></div></div>","null","FIX","","","","","","","","","","","",""
"html-keyboard-response","111","1190188","0.0-7.0-2.15","60fdb99f392d7600a5d42c1f","bdp_wmem","Thu Jul 28 2022 09:13:38 GMT-0700 (Pacific Daylight Time)","1775134","Match,No Match","","null","","","","","","<div class='trialBorder'><div class='vertical-center'><img style='vertical-align:center; align:center' src='img/fixation2_sml.jpg'></div><div class='arrayDiv2'><div class='tl'><img class='introPic' src='trustrating_stim/white_mw070.bmp'><br><font color='green'><strong>Share</strong></font></div><div class='tr'><img class='introPic' src='trustrating_stim/white_mw010.bmp'><br><font color='red'><strong>Keep</strong></font></div></div></div>","null","ARRAY","2","trustrating_stim/white_mw070.bmp,trustrating_stim/white_mw010.bmp","1,0","noMatchOutcome","i","3000","","","","","",""
"html-keyboard-response","112","1194190","0.0-7.0-3.15","60fdb99f392d7600a5d42c1f","bdp_wmem","Thu Jul 28 2022 09:13:38 GMT-0700 (Pacific Daylight Time)","1775134","Match,No Match","","null","","","","","","<div class='trialBorder'><div class='vertical-center'><img src='img/fixation2_sml.jpg'</img></div></div>","null","DELAY","","","","","","","","","","","",""
"","","","","60fdb99f392d7600a5d42c1f","bdp_wmem","Thu Jul 28 2022 09:13:38 GMT-0700 (Pacific Daylight Time)","1775134","Match,No Match","","","blur","113","1201882","blurevent","","","","","","","","","","","","","","","","1"
"","","","","60fdb99f392d7600a5d42c1f","bdp_wmem","Thu Jul 28 2022 09:13:38 GMT-0700 (Pacific Daylight Time)","1775134","Match,No Match","","","focus","113","1423112","focusevent","","","","","","","","","","","","","","","",""
"html-keyboard-response","113","1424605","0.0-7.0-4.15","60fdb99f392d7600a5d42c1f","bdp_wmem","Thu Jul 28 2022 09:13:38 GMT-0700 (Pacific Daylight Time)","1775134","Match,No Match","","230412","blur","113","1201882","","","<div class='trialBorder'><div class='targDiv'><div class='tc'><img class='introPic' src='trustrating_stim/white_mw010.bmp'><br><font color='green'><strong>Share</strong></font></div></div><div class='respDiv'><div class='respDivL'>Match<br>(e)</div><div class='respDivR'>No Match<br>(i)</div></div></div>","i","TARGET","2","trustrating_stim/white_mw070.bmp,trustrating_stim/white_mw010.bmp","1,0","noMatchOutcome","i","3000","trustrating_stim/white_mw010.bmp","green","Share","REAL","1","1"
"html-keyboard-response","114","1425107","0.0-7.0-5.15","60fdb99f392d7600a5d42c1f","bdp_wmem","Thu Jul 28 2022 09:13:38 GMT-0700 (Pacific Daylight Time)","1775134","Match,No Match","","null","blur","113","1201882","","","<div class='trialBorder'><div class='vertical-center'><img src='img/correct.jpg'></div><div class='respDiv'><div class='respDivL'>Match<br>(e)</div><div class='respDivR'><font style='color:orange'>No Match<br>(i)</font></div></div></div>","null","FEEDBACK","","","","","","","","","","","","1"
"image-keyboard-response","115","1434827","0.0-7.0-0.16-0.16","60fdb99f392d7600a5d42c1f","bdp_wmem","Thu Jul 28 2022 09:13:38 GMT-0700 (Pacific Daylight Time)","1775134","Match,No Match","","9718","","","","blurwarn","","","49","","","","","","","","","","","","","1"
"html-keyboard-response","116","1435582","0.0-7.0-1.16","60fdb99f392d7600a5d42c1f","bdp_wmem","Thu Jul 28 2022 09:13:38 GMT-0700 (Pacific Daylight Time)","1775134","Match,No Match","","null","","","","","","<div class='trialBorder'><div class='vertical-center'><img src='img/fixation2_sml.jpg'</img></div></div>","null","FIX","","","","","","","","","","","",""
"html-keyboard-response","117","1438586","0.0-7.0-2.16","60fdb99f392d7600a5d42c1f","bdp_wmem","Thu Jul 28 2022 09:13:38 GMT-0700 (Pacific Daylight Time)","1775134","Match,No Match","","null","","","","","","<div class='trialBorder'><div class='vertical-center'><img style='vertical-align:center; align:center' src='img/fixation2_sml.jpg'></div><div class='arrayDiv2'><div class='tl'><img class='introPic' src='trustrating_stim/white_mw070.bmp'><br><font color='green'><strong>Share</strong></font></div><div class='tr'><img class='introPic' src='trustrating_stim/white_mw010.bmp'><br><font color='red'><strong>Keep</strong></font></div></div></div>","null","ARRAY","2","trustrating_stim/white_mw070.bmp,trustrating_stim/white_mw010.bmp","1,0","Match","e","3000","","","","","",""
"html-keyboard-response","118","1442588","0.0-7.0-3.16","60fdb99f392d7600a5d42c1f","bdp_wmem","Thu Jul 28 2022 09:13:38 GMT-0700 (Pacific Daylight Time)","1775134","Match,No Match","","null","","","","","","<div class='trialBorder'><div class='vertical-center'><img src='img/fixation2_sml.jpg'</img></div></div>","null","DELAY","","","","","","","","","","","",""
"html-keyboard-response","119","1443166","0.0-7.0-4.16","60fdb99f392d7600a5d42c1f","bdp_wmem","Thu Jul 28 2022 09:13:38 GMT-0700 (Pacific Daylight Time)","1775134","Match,No Match","","574","","","","","","<div class='trialBorder'><div class='targDiv'><div class='tc'><img class='introPic' src='trustrating_stim/white_mw070.bmp'><br><font color='green'><strong>Share</strong></font></div></div><div class='respDiv'><div class='respDivL'>Match<br>(e)</div><div class='respDivR'>No Match<br>(i)</div></div></div>","e","TARGET","2","trustrating_stim/white_mw070.bmp,trustrating_stim/white_mw010.bmp","1,0","Match","e","3000","trustrating_stim/white_mw070.bmp","green","Share","REAL","1",""
"html-keyboard-response","120","1443668","0.0-7.0-5.16","60fdb99f392d7600a5d42c1f","bdp_wmem","Thu Jul 28 2022 09:13:38 GMT-0700 (Pacific Daylight Time)","1775134","Match,No Match","","null","","","","","","<div class='trialBorder'><div class='vertical-center'><img src='img/correct.jpg'></div><div class='respDiv'><div class='respDivL'><font style='color:orange'>Match<br>(e)</font></div><div class='respDivR'>No Match<br>(i)</div></div></div>","null","FEEDBACK","","","","","","","","","","","",""
"html-keyboard-response","121","1444171","0.0-7.0-1.17","60fdb99f392d7600a5d42c1f","bdp_wmem","Thu Jul 28 2022 09:13:38 GMT-0700 (Pacific Daylight Time)","1775134","Match,No Match","","null","","","","","","<div class='trialBorder'><div class='vertical-center'><img src='img/fixation2_sml.jpg'</img></div></div>","null","FIX","","","","","","","","","","","",""
"html-keyboard-response","122","1445674","0.0-7.0-2.17","60fdb99f392d7600a5d42c1f","bdp_wmem","Thu Jul 28 2022 09:13:38 GMT-0700 (Pacific Daylight Time)","1775134","Match,No Match","","null","","","","","","<div class='trialBorder'><div class='vertical-center'><img style='vertical-align:center; align:center' src='img/fixation2_sml.jpg'></div><div class='arrayDiv1'><div class='tc'><img class='introPic' src='trustrating_stim/white_mw078.bmp'><br><font color='green'><strong>Share</strong></font></div></div></div>","null","ARRAY","1","trustrating_stim/white_mw078.bmp","1","Match","e","1500","","","","","",""
"html-keyboard-response","123","1449676","0.0-7.0-3.17","60fdb99f392d7600a5d42c1f","bdp_wmem","Thu Jul 28 2022 09:13:38 GMT-0700 (Pacific Daylight Time)","1775134","Match,No Match","","null","","","","","","<div class='trialBorder'><div class='vertical-center'><img src='img/fixation2_sml.jpg'</img></div></div>","null","DELAY","","","","","","","","","","","",""
"html-keyboard-response","124","1450889","0.0-7.0-4.17","60fdb99f392d7600a5d42c1f","bdp_wmem","Thu Jul 28 2022 09:13:38 GMT-0700 (Pacific Daylight Time)","1775134","Match,No Match","","1210","","","","","","<div class='trialBorder'><div class='targDiv'><div class='tc'><img class='introPic' src='trustrating_stim/white_mw078.bmp'><br><font color='green'><strong>Share</strong></font></div></div><div class='respDiv'><div class='respDivL'>Match<br>(e)</div><div class='respDivR'>No Match<br>(i)</div></div></div>","e","TARGET","1","trustrating_stim/white_mw078.bmp","1","Match","e","1500","trustrating_stim/white_mw078.bmp","green","Share","REAL","1",""
"html-keyboard-response","125","1451391","0.0-7.0-5.17","60fdb99f392d7600a5d42c1f","bdp_wmem","Thu Jul 28 2022 09:13:38 GMT-0700 (Pacific Daylight Time)","1775134","Match,No Match","","null","","","","","","<div class='trialBorder'><div class='vertical-center'><img src='img/correct.jpg'></div><div class='respDiv'><div class='respDivL'><font style='color:orange'>Match<br>(e)</font></div><div class='respDivR'>No Match<br>(i)</div></div></div>","null","FEEDBACK","","","","","","","","","","","",""
"html-keyboard-response","126","1451894","0.0-7.0-1.18","60fdb99f392d7600a5d42c1f","bdp_wmem","Thu Jul 28 2022 09:13:38 GMT-0700 (Pacific Daylight Time)","1775134","Match,No Match","","null","","","","","","<div class='trialBorder'><div class='vertical-center'><img src='img/fixation2_sml.jpg'</img></div></div>","null","FIX","","","","","","","","","","","",""
"html-keyboard-response","127","1454897","0.0-7.0-2.18","60fdb99f392d7600a5d42c1f","bdp_wmem","Thu Jul 28 2022 09:13:38 GMT-0700 (Pacific Daylight Time)","1775134","Match,No Match","","null","","","","","","<div class='trialBorder'><div class='vertical-center'><img style='vertical-align:center; align:center' src='img/fixation2_sml.jpg'></div><div class='arrayDiv2'><div class='tl'><img class='introPic' src='trustrating_stim/white_mw040.bmp'><br><font color='green'><strong>Share</strong></font></div><div class='tr'><img class='introPic' src='trustrating_stim/white_mw042.bmp'><br><font color='red'><strong>Keep</strong></font></div></div></div>","null","ARRAY","2","trustrating_stim/white_mw040.bmp,trustrating_stim/white_mw042.bmp","1,0","Match","e","3000","","","","","",""
"html-keyboard-response","128","1458900","0.0-7.0-3.18","60fdb99f392d7600a5d42c1f","bdp_wmem","Thu Jul 28 2022 09:13:38 GMT-0700 (Pacific Daylight Time)","1775134","Match,No Match","","null","","","","","","<div class='trialBorder'><div class='vertical-center'><img src='img/fixation2_sml.jpg'</img></div></div>","null","DELAY","","","","","","","","","","","",""
"html-keyboard-response","129","1460447","0.0-7.0-4.18","60fdb99f392d7600a5d42c1f","bdp_wmem","Thu Jul 28 2022 09:13:38 GMT-0700 (Pacific Daylight Time)","1775134","Match,No Match","","1544","","","","","","<div class='trialBorder'><div class='targDiv'><div class='tc'><img class='introPic' src='trustrating_stim/white_mw042.bmp'><br><font color='red'><strong>Keep</strong></font></div></div><div class='respDiv'><div class='respDivL'>Match<br>(e)</div><div class='respDivR'>No Match<br>(i)</div></div></div>","e","TARGET","2","trustrating_stim/white_mw040.bmp,trustrating_stim/white_mw042.bmp","1,0","Match","e","3000","trustrating_stim/white_mw042.bmp","red","Keep","REAL","1",""
"html-keyboard-response","130","1460950","0.0-7.0-5.18","60fdb99f392d7600a5d42c1f","bdp_wmem","Thu Jul 28 2022 09:13:38 GMT-0700 (Pacific Daylight Time)","1775134","Match,No Match","","null","","","","","","<div class='trialBorder'><div class='vertical-center'><img src='img/correct.jpg'></div><div class='respDiv'><div class='respDivL'><font style='color:orange'>Match<br>(e)</font></div><div class='respDivR'>No Match<br>(i)</div></div></div>","null","FEEDBACK","","","","","","","","","","","",""
"html-keyboard-response","131","1461452","0.0-7.0-1.19","60fdb99f392d7600a5d42c1f","bdp_wmem","Thu Jul 28 2022 09:13:38 GMT-0700 (Pacific Daylight Time)","1775134","Match,No Match","","null","","","","","","<div class='trialBorder'><div class='vertical-center'><img src='img/fixation2_sml.jpg'</img></div></div>","null","FIX","","","","","","","","","","","",""
"html-keyboard-response","132","1464457","0.0-7.0-2.19","60fdb99f392d7600a5d42c1f","bdp_wmem","Thu Jul 28 2022 09:13:38 GMT-0700 (Pacific Daylight Time)","1775134","Match,No Match","","null","","","","","","<div class='trialBorder'><div class='vertical-center'><img style='vertical-align:center; align:center' src='img/fixation2_sml.jpg'></div><div class='arrayDiv2'><div class='tl'><img class='introPic' src='trustrating_stim/white_mw091.bmp'><br><font color='red'><strong>Keep</strong></font></div><div class='tr'><img class='introPic' src='trustrating_stim/white_mw085.bmp'><br><font color='green'><strong>Share</strong></font></div></div></div>","null","ARRAY","2","trustrating_stim/white_mw091.bmp,trustrating_stim/white_mw085.bmp","0,1","Match","e","3000","","","","","",""
"html-keyboard-response","133","1468459","0.0-7.0-3.19","60fdb99f392d7600a5d42c1f","bdp_wmem","Thu Jul 28 2022 09:13:38 GMT-0700 (Pacific Daylight Time)","1775134","Match,No Match","","null","","","","","","<div class='trialBorder'><div class='vertical-center'><img src='img/fixation2_sml.jpg'</img></div></div>","null","DELAY","","","","","","","","","","","",""
"html-keyboard-response","134","1470160","0.0-7.0-4.19","60fdb99f392d7600a5d42c1f","bdp_wmem","Thu Jul 28 2022 09:13:38 GMT-0700 (Pacific Daylight Time)","1775134","Match,No Match","","1697","","","","","","<div class='trialBorder'><div class='targDiv'><div class='tc'><img class='introPic' src='trustrating_stim/white_mw091.bmp'><br><font color='red'><strong>Keep</strong></font></div></div><div class='respDiv'><div class='respDivL'>Match<br>(e)</div><div class='respDivR'>No Match<br>(i)</div></div></div>","e","TARGET","2","trustrating_stim/white_mw091.bmp,trustrating_stim/white_mw085.bmp","0,1","Match","e","3000","trustrating_stim/white_mw091.bmp","red","Keep","REAL","1",""
"html-keyboard-response","135","1470662","0.0-7.0-5.19","60fdb99f392d7600a5d42c1f","bdp_wmem","Thu Jul 28 2022 09:13:38 GMT-0700 (Pacific Daylight Time)","1775134","Match,No Match","","null","","","","","","<div class='trialBorder'><div class='vertical-center'><img src='img/correct.jpg'></div><div class='respDiv'><div class='respDivL'><font style='color:orange'>Match<br>(e)</font></div><div class='respDivR'>No Match<br>(i)</div></div></div>","null","FEEDBACK","","","","","","","","","","","",""
"html-keyboard-response","136","1471165","0.0-7.0-1.20","60fdb99f392d7600a5d42c1f","bdp_wmem","Thu Jul 28 2022 09:13:38 GMT-0700 (Pacific Daylight Time)","1775134","Match,No Match","","null","","","","","","<div class='trialBorder'><div class='vertical-center'><img src='img/fixation2_sml.jpg'</img></div></div>","null","FIX","","","","","","","","","","","",""
"html-keyboard-response","137","1475669","0.0-7.0-2.20","60fdb99f392d7600a5d42c1f","bdp_wmem","Thu Jul 28 2022 09:13:38 GMT-0700 (Pacific Daylight Time)","1775134","Match,No Match","","null","","","","","","<div class='trialBorder'><div class='vertical-center'><img style='vertical-align:center; align:center' src='img/fixation2_sml.jpg'></div><div class='arrayDiv3'><div class='tl'><img class='introPic' src='trustrating_stim/white_mw012.bmp'><br><font color='red'><strong>Keep</strong></font></div><div class='tc'><img class='introPic' src='trustrating_stim/white_mw092.bmp'><br><font color='green'><strong>Share</strong></font></div><div class='tr'><img class='introPic' src='trustrating_stim/white_mw078.bmp'><br><font color='green'><strong>Share</strong></font></div></div></div>","null","ARRAY","3","trustrating_stim/white_mw012.bmp,trustrating_stim/white_mw092.bmp,trustrating_stim/white_mw078.bmp","0,1,1","noMatchFace","i","4500","","","","","",""
"html-keyboard-response","138","1479672","0.0-7.0-3.20","60fdb99f392d7600a5d42c1f","bdp_wmem","Thu Jul 28 2022 09:13:38 GMT-0700 (Pacific Daylight Time)","1775134","Match,No Match","","null","","","","","","<div class='trialBorder'><div class='vertical-center'><img src='img/fixation2_sml.jpg'</img></div></div>","null","DELAY","","","","","","","","","","","",""
"html-keyboard-response","139","1481418","0.0-7.0-4.20","60fdb99f392d7600a5d42c1f","bdp_wmem","Thu Jul 28 2022 09:13:38 GMT-0700 (Pacific Daylight Time)","1775134","Match,No Match","","1743","","","","","","<div class='trialBorder'><div class='targDiv'><div class='tc'><img class='introPic' src='trustrating_stim/white_mw091.bmp'><br><font color='red'><strong>Keep</strong></font></div></div><div class='respDiv'><div class='respDivL'>Match<br>(e)</div><div class='respDivR'>No Match<br>(i)</div></div></div>","e","TARGET","3","trustrating_stim/white_mw012.bmp,trustrating_stim/white_mw092.bmp,trustrating_stim/white_mw078.bmp","0,1,1","noMatchFace","i","4500","trustrating_stim/white_mw091.bmp","red","Keep","REAL","0",""
"html-keyboard-response","140","1481920","0.0-7.0-5.20","60fdb99f392d7600a5d42c1f","bdp_wmem","Thu Jul 28 2022 09:13:38 GMT-0700 (Pacific Daylight Time)","1775134","Match,No Match","","null","","","","","","<div class='trialBorder'><div class='vertical-center'><img src='img/error.jpg'></div><div class='respDiv'><div class='respDivL'><font style='color:orange'>Match<br>(e)</font></div><div class='respDivR'>No Match<br>(i)</div></div></div>","null","FEEDBACK","","","","","","","","","","","",""
"html-keyboard-response","141","1482422","0.0-7.0-1.21","60fdb99f392d7600a5d42c1f","bdp_wmem","Thu Jul 28 2022 09:13:38 GMT-0700 (Pacific Daylight Time)","1775134","Match,No Match","","null","","","","","","<div class='trialBorder'><div class='vertical-center'><img src='img/fixation2_sml.jpg'</img></div></div>","null","FIX","","","","","","","","","","","",""
"html-keyboard-response","142","1486925","0.0-7.0-2.21","60fdb99f392d7600a5d42c1f","bdp_wmem","Thu Jul 28 2022 09:13:38 GMT-0700 (Pacific Daylight Time)","1775134","Match,No Match","","null","","","","","","<div class='trialBorder'><div class='vertical-center'><img style='vertical-align:center; align:center' src='img/fixation2_sml.jpg'></div><div class='arrayDiv3'><div class='tl'><img class='introPic' src='trustrating_stim/white_mw042.bmp'><br><font color='green'><strong>Share</strong></font></div><div class='tc'><img class='introPic' src='trustrating_stim/white_mw012.bmp'><br><font color='green'><strong>Share</strong></font></div><div class='tr'><img class='introPic' src='trustrating_stim/white_mw070.bmp'><br><font color='red'><strong>Keep</strong></font></div></div></div>","null","ARRAY","3","trustrating_stim/white_mw042.bmp,trustrating_stim/white_mw012.bmp,trustrating_stim/white_mw070.bmp","1,1,0","Match","e","4500","","","","","",""
"html-keyboard-response","143","1490928","0.0-7.0-3.21","60fdb99f392d7600a5d42c1f","bdp_wmem","Thu Jul 28 2022 09:13:38 GMT-0700 (Pacific Daylight Time)","1775134","Match,No Match","","null","","","","","","<div class='trialBorder'><div class='vertical-center'><img src='img/fixation2_sml.jpg'</img></div></div>","null","DELAY","","","","","","","","","","","",""
"html-keyboard-response","144","1494421","0.0-7.0-4.21","60fdb99f392d7600a5d42c1f","bdp_wmem","Thu Jul 28 2022 09:13:38 GMT-0700 (Pacific Daylight Time)","1775134","Match,No Match","","3489","","","","","","<div class='trialBorder'><div class='targDiv'><div class='tc'><img class='introPic' src='trustrating_stim/white_mw070.bmp'><br><font color='red'><strong>Keep</strong></font></div></div><div class='respDiv'><div class='respDivL'>Match<br>(e)</div><div class='respDivR'>No Match<br>(i)</div></div></div>","i","TARGET","3","trustrating_stim/white_mw042.bmp,trustrating_stim/white_mw012.bmp,trustrating_stim/white_mw070.bmp","1,1,0","Match","e","4500","trustrating_stim/white_mw070.bmp","red","Keep","REAL","0",""
"html-keyboard-response","145","1494923","0.0-7.0-5.21","60fdb99f392d7600a5d42c1f","bdp_wmem","Thu Jul 28 2022 09:13:38 GMT-0700 (Pacific Daylight Time)","1775134","Match,No Match","","null","","","","","","<div class='trialBorder'><div class='vertical-center'><img src='img/error.jpg'></div><div class='respDiv'><div class='respDivL'>Match<br>(e)</div><div class='respDivR'><font style='color:orange'>No Match<br>(i)</font></div></div></div>","null","FEEDBACK","","","","","","","","","","","",""
"html-keyboard-response","146","1495425","0.0-7.0-1.22","60fdb99f392d7600a5d42c1f","bdp_wmem","Thu Jul 28 2022 09:13:38 GMT-0700 (Pacific Daylight Time)","1775134","Match,No Match","","null","","","","","","<div class='trialBorder'><div class='vertical-center'><img src='img/fixation2_sml.jpg'</img></div></div>","null","FIX","","","","","","","","","","","",""
"html-keyboard-response","147","1498429","0.0-7.0-2.22","60fdb99f392d7600a5d42c1f","bdp_wmem","Thu Jul 28 2022 09:13:38 GMT-0700 (Pacific Daylight Time)","1775134","Match,No Match","","null","","","","","","<div class='trialBorder'><div class='vertical-center'><img style='vertical-align:center; align:center' src='img/fixation2_sml.jpg'></div><div class='arrayDiv2'><div class='tl'><img class='introPic' src='trustrating_stim/white_mw070.bmp'><br><font color='red'><strong>Keep</strong></font></div><div class='tr'><img class='introPic' src='trustrating_stim/white_mw042.bmp'><br><font color='green'><strong>Share</strong></font></div></div></div>","null","ARRAY","2","trustrating_stim/white_mw070.bmp,trustrating_stim/white_mw042.bmp","0,1","Match","e","3000","","","","","",""
"html-keyboard-response","148","1502431","0.0-7.0-3.22","60fdb99f392d7600a5d42c1f","bdp_wmem","Thu Jul 28 2022 09:13:38 GMT-0700 (Pacific Daylight Time)","1775134","Match,No Match","","null","","","","","","<div class='trialBorder'><div class='vertical-center'><img src='img/fixation2_sml.jpg'</img></div></div>","null","DELAY","","","","","","","","","","","",""
"html-keyboard-response","149","1503609","0.0-7.0-4.22","60fdb99f392d7600a5d42c1f","bdp_wmem","Thu Jul 28 2022 09:13:38 GMT-0700 (Pacific Daylight Time)","1775134","Match,No Match","","1175","","","","","","<div class='trialBorder'><div class='targDiv'><div class='tc'><img class='introPic' src='trustrating_stim/white_mw070.bmp'><br><font color='red'><strong>Keep</strong></font></div></div><div class='respDiv'><div class='respDivL'>Match<br>(e)</div><div class='respDivR'>No Match<br>(i)</div></div></div>","e","TARGET","2","trustrating_stim/white_mw070.bmp,trustrating_stim/white_mw042.bmp","0,1","Match","e","3000","trustrating_stim/white_mw070.bmp","red","Keep","REAL","1",""
"html-keyboard-response","150","1504111","0.0-7.0-5.22","60fdb99f392d7600a5d42c1f","bdp_wmem","Thu Jul 28 2022 09:13:38 GMT-0700 (Pacific Daylight Time)","1775134","Match,No Match","","null","","","","","","<div class='trialBorder'><div class='vertical-center'><img src='img/correct.jpg'></div><div class='respDiv'><div class='respDivL'><font style='color:orange'>Match<br>(e)</font></div><div class='respDivR'>No Match<br>(i)</div></div></div>","null","FEEDBACK","","","","","","","","","","","",""
"html-keyboard-response","151","1504614","0.0-7.0-1.23","60fdb99f392d7600a5d42c1f","bdp_wmem","Thu Jul 28 2022 09:13:38 GMT-0700 (Pacific Daylight Time)","1775134","Match,No Match","","null","","","","","","<div class='trialBorder'><div class='vertical-center'><img src='img/fixation2_sml.jpg'</img></div></div>","null","FIX","","","","","","","","","","","",""
"html-keyboard-response","152","1507617","0.0-7.0-2.23","60fdb99f392d7600a5d42c1f","bdp_wmem","Thu Jul 28 2022 09:13:38 GMT-0700 (Pacific Daylight Time)","1775134","Match,No Match","","null","","","","","","<div class='trialBorder'><div class='vertical-center'><img style='vertical-align:center; align:center' src='img/fixation2_sml.jpg'></div><div class='arrayDiv2'><div class='tl'><img class='introPic' src='trustrating_stim/white_mw040.bmp'><br><font color='red'><strong>Keep</strong></font></div><div class='tr'><img class='introPic' src='trustrating_stim/white_mw003.bmp'><br><font color='green'><strong>Share</strong></font></div></div></div>","null","ARRAY","2","trustrating_stim/white_mw040.bmp,trustrating_stim/white_mw003.bmp","0,1","Match","e","3000","","","","","",""
"html-keyboard-response","153","1511619","0.0-7.0-3.23","60fdb99f392d7600a5d42c1f","bdp_wmem","Thu Jul 28 2022 09:13:38 GMT-0700 (Pacific Daylight Time)","1775134","Match,No Match","","null","","","","","","<div class='trialBorder'><div class='vertical-center'><img src='img/fixation2_sml.jpg'</img></div></div>","null","DELAY","","","","","","","","","","","",""
"html-keyboard-response","154","1513178","0.0-7.0-4.23","60fdb99f392d7600a5d42c1f","bdp_wmem","Thu Jul 28 2022 09:13:38 GMT-0700 (Pacific Daylight Time)","1775134","Match,No Match","","1555","","","","","","<div class='trialBorder'><div class='targDiv'><div class='tc'><img class='introPic' src='trustrating_stim/white_mw040.bmp'><br><font color='red'><strong>Keep</strong></font></div></div><div class='respDiv'><div class='respDivL'>Match<br>(e)</div><div class='respDivR'>No Match<br>(i)</div></div></div>","e","TARGET","2","trustrating_stim/white_mw040.bmp,trustrating_stim/white_mw003.bmp","0,1","Match","e","3000","trustrating_stim/white_mw040.bmp","red","Keep","REAL","1",""
"html-keyboard-response","155","1513681","0.0-7.0-5.23","60fdb99f392d7600a5d42c1f","bdp_wmem","Thu Jul 28 2022 09:13:38 GMT-0700 (Pacific Daylight Time)","1775134","Match,No Match","","null","","","","","","<div class='trialBorder'><div class='vertical-center'><img src='img/correct.jpg'></div><div class='respDiv'><div class='respDivL'><font style='color:orange'>Match<br>(e)</font></div><div class='respDivR'>No Match<br>(i)</div></div></div>","null","FEEDBACK","","","","","","","","","","","",""
"html-keyboard-response","156","1514182","0.0-7.0-1.24","60fdb99f392d7600a5d42c1f","bdp_wmem","Thu Jul 28 2022 09:13:38 GMT-0700 (Pacific Daylight Time)","1775134","Match,No Match","","null","","","","","","<div class='trialBorder'><div class='vertical-center'><img src='img/fixation2_sml.jpg'</img></div></div>","null","FIX","","","","","","","","","","","",""
"html-keyboard-response","157","1517185","0.0-7.0-2.24","60fdb99f392d7600a5d42c1f","bdp_wmem","Thu Jul 28 2022 09:13:38 GMT-0700 (Pacific Daylight Time)","1775134","Match,No Match","","null","","","","","","<div class='trialBorder'><div class='vertical-center'><img style='vertical-align:center; align:center' src='img/fixation2_sml.jpg'></div><div class='arrayDiv2'><div class='tl'><img class='introPic' src='trustrating_stim/white_mw042.bmp'><br><font color='green'><strong>Share</strong></font></div><div class='tr'><img class='introPic' src='trustrating_stim/white_mw010.bmp'><br><font color='red'><strong>Keep</strong></font></div></div></div>","null","ARRAY","2","trustrating_stim/white_mw042.bmp,trustrating_stim/white_mw010.bmp","1,0","Match","e","3000","","","","","",""
"html-keyboard-response","158","1521188","0.0-7.0-3.24","60fdb99f392d7600a5d42c1f","bdp_wmem","Thu Jul 28 2022 09:13:38 GMT-0700 (Pacific Daylight Time)","1775134","Match,No Match","","null","","","","","","<div class='trialBorder'><div class='vertical-center'><img src='img/fixation2_sml.jpg'</img></div></div>","null","DELAY","","","","","","","","","","","",""
"html-keyboard-response","159","1522889","0.0-7.0-4.24","60fdb99f392d7600a5d42c1f","bdp_wmem","Thu Jul 28 2022 09:13:38 GMT-0700 (Pacific Daylight Time)","1775134","Match,No Match","","1698","","","","","","<div class='trialBorder'><div class='targDiv'><div class='tc'><img class='introPic' src='trustrating_stim/white_mw042.bmp'><br><font color='green'><strong>Share</strong></font></div></div><div class='respDiv'><div class='respDivL'>Match<br>(e)</div><div class='respDivR'>No Match<br>(i)</div></div></div>","e","TARGET","2","trustrating_stim/white_mw042.bmp,trustrating_stim/white_mw010.bmp","1,0","Match","e","3000","trustrating_stim/white_mw042.bmp","green","Share","REAL","1",""
"html-keyboard-response","160","1523392","0.0-7.0-5.24","60fdb99f392d7600a5d42c1f","bdp_wmem","Thu Jul 28 2022 09:13:38 GMT-0700 (Pacific Daylight Time)","1775134","Match,No Match","","null","","","","","","<div class='trialBorder'><div class='vertical-center'><img src='img/correct.jpg'></div><div class='respDiv'><div class='respDivL'><font style='color:orange'>Match<br>(e)</font></div><div class='respDivR'>No Match<br>(i)</div></div></div>","null","FEEDBACK","","","","","","","","","","","",""
"html-keyboard-response","161","1523895","0.0-7.0-1.25","60fdb99f392d7600a5d42c1f","bdp_wmem","Thu Jul 28 2022 09:13:38 GMT-0700 (Pacific Daylight Time)","1775134","Match,No Match","","null","","","","","","<div class='trialBorder'><div class='vertical-center'><img src='img/fixation2_sml.jpg'</img></div></div>","null","FIX","","","","","","","","","","","",""
"html-keyboard-response","162","1528398","0.0-7.0-2.25","60fdb99f392d7600a5d42c1f","bdp_wmem","Thu Jul 28 2022 09:13:38 GMT-0700 (Pacific Daylight Time)","1775134","Match,No Match","","null","","","","","","<div class='trialBorder'><div class='vertical-center'><img style='vertical-align:center; align:center' src='img/fixation2_sml.jpg'></div><div class='arrayDiv3'><div class='tl'><img class='introPic' src='trustrating_stim/white_mw092.bmp'><br><font color='green'><strong>Share</strong></font></div><div class='tc'><img class='introPic' src='trustrating_stim/white_mw042.bmp'><br><font color='red'><strong>Keep</strong></font></div><div class='tr'><img class='introPic' src='trustrating_stim/white_mw003.bmp'><br><font color='green'><strong>Share</strong></font></div></div></div>","null","ARRAY","3","trustrating_stim/white_mw092.bmp,trustrating_stim/white_mw042.bmp,trustrating_stim/white_mw003.bmp","1,0,1","Match","e","4500","","","","","",""
"html-keyboard-response","163","1532401","0.0-7.0-3.25","60fdb99f392d7600a5d42c1f","bdp_wmem","Thu Jul 28 2022 09:13:38 GMT-0700 (Pacific Daylight Time)","1775134","Match,No Match","","null","","","","","","<div class='trialBorder'><div class='vertical-center'><img src='img/fixation2_sml.jpg'</img></div></div>","null","DELAY","","","","","","","","","","","",""
"html-keyboard-response","164","1533882","0.0-7.0-4.25","60fdb99f392d7600a5d42c1f","bdp_wmem","Thu Jul 28 2022 09:13:38 GMT-0700 (Pacific Daylight Time)","1775134","Match,No Match","","1477","","","","","","<div class='trialBorder'><div class='targDiv'><div class='tc'><img class='introPic' src='trustrating_stim/white_mw003.bmp'><br><font color='green'><strong>Share</strong></font></div></div><div class='respDiv'><div class='respDivL'>Match<br>(e)</div><div class='respDivR'>No Match<br>(i)</div></div></div>","e","TARGET","3","trustrating_stim/white_mw092.bmp,trustrating_stim/white_mw042.bmp,trustrating_stim/white_mw003.bmp","1,0,1","Match","e","4500","trustrating_stim/white_mw003.bmp","green","Share","REAL","1",""
"html-keyboard-response","165","1534385","0.0-7.0-5.25","60fdb99f392d7600a5d42c1f","bdp_wmem","Thu Jul 28 2022 09:13:38 GMT-0700 (Pacific Daylight Time)","1775134","Match,No Match","","null","","","","","","<div class='trialBorder'><div class='vertical-center'><img src='img/correct.jpg'></div><div class='respDiv'><div class='respDivL'><font style='color:orange'>Match<br>(e)</font></div><div class='respDivR'>No Match<br>(i)</div></div></div>","null","FEEDBACK","","","","","","","","","","","",""
"html-keyboard-response","166","1534887","0.0-7.0-1.26","60fdb99f392d7600a5d42c1f","bdp_wmem","Thu Jul 28 2022 09:13:38 GMT-0700 (Pacific Daylight Time)","1775134","Match,No Match","","null","","","","","","<div class='trialBorder'><div class='vertical-center'><img src='img/fixation2_sml.jpg'</img></div></div>","null","FIX","","","","","","","","","","","",""
"html-keyboard-response","167","1537892","0.0-7.0-2.26","60fdb99f392d7600a5d42c1f","bdp_wmem","Thu Jul 28 2022 09:13:38 GMT-0700 (Pacific Daylight Time)","1775134","Match,No Match","","null","","","","","","<div class='trialBorder'><div class='vertical-center'><img style='vertical-align:center; align:center' src='img/fixation2_sml.jpg'></div><div class='arrayDiv2'><div class='tl'><img class='introPic' src='trustrating_stim/white_mw013.bmp'><br><font color='red'><strong>Keep</strong></font></div><div class='tr'><img class='introPic' src='trustrating_stim/white_mw012.bmp'><br><font color='green'><strong>Share</strong></font></div></div></div>","null","ARRAY","2","trustrating_stim/white_mw013.bmp,trustrating_stim/white_mw012.bmp","0,1","noMatchOutcome","i","3000","","","","","",""
"html-keyboard-response","168","1541894","0.0-7.0-3.26","60fdb99f392d7600a5d42c1f","bdp_wmem","Thu Jul 28 2022 09:13:38 GMT-0700 (Pacific Daylight Time)","1775134","Match,No Match","","null","","","","","","<div class='trialBorder'><div class='vertical-center'><img src='img/fixation2_sml.jpg'</img></div></div>","null","DELAY","","","","","","","","","","","",""
"html-keyboard-response","169","1543673","0.0-7.0-4.26","60fdb99f392d7600a5d42c1f","bdp_wmem","Thu Jul 28 2022 09:13:38 GMT-0700 (Pacific Daylight Time)","1775134","Match,No Match","","1775","","","","","","<div class='trialBorder'><div class='targDiv'><div class='tc'><img class='introPic' src='trustrating_stim/white_mw013.bmp'><br><font color='green'><strong>Share</strong></font></div></div><div class='respDiv'><div class='respDivL'>Match<br>(e)</div><div class='respDivR'>No Match<br>(i)</div></div></div>","e","TARGET","2","trustrating_stim/white_mw013.bmp,trustrating_stim/white_mw012.bmp","0,1","noMatchOutcome","i","3000","trustrating_stim/white_mw013.bmp","green","Share","REAL","0",""
"html-keyboard-response","170","1544176","0.0-7.0-5.26","60fdb99f392d7600a5d42c1f","bdp_wmem","Thu Jul 28 2022 09:13:38 GMT-0700 (Pacific Daylight Time)","1775134","Match,No Match","","null","","","","","","<div class='trialBorder'><div class='vertical-center'><img src='img/error.jpg'></div><div class='respDiv'><div class='respDivL'><font style='color:orange'>Match<br>(e)</font></div><div class='respDivR'>No Match<br>(i)</div></div></div>","null","FEEDBACK","","","","","","","","","","","",""
"html-keyboard-response","171","1544679","0.0-7.0-1.27","60fdb99f392d7600a5d42c1f","bdp_wmem","Thu Jul 28 2022 09:13:38 GMT-0700 (Pacific Daylight Time)","1775134","Match,No Match","","null","","","","","","<div class='trialBorder'><div class='vertical-center'><img src='img/fixation2_sml.jpg'</img></div></div>","null","FIX","","","","","","","","","","","",""
"html-keyboard-response","172","1547682","0.0-7.0-2.27","60fdb99f392d7600a5d42c1f","bdp_wmem","Thu Jul 28 2022 09:13:38 GMT-0700 (Pacific Daylight Time)","1775134","Match,No Match","","null","","","","","","<div class='trialBorder'><div class='vertical-center'><img style='vertical-align:center; align:center' src='img/fixation2_sml.jpg'></div><div class='arrayDiv2'><div class='tl'><img class='introPic' src='trustrating_stim/white_mw038.bmp'><br><font color='red'><strong>Keep</strong></font></div><div class='tr'><img class='introPic' src='trustrating_stim/white_mw078.bmp'><br><font color='green'><strong>Share</strong></font></div></div></div>","null","ARRAY","2","trustrating_stim/white_mw038.bmp,trustrating_stim/white_mw078.bmp","0,1","Match","e","3000","","","","","",""
"html-keyboard-response","173","1551685","0.0-7.0-3.27","60fdb99f392d7600a5d42c1f","bdp_wmem","Thu Jul 28 2022 09:13:38 GMT-0700 (Pacific Daylight Time)","1775134","Match,No Match","","null","","","","","","<div class='trialBorder'><div class='vertical-center'><img src='img/fixation2_sml.jpg'</img></div></div>","null","DELAY","","","","","","","","","","","",""
"html-keyboard-response","174","1553778","0.0-7.0-4.27","60fdb99f392d7600a5d42c1f","bdp_wmem","Thu Jul 28 2022 09:13:38 GMT-0700 (Pacific Daylight Time)","1775134","Match,No Match","","2089","","","","","","<div class='trialBorder'><div class='targDiv'><div class='tc'><img class='introPic' src='trustrating_stim/white_mw078.bmp'><br><font color='green'><strong>Share</strong></font></div></div><div class='respDiv'><div class='respDivL'>Match<br>(e)</div><div class='respDivR'>No Match<br>(i)</div></div></div>","e","TARGET","2","trustrating_stim/white_mw038.bmp,trustrating_stim/white_mw078.bmp","0,1","Match","e","3000","trustrating_stim/white_mw078.bmp","green","Share","REAL","1",""
"html-keyboard-response","175","1554280","0.0-7.0-5.27","60fdb99f392d7600a5d42c1f","bdp_wmem","Thu Jul 28 2022 09:13:38 GMT-0700 (Pacific Daylight Time)","1775134","Match,No Match","","null","","","","","","<div class='trialBorder'><div class='vertical-center'><img src='img/correct.jpg'></div><div class='respDiv'><div class='respDivL'><font style='color:orange'>Match<br>(e)</font></div><div class='respDivR'>No Match<br>(i)</div></div></div>","null","FEEDBACK","","","","","","","","","","","",""
"html-keyboard-response","176","1554782","0.0-7.0-1.28","60fdb99f392d7600a5d42c1f","bdp_wmem","Thu Jul 28 2022 09:13:38 GMT-0700 (Pacific Daylight Time)","1775134","Match,No Match","","null","","","","","","<div class='trialBorder'><div class='vertical-center'><img src='img/fixation2_sml.jpg'</img></div></div>","null","FIX","","","","","","","","","","","",""
"html-keyboard-response","177","1556285","0.0-7.0-2.28","60fdb99f392d7600a5d42c1f","bdp_wmem","Thu Jul 28 2022 09:13:38 GMT-0700 (Pacific Daylight Time)","1775134","Match,No Match","","null","","","","","","<div class='trialBorder'><div class='vertical-center'><img style='vertical-align:center; align:center' src='img/fixation2_sml.jpg'></div><div class='arrayDiv1'><div class='tc'><img class='introPic' src='trustrating_stim/white_mw040.bmp'><br><font color='green'><strong>Share</strong></font></div></div></div>","null","ARRAY","1","trustrating_stim/white_mw040.bmp","1","Match","e","1500","","","","","",""
"html-keyboard-response","178","1560288","0.0-7.0-3.28","60fdb99f392d7600a5d42c1f","bdp_wmem","Thu Jul 28 2022 09:13:38 GMT-0700 (Pacific Daylight Time)","1775134","Match,No Match","","null","","","","","","<div class='trialBorder'><div class='vertical-center'><img src='img/fixation2_sml.jpg'</img></div></div>","null","DELAY","","","","","","","","","","","",""
"html-keyboard-response","179","1561633","0.0-7.0-4.28","60fdb99f392d7600a5d42c1f","bdp_wmem","Thu Jul 28 2022 09:13:38 GMT-0700 (Pacific Daylight Time)","1775134","Match,No Match","","1342","","","","","","<div class='trialBorder'><div class='targDiv'><div class='tc'><img class='introPic' src='trustrating_stim/white_mw040.bmp'><br><font color='green'><strong>Share</strong></font></div></div><div class='respDiv'><div class='respDivL'>Match<br>(e)</div><div class='respDivR'>No Match<br>(i)</div></div></div>","e","TARGET","1","trustrating_stim/white_mw040.bmp","1","Match","e","1500","trustrating_stim/white_mw040.bmp","green","Share","REAL","1",""
"html-keyboard-response","180","1562136","0.0-7.0-5.28","60fdb99f392d7600a5d42c1f","bdp_wmem","Thu Jul 28 2022 09:13:38 GMT-0700 (Pacific Daylight Time)","1775134","Match,No Match","","null","","","","","","<div class='trialBorder'><div class='vertical-center'><img src='img/correct.jpg'></div><div class='respDiv'><div class='respDivL'><font style='color:orange'>Match<br>(e)</font></div><div class='respDivR'>No Match<br>(i)</div></div></div>","null","FEEDBACK","","","","","","","","","","","",""
"html-keyboard-response","181","1562638","0.0-7.0-1.29","60fdb99f392d7600a5d42c1f","bdp_wmem","Thu Jul 28 2022 09:13:38 GMT-0700 (Pacific Daylight Time)","1775134","Match,No Match","","null","","","","","","<div class='trialBorder'><div class='vertical-center'><img src='img/fixation2_sml.jpg'</img></div></div>","null","FIX","","","","","","","","","","","",""
"html-keyboard-response","182","1567142","0.0-7.0-2.29","60fdb99f392d7600a5d42c1f","bdp_wmem","Thu Jul 28 2022 09:13:38 GMT-0700 (Pacific Daylight Time)","1775134","Match,No Match","","null","","","","","","<div class='trialBorder'><div class='vertical-center'><img style='vertical-align:center; align:center' src='img/fixation2_sml.jpg'></div><div class='arrayDiv3'><div class='tl'><img class='introPic' src='trustrating_stim/white_mw078.bmp'><br><font color='red'><strong>Keep</strong></font></div><div class='tc'><img class='introPic' src='trustrating_stim/white_mw091.bmp'><br><font color='green'><strong>Share</strong></font></div><div class='tr'><img class='introPic' src='trustrating_stim/white_mw013.bmp'><br><font color='red'><strong>Keep</strong></font></div></div></div>","null","ARRAY","3","trustrating_stim/white_mw078.bmp,trustrating_stim/white_mw091.bmp,trustrating_stim/white_mw013.bmp","0,1,0","noMatchOutcome","i","4500","","","","","",""
"html-keyboard-response","183","1571145","0.0-7.0-3.29","60fdb99f392d7600a5d42c1f","bdp_wmem","Thu Jul 28 2022 09:13:38 GMT-0700 (Pacific Daylight Time)","1775134","Match,No Match","","null","","","","","","<div class='trialBorder'><div class='vertical-center'><img src='img/fixation2_sml.jpg'</img></div></div>","null","DELAY","","","","","","","","","","","",""
"html-keyboard-response","184","1574627","0.0-7.0-4.29","60fdb99f392d7600a5d42c1f","bdp_wmem","Thu Jul 28 2022 09:13:38 GMT-0700 (Pacific Daylight Time)","1775134","Match,No Match","","3478","","","","","","<div class='trialBorder'><div class='targDiv'><div class='tc'><img class='introPic' src='trustrating_stim/white_mw078.bmp'><br><font color='green'><strong>Share</strong></font></div></div><div class='respDiv'><div class='respDivL'>Match<br>(e)</div><div class='respDivR'>No Match<br>(i)</div></div></div>","i","TARGET","3","trustrating_stim/white_mw078.bmp,trustrating_stim/white_mw091.bmp,trustrating_stim/white_mw013.bmp","0,1,0","noMatchOutcome","i","4500","trustrating_stim/white_mw078.bmp","green","Share","REAL","1",""
