"event","trial","time","trialtype","numBlurs","subject_id","task","startTime","totalTime","labels","trial_type","trial_index","time_elapsed","internal_node_id","view_history","rt","success","stimulus","key_press","stimType","arraySize","arrayFaces","arrayOutcomes","matchType","corrResp","arrayDur","targFace","targCol","targOutcome","trialType","corr"
"blur","0","0","blurevent","1","62e19208352cd518d7b2f085","bdp_wmem","Tue Mar 14 2023 22:09:53 GMT-0400 (Eastern Daylight Time)","629514","Match,No Match","","","","","","","","","","","","","","","","","","","","",""
"focus","0","0","focusevent","","62e19208352cd518d7b2f085","bdp_wmem","Tue Mar 14 2023 22:09:53 GMT-0400 (Eastern Daylight Time)","629514","Match,No Match","","","","","","","","","","","","","","","","","","","","",""
"","","","","","62e19208352cd518d7b2f085","bdp_wmem","Tue Mar 14 2023 22:09:53 GMT-0400 (Eastern Daylight Time)","629514","Match,No Match","pavlovia","0","6","0.0-0.0","","","","","","","","","","","","","","","","",""
"","","","","","62e19208352cd518d7b2f085","bdp_wmem","Tue Mar 14 2023 22:09:53 GMT-0400 (Eastern Daylight Time)","629514","Match,No Match","instructions","1","4804","0.0-1.0","[{""page_index"":0,""viewing_time"":4797}]","4797","","","","","","","","","","","","","","",""
"fullscreenenter","2","6926","fullscreenenter","","62e19208352cd518d7b2f085","bdp_wmem","Tue Mar 14 2023 22:09:53 GMT-0400 (Eastern Daylight Time)","629514","Match,No Match","","","","","","","","","","","","","","","","","","","","",""
"","","","","","62e19208352cd518d7b2f085","bdp_wmem","Tue Mar 14 2023 22:09:53 GMT-0400 (Eastern Daylight Time)","629514","Match,No Match","fullscreen","2","7915","0.0-2.0","","","true","","","","","","","","","","","","","",""
"","","","","","62e19208352cd518d7b2f085","bdp_wmem","Tue Mar 14 2023 22:09:53 GMT-0400 (Eastern Daylight Time)","629514","Match,No Match","instructions","3","121811","0.0-4.0","[{""page_index"":0,""viewing_time"":29604},{""page_index"":1,""viewing_time"":32776},{""page_index"":2,""viewing_time"":26369},{""page_index"":3,""viewing_time"":14295},{""page_index"":4,""viewing_time"":10848}]","113892","","","","","","","","","","","","","","",""
"","","","","","62e19208352cd518d7b2f085","bdp_wmem","Tue Mar 14 2023 22:09:53 GMT-0400 (Eastern Daylight Time)","629514","Match,No Match","html-keyboard-response","4","122319","0.0-5.0-1.0","","null","","<div class='trialBorder'><div class='vertical-center'><img src='img/fixation2_sml.jpg'</img></div></div>","null","FIX","","","","","","","","","","",""
"","","","","","62e19208352cd518d7b2f085","bdp_wmem","Tue Mar 14 2023 22:09:53 GMT-0400 (Eastern Daylight Time)","629514","Match,No Match","html-keyboard-response","5","123822","0.0-5.0-2.0","","null","","<div class='trialBorder'><div class='vertical-center'><img style='vertical-align:center; align:center' src='img/fixation2_sml.jpg'></div><div class='arrayDiv1'><div class='tc'><img class='introPic' src='trustrating_stim/white_mw040.bmp'><br><font color='red'><strong>Keep</strong></font></div></div></div>","null","ARRAY","1","trustrating_stim/white_mw040.bmp","0","noMatchFace","i","1500","","","","",""
"","","","","","62e19208352cd518d7b2f085","bdp_wmem","Tue Mar 14 2023 22:09:53 GMT-0400 (Eastern Daylight Time)","629514","Match,No Match","html-keyboard-response","6","127830","0.0-5.0-3.0","","null","","<div class='trialBorder'><div class='vertical-center'><img src='img/fixation2_sml.jpg'</img></div></div>","null","DELAY","","","","","","","","","","",""
"","","","","","62e19208352cd518d7b2f085","bdp_wmem","Tue Mar 14 2023 22:09:53 GMT-0400 (Eastern Daylight Time)","629514","Match,No Match","html-keyboard-response","7","129458","0.0-5.0-4.0","","1627","","<div class='trialBorder'><div class='targDiv'><div class='tc'><img class='introPic' src='trustrating_stim/white_mw010.bmp'><br><font color='red'><strong>Keep</strong></font></div></div><div class='respDiv'><div class='respDivL'>Match<br>(e)</div><div class='respDivR'>No Match<br>(i)</div></div></div>","i","TARGET","1","trustrating_stim/white_mw040.bmp","0","noMatchFace","i","1500","trustrating_stim/white_mw010.bmp","red","Keep","PRACTICE","1"
"","","","","","62e19208352cd518d7b2f085","bdp_wmem","Tue Mar 14 2023 22:09:53 GMT-0400 (Eastern Daylight Time)","629514","Match,No Match","html-keyboard-response","8","129966","0.0-5.0-5.0","","null","","<div class='trialBorder'><div class='vertical-center'><img src='img/correct.jpg'></div><div class='respDiv'><div class='respDivL'>Match<br>(e)</div><div class='respDivR'><font style='color:orange'>No Match<br>(i)</font></div></div></div>","null","FEEDBACK","","","","","","","","","","",""
"","","","","","62e19208352cd518d7b2f085","bdp_wmem","Tue Mar 14 2023 22:09:53 GMT-0400 (Eastern Daylight Time)","629514","Match,No Match","html-keyboard-response","9","130470","0.0-5.0-1.1","","null","","<div class='trialBorder'><div class='vertical-center'><img src='img/fixation2_sml.jpg'</img></div></div>","null","FIX","","","","","","","","","","",""
"","","","","","62e19208352cd518d7b2f085","bdp_wmem","Tue Mar 14 2023 22:09:53 GMT-0400 (Eastern Daylight Time)","629514","Match,No Match","html-keyboard-response","10","133478","0.0-5.0-2.1","","null","","<div class='trialBorder'><div class='vertical-center'><img style='vertical-align:center; align:center' src='img/fixation2_sml.jpg'></div><div class='arrayDiv2'><div class='tl'><img class='introPic' src='trustrating_stim/white_mw013.bmp'><br><font color='green'><strong>Share</strong></font></div><div class='tr'><img class='introPic' src='trustrating_stim/white_mw070.bmp'><br><font color='red'><strong>Keep</strong></font></div></div></div>","null","ARRAY","2","trustrating_stim/white_mw013.bmp,trustrating_stim/white_mw070.bmp","1,0","Match","e","3000","","","","",""
"","","","","","62e19208352cd518d7b2f085","bdp_wmem","Tue Mar 14 2023 22:09:53 GMT-0400 (Eastern Daylight Time)","629514","Match,No Match","html-keyboard-response","11","137486","0.0-5.0-3.1","","null","","<div class='trialBorder'><div class='vertical-center'><img src='img/fixation2_sml.jpg'</img></div></div>","null","DELAY","","","","","","","","","","",""
"","","","","","62e19208352cd518d7b2f085","bdp_wmem","Tue Mar 14 2023 22:09:53 GMT-0400 (Eastern Daylight Time)","629514","Match,No Match","html-keyboard-response","12","139019","0.0-5.0-4.1","","1530","","<div class='trialBorder'><div class='targDiv'><div class='tc'><img class='introPic' src='trustrating_stim/white_mw070.bmp'><br><font color='red'><strong>Keep</strong></font></div></div><div class='respDiv'><div class='respDivL'>Match<br>(e)</div><div class='respDivR'>No Match<br>(i)</div></div></div>","i","TARGET","2","trustrating_stim/white_mw013.bmp,trustrating_stim/white_mw070.bmp","1,0","Match","e","3000","trustrating_stim/white_mw070.bmp","red","Keep","PRACTICE","0"
"","","","","","62e19208352cd518d7b2f085","bdp_wmem","Tue Mar 14 2023 22:09:53 GMT-0400 (Eastern Daylight Time)","629514","Match,No Match","html-keyboard-response","13","139526","0.0-5.0-5.1","","null","","<div class='trialBorder'><div class='vertical-center'><img src='img/error.jpg'></div><div class='respDiv'><div class='respDivL'>Match<br>(e)</div><div class='respDivR'><font style='color:orange'>No Match<br>(i)</font></div></div></div>","null","FEEDBACK","","","","","","","","","","",""
"","","","","","62e19208352cd518d7b2f085","bdp_wmem","Tue Mar 14 2023 22:09:53 GMT-0400 (Eastern Daylight Time)","629514","Match,No Match","html-keyboard-response","14","140030","0.0-5.0-1.2","","null","","<div class='trialBorder'><div class='vertical-center'><img src='img/fixation2_sml.jpg'</img></div></div>","null","FIX","","","","","","","","","","",""
"","","","","","62e19208352cd518d7b2f085","bdp_wmem","Tue Mar 14 2023 22:09:53 GMT-0400 (Eastern Daylight Time)","629514","Match,No Match","html-keyboard-response","15","144534","0.0-5.0-2.2","","null","","<div class='trialBorder'><div class='vertical-center'><img style='vertical-align:center; align:center' src='img/fixation2_sml.jpg'></div><div class='arrayDiv3'><div class='tl'><img class='introPic' src='trustrating_stim/white_mw092.bmp'><br><font color='red'><strong>Keep</strong></font></div><div class='tc'><img class='introPic' src='trustrating_stim/white_mw012.bmp'><br><font color='red'><strong>Keep</strong></font></div><div class='tr'><img class='introPic' src='trustrating_stim/white_mw038.bmp'><br><font color='green'><strong>Share</strong></font></div></div></div>","null","ARRAY","3","trustrating_stim/white_mw092.bmp,trustrating_stim/white_mw012.bmp,trustrating_stim/white_mw038.bmp","0,0,1","Match","e","4500","","","","",""
"","","","","","62e19208352cd518d7b2f085","bdp_wmem","Tue Mar 14 2023 22:09:53 GMT-0400 (Eastern Daylight Time)","629514","Match,No Match","html-keyboard-response","16","148542","0.0-5.0-3.2","","null","","<div class='trialBorder'><div class='vertical-center'><img src='img/fixation2_sml.jpg'</img></div></div>","null","DELAY","","","","","","","","","","",""
"","","","","","62e19208352cd518d7b2f085","bdp_wmem","Tue Mar 14 2023 22:09:53 GMT-0400 (Eastern Daylight Time)","629514","Match,No Match","html-keyboard-response","17","149738","0.0-5.0-4.2","","1195","","<div class='trialBorder'><div class='targDiv'><div class='tc'><img class='introPic' src='trustrating_stim/white_mw038.bmp'><br><font color='green'><strong>Share</strong></font></div></div><div class='respDiv'><div class='respDivL'>Match<br>(e)</div><div class='respDivR'>No Match<br>(i)</div></div></div>","i","TARGET","3","trustrating_stim/white_mw092.bmp,trustrating_stim/white_mw012.bmp,trustrating_stim/white_mw038.bmp","0,0,1","Match","e","4500","trustrating_stim/white_mw038.bmp","green","Share","PRACTICE","0"
"","","","","","62e19208352cd518d7b2f085","bdp_wmem","Tue Mar 14 2023 22:09:53 GMT-0400 (Eastern Daylight Time)","629514","Match,No Match","html-keyboard-response","18","150246","0.0-5.0-5.2","","null","","<div class='trialBorder'><div class='vertical-center'><img src='img/error.jpg'></div><div class='respDiv'><div class='respDivL'>Match<br>(e)</div><div class='respDivR'><font style='color:orange'>No Match<br>(i)</font></div></div></div>","null","FEEDBACK","","","","","","","","","","",""
"","","","","","62e19208352cd518d7b2f085","bdp_wmem","Tue Mar 14 2023 22:09:53 GMT-0400 (Eastern Daylight Time)","629514","Match,No Match","html-keyboard-response","19","150750","0.0-5.0-1.3","","null","","<div class='trialBorder'><div class='vertical-center'><img src='img/fixation2_sml.jpg'</img></div></div>","null","FIX","","","","","","","","","","",""
"","","","","","62e19208352cd518d7b2f085","bdp_wmem","Tue Mar 14 2023 22:09:53 GMT-0400 (Eastern Daylight Time)","629514","Match,No Match","html-keyboard-response","20","153758","0.0-5.0-2.3","","null","","<div class='trialBorder'><div class='vertical-center'><img style='vertical-align:center; align:center' src='img/fixation2_sml.jpg'></div><div class='arrayDiv2'><div class='tl'><img class='introPic' src='trustrating_stim/white_mw013.bmp'><br><font color='red'><strong>Keep</strong></font></div><div class='tr'><img class='introPic' src='trustrating_stim/white_mw092.bmp'><br><font color='green'><strong>Share</strong></font></div></div></div>","null","ARRAY","2","trustrating_stim/white_mw013.bmp,trustrating_stim/white_mw092.bmp","0,1","noMatchOutcome","i","3000","","","","",""
"","","","","","62e19208352cd518d7b2f085","bdp_wmem","Tue Mar 14 2023 22:09:53 GMT-0400 (Eastern Daylight Time)","629514","Match,No Match","html-keyboard-response","21","157767","0.0-5.0-3.3","","null","","<div class='trialBorder'><div class='vertical-center'><img src='img/fixation2_sml.jpg'</img></div></div>","null","DELAY","","","","","","","","","","",""
"","","","","","62e19208352cd518d7b2f085","bdp_wmem","Tue Mar 14 2023 22:09:53 GMT-0400 (Eastern Daylight Time)","629514","Match,No Match","html-keyboard-response","22","159419","0.0-5.0-4.3","","1650","","<div class='trialBorder'><div class='targDiv'><div class='tc'><img class='introPic' src='trustrating_stim/white_mw092.bmp'><br><font color='red'><strong>Keep</strong></font></div></div><div class='respDiv'><div class='respDivL'>Match<br>(e)</div><div class='respDivR'>No Match<br>(i)</div></div></div>","i","TARGET","2","trustrating_stim/white_mw013.bmp,trustrating_stim/white_mw092.bmp","0,1","noMatchOutcome","i","3000","trustrating_stim/white_mw092.bmp","red","Keep","PRACTICE","1"
"","","","","","62e19208352cd518d7b2f085","bdp_wmem","Tue Mar 14 2023 22:09:53 GMT-0400 (Eastern Daylight Time)","629514","Match,No Match","html-keyboard-response","23","159927","0.0-5.0-5.3","","null","","<div class='trialBorder'><div class='vertical-center'><img src='img/correct.jpg'></div><div class='respDiv'><div class='respDivL'>Match<br>(e)</div><div class='respDivR'><font style='color:orange'>No Match<br>(i)</font></div></div></div>","null","FEEDBACK","","","","","","","","","","",""
"","","","","","62e19208352cd518d7b2f085","bdp_wmem","Tue Mar 14 2023 22:09:53 GMT-0400 (Eastern Daylight Time)","629514","Match,No Match","html-keyboard-response","24","160431","0.0-5.0-1.4","","null","","<div class='trialBorder'><div class='vertical-center'><img src='img/fixation2_sml.jpg'</img></div></div>","null","FIX","","","","","","","","","","",""
"","","","","","62e19208352cd518d7b2f085","bdp_wmem","Tue Mar 14 2023 22:09:53 GMT-0400 (Eastern Daylight Time)","629514","Match,No Match","html-keyboard-response","25","164936","0.0-5.0-2.4","","null","","<div class='trialBorder'><div class='vertical-center'><img style='vertical-align:center; align:center' src='img/fixation2_sml.jpg'></div><div class='arrayDiv3'><div class='tl'><img class='introPic' src='trustrating_stim/white_mw070.bmp'><br><font color='green'><strong>Share</strong></font></div><div class='tc'><img class='introPic' src='trustrating_stim/white_mw012.bmp'><br><font color='red'><strong>Keep</strong></font></div><div class='tr'><img class='introPic' src='trustrating_stim/white_mw013.bmp'><br><font color='green'><strong>Share</strong></font></div></div></div>","null","ARRAY","3","trustrating_stim/white_mw070.bmp,trustrating_stim/white_mw012.bmp,trustrating_stim/white_mw013.bmp","1,0,1","noMatchOutcome","i","4500","","","","",""
"","","","","","62e19208352cd518d7b2f085","bdp_wmem","Tue Mar 14 2023 22:09:53 GMT-0400 (Eastern Daylight Time)","629514","Match,No Match","html-keyboard-response","26","168944","0.0-5.0-3.4","","null","","<div class='trialBorder'><div class='vertical-center'><img src='img/fixation2_sml.jpg'</img></div></div>","null","DELAY","","","","","","","","","","",""
"","","","","","62e19208352cd518d7b2f085","bdp_wmem","Tue Mar 14 2023 22:09:53 GMT-0400 (Eastern Daylight Time)","629514","Match,No Match","html-keyboard-response","27","170499","0.0-5.0-4.4","","1554","","<div class='trialBorder'><div class='targDiv'><div class='tc'><img class='introPic' src='trustrating_stim/white_mw012.bmp'><br><font color='green'><strong>Share</strong></font></div></div><div class='respDiv'><div class='respDivL'>Match<br>(e)</div><div class='respDivR'>No Match<br>(i)</div></div></div>","i","TARGET","3","trustrating_stim/white_mw070.bmp,trustrating_stim/white_mw012.bmp,trustrating_stim/white_mw013.bmp","1,0,1","noMatchOutcome","i","4500","trustrating_stim/white_mw012.bmp","green","Share","PRACTICE","1"
"","","","","","62e19208352cd518d7b2f085","bdp_wmem","Tue Mar 14 2023 22:09:53 GMT-0400 (Eastern Daylight Time)","629514","Match,No Match","html-keyboard-response","28","171008","0.0-5.0-5.4","","null","","<div class='trialBorder'><div class='vertical-center'><img src='img/correct.jpg'></div><div class='respDiv'><div class='respDivL'>Match<br>(e)</div><div class='respDivR'><font style='color:orange'>No Match<br>(i)</font></div></div></div>","null","FEEDBACK","","","","","","","","","","",""
"","","","","","62e19208352cd518d7b2f085","bdp_wmem","Tue Mar 14 2023 22:09:53 GMT-0400 (Eastern Daylight Time)","629514","Match,No Match","html-keyboard-response","29","171512","0.0-5.0-1.5","","null","","<div class='trialBorder'><div class='vertical-center'><img src='img/fixation2_sml.jpg'</img></div></div>","null","FIX","","","","","","","","","","",""
"","","","","","62e19208352cd518d7b2f085","bdp_wmem","Tue Mar 14 2023 22:09:53 GMT-0400 (Eastern Daylight Time)","629514","Match,No Match","html-keyboard-response","30","173016","0.0-5.0-2.5","","null","","<div class='trialBorder'><div class='vertical-center'><img style='vertical-align:center; align:center' src='img/fixation2_sml.jpg'></div><div class='arrayDiv1'><div class='tc'><img class='introPic' src='trustrating_stim/white_mw070.bmp'><br><font color='red'><strong>Keep</strong></font></div></div></div>","null","ARRAY","1","trustrating_stim/white_mw070.bmp","0","Match","e","1500","","","","",""
"","","","","","62e19208352cd518d7b2f085","bdp_wmem","Tue Mar 14 2023 22:09:53 GMT-0400 (Eastern Daylight Time)","629514","Match,No Match","html-keyboard-response","31","177023","0.0-5.0-3.5","","null","","<div class='trialBorder'><div class='vertical-center'><img src='img/fixation2_sml.jpg'</img></div></div>","null","DELAY","","","","","","","","","","",""
"","","","","","62e19208352cd518d7b2f085","bdp_wmem","Tue Mar 14 2023 22:09:53 GMT-0400 (Eastern Daylight Time)","629514","Match,No Match","html-keyboard-response","32","177874","0.0-5.0-4.5","","850","","<div class='trialBorder'><div class='targDiv'><div class='tc'><img class='introPic' src='trustrating_stim/white_mw070.bmp'><br><font color='red'><strong>Keep</strong></font></div></div><div class='respDiv'><div class='respDivL'>Match<br>(e)</div><div class='respDivR'>No Match<br>(i)</div></div></div>","e","TARGET","1","trustrating_stim/white_mw070.bmp","0","Match","e","1500","trustrating_stim/white_mw070.bmp","red","Keep","PRACTICE","1"
"","","","","","62e19208352cd518d7b2f085","bdp_wmem","Tue Mar 14 2023 22:09:53 GMT-0400 (Eastern Daylight Time)","629514","Match,No Match","html-keyboard-response","33","178383","0.0-5.0-5.5","","null","","<div class='trialBorder'><div class='vertical-center'><img src='img/correct.jpg'></div><div class='respDiv'><div class='respDivL'><font style='color:orange'>Match<br>(e)</font></div><div class='respDivR'>No Match<br>(i)</div></div></div>","null","FEEDBACK","","","","","","","","","","",""
"","","","","","62e19208352cd518d7b2f085","bdp_wmem","Tue Mar 14 2023 22:09:53 GMT-0400 (Eastern Daylight Time)","629514","Match,No Match","instructions","34","183899","0.0-6.0","[{""page_index"":0,""viewing_time"":5516}]","5516","","","","","","","","","","","","","","",""
"","","","","","62e19208352cd518d7b2f085","bdp_wmem","Tue Mar 14 2023 22:09:53 GMT-0400 (Eastern Daylight Time)","629514","Match,No Match","html-keyboard-response","35","184407","0.0-7.0-1.0","","null","","<div class='trialBorder'><div class='vertical-center'><img src='img/fixation2_sml.jpg'</img></div></div>","null","FIX","","","","","","","","","","",""
"","","","","","62e19208352cd518d7b2f085","bdp_wmem","Tue Mar 14 2023 22:09:53 GMT-0400 (Eastern Daylight Time)","629514","Match,No Match","html-keyboard-response","36","187415","0.0-7.0-2.0","","null","","<div class='trialBorder'><div class='vertical-center'><img style='vertical-align:center; align:center' src='img/fixation2_sml.jpg'></div><div class='arrayDiv2'><div class='tl'><img class='introPic' src='trustrating_stim/white_mw038.bmp'><br><font color='red'><strong>Keep</strong></font></div><div class='tr'><img class='introPic' src='trustrating_stim/white_mw003.bmp'><br><font color='green'><strong>Share</strong></font></div></div></div>","null","ARRAY","2","trustrating_stim/white_mw038.bmp,trustrating_stim/white_mw003.bmp","0,1","Match","e","3000","","","","",""
"","","","","","62e19208352cd518d7b2f085","bdp_wmem","Tue Mar 14 2023 22:09:53 GMT-0400 (Eastern Daylight Time)","629514","Match,No Match","html-keyboard-response","37","191423","0.0-7.0-3.0","","null","","<div class='trialBorder'><div class='vertical-center'><img src='img/fixation2_sml.jpg'</img></div></div>","null","DELAY","","","","","","","","","","",""
"","","","","","62e19208352cd518d7b2f085","bdp_wmem","Tue Mar 14 2023 22:09:53 GMT-0400 (Eastern Daylight Time)","629514","Match,No Match","html-keyboard-response","38","192866","0.0-7.0-4.0","","1440","","<div class='trialBorder'><div class='targDiv'><div class='tc'><img class='introPic' src='trustrating_stim/white_mw003.bmp'><br><font color='green'><strong>Share</strong></font></div></div><div class='respDiv'><div class='respDivL'>Match<br>(e)</div><div class='respDivR'>No Match<br>(i)</div></div></div>","i","TARGET","2","trustrating_stim/white_mw038.bmp,trustrating_stim/white_mw003.bmp","0,1","Match","e","3000","trustrating_stim/white_mw003.bmp","green","Share","REAL","0"
"","","","","","62e19208352cd518d7b2f085","bdp_wmem","Tue Mar 14 2023 22:09:53 GMT-0400 (Eastern Daylight Time)","629514","Match,No Match","html-keyboard-response","39","193368","0.0-7.0-5.0","","null","","<div class='trialBorder'><div class='vertical-center'><img src='img/error.jpg'></div><div class='respDiv'><div class='respDivL'>Match<br>(e)</div><div class='respDivR'><font style='color:orange'>No Match<br>(i)</font></div></div></div>","null","FEEDBACK","","","","","","","","","","",""
"","","","","","62e19208352cd518d7b2f085","bdp_wmem","Tue Mar 14 2023 22:09:53 GMT-0400 (Eastern Daylight Time)","629514","Match,No Match","html-keyboard-response","40","193872","0.0-7.0-1.1","","null","","<div class='trialBorder'><div class='vertical-center'><img src='img/fixation2_sml.jpg'</img></div></div>","null","FIX","","","","","","","","","","",""
"","","","","","62e19208352cd518d7b2f085","bdp_wmem","Tue Mar 14 2023 22:09:53 GMT-0400 (Eastern Daylight Time)","629514","Match,No Match","html-keyboard-response","41","195376","0.0-7.0-2.1","","null","","<div class='trialBorder'><div class='vertical-center'><img style='vertical-align:center; align:center' src='img/fixation2_sml.jpg'></div><div class='arrayDiv1'><div class='tc'><img class='introPic' src='trustrating_stim/white_mw003.bmp'><br><font color='green'><strong>Share</strong></font></div></div></div>","null","ARRAY","1","trustrating_stim/white_mw003.bmp","1","Match","e","1500","","","","",""
"","","","","","62e19208352cd518d7b2f085","bdp_wmem","Tue Mar 14 2023 22:09:53 GMT-0400 (Eastern Daylight Time)","629514","Match,No Match","html-keyboard-response","42","199384","0.0-7.0-3.1","","null","","<div class='trialBorder'><div class='vertical-center'><img src='img/fixation2_sml.jpg'</img></div></div>","null","DELAY","","","","","","","","","","",""
"","","","","","62e19208352cd518d7b2f085","bdp_wmem","Tue Mar 14 2023 22:09:53 GMT-0400 (Eastern Daylight Time)","629514","Match,No Match","html-keyboard-response","43","200482","0.0-7.0-4.1","","1097","","<div class='trialBorder'><div class='targDiv'><div class='tc'><img class='introPic' src='trustrating_stim/white_mw003.bmp'><br><font color='green'><strong>Share</strong></font></div></div><div class='respDiv'><div class='respDivL'>Match<br>(e)</div><div class='respDivR'>No Match<br>(i)</div></div></div>","e","TARGET","1","trustrating_stim/white_mw003.bmp","1","Match","e","1500","trustrating_stim/white_mw003.bmp","green","Share","REAL","1"
"","","","","","62e19208352cd518d7b2f085","bdp_wmem","Tue Mar 14 2023 22:09:53 GMT-0400 (Eastern Daylight Time)","629514","Match,No Match","html-keyboard-response","44","200984","0.0-7.0-5.1","","null","","<div class='trialBorder'><div class='vertical-center'><img src='img/correct.jpg'></div><div class='respDiv'><div class='respDivL'><font style='color:orange'>Match<br>(e)</font></div><div class='respDivR'>No Match<br>(i)</div></div></div>","null","FEEDBACK","","","","","","","","","","",""
"","","","","","62e19208352cd518d7b2f085","bdp_wmem","Tue Mar 14 2023 22:09:53 GMT-0400 (Eastern Daylight Time)","629514","Match,No Match","html-keyboard-response","45","201488","0.0-7.0-1.2","","null","","<div class='trialBorder'><div class='vertical-center'><img src='img/fixation2_sml.jpg'</img></div></div>","null","FIX","","","","","","","","","","",""
"","","","","","62e19208352cd518d7b2f085","bdp_wmem","Tue Mar 14 2023 22:09:53 GMT-0400 (Eastern Daylight Time)","629514","Match,No Match","html-keyboard-response","46","204495","0.0-7.0-2.2","","null","","<div class='trialBorder'><div class='vertical-center'><img style='vertical-align:center; align:center' src='img/fixation2_sml.jpg'></div><div class='arrayDiv2'><div class='tl'><img class='introPic' src='trustrating_stim/white_mw070.bmp'><br><font color='green'><strong>Share</strong></font></div><div class='tr'><img class='introPic' src='trustrating_stim/white_mw012.bmp'><br><font color='red'><strong>Keep</strong></font></div></div></div>","null","ARRAY","2","trustrating_stim/white_mw070.bmp,trustrating_stim/white_mw012.bmp","1,0","Match","e","3000","","","","",""
"","","","","","62e19208352cd518d7b2f085","bdp_wmem","Tue Mar 14 2023 22:09:53 GMT-0400 (Eastern Daylight Time)","629514","Match,No Match","html-keyboard-response","47","208503","0.0-7.0-3.2","","null","","<div class='trialBorder'><div class='vertical-center'><img src='img/fixation2_sml.jpg'</img></div></div>","null","DELAY","","","","","","","","","","",""
"","","","","","62e19208352cd518d7b2f085","bdp_wmem","Tue Mar 14 2023 22:09:53 GMT-0400 (Eastern Daylight Time)","629514","Match,No Match","html-keyboard-response","48","210217","0.0-7.0-4.2","","1713","","<div class='trialBorder'><div class='targDiv'><div class='tc'><img class='introPic' src='trustrating_stim/white_mw012.bmp'><br><font color='red'><strong>Keep</strong></font></div></div><div class='respDiv'><div class='respDivL'>Match<br>(e)</div><div class='respDivR'>No Match<br>(i)</div></div></div>","i","TARGET","2","trustrating_stim/white_mw070.bmp,trustrating_stim/white_mw012.bmp","1,0","Match","e","3000","trustrating_stim/white_mw012.bmp","red","Keep","REAL","0"
"","","","","","62e19208352cd518d7b2f085","bdp_wmem","Tue Mar 14 2023 22:09:53 GMT-0400 (Eastern Daylight Time)","629514","Match,No Match","html-keyboard-response","49","210719","0.0-7.0-5.2","","null","","<div class='trialBorder'><div class='vertical-center'><img src='img/error.jpg'></div><div class='respDiv'><div class='respDivL'>Match<br>(e)</div><div class='respDivR'><font style='color:orange'>No Match<br>(i)</font></div></div></div>","null","FEEDBACK","","","","","","","","","","",""
"","","","","","62e19208352cd518d7b2f085","bdp_wmem","Tue Mar 14 2023 22:09:53 GMT-0400 (Eastern Daylight Time)","629514","Match,No Match","html-keyboard-response","50","211223","0.0-7.0-1.3","","null","","<div class='trialBorder'><div class='vertical-center'><img src='img/fixation2_sml.jpg'</img></div></div>","null","FIX","","","","","","","","","","",""
"","","","","","62e19208352cd518d7b2f085","bdp_wmem","Tue Mar 14 2023 22:09:53 GMT-0400 (Eastern Daylight Time)","629514","Match,No Match","html-keyboard-response","51","214232","0.0-7.0-2.3","","null","","<div class='trialBorder'><div class='vertical-center'><img style='vertical-align:center; align:center' src='img/fixation2_sml.jpg'></div><div class='arrayDiv2'><div class='tl'><img class='introPic' src='trustrating_stim/white_mw012.bmp'><br><font color='green'><strong>Share</strong></font></div><div class='tr'><img class='introPic' src='trustrating_stim/white_mw038.bmp'><br><font color='red'><strong>Keep</strong></font></div></div></div>","null","ARRAY","2","trustrating_stim/white_mw012.bmp,trustrating_stim/white_mw038.bmp","1,0","noMatchOutcome","i","3000","","","","",""
"","","","","","62e19208352cd518d7b2f085","bdp_wmem","Tue Mar 14 2023 22:09:53 GMT-0400 (Eastern Daylight Time)","629514","Match,No Match","html-keyboard-response","52","218241","0.0-7.0-3.3","","null","","<div class='trialBorder'><div class='vertical-center'><img src='img/fixation2_sml.jpg'</img></div></div>","null","DELAY","","","","","","","","","","",""
"","","","","","62e19208352cd518d7b2f085","bdp_wmem","Tue Mar 14 2023 22:09:53 GMT-0400 (Eastern Daylight Time)","629514","Match,No Match","html-keyboard-response","53","219819","0.0-7.0-4.3","","1577","","<div class='trialBorder'><div class='targDiv'><div class='tc'><img class='introPic' src='trustrating_stim/white_mw038.bmp'><br><font color='green'><strong>Share</strong></font></div></div><div class='respDiv'><div class='respDivL'>Match<br>(e)</div><div class='respDivR'>No Match<br>(i)</div></div></div>","e","TARGET","2","trustrating_stim/white_mw012.bmp,trustrating_stim/white_mw038.bmp","1,0","noMatchOutcome","i","3000","trustrating_stim/white_mw038.bmp","green","Share","REAL","0"
"","","","","","62e19208352cd518d7b2f085","bdp_wmem","Tue Mar 14 2023 22:09:53 GMT-0400 (Eastern Daylight Time)","629514","Match,No Match","html-keyboard-response","54","220321","0.0-7.0-5.3","","null","","<div class='trialBorder'><div class='vertical-center'><img src='img/error.jpg'></div><div class='respDiv'><div class='respDivL'><font style='color:orange'>Match<br>(e)</font></div><div class='respDivR'>No Match<br>(i)</div></div></div>","null","FEEDBACK","","","","","","","","","","",""
"","","","","","62e19208352cd518d7b2f085","bdp_wmem","Tue Mar 14 2023 22:09:53 GMT-0400 (Eastern Daylight Time)","629514","Match,No Match","html-keyboard-response","55","220825","0.0-7.0-1.4","","null","","<div class='trialBorder'><div class='vertical-center'><img src='img/fixation2_sml.jpg'</img></div></div>","null","FIX","","","","","","","","","","",""
"","","","","","62e19208352cd518d7b2f085","bdp_wmem","Tue Mar 14 2023 22:09:53 GMT-0400 (Eastern Daylight Time)","629514","Match,No Match","html-keyboard-response","56","222329","0.0-7.0-2.4","","null","","<div class='trialBorder'><div class='vertical-center'><img style='vertical-align:center; align:center' src='img/fixation2_sml.jpg'></div><div class='arrayDiv1'><div class='tc'><img class='introPic' src='trustrating_stim/white_mw085.bmp'><br><font color='green'><strong>Share</strong></font></div></div></div>","null","ARRAY","1","trustrating_stim/white_mw085.bmp","1","Match","e","1500","","","","",""
"","","","","","62e19208352cd518d7b2f085","bdp_wmem","Tue Mar 14 2023 22:09:53 GMT-0400 (Eastern Daylight Time)","629514","Match,No Match","html-keyboard-response","57","226337","0.0-7.0-3.4","","null","","<div class='trialBorder'><div class='vertical-center'><img src='img/fixation2_sml.jpg'</img></div></div>","null","DELAY","","","","","","","","","","",""
"","","","","","62e19208352cd518d7b2f085","bdp_wmem","Tue Mar 14 2023 22:09:53 GMT-0400 (Eastern Daylight Time)","629514","Match,No Match","html-keyboard-response","58","227994","0.0-7.0-4.4","","1656","","<div class='trialBorder'><div class='targDiv'><div class='tc'><img class='introPic' src='trustrating_stim/white_mw085.bmp'><br><font color='green'><strong>Share</strong></font></div></div><div class='respDiv'><div class='respDivL'>Match<br>(e)</div><div class='respDivR'>No Match<br>(i)</div></div></div>","i","TARGET","1","trustrating_stim/white_mw085.bmp","1","Match","e","1500","trustrating_stim/white_mw085.bmp","green","Share","REAL","0"
"","","","","","62e19208352cd518d7b2f085","bdp_wmem","Tue Mar 14 2023 22:09:53 GMT-0400 (Eastern Daylight Time)","629514","Match,No Match","html-keyboard-response","59","228497","0.0-7.0-5.4","","null","","<div class='trialBorder'><div class='vertical-center'><img src='img/error.jpg'></div><div class='respDiv'><div class='respDivL'>Match<br>(e)</div><div class='respDivR'><font style='color:orange'>No Match<br>(i)</font></div></div></div>","null","FEEDBACK","","","","","","","","","","",""
"","","","","","62e19208352cd518d7b2f085","bdp_wmem","Tue Mar 14 2023 22:09:53 GMT-0400 (Eastern Daylight Time)","629514","Match,No Match","html-keyboard-response","60","229001","0.0-7.0-1.5","","null","","<div class='trialBorder'><div class='vertical-center'><img src='img/fixation2_sml.jpg'</img></div></div>","null","FIX","","","","","","","","","","",""
"","","","","","62e19208352cd518d7b2f085","bdp_wmem","Tue Mar 14 2023 22:09:53 GMT-0400 (Eastern Daylight Time)","629514","Match,No Match","html-keyboard-response","61","233505","0.0-7.0-2.5","","null","","<div class='trialBorder'><div class='vertical-center'><img style='vertical-align:center; align:center' src='img/fixation2_sml.jpg'></div><div class='arrayDiv3'><div class='tl'><img class='introPic' src='trustrating_stim/white_mw092.bmp'><br><font color='green'><strong>Share</strong></font></div><div class='tc'><img class='introPic' src='trustrating_stim/white_mw040.bmp'><br><font color='red'><strong>Keep</strong></font></div><div class='tr'><img class='introPic' src='trustrating_stim/white_mw013.bmp'><br><font color='red'><strong>Keep</strong></font></div></div></div>","null","ARRAY","3","trustrating_stim/white_mw092.bmp,trustrating_stim/white_mw040.bmp,trustrating_stim/white_mw013.bmp","1,0,0","Match","e","4500","","","","",""
"","","","","","62e19208352cd518d7b2f085","bdp_wmem","Tue Mar 14 2023 22:09:53 GMT-0400 (Eastern Daylight Time)","629514","Match,No Match","html-keyboard-response","62","237512","0.0-7.0-3.5","","null","","<div class='trialBorder'><div class='vertical-center'><img src='img/fixation2_sml.jpg'</img></div></div>","null","DELAY","","","","","","","","","","",""
"","","","","","62e19208352cd518d7b2f085","bdp_wmem","Tue Mar 14 2023 22:09:53 GMT-0400 (Eastern Daylight Time)","629514","Match,No Match","html-keyboard-response","63","239450","0.0-7.0-4.5","","1936","","<div class='trialBorder'><div class='targDiv'><div class='tc'><img class='introPic' src='trustrating_stim/white_mw092.bmp'><br><font color='green'><strong>Share</strong></font></div></div><div class='respDiv'><div class='respDivL'>Match<br>(e)</div><div class='respDivR'>No Match<br>(i)</div></div></div>","e","TARGET","3","trustrating_stim/white_mw092.bmp,trustrating_stim/white_mw040.bmp,trustrating_stim/white_mw013.bmp","1,0,0","Match","e","4500","trustrating_stim/white_mw092.bmp","green","Share","REAL","1"
"","","","","","62e19208352cd518d7b2f085","bdp_wmem","Tue Mar 14 2023 22:09:53 GMT-0400 (Eastern Daylight Time)","629514","Match,No Match","html-keyboard-response","64","239953","0.0-7.0-5.5","","null","","<div class='trialBorder'><div class='vertical-center'><img src='img/correct.jpg'></div><div class='respDiv'><div class='respDivL'><font style='color:orange'>Match<br>(e)</font></div><div class='respDivR'>No Match<br>(i)</div></div></div>","null","FEEDBACK","","","","","","","","","","",""
"","","","","","62e19208352cd518d7b2f085","bdp_wmem","Tue Mar 14 2023 22:09:53 GMT-0400 (Eastern Daylight Time)","629514","Match,No Match","html-keyboard-response","65","240457","0.0-7.0-1.6","","null","","<div class='trialBorder'><div class='vertical-center'><img src='img/fixation2_sml.jpg'</img></div></div>","null","FIX","","","","","","","","","","",""
"","","","","","62e19208352cd518d7b2f085","bdp_wmem","Tue Mar 14 2023 22:09:53 GMT-0400 (Eastern Daylight Time)","629514","Match,No Match","html-keyboard-response","66","241961","0.0-7.0-2.6","","null","","<div class='trialBorder'><div class='vertical-center'><img style='vertical-align:center; align:center' src='img/fixation2_sml.jpg'></div><div class='arrayDiv1'><div class='tc'><img class='introPic' src='trustrating_stim/white_mw012.bmp'><br><font color='red'><strong>Keep</strong></font></div></div></div>","null","ARRAY","1","trustrating_stim/white_mw012.bmp","0","Match","e","1500","","","","",""
"","","","","","62e19208352cd518d7b2f085","bdp_wmem","Tue Mar 14 2023 22:09:53 GMT-0400 (Eastern Daylight Time)","629514","Match,No Match","html-keyboard-response","67","245969","0.0-7.0-3.6","","null","","<div class='trialBorder'><div class='vertical-center'><img src='img/fixation2_sml.jpg'</img></div></div>","null","DELAY","","","","","","","","","","",""
"","","","","","62e19208352cd518d7b2f085","bdp_wmem","Tue Mar 14 2023 22:09:53 GMT-0400 (Eastern Daylight Time)","629514","Match,No Match","html-keyboard-response","68","247041","0.0-7.0-4.6","","1071","","<div class='trialBorder'><div class='targDiv'><div class='tc'><img class='introPic' src='trustrating_stim/white_mw012.bmp'><br><font color='red'><strong>Keep</strong></font></div></div><div class='respDiv'><div class='respDivL'>Match<br>(e)</div><div class='respDivR'>No Match<br>(i)</div></div></div>","e","TARGET","1","trustrating_stim/white_mw012.bmp","0","Match","e","1500","trustrating_stim/white_mw012.bmp","red","Keep","REAL","1"
"","","","","","62e19208352cd518d7b2f085","bdp_wmem","Tue Mar 14 2023 22:09:53 GMT-0400 (Eastern Daylight Time)","629514","Match,No Match","html-keyboard-response","69","247545","0.0-7.0-5.6","","null","","<div class='trialBorder'><div class='vertical-center'><img src='img/correct.jpg'></div><div class='respDiv'><div class='respDivL'><font style='color:orange'>Match<br>(e)</font></div><div class='respDivR'>No Match<br>(i)</div></div></div>","null","FEEDBACK","","","","","","","","","","",""
"","","","","","62e19208352cd518d7b2f085","bdp_wmem","Tue Mar 14 2023 22:09:53 GMT-0400 (Eastern Daylight Time)","629514","Match,No Match","html-keyboard-response","70","248049","0.0-7.0-1.7","","null","","<div class='trialBorder'><div class='vertical-center'><img src='img/fixation2_sml.jpg'</img></div></div>","null","FIX","","","","","","","","","","",""
"","","","","","62e19208352cd518d7b2f085","bdp_wmem","Tue Mar 14 2023 22:09:53 GMT-0400 (Eastern Daylight Time)","629514","Match,No Match","html-keyboard-response","71","252553","0.0-7.0-2.7","","null","","<div class='trialBorder'><div class='vertical-center'><img style='vertical-align:center; align:center' src='img/fixation2_sml.jpg'></div><div class='arrayDiv3'><div class='tl'><img class='introPic' src='trustrating_stim/white_mw092.bmp'><br><font color='red'><strong>Keep</strong></font></div><div class='tc'><img class='introPic' src='trustrating_stim/white_mw070.bmp'><br><font color='red'><strong>Keep</strong></font></div><div class='tr'><img class='introPic' src='trustrating_stim/white_mw010.bmp'><br><font color='green'><strong>Share</strong></font></div></div></div>","null","ARRAY","3","trustrating_stim/white_mw092.bmp,trustrating_stim/white_mw070.bmp,trustrating_stim/white_mw010.bmp","0,0,1","noMatchOutcome","i","4500","","","","",""
"","","","","","62e19208352cd518d7b2f085","bdp_wmem","Tue Mar 14 2023 22:09:53 GMT-0400 (Eastern Daylight Time)","629514","Match,No Match","html-keyboard-response","72","256561","0.0-7.0-3.7","","null","","<div class='trialBorder'><div class='vertical-center'><img src='img/fixation2_sml.jpg'</img></div></div>","null","DELAY","","","","","","","","","","",""
"","","","","","62e19208352cd518d7b2f085","bdp_wmem","Tue Mar 14 2023 22:09:53 GMT-0400 (Eastern Daylight Time)","629514","Match,No Match","html-keyboard-response","73","258090","0.0-7.0-4.7","","1527","","<div class='trialBorder'><div class='targDiv'><div class='tc'><img class='introPic' src='trustrating_stim/white_mw092.bmp'><br><font color='green'><strong>Share</strong></font></div></div><div class='respDiv'><div class='respDivL'>Match<br>(e)</div><div class='respDivR'>No Match<br>(i)</div></div></div>","i","TARGET","3","trustrating_stim/white_mw092.bmp,trustrating_stim/white_mw070.bmp,trustrating_stim/white_mw010.bmp","0,0,1","noMatchOutcome","i","4500","trustrating_stim/white_mw092.bmp","green","Share","REAL","1"
"","","","","","62e19208352cd518d7b2f085","bdp_wmem","Tue Mar 14 2023 22:09:53 GMT-0400 (Eastern Daylight Time)","629514","Match,No Match","html-keyboard-response","74","258608","0.0-7.0-5.7","","null","","<div class='trialBorder'><div class='vertical-center'><img src='img/correct.jpg'></div><div class='respDiv'><div class='respDivL'>Match<br>(e)</div><div class='respDivR'><font style='color:orange'>No Match<br>(i)</font></div></div></div>","null","FEEDBACK","","","","","","","","","","",""
"","","","","","62e19208352cd518d7b2f085","bdp_wmem","Tue Mar 14 2023 22:09:53 GMT-0400 (Eastern Daylight Time)","629514","Match,No Match","html-keyboard-response","75","259113","0.0-7.0-1.8","","null","","<div class='trialBorder'><div class='vertical-center'><img src='img/fixation2_sml.jpg'</img></div></div>","null","FIX","","","","","","","","","","",""
"","","","","","62e19208352cd518d7b2f085","bdp_wmem","Tue Mar 14 2023 22:09:53 GMT-0400 (Eastern Daylight Time)","629514","Match,No Match","html-keyboard-response","76","260617","0.0-7.0-2.8","","null","","<div class='trialBorder'><div class='vertical-center'><img style='vertical-align:center; align:center' src='img/fixation2_sml.jpg'></div><div class='arrayDiv1'><div class='tc'><img class='introPic' src='trustrating_stim/white_mw078.bmp'><br><font color='green'><strong>Share</strong></font></div></div></div>","null","ARRAY","1","trustrating_stim/white_mw078.bmp","1","Match","e","1500","","","","",""
"","","","","","62e19208352cd518d7b2f085","bdp_wmem","Tue Mar 14 2023 22:09:53 GMT-0400 (Eastern Daylight Time)","629514","Match,No Match","html-keyboard-response","77","264628","0.0-7.0-3.8","","null","","<div class='trialBorder'><div class='vertical-center'><img src='img/fixation2_sml.jpg'</img></div></div>","null","DELAY","","","","","","","","","","",""
"","","","","","62e19208352cd518d7b2f085","bdp_wmem","Tue Mar 14 2023 22:09:53 GMT-0400 (Eastern Daylight Time)","629514","Match,No Match","html-keyboard-response","78","265257","0.0-7.0-4.8","","628","","<div class='trialBorder'><div class='targDiv'><div class='tc'><img class='introPic' src='trustrating_stim/white_mw078.bmp'><br><font color='green'><strong>Share</strong></font></div></div><div class='respDiv'><div class='respDivL'>Match<br>(e)</div><div class='respDivR'>No Match<br>(i)</div></div></div>","e","TARGET","1","trustrating_stim/white_mw078.bmp","1","Match","e","1500","trustrating_stim/white_mw078.bmp","green","Share","REAL","1"
"","","","","","62e19208352cd518d7b2f085","bdp_wmem","Tue Mar 14 2023 22:09:53 GMT-0400 (Eastern Daylight Time)","629514","Match,No Match","html-keyboard-response","79","265760","0.0-7.0-5.8","","null","","<div class='trialBorder'><div class='vertical-center'><img src='img/correct.jpg'></div><div class='respDiv'><div class='respDivL'><font style='color:orange'>Match<br>(e)</font></div><div class='respDivR'>No Match<br>(i)</div></div></div>","null","FEEDBACK","","","","","","","","","","",""
"","","","","","62e19208352cd518d7b2f085","bdp_wmem","Tue Mar 14 2023 22:09:53 GMT-0400 (Eastern Daylight Time)","629514","Match,No Match","html-keyboard-response","80","266271","0.0-7.0-1.9","","null","","<div class='trialBorder'><div class='vertical-center'><img src='img/fixation2_sml.jpg'</img></div></div>","null","FIX","","","","","","","","","","",""
"","","","","","62e19208352cd518d7b2f085","bdp_wmem","Tue Mar 14 2023 22:09:53 GMT-0400 (Eastern Daylight Time)","629514","Match,No Match","html-keyboard-response","81","269281","0.0-7.0-2.9","","null","","<div class='trialBorder'><div class='vertical-center'><img style='vertical-align:center; align:center' src='img/fixation2_sml.jpg'></div><div class='arrayDiv2'><div class='tl'><img class='introPic' src='trustrating_stim/white_mw042.bmp'><br><font color='green'><strong>Share</strong></font></div><div class='tr'><img class='introPic' src='trustrating_stim/white_mw040.bmp'><br><font color='red'><strong>Keep</strong></font></div></div></div>","null","ARRAY","2","trustrating_stim/white_mw042.bmp,trustrating_stim/white_mw040.bmp","1,0","noMatchFace","i","3000","","","","",""
"","","","","","62e19208352cd518d7b2f085","bdp_wmem","Tue Mar 14 2023 22:09:53 GMT-0400 (Eastern Daylight Time)","629514","Match,No Match","html-keyboard-response","82","273289","0.0-7.0-3.9","","null","","<div class='trialBorder'><div class='vertical-center'><img src='img/fixation2_sml.jpg'</img></div></div>","null","DELAY","","","","","","","","","","",""
"","","","","","62e19208352cd518d7b2f085","bdp_wmem","Tue Mar 14 2023 22:09:53 GMT-0400 (Eastern Daylight Time)","629514","Match,No Match","html-keyboard-response","83","275065","0.0-7.0-4.9","","1775","","<div class='trialBorder'><div class='targDiv'><div class='tc'><img class='introPic' src='trustrating_stim/white_mw092.bmp'><br><font color='green'><strong>Share</strong></font></div></div><div class='respDiv'><div class='respDivL'>Match<br>(e)</div><div class='respDivR'>No Match<br>(i)</div></div></div>","e","TARGET","2","trustrating_stim/white_mw042.bmp,trustrating_stim/white_mw040.bmp","1,0","noMatchFace","i","3000","trustrating_stim/white_mw092.bmp","green","Share","REAL","0"
"","","","","","62e19208352cd518d7b2f085","bdp_wmem","Tue Mar 14 2023 22:09:53 GMT-0400 (Eastern Daylight Time)","629514","Match,No Match","html-keyboard-response","84","275569","0.0-7.0-5.9","","null","","<div class='trialBorder'><div class='vertical-center'><img src='img/error.jpg'></div><div class='respDiv'><div class='respDivL'><font style='color:orange'>Match<br>(e)</font></div><div class='respDivR'>No Match<br>(i)</div></div></div>","null","FEEDBACK","","","","","","","","","","",""
"","","","","","62e19208352cd518d7b2f085","bdp_wmem","Tue Mar 14 2023 22:09:53 GMT-0400 (Eastern Daylight Time)","629514","Match,No Match","html-keyboard-response","85","276073","0.0-7.0-1.10","","null","","<div class='trialBorder'><div class='vertical-center'><img src='img/fixation2_sml.jpg'</img></div></div>","null","FIX","","","","","","","","","","",""
"","","","","","62e19208352cd518d7b2f085","bdp_wmem","Tue Mar 14 2023 22:09:53 GMT-0400 (Eastern Daylight Time)","629514","Match,No Match","html-keyboard-response","86","280578","0.0-7.0-2.10","","null","","<div class='trialBorder'><div class='vertical-center'><img style='vertical-align:center; align:center' src='img/fixation2_sml.jpg'></div><div class='arrayDiv3'><div class='tl'><img class='introPic' src='trustrating_stim/white_mw070.bmp'><br><font color='green'><strong>Share</strong></font></div><div class='tc'><img class='introPic' src='trustrating_stim/white_mw038.bmp'><br><font color='green'><strong>Share</strong></font></div><div class='tr'><img class='introPic' src='trustrating_stim/white_mw010.bmp'><br><font color='red'><strong>Keep</strong></font></div></div></div>","null","ARRAY","3","trustrating_stim/white_mw070.bmp,trustrating_stim/white_mw038.bmp,trustrating_stim/white_mw010.bmp","1,1,0","Match","e","4500","","","","",""
"","","","","","62e19208352cd518d7b2f085","bdp_wmem","Tue Mar 14 2023 22:09:53 GMT-0400 (Eastern Daylight Time)","629514","Match,No Match","html-keyboard-response","87","284586","0.0-7.0-3.10","","null","","<div class='trialBorder'><div class='vertical-center'><img src='img/fixation2_sml.jpg'</img></div></div>","null","DELAY","","","","","","","","","","",""
"","","","","","62e19208352cd518d7b2f085","bdp_wmem","Tue Mar 14 2023 22:09:53 GMT-0400 (Eastern Daylight Time)","629514","Match,No Match","html-keyboard-response","88","285562","0.0-7.0-4.10","","974","","<div class='trialBorder'><div class='targDiv'><div class='tc'><img class='introPic' src='trustrating_stim/white_mw070.bmp'><br><font color='green'><strong>Share</strong></font></div></div><div class='respDiv'><div class='respDivL'>Match<br>(e)</div><div class='respDivR'>No Match<br>(i)</div></div></div>","e","TARGET","3","trustrating_stim/white_mw070.bmp,trustrating_stim/white_mw038.bmp,trustrating_stim/white_mw010.bmp","1,1,0","Match","e","4500","trustrating_stim/white_mw070.bmp","green","Share","REAL","1"
"","","","","","62e19208352cd518d7b2f085","bdp_wmem","Tue Mar 14 2023 22:09:53 GMT-0400 (Eastern Daylight Time)","629514","Match,No Match","html-keyboard-response","89","286067","0.0-7.0-5.10","","null","","<div class='trialBorder'><div class='vertical-center'><img src='img/correct.jpg'></div><div class='respDiv'><div class='respDivL'><font style='color:orange'>Match<br>(e)</font></div><div class='respDivR'>No Match<br>(i)</div></div></div>","null","FEEDBACK","","","","","","","","","","",""
"","","","","","62e19208352cd518d7b2f085","bdp_wmem","Tue Mar 14 2023 22:09:53 GMT-0400 (Eastern Daylight Time)","629514","Match,No Match","html-keyboard-response","90","286570","0.0-7.0-1.11","","null","","<div class='trialBorder'><div class='vertical-center'><img src='img/fixation2_sml.jpg'</img></div></div>","null","FIX","","","","","","","","","","",""
"","","","","","62e19208352cd518d7b2f085","bdp_wmem","Tue Mar 14 2023 22:09:53 GMT-0400 (Eastern Daylight Time)","629514","Match,No Match","html-keyboard-response","91","291074","0.0-7.0-2.11","","null","","<div class='trialBorder'><div class='vertical-center'><img style='vertical-align:center; align:center' src='img/fixation2_sml.jpg'></div><div class='arrayDiv3'><div class='tl'><img class='introPic' src='trustrating_stim/white_mw012.bmp'><br><font color='red'><strong>Keep</strong></font></div><div class='tc'><img class='introPic' src='trustrating_stim/white_mw042.bmp'><br><font color='green'><strong>Share</strong></font></div><div class='tr'><img class='introPic' src='trustrating_stim/white_mw092.bmp'><br><font color='red'><strong>Keep</strong></font></div></div></div>","null","ARRAY","3","trustrating_stim/white_mw012.bmp,trustrating_stim/white_mw042.bmp,trustrating_stim/white_mw092.bmp","0,1,0","Match","e","4500","","","","",""
"","","","","","62e19208352cd518d7b2f085","bdp_wmem","Tue Mar 14 2023 22:09:53 GMT-0400 (Eastern Daylight Time)","629514","Match,No Match","html-keyboard-response","92","295082","0.0-7.0-3.11","","null","","<div class='trialBorder'><div class='vertical-center'><img src='img/fixation2_sml.jpg'</img></div></div>","null","DELAY","","","","","","","","","","",""
"","","","","","62e19208352cd518d7b2f085","bdp_wmem","Tue Mar 14 2023 22:09:53 GMT-0400 (Eastern Daylight Time)","629514","Match,No Match","html-keyboard-response","93","296890","0.0-7.0-4.11","","1807","","<div class='trialBorder'><div class='targDiv'><div class='tc'><img class='introPic' src='trustrating_stim/white_mw042.bmp'><br><font color='green'><strong>Share</strong></font></div></div><div class='respDiv'><div class='respDivL'>Match<br>(e)</div><div class='respDivR'>No Match<br>(i)</div></div></div>","i","TARGET","3","trustrating_stim/white_mw012.bmp,trustrating_stim/white_mw042.bmp,trustrating_stim/white_mw092.bmp","0,1,0","Match","e","4500","trustrating_stim/white_mw042.bmp","green","Share","REAL","0"
"","","","","","62e19208352cd518d7b2f085","bdp_wmem","Tue Mar 14 2023 22:09:53 GMT-0400 (Eastern Daylight Time)","629514","Match,No Match","html-keyboard-response","94","297394","0.0-7.0-5.11","","null","","<div class='trialBorder'><div class='vertical-center'><img src='img/error.jpg'></div><div class='respDiv'><div class='respDivL'>Match<br>(e)</div><div class='respDivR'><font style='color:orange'>No Match<br>(i)</font></div></div></div>","null","FEEDBACK","","","","","","","","","","",""
"","","","","","62e19208352cd518d7b2f085","bdp_wmem","Tue Mar 14 2023 22:09:53 GMT-0400 (Eastern Daylight Time)","629514","Match,No Match","html-keyboard-response","95","297898","0.0-7.0-1.12","","null","","<div class='trialBorder'><div class='vertical-center'><img src='img/fixation2_sml.jpg'</img></div></div>","null","FIX","","","","","","","","","","",""
"","","","","","62e19208352cd518d7b2f085","bdp_wmem","Tue Mar 14 2023 22:09:53 GMT-0400 (Eastern Daylight Time)","629514","Match,No Match","html-keyboard-response","96","300906","0.0-7.0-2.12","","null","","<div class='trialBorder'><div class='vertical-center'><img style='vertical-align:center; align:center' src='img/fixation2_sml.jpg'></div><div class='arrayDiv2'><div class='tl'><img class='introPic' src='trustrating_stim/white_mw070.bmp'><br><font color='green'><strong>Share</strong></font></div><div class='tr'><img class='introPic' src='trustrating_stim/white_mw003.bmp'><br><font color='red'><strong>Keep</strong></font></div></div></div>","null","ARRAY","2","trustrating_stim/white_mw070.bmp,trustrating_stim/white_mw003.bmp","1,0","noMatchOutcome","i","3000","","","","",""
"","","","","","62e19208352cd518d7b2f085","bdp_wmem","Tue Mar 14 2023 22:09:53 GMT-0400 (Eastern Daylight Time)","629514","Match,No Match","html-keyboard-response","97","304914","0.0-7.0-3.12","","null","","<div class='trialBorder'><div class='vertical-center'><img src='img/fixation2_sml.jpg'</img></div></div>","null","DELAY","","","","","","","","","","",""
"","","","","","62e19208352cd518d7b2f085","bdp_wmem","Tue Mar 14 2023 22:09:53 GMT-0400 (Eastern Daylight Time)","629514","Match,No Match","html-keyboard-response","98","305789","0.0-7.0-4.12","","874","","<div class='trialBorder'><div class='targDiv'><div class='tc'><img class='introPic' src='trustrating_stim/white_mw003.bmp'><br><font color='green'><strong>Share</strong></font></div></div><div class='respDiv'><div class='respDivL'>Match<br>(e)</div><div class='respDivR'>No Match<br>(i)</div></div></div>","i","TARGET","2","trustrating_stim/white_mw070.bmp,trustrating_stim/white_mw003.bmp","1,0","noMatchOutcome","i","3000","trustrating_stim/white_mw003.bmp","green","Share","REAL","1"
"","","","","","62e19208352cd518d7b2f085","bdp_wmem","Tue Mar 14 2023 22:09:53 GMT-0400 (Eastern Daylight Time)","629514","Match,No Match","html-keyboard-response","99","306290","0.0-7.0-5.12","","null","","<div class='trialBorder'><div class='vertical-center'><img src='img/correct.jpg'></div><div class='respDiv'><div class='respDivL'>Match<br>(e)</div><div class='respDivR'><font style='color:orange'>No Match<br>(i)</font></div></div></div>","null","FEEDBACK","","","","","","","","","","",""
"","","","","","62e19208352cd518d7b2f085","bdp_wmem","Tue Mar 14 2023 22:09:53 GMT-0400 (Eastern Daylight Time)","629514","Match,No Match","html-keyboard-response","100","306794","0.0-7.0-1.13","","null","","<div class='trialBorder'><div class='vertical-center'><img src='img/fixation2_sml.jpg'</img></div></div>","null","FIX","","","","","","","","","","",""
"","","","","","62e19208352cd518d7b2f085","bdp_wmem","Tue Mar 14 2023 22:09:53 GMT-0400 (Eastern Daylight Time)","629514","Match,No Match","html-keyboard-response","101","308298","0.0-7.0-2.13","","null","","<div class='trialBorder'><div class='vertical-center'><img style='vertical-align:center; align:center' src='img/fixation2_sml.jpg'></div><div class='arrayDiv1'><div class='tc'><img class='introPic' src='trustrating_stim/white_mw038.bmp'><br><font color='red'><strong>Keep</strong></font></div></div></div>","null","ARRAY","1","trustrating_stim/white_mw038.bmp","0","noMatchFace","i","1500","","","","",""
"","","","","","62e19208352cd518d7b2f085","bdp_wmem","Tue Mar 14 2023 22:09:53 GMT-0400 (Eastern Daylight Time)","629514","Match,No Match","html-keyboard-response","102","312314","0.0-7.0-3.13","","null","","<div class='trialBorder'><div class='vertical-center'><img src='img/fixation2_sml.jpg'</img></div></div>","null","DELAY","","","","","","","","","","",""
"","","","","","62e19208352cd518d7b2f085","bdp_wmem","Tue Mar 14 2023 22:09:53 GMT-0400 (Eastern Daylight Time)","629514","Match,No Match","html-keyboard-response","103","313321","0.0-7.0-4.13","","1006","","<div class='trialBorder'><div class='targDiv'><div class='tc'><img class='introPic' src='trustrating_stim/white_mw078.bmp'><br><font color='red'><strong>Keep</strong></font></div></div><div class='respDiv'><div class='respDivL'>Match<br>(e)</div><div class='respDivR'>No Match<br>(i)</div></div></div>","i","TARGET","1","trustrating_stim/white_mw038.bmp","0","noMatchFace","i","1500","trustrating_stim/white_mw078.bmp","red","Keep","REAL","1"
"","","","","","62e19208352cd518d7b2f085","bdp_wmem","Tue Mar 14 2023 22:09:53 GMT-0400 (Eastern Daylight Time)","629514","Match,No Match","html-keyboard-response","104","313827","0.0-7.0-5.13","","null","","<div class='trialBorder'><div class='vertical-center'><img src='img/correct.jpg'></div><div class='respDiv'><div class='respDivL'>Match<br>(e)</div><div class='respDivR'><font style='color:orange'>No Match<br>(i)</font></div></div></div>","null","FEEDBACK","","","","","","","","","","",""
"","","","","","62e19208352cd518d7b2f085","bdp_wmem","Tue Mar 14 2023 22:09:53 GMT-0400 (Eastern Daylight Time)","629514","Match,No Match","html-keyboard-response","105","314330","0.0-7.0-1.14","","null","","<div class='trialBorder'><div class='vertical-center'><img src='img/fixation2_sml.jpg'</img></div></div>","null","FIX","","","","","","","","","","",""
"","","","","","62e19208352cd518d7b2f085","bdp_wmem","Tue Mar 14 2023 22:09:53 GMT-0400 (Eastern Daylight Time)","629514","Match,No Match","html-keyboard-response","106","317339","0.0-7.0-2.14","","null","","<div class='trialBorder'><div class='vertical-center'><img style='vertical-align:center; align:center' src='img/fixation2_sml.jpg'></div><div class='arrayDiv2'><div class='tl'><img class='introPic' src='trustrating_stim/white_mw091.bmp'><br><font color='green'><strong>Share</strong></font></div><div class='tr'><img class='introPic' src='trustrating_stim/white_mw038.bmp'><br><font color='red'><strong>Keep</strong></font></div></div></div>","null","ARRAY","2","trustrating_stim/white_mw091.bmp,trustrating_stim/white_mw038.bmp","1,0","noMatchFace","i","3000","","","","",""
"","","","","","62e19208352cd518d7b2f085","bdp_wmem","Tue Mar 14 2023 22:09:53 GMT-0400 (Eastern Daylight Time)","629514","Match,No Match","html-keyboard-response","107","321350","0.0-7.0-3.14","","null","","<div class='trialBorder'><div class='vertical-center'><img src='img/fixation2_sml.jpg'</img></div></div>","null","DELAY","","","","","","","","","","",""
"","","","","","62e19208352cd518d7b2f085","bdp_wmem","Tue Mar 14 2023 22:09:53 GMT-0400 (Eastern Daylight Time)","629514","Match,No Match","html-keyboard-response","108","322201","0.0-7.0-4.14","","849","","<div class='trialBorder'><div class='targDiv'><div class='tc'><img class='introPic' src='trustrating_stim/white_mw012.bmp'><br><font color='green'><strong>Share</strong></font></div></div><div class='respDiv'><div class='respDivL'>Match<br>(e)</div><div class='respDivR'>No Match<br>(i)</div></div></div>","i","TARGET","2","trustrating_stim/white_mw091.bmp,trustrating_stim/white_mw038.bmp","1,0","noMatchFace","i","3000","trustrating_stim/white_mw012.bmp","green","Share","REAL","1"
"","","","","","62e19208352cd518d7b2f085","bdp_wmem","Tue Mar 14 2023 22:09:53 GMT-0400 (Eastern Daylight Time)","629514","Match,No Match","html-keyboard-response","109","322706","0.0-7.0-5.14","","null","","<div class='trialBorder'><div class='vertical-center'><img src='img/correct.jpg'></div><div class='respDiv'><div class='respDivL'>Match<br>(e)</div><div class='respDivR'><font style='color:orange'>No Match<br>(i)</font></div></div></div>","null","FEEDBACK","","","","","","","","","","",""
"","","","","","62e19208352cd518d7b2f085","bdp_wmem","Tue Mar 14 2023 22:09:53 GMT-0400 (Eastern Daylight Time)","629514","Match,No Match","html-keyboard-response","110","323210","0.0-7.0-1.15","","null","","<div class='trialBorder'><div class='vertical-center'><img src='img/fixation2_sml.jpg'</img></div></div>","null","FIX","","","","","","","","","","",""
"","","","","","62e19208352cd518d7b2f085","bdp_wmem","Tue Mar 14 2023 22:09:53 GMT-0400 (Eastern Daylight Time)","629514","Match,No Match","html-keyboard-response","111","324714","0.0-7.0-2.15","","null","","<div class='trialBorder'><div class='vertical-center'><img style='vertical-align:center; align:center' src='img/fixation2_sml.jpg'></div><div class='arrayDiv1'><div class='tc'><img class='introPic' src='trustrating_stim/white_mw085.bmp'><br><font color='red'><strong>Keep</strong></font></div></div></div>","null","ARRAY","1","trustrating_stim/white_mw085.bmp","0","noMatchFace","i","1500","","","","",""
"","","","","","62e19208352cd518d7b2f085","bdp_wmem","Tue Mar 14 2023 22:09:53 GMT-0400 (Eastern Daylight Time)","629514","Match,No Match","html-keyboard-response","112","328722","0.0-7.0-3.15","","null","","<div class='trialBorder'><div class='vertical-center'><img src='img/fixation2_sml.jpg'</img></div></div>","null","DELAY","","","","","","","","","","",""
"","","","","","62e19208352cd518d7b2f085","bdp_wmem","Tue Mar 14 2023 22:09:53 GMT-0400 (Eastern Daylight Time)","629514","Match,No Match","html-keyboard-response","113","330248","0.0-7.0-4.15","","1525","","<div class='trialBorder'><div class='targDiv'><div class='tc'><img class='introPic' src='trustrating_stim/white_mw012.bmp'><br><font color='red'><strong>Keep</strong></font></div></div><div class='respDiv'><div class='respDivL'>Match<br>(e)</div><div class='respDivR'>No Match<br>(i)</div></div></div>","i","TARGET","1","trustrating_stim/white_mw085.bmp","0","noMatchFace","i","1500","trustrating_stim/white_mw012.bmp","red","Keep","REAL","1"
"","","","","","62e19208352cd518d7b2f085","bdp_wmem","Tue Mar 14 2023 22:09:53 GMT-0400 (Eastern Daylight Time)","629514","Match,No Match","html-keyboard-response","114","330754","0.0-7.0-5.15","","null","","<div class='trialBorder'><div class='vertical-center'><img src='img/correct.jpg'></div><div class='respDiv'><div class='respDivL'>Match<br>(e)</div><div class='respDivR'><font style='color:orange'>No Match<br>(i)</font></div></div></div>","null","FEEDBACK","","","","","","","","","","",""
"","","","","","62e19208352cd518d7b2f085","bdp_wmem","Tue Mar 14 2023 22:09:53 GMT-0400 (Eastern Daylight Time)","629514","Match,No Match","html-keyboard-response","115","331258","0.0-7.0-1.16","","null","","<div class='trialBorder'><div class='vertical-center'><img src='img/fixation2_sml.jpg'</img></div></div>","null","FIX","","","","","","","","","","",""
"","","","","","62e19208352cd518d7b2f085","bdp_wmem","Tue Mar 14 2023 22:09:53 GMT-0400 (Eastern Daylight Time)","629514","Match,No Match","html-keyboard-response","116","334266","0.0-7.0-2.16","","null","","<div class='trialBorder'><div class='vertical-center'><img style='vertical-align:center; align:center' src='img/fixation2_sml.jpg'></div><div class='arrayDiv2'><div class='tl'><img class='introPic' src='trustrating_stim/white_mw078.bmp'><br><font color='red'><strong>Keep</strong></font></div><div class='tr'><img class='introPic' src='trustrating_stim/white_mw038.bmp'><br><font color='green'><strong>Share</strong></font></div></div></div>","null","ARRAY","2","trustrating_stim/white_mw078.bmp,trustrating_stim/white_mw038.bmp","0,1","Match","e","3000","","","","",""
"","","","","","62e19208352cd518d7b2f085","bdp_wmem","Tue Mar 14 2023 22:09:53 GMT-0400 (Eastern Daylight Time)","629514","Match,No Match","html-keyboard-response","117","338274","0.0-7.0-3.16","","null","","<div class='trialBorder'><div class='vertical-center'><img src='img/fixation2_sml.jpg'</img></div></div>","null","DELAY","","","","","","","","","","",""
"","","","","","62e19208352cd518d7b2f085","bdp_wmem","Tue Mar 14 2023 22:09:53 GMT-0400 (Eastern Daylight Time)","629514","Match,No Match","html-keyboard-response","118","339544","0.0-7.0-4.16","","1268","","<div class='trialBorder'><div class='targDiv'><div class='tc'><img class='introPic' src='trustrating_stim/white_mw038.bmp'><br><font color='green'><strong>Share</strong></font></div></div><div class='respDiv'><div class='respDivL'>Match<br>(e)</div><div class='respDivR'>No Match<br>(i)</div></div></div>","e","TARGET","2","trustrating_stim/white_mw078.bmp,trustrating_stim/white_mw038.bmp","0,1","Match","e","3000","trustrating_stim/white_mw038.bmp","green","Share","REAL","1"
"","","","","","62e19208352cd518d7b2f085","bdp_wmem","Tue Mar 14 2023 22:09:53 GMT-0400 (Eastern Daylight Time)","629514","Match,No Match","html-keyboard-response","119","340050","0.0-7.0-5.16","","null","","<div class='trialBorder'><div class='vertical-center'><img src='img/correct.jpg'></div><div class='respDiv'><div class='respDivL'><font style='color:orange'>Match<br>(e)</font></div><div class='respDivR'>No Match<br>(i)</div></div></div>","null","FEEDBACK","","","","","","","","","","",""
"","","","","","62e19208352cd518d7b2f085","bdp_wmem","Tue Mar 14 2023 22:09:53 GMT-0400 (Eastern Daylight Time)","629514","Match,No Match","html-keyboard-response","120","340554","0.0-7.0-1.17","","null","","<div class='trialBorder'><div class='vertical-center'><img src='img/fixation2_sml.jpg'</img></div></div>","null","FIX","","","","","","","","","","",""
"","","","","","62e19208352cd518d7b2f085","bdp_wmem","Tue Mar 14 2023 22:09:53 GMT-0400 (Eastern Daylight Time)","629514","Match,No Match","html-keyboard-response","121","342060","0.0-7.0-2.17","","null","","<div class='trialBorder'><div class='vertical-center'><img style='vertical-align:center; align:center' src='img/fixation2_sml.jpg'></div><div class='arrayDiv1'><div class='tc'><img class='introPic' src='trustrating_stim/white_mw070.bmp'><br><font color='red'><strong>Keep</strong></font></div></div></div>","null","ARRAY","1","trustrating_stim/white_mw070.bmp","0","noMatchFace","i","1500","","","","",""
"","","","","","62e19208352cd518d7b2f085","bdp_wmem","Tue Mar 14 2023 22:09:53 GMT-0400 (Eastern Daylight Time)","629514","Match,No Match","html-keyboard-response","122","346068","0.0-7.0-3.17","","null","","<div class='trialBorder'><div class='vertical-center'><img src='img/fixation2_sml.jpg'</img></div></div>","null","DELAY","","","","","","","","","","",""
"","","","","","62e19208352cd518d7b2f085","bdp_wmem","Tue Mar 14 2023 22:09:53 GMT-0400 (Eastern Daylight Time)","629514","Match,No Match","html-keyboard-response","123","346818","0.0-7.0-4.17","","749","","<div class='trialBorder'><div class='targDiv'><div class='tc'><img class='introPic' src='trustrating_stim/white_mw085.bmp'><br><font color='red'><strong>Keep</strong></font></div></div><div class='respDiv'><div class='respDivL'>Match<br>(e)</div><div class='respDivR'>No Match<br>(i)</div></div></div>","i","TARGET","1","trustrating_stim/white_mw070.bmp","0","noMatchFace","i","1500","trustrating_stim/white_mw085.bmp","red","Keep","REAL","1"
"","","","","","62e19208352cd518d7b2f085","bdp_wmem","Tue Mar 14 2023 22:09:53 GMT-0400 (Eastern Daylight Time)","629514","Match,No Match","html-keyboard-response","124","347324","0.0-7.0-5.17","","null","","<div class='trialBorder'><div class='vertical-center'><img src='img/correct.jpg'></div><div class='respDiv'><div class='respDivL'>Match<br>(e)</div><div class='respDivR'><font style='color:orange'>No Match<br>(i)</font></div></div></div>","null","FEEDBACK","","","","","","","","","","",""
"","","","","","62e19208352cd518d7b2f085","bdp_wmem","Tue Mar 14 2023 22:09:53 GMT-0400 (Eastern Daylight Time)","629514","Match,No Match","html-keyboard-response","125","347828","0.0-7.0-1.18","","null","","<div class='trialBorder'><div class='vertical-center'><img src='img/fixation2_sml.jpg'</img></div></div>","null","FIX","","","","","","","","","","",""
"","","","","","62e19208352cd518d7b2f085","bdp_wmem","Tue Mar 14 2023 22:09:53 GMT-0400 (Eastern Daylight Time)","629514","Match,No Match","html-keyboard-response","126","352331","0.0-7.0-2.18","","null","","<div class='trialBorder'><div class='vertical-center'><img style='vertical-align:center; align:center' src='img/fixation2_sml.jpg'></div><div class='arrayDiv3'><div class='tl'><img class='introPic' src='trustrating_stim/white_mw070.bmp'><br><font color='green'><strong>Share</strong></font></div><div class='tc'><img class='introPic' src='trustrating_stim/white_mw038.bmp'><br><font color='red'><strong>Keep</strong></font></div><div class='tr'><img class='introPic' src='trustrating_stim/white_mw012.bmp'><br><font color='red'><strong>Keep</strong></font></div></div></div>","null","ARRAY","3","trustrating_stim/white_mw070.bmp,trustrating_stim/white_mw038.bmp,trustrating_stim/white_mw012.bmp","1,0,0","Match","e","4500","","","","",""
"","","","","","62e19208352cd518d7b2f085","bdp_wmem","Tue Mar 14 2023 22:09:53 GMT-0400 (Eastern Daylight Time)","629514","Match,No Match","html-keyboard-response","127","356339","0.0-7.0-3.18","","null","","<div class='trialBorder'><div class='vertical-center'><img src='img/fixation2_sml.jpg'</img></div></div>","null","DELAY","","","","","","","","","","",""
"","","","","","62e19208352cd518d7b2f085","bdp_wmem","Tue Mar 14 2023 22:09:53 GMT-0400 (Eastern Daylight Time)","629514","Match,No Match","html-keyboard-response","128","357497","0.0-7.0-4.18","","1157","","<div class='trialBorder'><div class='targDiv'><div class='tc'><img class='introPic' src='trustrating_stim/white_mw070.bmp'><br><font color='green'><strong>Share</strong></font></div></div><div class='respDiv'><div class='respDivL'>Match<br>(e)</div><div class='respDivR'>No Match<br>(i)</div></div></div>","e","TARGET","3","trustrating_stim/white_mw070.bmp,trustrating_stim/white_mw038.bmp,trustrating_stim/white_mw012.bmp","1,0,0","Match","e","4500","trustrating_stim/white_mw070.bmp","green","Share","REAL","1"
"","","","","","62e19208352cd518d7b2f085","bdp_wmem","Tue Mar 14 2023 22:09:53 GMT-0400 (Eastern Daylight Time)","629514","Match,No Match","html-keyboard-response","129","358003","0.0-7.0-5.18","","null","","<div class='trialBorder'><div class='vertical-center'><img src='img/correct.jpg'></div><div class='respDiv'><div class='respDivL'><font style='color:orange'>Match<br>(e)</font></div><div class='respDivR'>No Match<br>(i)</div></div></div>","null","FEEDBACK","","","","","","","","","","",""
"","","","","","62e19208352cd518d7b2f085","bdp_wmem","Tue Mar 14 2023 22:09:53 GMT-0400 (Eastern Daylight Time)","629514","Match,No Match","html-keyboard-response","130","358507","0.0-7.0-1.19","","null","","<div class='trialBorder'><div class='vertical-center'><img src='img/fixation2_sml.jpg'</img></div></div>","null","FIX","","","","","","","","","","",""
"","","","","","62e19208352cd518d7b2f085","bdp_wmem","Tue Mar 14 2023 22:09:53 GMT-0400 (Eastern Daylight Time)","629514","Match,No Match","html-keyboard-response","131","363012","0.0-7.0-2.19","","null","","<div class='trialBorder'><div class='vertical-center'><img style='vertical-align:center; align:center' src='img/fixation2_sml.jpg'></div><div class='arrayDiv3'><div class='tl'><img class='introPic' src='trustrating_stim/white_mw013.bmp'><br><font color='green'><strong>Share</strong></font></div><div class='tc'><img class='introPic' src='trustrating_stim/white_mw091.bmp'><br><font color='green'><strong>Share</strong></font></div><div class='tr'><img class='introPic' src='trustrating_stim/white_mw038.bmp'><br><font color='red'><strong>Keep</strong></font></div></div></div>","null","ARRAY","3","trustrating_stim/white_mw013.bmp,trustrating_stim/white_mw091.bmp,trustrating_stim/white_mw038.bmp","1,1,0","noMatchOutcome","i","4500","","","","",""
"","","","","","62e19208352cd518d7b2f085","bdp_wmem","Tue Mar 14 2023 22:09:53 GMT-0400 (Eastern Daylight Time)","629514","Match,No Match","html-keyboard-response","132","367020","0.0-7.0-3.19","","null","","<div class='trialBorder'><div class='vertical-center'><img src='img/fixation2_sml.jpg'</img></div></div>","null","DELAY","","","","","","","","","","",""
"","","","","","62e19208352cd518d7b2f085","bdp_wmem","Tue Mar 14 2023 22:09:53 GMT-0400 (Eastern Daylight Time)","629514","Match,No Match","html-keyboard-response","133","367913","0.0-7.0-4.19","","892","","<div class='trialBorder'><div class='targDiv'><div class='tc'><img class='introPic' src='trustrating_stim/white_mw013.bmp'><br><font color='red'><strong>Keep</strong></font></div></div><div class='respDiv'><div class='respDivL'>Match<br>(e)</div><div class='respDivR'>No Match<br>(i)</div></div></div>","i","TARGET","3","trustrating_stim/white_mw013.bmp,trustrating_stim/white_mw091.bmp,trustrating_stim/white_mw038.bmp","1,1,0","noMatchOutcome","i","4500","trustrating_stim/white_mw013.bmp","red","Keep","REAL","1"
"","","","","","62e19208352cd518d7b2f085","bdp_wmem","Tue Mar 14 2023 22:09:53 GMT-0400 (Eastern Daylight Time)","629514","Match,No Match","html-keyboard-response","134","368420","0.0-7.0-5.19","","null","","<div class='trialBorder'><div class='vertical-center'><img src='img/correct.jpg'></div><div class='respDiv'><div class='respDivL'>Match<br>(e)</div><div class='respDivR'><font style='color:orange'>No Match<br>(i)</font></div></div></div>","null","FEEDBACK","","","","","","","","","","",""
"","","","","","62e19208352cd518d7b2f085","bdp_wmem","Tue Mar 14 2023 22:09:53 GMT-0400 (Eastern Daylight Time)","629514","Match,No Match","html-keyboard-response","135","368924","0.0-7.0-1.20","","null","","<div class='trialBorder'><div class='vertical-center'><img src='img/fixation2_sml.jpg'</img></div></div>","null","FIX","","","","","","","","","","",""
"","","","","","62e19208352cd518d7b2f085","bdp_wmem","Tue Mar 14 2023 22:09:53 GMT-0400 (Eastern Daylight Time)","629514","Match,No Match","html-keyboard-response","136","371932","0.0-7.0-2.20","","null","","<div class='trialBorder'><div class='vertical-center'><img style='vertical-align:center; align:center' src='img/fixation2_sml.jpg'></div><div class='arrayDiv2'><div class='tl'><img class='introPic' src='trustrating_stim/white_mw003.bmp'><br><font color='red'><strong>Keep</strong></font></div><div class='tr'><img class='introPic' src='trustrating_stim/white_mw092.bmp'><br><font color='green'><strong>Share</strong></font></div></div></div>","null","ARRAY","2","trustrating_stim/white_mw003.bmp,trustrating_stim/white_mw092.bmp","0,1","Match","e","3000","","","","",""
"","","","","","62e19208352cd518d7b2f085","bdp_wmem","Tue Mar 14 2023 22:09:53 GMT-0400 (Eastern Daylight Time)","629514","Match,No Match","html-keyboard-response","137","375939","0.0-7.0-3.20","","null","","<div class='trialBorder'><div class='vertical-center'><img src='img/fixation2_sml.jpg'</img></div></div>","null","DELAY","","","","","","","","","","",""
"","","","","","62e19208352cd518d7b2f085","bdp_wmem","Tue Mar 14 2023 22:09:53 GMT-0400 (Eastern Daylight Time)","629514","Match,No Match","html-keyboard-response","138","377200","0.0-7.0-4.20","","1259","","<div class='trialBorder'><div class='targDiv'><div class='tc'><img class='introPic' src='trustrating_stim/white_mw003.bmp'><br><font color='red'><strong>Keep</strong></font></div></div><div class='respDiv'><div class='respDivL'>Match<br>(e)</div><div class='respDivR'>No Match<br>(i)</div></div></div>","i","TARGET","2","trustrating_stim/white_mw003.bmp,trustrating_stim/white_mw092.bmp","0,1","Match","e","3000","trustrating_stim/white_mw003.bmp","red","Keep","REAL","0"
"","","","","","62e19208352cd518d7b2f085","bdp_wmem","Tue Mar 14 2023 22:09:53 GMT-0400 (Eastern Daylight Time)","629514","Match,No Match","html-keyboard-response","139","377707","0.0-7.0-5.20","","null","","<div class='trialBorder'><div class='vertical-center'><img src='img/error.jpg'></div><div class='respDiv'><div class='respDivL'>Match<br>(e)</div><div class='respDivR'><font style='color:orange'>No Match<br>(i)</font></div></div></div>","null","FEEDBACK","","","","","","","","","","",""
"","","","","","62e19208352cd518d7b2f085","bdp_wmem","Tue Mar 14 2023 22:09:53 GMT-0400 (Eastern Daylight Time)","629514","Match,No Match","html-keyboard-response","140","378211","0.0-7.0-1.21","","null","","<div class='trialBorder'><div class='vertical-center'><img src='img/fixation2_sml.jpg'</img></div></div>","null","FIX","","","","","","","","","","",""
"","","","","","62e19208352cd518d7b2f085","bdp_wmem","Tue Mar 14 2023 22:09:53 GMT-0400 (Eastern Daylight Time)","629514","Match,No Match","html-keyboard-response","141","382715","0.0-7.0-2.21","","null","","<div class='trialBorder'><div class='vertical-center'><img style='vertical-align:center; align:center' src='img/fixation2_sml.jpg'></div><div class='arrayDiv3'><div class='tl'><img class='introPic' src='trustrating_stim/white_mw010.bmp'><br><font color='red'><strong>Keep</strong></font></div><div class='tc'><img class='introPic' src='trustrating_stim/white_mw013.bmp'><br><font color='green'><strong>Share</strong></font></div><div class='tr'><img class='introPic' src='trustrating_stim/white_mw042.bmp'><br><font color='green'><strong>Share</strong></font></div></div></div>","null","ARRAY","3","trustrating_stim/white_mw010.bmp,trustrating_stim/white_mw013.bmp,trustrating_stim/white_mw042.bmp","0,1,1","noMatchFace","i","4500","","","","",""
"","","","","","62e19208352cd518d7b2f085","bdp_wmem","Tue Mar 14 2023 22:09:53 GMT-0400 (Eastern Daylight Time)","629514","Match,No Match","html-keyboard-response","142","386723","0.0-7.0-3.21","","null","","<div class='trialBorder'><div class='vertical-center'><img src='img/fixation2_sml.jpg'</img></div></div>","null","DELAY","","","","","","","","","","",""
"","","","","","62e19208352cd518d7b2f085","bdp_wmem","Tue Mar 14 2023 22:09:53 GMT-0400 (Eastern Daylight Time)","629514","Match,No Match","html-keyboard-response","143","387513","0.0-7.0-4.21","","788","","<div class='trialBorder'><div class='targDiv'><div class='tc'><img class='introPic' src='trustrating_stim/white_mw038.bmp'><br><font color='green'><strong>Share</strong></font></div></div><div class='respDiv'><div class='respDivL'>Match<br>(e)</div><div class='respDivR'>No Match<br>(i)</div></div></div>","i","TARGET","3","trustrating_stim/white_mw010.bmp,trustrating_stim/white_mw013.bmp,trustrating_stim/white_mw042.bmp","0,1,1","noMatchFace","i","4500","trustrating_stim/white_mw038.bmp","green","Share","REAL","1"
"","","","","","62e19208352cd518d7b2f085","bdp_wmem","Tue Mar 14 2023 22:09:53 GMT-0400 (Eastern Daylight Time)","629514","Match,No Match","html-keyboard-response","144","388019","0.0-7.0-5.21","","null","","<div class='trialBorder'><div class='vertical-center'><img src='img/correct.jpg'></div><div class='respDiv'><div class='respDivL'>Match<br>(e)</div><div class='respDivR'><font style='color:orange'>No Match<br>(i)</font></div></div></div>","null","FEEDBACK","","","","","","","","","","",""
"","","","","","62e19208352cd518d7b2f085","bdp_wmem","Tue Mar 14 2023 22:09:53 GMT-0400 (Eastern Daylight Time)","629514","Match,No Match","html-keyboard-response","145","388523","0.0-7.0-1.22","","null","","<div class='trialBorder'><div class='vertical-center'><img src='img/fixation2_sml.jpg'</img></div></div>","null","FIX","","","","","","","","","","",""
"","","","","","62e19208352cd518d7b2f085","bdp_wmem","Tue Mar 14 2023 22:09:53 GMT-0400 (Eastern Daylight Time)","629514","Match,No Match","html-keyboard-response","146","390028","0.0-7.0-2.22","","null","","<div class='trialBorder'><div class='vertical-center'><img style='vertical-align:center; align:center' src='img/fixation2_sml.jpg'></div><div class='arrayDiv1'><div class='tc'><img class='introPic' src='trustrating_stim/white_mw070.bmp'><br><font color='green'><strong>Share</strong></font></div></div></div>","null","ARRAY","1","trustrating_stim/white_mw070.bmp","1","noMatchOutcome","i","1500","","","","",""
"","","","","","62e19208352cd518d7b2f085","bdp_wmem","Tue Mar 14 2023 22:09:53 GMT-0400 (Eastern Daylight Time)","629514","Match,No Match","html-keyboard-response","147","394036","0.0-7.0-3.22","","null","","<div class='trialBorder'><div class='vertical-center'><img src='img/fixation2_sml.jpg'</img></div></div>","null","DELAY","","","","","","","","","","",""
"","","","","","62e19208352cd518d7b2f085","bdp_wmem","Tue Mar 14 2023 22:09:53 GMT-0400 (Eastern Daylight Time)","629514","Match,No Match","html-keyboard-response","148","395160","0.0-7.0-4.22","","1123","","<div class='trialBorder'><div class='targDiv'><div class='tc'><img class='introPic' src='trustrating_stim/white_mw070.bmp'><br><font color='red'><strong>Keep</strong></font></div></div><div class='respDiv'><div class='respDivL'>Match<br>(e)</div><div class='respDivR'>No Match<br>(i)</div></div></div>","i","TARGET","1","trustrating_stim/white_mw070.bmp","1","noMatchOutcome","i","1500","trustrating_stim/white_mw070.bmp","red","Keep","REAL","1"
"","","","","","62e19208352cd518d7b2f085","bdp_wmem","Tue Mar 14 2023 22:09:53 GMT-0400 (Eastern Daylight Time)","629514","Match,No Match","html-keyboard-response","149","395668","0.0-7.0-5.22","","null","","<div class='trialBorder'><div class='vertical-center'><img src='img/correct.jpg'></div><div class='respDiv'><div class='respDivL'>Match<br>(e)</div><div class='respDivR'><font style='color:orange'>No Match<br>(i)</font></div></div></div>","null","FEEDBACK","","","","","","","","","","",""
"","","","","","62e19208352cd518d7b2f085","bdp_wmem","Tue Mar 14 2023 22:09:53 GMT-0400 (Eastern Daylight Time)","629514","Match,No Match","html-keyboard-response","150","396172","0.0-7.0-1.23","","null","","<div class='trialBorder'><div class='vertical-center'><img src='img/fixation2_sml.jpg'</img></div></div>","null","FIX","","","","","","","","","","",""
"","","","","","62e19208352cd518d7b2f085","bdp_wmem","Tue Mar 14 2023 22:09:53 GMT-0400 (Eastern Daylight Time)","629514","Match,No Match","html-keyboard-response","151","400676","0.0-7.0-2.23","","null","","<div class='trialBorder'><div class='vertical-center'><img style='vertical-align:center; align:center' src='img/fixation2_sml.jpg'></div><div class='arrayDiv3'><div class='tl'><img class='introPic' src='trustrating_stim/white_mw013.bmp'><br><font color='red'><strong>Keep</strong></font></div><div class='tc'><img class='introPic' src='trustrating_stim/white_mw078.bmp'><br><font color='green'><strong>Share</strong></font></div><div class='tr'><img class='introPic' src='trustrating_stim/white_mw070.bmp'><br><font color='green'><strong>Share</strong></font></div></div></div>","null","ARRAY","3","trustrating_stim/white_mw013.bmp,trustrating_stim/white_mw078.bmp,trustrating_stim/white_mw070.bmp","0,1,1","Match","e","4500","","","","",""
"","","","","","62e19208352cd518d7b2f085","bdp_wmem","Tue Mar 14 2023 22:09:53 GMT-0400 (Eastern Daylight Time)","629514","Match,No Match","html-keyboard-response","152","404685","0.0-7.0-3.23","","null","","<div class='trialBorder'><div class='vertical-center'><img src='img/fixation2_sml.jpg'</img></div></div>","null","DELAY","","","","","","","","","","",""
"","","","","","62e19208352cd518d7b2f085","bdp_wmem","Tue Mar 14 2023 22:09:53 GMT-0400 (Eastern Daylight Time)","629514","Match,No Match","html-keyboard-response","153","406178","0.0-7.0-4.23","","1491","","<div class='trialBorder'><div class='targDiv'><div class='tc'><img class='introPic' src='trustrating_stim/white_mw070.bmp'><br><font color='green'><strong>Share</strong></font></div></div><div class='respDiv'><div class='respDivL'>Match<br>(e)</div><div class='respDivR'>No Match<br>(i)</div></div></div>","e","TARGET","3","trustrating_stim/white_mw013.bmp,trustrating_stim/white_mw078.bmp,trustrating_stim/white_mw070.bmp","0,1,1","Match","e","4500","trustrating_stim/white_mw070.bmp","green","Share","REAL","1"
"","","","","","62e19208352cd518d7b2f085","bdp_wmem","Tue Mar 14 2023 22:09:53 GMT-0400 (Eastern Daylight Time)","629514","Match,No Match","html-keyboard-response","154","406685","0.0-7.0-5.23","","null","","<div class='trialBorder'><div class='vertical-center'><img src='img/correct.jpg'></div><div class='respDiv'><div class='respDivL'><font style='color:orange'>Match<br>(e)</font></div><div class='respDivR'>No Match<br>(i)</div></div></div>","null","FEEDBACK","","","","","","","","","","",""
"","","","","","62e19208352cd518d7b2f085","bdp_wmem","Tue Mar 14 2023 22:09:53 GMT-0400 (Eastern Daylight Time)","629514","Match,No Match","html-keyboard-response","155","407189","0.0-7.0-1.24","","null","","<div class='trialBorder'><div class='vertical-center'><img src='img/fixation2_sml.jpg'</img></div></div>","null","FIX","","","","","","","","","","",""
"","","","","","62e19208352cd518d7b2f085","bdp_wmem","Tue Mar 14 2023 22:09:53 GMT-0400 (Eastern Daylight Time)","629514","Match,No Match","html-keyboard-response","156","410197","0.0-7.0-2.24","","null","","<div class='trialBorder'><div class='vertical-center'><img style='vertical-align:center; align:center' src='img/fixation2_sml.jpg'></div><div class='arrayDiv2'><div class='tl'><img class='introPic' src='trustrating_stim/white_mw010.bmp'><br><font color='red'><strong>Keep</strong></font></div><div class='tr'><img class='introPic' src='trustrating_stim/white_mw091.bmp'><br><font color='green'><strong>Share</strong></font></div></div></div>","null","ARRAY","2","trustrating_stim/white_mw010.bmp,trustrating_stim/white_mw091.bmp","0,1","Match","e","3000","","","","",""
"","","","","","62e19208352cd518d7b2f085","bdp_wmem","Tue Mar 14 2023 22:09:53 GMT-0400 (Eastern Daylight Time)","629514","Match,No Match","html-keyboard-response","157","414205","0.0-7.0-3.24","","null","","<div class='trialBorder'><div class='vertical-center'><img src='img/fixation2_sml.jpg'</img></div></div>","null","DELAY","","","","","","","","","","",""
"","","","","","62e19208352cd518d7b2f085","bdp_wmem","Tue Mar 14 2023 22:09:53 GMT-0400 (Eastern Daylight Time)","629514","Match,No Match","html-keyboard-response","158","416145","0.0-7.0-4.24","","1938","","<div class='trialBorder'><div class='targDiv'><div class='tc'><img class='introPic' src='trustrating_stim/white_mw091.bmp'><br><font color='green'><strong>Share</strong></font></div></div><div class='respDiv'><div class='respDivL'>Match<br>(e)</div><div class='respDivR'>No Match<br>(i)</div></div></div>","e","TARGET","2","trustrating_stim/white_mw010.bmp,trustrating_stim/white_mw091.bmp","0,1","Match","e","3000","trustrating_stim/white_mw091.bmp","green","Share","REAL","1"
"","","","","","62e19208352cd518d7b2f085","bdp_wmem","Tue Mar 14 2023 22:09:53 GMT-0400 (Eastern Daylight Time)","629514","Match,No Match","html-keyboard-response","159","416653","0.0-7.0-5.24","","null","","<div class='trialBorder'><div class='vertical-center'><img src='img/correct.jpg'></div><div class='respDiv'><div class='respDivL'><font style='color:orange'>Match<br>(e)</font></div><div class='respDivR'>No Match<br>(i)</div></div></div>","null","FEEDBACK","","","","","","","","","","",""
"","","","","","62e19208352cd518d7b2f085","bdp_wmem","Tue Mar 14 2023 22:09:53 GMT-0400 (Eastern Daylight Time)","629514","Match,No Match","html-keyboard-response","160","417157","0.0-7.0-1.25","","null","","<div class='trialBorder'><div class='vertical-center'><img src='img/fixation2_sml.jpg'</img></div></div>","null","FIX","","","","","","","","","","",""
"","","","","","62e19208352cd518d7b2f085","bdp_wmem","Tue Mar 14 2023 22:09:53 GMT-0400 (Eastern Daylight Time)","629514","Match,No Match","html-keyboard-response","161","418661","0.0-7.0-2.25","","null","","<div class='trialBorder'><div class='vertical-center'><img style='vertical-align:center; align:center' src='img/fixation2_sml.jpg'></div><div class='arrayDiv1'><div class='tc'><img class='introPic' src='trustrating_stim/white_mw010.bmp'><br><font color='red'><strong>Keep</strong></font></div></div></div>","null","ARRAY","1","trustrating_stim/white_mw010.bmp","0","noMatchFace","i","1500","","","","",""
"","","","","","62e19208352cd518d7b2f085","bdp_wmem","Tue Mar 14 2023 22:09:53 GMT-0400 (Eastern Daylight Time)","629514","Match,No Match","html-keyboard-response","162","422669","0.0-7.0-3.25","","null","","<div class='trialBorder'><div class='vertical-center'><img src='img/fixation2_sml.jpg'</img></div></div>","null","DELAY","","","","","","","","","","",""
"","","","","","62e19208352cd518d7b2f085","bdp_wmem","Tue Mar 14 2023 22:09:53 GMT-0400 (Eastern Daylight Time)","629514","Match,No Match","html-keyboard-response","163","423497","0.0-7.0-4.25","","826","","<div class='trialBorder'><div class='targDiv'><div class='tc'><img class='introPic' src='trustrating_stim/white_mw040.bmp'><br><font color='red'><strong>Keep</strong></font></div></div><div class='respDiv'><div class='respDivL'>Match<br>(e)</div><div class='respDivR'>No Match<br>(i)</div></div></div>","i","TARGET","1","trustrating_stim/white_mw010.bmp","0","noMatchFace","i","1500","trustrating_stim/white_mw040.bmp","red","Keep","REAL","1"
"","","","","","62e19208352cd518d7b2f085","bdp_wmem","Tue Mar 14 2023 22:09:53 GMT-0400 (Eastern Daylight Time)","629514","Match,No Match","html-keyboard-response","164","424005","0.0-7.0-5.25","","null","","<div class='trialBorder'><div class='vertical-center'><img src='img/correct.jpg'></div><div class='respDiv'><div class='respDivL'>Match<br>(e)</div><div class='respDivR'><font style='color:orange'>No Match<br>(i)</font></div></div></div>","null","FEEDBACK","","","","","","","","","","",""
"","","","","","62e19208352cd518d7b2f085","bdp_wmem","Tue Mar 14 2023 22:09:53 GMT-0400 (Eastern Daylight Time)","629514","Match,No Match","html-keyboard-response","165","424509","0.0-7.0-1.26","","null","","<div class='trialBorder'><div class='vertical-center'><img src='img/fixation2_sml.jpg'</img></div></div>","null","FIX","","","","","","","","","","",""
"","","","","","62e19208352cd518d7b2f085","bdp_wmem","Tue Mar 14 2023 22:09:53 GMT-0400 (Eastern Daylight Time)","629514","Match,No Match","html-keyboard-response","166","429013","0.0-7.0-2.26","","null","","<div class='trialBorder'><div class='vertical-center'><img style='vertical-align:center; align:center' src='img/fixation2_sml.jpg'></div><div class='arrayDiv3'><div class='tl'><img class='introPic' src='trustrating_stim/white_mw091.bmp'><br><font color='green'><strong>Share</strong></font></div><div class='tc'><img class='introPic' src='trustrating_stim/white_mw078.bmp'><br><font color='red'><strong>Keep</strong></font></div><div class='tr'><img class='introPic' src='trustrating_stim/white_mw012.bmp'><br><font color='red'><strong>Keep</strong></font></div></div></div>","null","ARRAY","3","trustrating_stim/white_mw091.bmp,trustrating_stim/white_mw078.bmp,trustrating_stim/white_mw012.bmp","1,0,0","noMatchOutcome","i","4500","","","","",""
"","","","","","62e19208352cd518d7b2f085","bdp_wmem","Tue Mar 14 2023 22:09:53 GMT-0400 (Eastern Daylight Time)","629514","Match,No Match","html-keyboard-response","167","433021","0.0-7.0-3.26","","null","","<div class='trialBorder'><div class='vertical-center'><img src='img/fixation2_sml.jpg'</img></div></div>","null","DELAY","","","","","","","","","","",""
"","","","","","62e19208352cd518d7b2f085","bdp_wmem","Tue Mar 14 2023 22:09:53 GMT-0400 (Eastern Daylight Time)","629514","Match,No Match","html-keyboard-response","168","434177","0.0-7.0-4.26","","1154","","<div class='trialBorder'><div class='targDiv'><div class='tc'><img class='introPic' src='trustrating_stim/white_mw012.bmp'><br><font color='green'><strong>Share</strong></font></div></div><div class='respDiv'><div class='respDivL'>Match<br>(e)</div><div class='respDivR'>No Match<br>(i)</div></div></div>","i","TARGET","3","trustrating_stim/white_mw091.bmp,trustrating_stim/white_mw078.bmp,trustrating_stim/white_mw012.bmp","1,0,0","noMatchOutcome","i","4500","trustrating_stim/white_mw012.bmp","green","Share","REAL","1"
"","","","","","62e19208352cd518d7b2f085","bdp_wmem","Tue Mar 14 2023 22:09:53 GMT-0400 (Eastern Daylight Time)","629514","Match,No Match","html-keyboard-response","169","434685","0.0-7.0-5.26","","null","","<div class='trialBorder'><div class='vertical-center'><img src='img/correct.jpg'></div><div class='respDiv'><div class='respDivL'>Match<br>(e)</div><div class='respDivR'><font style='color:orange'>No Match<br>(i)</font></div></div></div>","null","FEEDBACK","","","","","","","","","","",""
"","","","","","62e19208352cd518d7b2f085","bdp_wmem","Tue Mar 14 2023 22:09:53 GMT-0400 (Eastern Daylight Time)","629514","Match,No Match","html-keyboard-response","170","435189","0.0-7.0-1.27","","null","","<div class='trialBorder'><div class='vertical-center'><img src='img/fixation2_sml.jpg'</img></div></div>","null","FIX","","","","","","","","","","",""
"","","","","","62e19208352cd518d7b2f085","bdp_wmem","Tue Mar 14 2023 22:09:53 GMT-0400 (Eastern Daylight Time)","629514","Match,No Match","html-keyboard-response","171","436693","0.0-7.0-2.27","","null","","<div class='trialBorder'><div class='vertical-center'><img style='vertical-align:center; align:center' src='img/fixation2_sml.jpg'></div><div class='arrayDiv1'><div class='tc'><img class='introPic' src='trustrating_stim/white_mw013.bmp'><br><font color='green'><strong>Share</strong></font></div></div></div>","null","ARRAY","1","trustrating_stim/white_mw013.bmp","1","noMatchOutcome","i","1500","","","","",""
"","","","","","62e19208352cd518d7b2f085","bdp_wmem","Tue Mar 14 2023 22:09:53 GMT-0400 (Eastern Daylight Time)","629514","Match,No Match","html-keyboard-response","172","440701","0.0-7.0-3.27","","null","","<div class='trialBorder'><div class='vertical-center'><img src='img/fixation2_sml.jpg'</img></div></div>","null","DELAY","","","","","","","","","","",""
"","","","","","62e19208352cd518d7b2f085","bdp_wmem","Tue Mar 14 2023 22:09:53 GMT-0400 (Eastern Daylight Time)","629514","Match,No Match","html-keyboard-response","173","442056","0.0-7.0-4.27","","1354","","<div class='trialBorder'><div class='targDiv'><div class='tc'><img class='introPic' src='trustrating_stim/white_mw013.bmp'><br><font color='red'><strong>Keep</strong></font></div></div><div class='respDiv'><div class='respDivL'>Match<br>(e)</div><div class='respDivR'>No Match<br>(i)</div></div></div>","e","TARGET","1","trustrating_stim/white_mw013.bmp","1","noMatchOutcome","i","1500","trustrating_stim/white_mw013.bmp","red","Keep","REAL","0"
"","","","","","62e19208352cd518d7b2f085","bdp_wmem","Tue Mar 14 2023 22:09:53 GMT-0400 (Eastern Daylight Time)","629514","Match,No Match","html-keyboard-response","174","442565","0.0-7.0-5.27","","null","","<div class='trialBorder'><div class='vertical-center'><img src='img/error.jpg'></div><div class='respDiv'><div class='respDivL'><font style='color:orange'>Match<br>(e)</font></div><div class='respDivR'>No Match<br>(i)</div></div></div>","null","FEEDBACK","","","","","","","","","","",""
"","","","","","62e19208352cd518d7b2f085","bdp_wmem","Tue Mar 14 2023 22:09:53 GMT-0400 (Eastern Daylight Time)","629514","Match,No Match","html-keyboard-response","175","443069","0.0-7.0-1.28","","null","","<div class='trialBorder'><div class='vertical-center'><img src='img/fixation2_sml.jpg'</img></div></div>","null","FIX","","","","","","","","","","",""
"","","","","","62e19208352cd518d7b2f085","bdp_wmem","Tue Mar 14 2023 22:09:53 GMT-0400 (Eastern Daylight Time)","629514","Match,No Match","html-keyboard-response","176","447573","0.0-7.0-2.28","","null","","<div class='trialBorder'><div class='vertical-center'><img style='vertical-align:center; align:center' src='img/fixation2_sml.jpg'></div><div class='arrayDiv3'><div class='tl'><img class='introPic' src='trustrating_stim/white_mw042.bmp'><br><font color='green'><strong>Share</strong></font></div><div class='tc'><img class='introPic' src='trustrating_stim/white_mw010.bmp'><br><font color='red'><strong>Keep</strong></font></div><div class='tr'><img class='introPic' src='trustrating_stim/white_mw085.bmp'><br><font color='green'><strong>Share</strong></font></div></div></div>","null","ARRAY","3","trustrating_stim/white_mw042.bmp,trustrating_stim/white_mw010.bmp,trustrating_stim/white_mw085.bmp","1,0,1","noMatchFace","i","4500","","","","",""
"","","","","","62e19208352cd518d7b2f085","bdp_wmem","Tue Mar 14 2023 22:09:53 GMT-0400 (Eastern Daylight Time)","629514","Match,No Match","html-keyboard-response","177","451581","0.0-7.0-3.28","","null","","<div class='trialBorder'><div class='vertical-center'><img src='img/fixation2_sml.jpg'</img></div></div>","null","DELAY","","","","","","","","","","",""
"","","","","","62e19208352cd518d7b2f085","bdp_wmem","Tue Mar 14 2023 22:09:53 GMT-0400 (Eastern Daylight Time)","629514","Match,No Match","html-keyboard-response","178","452808","0.0-7.0-4.28","","1225","","<div class='trialBorder'><div class='targDiv'><div class='tc'><img class='introPic' src='trustrating_stim/white_mw078.bmp'><br><font color='green'><strong>Share</strong></font></div></div><div class='respDiv'><div class='respDivL'>Match<br>(e)</div><div class='respDivR'>No Match<br>(i)</div></div></div>","i","TARGET","3","trustrating_stim/white_mw042.bmp,trustrating_stim/white_mw010.bmp,trustrating_stim/white_mw085.bmp","1,0,1","noMatchFace","i","4500","trustrating_stim/white_mw078.bmp","green","Share","REAL","1"
"","","","","","62e19208352cd518d7b2f085","bdp_wmem","Tue Mar 14 2023 22:09:53 GMT-0400 (Eastern Daylight Time)","629514","Match,No Match","html-keyboard-response","179","453317","0.0-7.0-5.28","","null","","<div class='trialBorder'><div class='vertical-center'><img src='img/correct.jpg'></div><div class='respDiv'><div class='respDivL'>Match<br>(e)</div><div class='respDivR'><font style='color:orange'>No Match<br>(i)</font></div></div></div>","null","FEEDBACK","","","","","","","","","","",""
"","","","","","62e19208352cd518d7b2f085","bdp_wmem","Tue Mar 14 2023 22:09:53 GMT-0400 (Eastern Daylight Time)","629514","Match,No Match","html-keyboard-response","180","453821","0.0-7.0-1.29","","null","","<div class='trialBorder'><div class='vertical-center'><img src='img/fixation2_sml.jpg'</img></div></div>","null","FIX","","","","","","","","","","",""
"","","","","","62e19208352cd518d7b2f085","bdp_wmem","Tue Mar 14 2023 22:09:53 GMT-0400 (Eastern Daylight Time)","629514","Match,No Match","html-keyboard-response","181","458325","0.0-7.0-2.29","","null","","<div class='trialBorder'><div class='vertical-center'><img style='vertical-align:center; align:center' src='img/fixation2_sml.jpg'></div><div class='arrayDiv3'><div class='tl'><img class='introPic' src='trustrating_stim/white_mw040.bmp'><br><font color='green'><strong>Share</strong></font></div><div class='tc'><img class='introPic' src='trustrating_stim/white_mw003.bmp'><br><font color='green'><strong>Share</strong></font></div><div class='tr'><img class='introPic' src='trustrating_stim/white_mw085.bmp'><br><font color='red'><strong>Keep</strong></font></div></div></div>","null","ARRAY","3","trustrating_stim/white_mw040.bmp,trustrating_stim/white_mw003.bmp,trustrating_stim/white_mw085.bmp","1,1,0","noMatchOutcome","i","4500","","","","",""
"","","","","","62e19208352cd518d7b2f085","bdp_wmem","Tue Mar 14 2023 22:09:53 GMT-0400 (Eastern Daylight Time)","629514","Match,No Match","html-keyboard-response","182","462333","0.0-7.0-3.29","","null","","<div class='trialBorder'><div class='vertical-center'><img src='img/fixation2_sml.jpg'</img></div></div>","null","DELAY","","","","","","","","","","",""
"","","","","","62e19208352cd518d7b2f085","bdp_wmem","Tue Mar 14 2023 22:09:53 GMT-0400 (Eastern Daylight Time)","629514","Match,No Match","html-keyboard-response","183","464576","0.0-7.0-4.29","","2242","","<div class='trialBorder'><div class='targDiv'><div class='tc'><img class='introPic' src='trustrating_stim/white_mw085.bmp'><br><font color='green'><strong>Share</strong></font></div></div><div class='respDiv'><div class='respDivL'>Match<br>(e)</div><div class='respDivR'>No Match<br>(i)</div></div></div>","e","TARGET","3","trustrating_stim/white_mw040.bmp,trustrating_stim/white_mw003.bmp,trustrating_stim/white_mw085.bmp","1,1,0","noMatchOutcome","i","4500","trustrating_stim/white_mw085.bmp","green","Share","REAL","0"
"","","","","","62e19208352cd518d7b2f085","bdp_wmem","Tue Mar 14 2023 22:09:53 GMT-0400 (Eastern Daylight Time)","629514","Match,No Match","html-keyboard-response","184","465086","0.0-7.0-5.29","","null","","<div class='trialBorder'><div class='vertical-center'><img src='img/error.jpg'></div><div class='respDiv'><div class='respDivL'><font style='color:orange'>Match<br>(e)</font></div><div class='respDivR'>No Match<br>(i)</div></div></div>","null","FEEDBACK","","","","","","","","","","",""
"","","","","","62e19208352cd518d7b2f085","bdp_wmem","Tue Mar 14 2023 22:09:53 GMT-0400 (Eastern Daylight Time)","629514","Match,No Match","html-keyboard-response","185","465592","0.0-7.0-1.30","","null","","<div class='trialBorder'><div class='vertical-center'><img src='img/fixation2_sml.jpg'</img></div></div>","null","FIX","","","","","","","","","","",""
