"trial_type","trial_index","time_elapsed","internal_node_id","subject_id","task","startTime","totalTime","labels","view_history","rt","event","trial","time","trialtype","success","stimulus","key_press","stimType","arraySize","arrayFaces","arrayOutcomes","matchType","corrResp","arrayDur","targFace","targCol","targOutcome","trialType","corr"
"pavlovia","0","4","0.0-0.0","64013a68f0b6846f5e68b7ad","bdp_wmem","Sun Mar 12 2023 23:15:39 GMT-0500 (Central Daylight Time)","554678","Match,No Match","","","","","","","","","","","","","","","","","","","","",""
"instructions","1","6474","0.0-1.0","64013a68f0b6846f5e68b7ad","bdp_wmem","Sun Mar 12 2023 23:15:39 GMT-0500 (Central Daylight Time)","554678","Match,No Match","[{""page_index"":0,""viewing_time"":6470}]","6470","","","","","","","","","","","","","","","","","","",""
"","","","","64013a68f0b6846f5e68b7ad","bdp_wmem","Sun Mar 12 2023 23:15:39 GMT-0500 (Central Daylight Time)","554678","Match,No Match","","","fullscreenenter","2","9133","fullscreenenter","","","","","","","","","","","","","","",""
"fullscreen","2","10098","0.0-2.0","64013a68f0b6846f5e68b7ad","bdp_wmem","Sun Mar 12 2023 23:15:39 GMT-0500 (Central Daylight Time)","554678","Match,No Match","","","","","","","true","","","","","","","","","","","","","",""
"instructions","3","26680","0.0-4.0","64013a68f0b6846f5e68b7ad","bdp_wmem","Sun Mar 12 2023 23:15:39 GMT-0500 (Central Daylight Time)","554678","Match,No Match","[{""page_index"":0,""viewing_time"":2405},{""page_index"":1,""viewing_time"":3529},{""page_index"":2,""viewing_time"":1112},{""page_index"":3,""viewing_time"":823},{""page_index"":4,""viewing_time"":8713}]","16582","","","","","","","","","","","","","","","","","","",""
"html-keyboard-response","4","27183","0.0-5.0-1.0","64013a68f0b6846f5e68b7ad","bdp_wmem","Sun Mar 12 2023 23:15:39 GMT-0500 (Central Daylight Time)","554678","Match,No Match","","null","","","","","","<div class='trialBorder'><div class='vertical-center'><img src='img/fixation2_sml.jpg'</img></div></div>","null","FIX","","","","","","","","","","",""
"html-keyboard-response","5","31684","0.0-5.0-2.0","64013a68f0b6846f5e68b7ad","bdp_wmem","Sun Mar 12 2023 23:15:39 GMT-0500 (Central Daylight Time)","554678","Match,No Match","","null","","","","","","<div class='trialBorder'><div class='vertical-center'><img style='vertical-align:center; align:center' src='img/fixation2_sml.jpg'></div><div class='arrayDiv3'><div class='tl'><img class='introPic' src='trustrating_stim/white_mw070.bmp'><br><font color='red'><strong>Keep</strong></font></div><div class='tc'><img class='introPic' src='trustrating_stim/white_mw013.bmp'><br><font color='green'><strong>Share</strong></font></div><div class='tr'><img class='introPic' src='trustrating_stim/white_mw012.bmp'><br><font color='red'><strong>Keep</strong></font></div></div></div>","null","ARRAY","3","trustrating_stim/white_mw070.bmp,trustrating_stim/white_mw013.bmp,trustrating_stim/white_mw012.bmp","0,1,0","Match","e","4500","","","","",""
"html-keyboard-response","6","35686","0.0-5.0-3.0","64013a68f0b6846f5e68b7ad","bdp_wmem","Sun Mar 12 2023 23:15:39 GMT-0500 (Central Daylight Time)","554678","Match,No Match","","null","","","","","","<div class='trialBorder'><div class='vertical-center'><img src='img/fixation2_sml.jpg'</img></div></div>","null","DELAY","","","","","","","","","","",""
"html-keyboard-response","7","38808","0.0-5.0-4.0","64013a68f0b6846f5e68b7ad","bdp_wmem","Sun Mar 12 2023 23:15:39 GMT-0500 (Central Daylight Time)","554678","Match,No Match","","3121","","","","","","<div class='trialBorder'><div class='targDiv'><div class='tc'><img class='introPic' src='trustrating_stim/white_mw013.bmp'><br><font color='green'><strong>Share</strong></font></div></div><div class='respDiv'><div class='respDivL'>Match<br>(e)</div><div class='respDivR'>No Match<br>(i)</div></div></div>","e","TARGET","3","trustrating_stim/white_mw070.bmp,trustrating_stim/white_mw013.bmp,trustrating_stim/white_mw012.bmp","0,1,0","Match","e","4500","trustrating_stim/white_mw013.bmp","green","Share","PRACTICE","1"
"html-keyboard-response","8","39309","0.0-5.0-5.0","64013a68f0b6846f5e68b7ad","bdp_wmem","Sun Mar 12 2023 23:15:39 GMT-0500 (Central Daylight Time)","554678","Match,No Match","","null","","","","","","<div class='trialBorder'><div class='vertical-center'><img src='img/correct.jpg'></div><div class='respDiv'><div class='respDivL'><font style='color:orange'>Match<br>(e)</font></div><div class='respDivR'>No Match<br>(i)</div></div></div>","null","FEEDBACK","","","","","","","","","","",""
"html-keyboard-response","9","39811","0.0-5.0-1.1","64013a68f0b6846f5e68b7ad","bdp_wmem","Sun Mar 12 2023 23:15:39 GMT-0500 (Central Daylight Time)","554678","Match,No Match","","null","","","","","","<div class='trialBorder'><div class='vertical-center'><img src='img/fixation2_sml.jpg'</img></div></div>","null","FIX","","","","","","","","","","",""
"html-keyboard-response","10","44312","0.0-5.0-2.1","64013a68f0b6846f5e68b7ad","bdp_wmem","Sun Mar 12 2023 23:15:39 GMT-0500 (Central Daylight Time)","554678","Match,No Match","","null","","","","","","<div class='trialBorder'><div class='vertical-center'><img style='vertical-align:center; align:center' src='img/fixation2_sml.jpg'></div><div class='arrayDiv3'><div class='tl'><img class='introPic' src='trustrating_stim/white_mw070.bmp'><br><font color='red'><strong>Keep</strong></font></div><div class='tc'><img class='introPic' src='trustrating_stim/white_mw085.bmp'><br><font color='red'><strong>Keep</strong></font></div><div class='tr'><img class='introPic' src='trustrating_stim/white_mw042.bmp'><br><font color='green'><strong>Share</strong></font></div></div></div>","null","ARRAY","3","trustrating_stim/white_mw070.bmp,trustrating_stim/white_mw085.bmp,trustrating_stim/white_mw042.bmp","0,0,1","noMatchOutcome","i","4500","","","","",""
"html-keyboard-response","11","48314","0.0-5.0-3.1","64013a68f0b6846f5e68b7ad","bdp_wmem","Sun Mar 12 2023 23:15:39 GMT-0500 (Central Daylight Time)","554678","Match,No Match","","null","","","","","","<div class='trialBorder'><div class='vertical-center'><img src='img/fixation2_sml.jpg'</img></div></div>","null","DELAY","","","","","","","","","","",""
"html-keyboard-response","12","50025","0.0-5.0-4.1","64013a68f0b6846f5e68b7ad","bdp_wmem","Sun Mar 12 2023 23:15:39 GMT-0500 (Central Daylight Time)","554678","Match,No Match","","1711","","","","","","<div class='trialBorder'><div class='targDiv'><div class='tc'><img class='introPic' src='trustrating_stim/white_mw070.bmp'><br><font color='green'><strong>Share</strong></font></div></div><div class='respDiv'><div class='respDivL'>Match<br>(e)</div><div class='respDivR'>No Match<br>(i)</div></div></div>","i","TARGET","3","trustrating_stim/white_mw070.bmp,trustrating_stim/white_mw085.bmp,trustrating_stim/white_mw042.bmp","0,0,1","noMatchOutcome","i","4500","trustrating_stim/white_mw070.bmp","green","Share","PRACTICE","1"
"html-keyboard-response","13","50526","0.0-5.0-5.1","64013a68f0b6846f5e68b7ad","bdp_wmem","Sun Mar 12 2023 23:15:39 GMT-0500 (Central Daylight Time)","554678","Match,No Match","","null","","","","","","<div class='trialBorder'><div class='vertical-center'><img src='img/correct.jpg'></div><div class='respDiv'><div class='respDivL'>Match<br>(e)</div><div class='respDivR'><font style='color:orange'>No Match<br>(i)</font></div></div></div>","null","FEEDBACK","","","","","","","","","","",""
"html-keyboard-response","14","51027","0.0-5.0-1.2","64013a68f0b6846f5e68b7ad","bdp_wmem","Sun Mar 12 2023 23:15:39 GMT-0500 (Central Daylight Time)","554678","Match,No Match","","null","","","","","","<div class='trialBorder'><div class='vertical-center'><img src='img/fixation2_sml.jpg'</img></div></div>","null","FIX","","","","","","","","","","",""
"html-keyboard-response","15","54029","0.0-5.0-2.2","64013a68f0b6846f5e68b7ad","bdp_wmem","Sun Mar 12 2023 23:15:39 GMT-0500 (Central Daylight Time)","554678","Match,No Match","","null","","","","","","<div class='trialBorder'><div class='vertical-center'><img style='vertical-align:center; align:center' src='img/fixation2_sml.jpg'></div><div class='arrayDiv2'><div class='tl'><img class='introPic' src='trustrating_stim/white_mw085.bmp'><br><font color='red'><strong>Keep</strong></font></div><div class='tr'><img class='introPic' src='trustrating_stim/white_mw092.bmp'><br><font color='green'><strong>Share</strong></font></div></div></div>","null","ARRAY","2","trustrating_stim/white_mw085.bmp,trustrating_stim/white_mw092.bmp","0,1","Match","e","3000","","","","",""
"html-keyboard-response","16","58029","0.0-5.0-3.2","64013a68f0b6846f5e68b7ad","bdp_wmem","Sun Mar 12 2023 23:15:39 GMT-0500 (Central Daylight Time)","554678","Match,No Match","","null","","","","","","<div class='trialBorder'><div class='vertical-center'><img src='img/fixation2_sml.jpg'</img></div></div>","null","DELAY","","","","","","","","","","",""
"html-keyboard-response","17","59320","0.0-5.0-4.2","64013a68f0b6846f5e68b7ad","bdp_wmem","Sun Mar 12 2023 23:15:39 GMT-0500 (Central Daylight Time)","554678","Match,No Match","","1289","","","","","","<div class='trialBorder'><div class='targDiv'><div class='tc'><img class='introPic' src='trustrating_stim/white_mw085.bmp'><br><font color='red'><strong>Keep</strong></font></div></div><div class='respDiv'><div class='respDivL'>Match<br>(e)</div><div class='respDivR'>No Match<br>(i)</div></div></div>","e","TARGET","2","trustrating_stim/white_mw085.bmp,trustrating_stim/white_mw092.bmp","0,1","Match","e","3000","trustrating_stim/white_mw085.bmp","red","Keep","PRACTICE","1"
"html-keyboard-response","18","59822","0.0-5.0-5.2","64013a68f0b6846f5e68b7ad","bdp_wmem","Sun Mar 12 2023 23:15:39 GMT-0500 (Central Daylight Time)","554678","Match,No Match","","null","","","","","","<div class='trialBorder'><div class='vertical-center'><img src='img/correct.jpg'></div><div class='respDiv'><div class='respDivL'><font style='color:orange'>Match<br>(e)</font></div><div class='respDivR'>No Match<br>(i)</div></div></div>","null","FEEDBACK","","","","","","","","","","",""
"html-keyboard-response","19","60323","0.0-5.0-1.3","64013a68f0b6846f5e68b7ad","bdp_wmem","Sun Mar 12 2023 23:15:39 GMT-0500 (Central Daylight Time)","554678","Match,No Match","","null","","","","","","<div class='trialBorder'><div class='vertical-center'><img src='img/fixation2_sml.jpg'</img></div></div>","null","FIX","","","","","","","","","","",""
"html-keyboard-response","20","63325","0.0-5.0-2.3","64013a68f0b6846f5e68b7ad","bdp_wmem","Sun Mar 12 2023 23:15:39 GMT-0500 (Central Daylight Time)","554678","Match,No Match","","null","","","","","","<div class='trialBorder'><div class='vertical-center'><img style='vertical-align:center; align:center' src='img/fixation2_sml.jpg'></div><div class='arrayDiv2'><div class='tl'><img class='introPic' src='trustrating_stim/white_mw042.bmp'><br><font color='red'><strong>Keep</strong></font></div><div class='tr'><img class='introPic' src='trustrating_stim/white_mw085.bmp'><br><font color='green'><strong>Share</strong></font></div></div></div>","null","ARRAY","2","trustrating_stim/white_mw042.bmp,trustrating_stim/white_mw085.bmp","0,1","noMatchOutcome","i","3000","","","","",""
"html-keyboard-response","21","67327","0.0-5.0-3.3","64013a68f0b6846f5e68b7ad","bdp_wmem","Sun Mar 12 2023 23:15:39 GMT-0500 (Central Daylight Time)","554678","Match,No Match","","null","","","","","","<div class='trialBorder'><div class='vertical-center'><img src='img/fixation2_sml.jpg'</img></div></div>","null","DELAY","","","","","","","","","","",""
"html-keyboard-response","22","68489","0.0-5.0-4.3","64013a68f0b6846f5e68b7ad","bdp_wmem","Sun Mar 12 2023 23:15:39 GMT-0500 (Central Daylight Time)","554678","Match,No Match","","1161","","","","","","<div class='trialBorder'><div class='targDiv'><div class='tc'><img class='introPic' src='trustrating_stim/white_mw085.bmp'><br><font color='red'><strong>Keep</strong></font></div></div><div class='respDiv'><div class='respDivL'>Match<br>(e)</div><div class='respDivR'>No Match<br>(i)</div></div></div>","i","TARGET","2","trustrating_stim/white_mw042.bmp,trustrating_stim/white_mw085.bmp","0,1","noMatchOutcome","i","3000","trustrating_stim/white_mw085.bmp","red","Keep","PRACTICE","1"
"html-keyboard-response","23","68990","0.0-5.0-5.3","64013a68f0b6846f5e68b7ad","bdp_wmem","Sun Mar 12 2023 23:15:39 GMT-0500 (Central Daylight Time)","554678","Match,No Match","","null","","","","","","<div class='trialBorder'><div class='vertical-center'><img src='img/correct.jpg'></div><div class='respDiv'><div class='respDivL'>Match<br>(e)</div><div class='respDivR'><font style='color:orange'>No Match<br>(i)</font></div></div></div>","null","FEEDBACK","","","","","","","","","","",""
"html-keyboard-response","24","69491","0.0-5.0-1.4","64013a68f0b6846f5e68b7ad","bdp_wmem","Sun Mar 12 2023 23:15:39 GMT-0500 (Central Daylight Time)","554678","Match,No Match","","null","","","","","","<div class='trialBorder'><div class='vertical-center'><img src='img/fixation2_sml.jpg'</img></div></div>","null","FIX","","","","","","","","","","",""
"html-keyboard-response","25","70992","0.0-5.0-2.4","64013a68f0b6846f5e68b7ad","bdp_wmem","Sun Mar 12 2023 23:15:39 GMT-0500 (Central Daylight Time)","554678","Match,No Match","","null","","","","","","<div class='trialBorder'><div class='vertical-center'><img style='vertical-align:center; align:center' src='img/fixation2_sml.jpg'></div><div class='arrayDiv1'><div class='tc'><img class='introPic' src='trustrating_stim/white_mw092.bmp'><br><font color='green'><strong>Share</strong></font></div></div></div>","null","ARRAY","1","trustrating_stim/white_mw092.bmp","1","Match","e","1500","","","","",""
"html-keyboard-response","26","74994","0.0-5.0-3.4","64013a68f0b6846f5e68b7ad","bdp_wmem","Sun Mar 12 2023 23:15:39 GMT-0500 (Central Daylight Time)","554678","Match,No Match","","null","","","","","","<div class='trialBorder'><div class='vertical-center'><img src='img/fixation2_sml.jpg'</img></div></div>","null","DELAY","","","","","","","","","","",""
"html-keyboard-response","27","76783","0.0-5.0-4.4","64013a68f0b6846f5e68b7ad","bdp_wmem","Sun Mar 12 2023 23:15:39 GMT-0500 (Central Daylight Time)","554678","Match,No Match","","1788","","","","","","<div class='trialBorder'><div class='targDiv'><div class='tc'><img class='introPic' src='trustrating_stim/white_mw092.bmp'><br><font color='green'><strong>Share</strong></font></div></div><div class='respDiv'><div class='respDivL'>Match<br>(e)</div><div class='respDivR'>No Match<br>(i)</div></div></div>","e","TARGET","1","trustrating_stim/white_mw092.bmp","1","Match","e","1500","trustrating_stim/white_mw092.bmp","green","Share","PRACTICE","1"
"html-keyboard-response","28","77284","0.0-5.0-5.4","64013a68f0b6846f5e68b7ad","bdp_wmem","Sun Mar 12 2023 23:15:39 GMT-0500 (Central Daylight Time)","554678","Match,No Match","","null","","","","","","<div class='trialBorder'><div class='vertical-center'><img src='img/correct.jpg'></div><div class='respDiv'><div class='respDivL'><font style='color:orange'>Match<br>(e)</font></div><div class='respDivR'>No Match<br>(i)</div></div></div>","null","FEEDBACK","","","","","","","","","","",""
"html-keyboard-response","29","77785","0.0-5.0-1.5","64013a68f0b6846f5e68b7ad","bdp_wmem","Sun Mar 12 2023 23:15:39 GMT-0500 (Central Daylight Time)","554678","Match,No Match","","null","","","","","","<div class='trialBorder'><div class='vertical-center'><img src='img/fixation2_sml.jpg'</img></div></div>","null","FIX","","","","","","","","","","",""
"html-keyboard-response","30","79287","0.0-5.0-2.5","64013a68f0b6846f5e68b7ad","bdp_wmem","Sun Mar 12 2023 23:15:39 GMT-0500 (Central Daylight Time)","554678","Match,No Match","","null","","","","","","<div class='trialBorder'><div class='vertical-center'><img style='vertical-align:center; align:center' src='img/fixation2_sml.jpg'></div><div class='arrayDiv1'><div class='tc'><img class='introPic' src='trustrating_stim/white_mw013.bmp'><br><font color='red'><strong>Keep</strong></font></div></div></div>","null","ARRAY","1","trustrating_stim/white_mw013.bmp","0","noMatchFace","i","1500","","","","",""
"html-keyboard-response","31","83288","0.0-5.0-3.5","64013a68f0b6846f5e68b7ad","bdp_wmem","Sun Mar 12 2023 23:15:39 GMT-0500 (Central Daylight Time)","554678","Match,No Match","","null","","","","","","<div class='trialBorder'><div class='vertical-center'><img src='img/fixation2_sml.jpg'</img></div></div>","null","DELAY","","","","","","","","","","",""
"html-keyboard-response","32","86144","0.0-5.0-4.5","64013a68f0b6846f5e68b7ad","bdp_wmem","Sun Mar 12 2023 23:15:39 GMT-0500 (Central Daylight Time)","554678","Match,No Match","","2855","","","","","","<div class='trialBorder'><div class='targDiv'><div class='tc'><img class='introPic' src='trustrating_stim/white_mw012.bmp'><br><font color='red'><strong>Keep</strong></font></div></div><div class='respDiv'><div class='respDivL'>Match<br>(e)</div><div class='respDivR'>No Match<br>(i)</div></div></div>","i","TARGET","1","trustrating_stim/white_mw013.bmp","0","noMatchFace","i","1500","trustrating_stim/white_mw012.bmp","red","Keep","PRACTICE","1"
"html-keyboard-response","33","86646","0.0-5.0-5.5","64013a68f0b6846f5e68b7ad","bdp_wmem","Sun Mar 12 2023 23:15:39 GMT-0500 (Central Daylight Time)","554678","Match,No Match","","null","","","","","","<div class='trialBorder'><div class='vertical-center'><img src='img/correct.jpg'></div><div class='respDiv'><div class='respDivL'>Match<br>(e)</div><div class='respDivR'><font style='color:orange'>No Match<br>(i)</font></div></div></div>","null","FEEDBACK","","","","","","","","","","",""
"instructions","34","91055","0.0-6.0","64013a68f0b6846f5e68b7ad","bdp_wmem","Sun Mar 12 2023 23:15:39 GMT-0500 (Central Daylight Time)","554678","Match,No Match","[{""page_index"":0,""viewing_time"":4409}]","4409","","","","","","","","","","","","","","","","","","",""
"html-keyboard-response","35","91557","0.0-7.0-1.0","64013a68f0b6846f5e68b7ad","bdp_wmem","Sun Mar 12 2023 23:15:39 GMT-0500 (Central Daylight Time)","554678","Match,No Match","","null","","","","","","<div class='trialBorder'><div class='vertical-center'><img src='img/fixation2_sml.jpg'</img></div></div>","null","FIX","","","","","","","","","","",""
"html-keyboard-response","36","93059","0.0-7.0-2.0","64013a68f0b6846f5e68b7ad","bdp_wmem","Sun Mar 12 2023 23:15:39 GMT-0500 (Central Daylight Time)","554678","Match,No Match","","null","","","","","","<div class='trialBorder'><div class='vertical-center'><img style='vertical-align:center; align:center' src='img/fixation2_sml.jpg'></div><div class='arrayDiv1'><div class='tc'><img class='introPic' src='trustrating_stim/white_mw003.bmp'><br><font color='green'><strong>Share</strong></font></div></div></div>","null","ARRAY","1","trustrating_stim/white_mw003.bmp","1","Match","e","1500","","","","",""
"html-keyboard-response","37","97060","0.0-7.0-3.0","64013a68f0b6846f5e68b7ad","bdp_wmem","Sun Mar 12 2023 23:15:39 GMT-0500 (Central Daylight Time)","554678","Match,No Match","","null","","","","","","<div class='trialBorder'><div class='vertical-center'><img src='img/fixation2_sml.jpg'</img></div></div>","null","DELAY","","","","","","","","","","",""
"html-keyboard-response","38","98346","0.0-7.0-4.0","64013a68f0b6846f5e68b7ad","bdp_wmem","Sun Mar 12 2023 23:15:39 GMT-0500 (Central Daylight Time)","554678","Match,No Match","","1285","","","","","","<div class='trialBorder'><div class='targDiv'><div class='tc'><img class='introPic' src='trustrating_stim/white_mw003.bmp'><br><font color='green'><strong>Share</strong></font></div></div><div class='respDiv'><div class='respDivL'>Match<br>(e)</div><div class='respDivR'>No Match<br>(i)</div></div></div>","e","TARGET","1","trustrating_stim/white_mw003.bmp","1","Match","e","1500","trustrating_stim/white_mw003.bmp","green","Share","REAL","1"
"html-keyboard-response","39","98847","0.0-7.0-5.0","64013a68f0b6846f5e68b7ad","bdp_wmem","Sun Mar 12 2023 23:15:39 GMT-0500 (Central Daylight Time)","554678","Match,No Match","","null","","","","","","<div class='trialBorder'><div class='vertical-center'><img src='img/correct.jpg'></div><div class='respDiv'><div class='respDivL'><font style='color:orange'>Match<br>(e)</font></div><div class='respDivR'>No Match<br>(i)</div></div></div>","null","FEEDBACK","","","","","","","","","","",""
"html-keyboard-response","40","99349","0.0-7.0-1.1","64013a68f0b6846f5e68b7ad","bdp_wmem","Sun Mar 12 2023 23:15:39 GMT-0500 (Central Daylight Time)","554678","Match,No Match","","null","","","","","","<div class='trialBorder'><div class='vertical-center'><img src='img/fixation2_sml.jpg'</img></div></div>","null","FIX","","","","","","","","","","",""
"html-keyboard-response","41","100851","0.0-7.0-2.1","64013a68f0b6846f5e68b7ad","bdp_wmem","Sun Mar 12 2023 23:15:39 GMT-0500 (Central Daylight Time)","554678","Match,No Match","","null","","","","","","<div class='trialBorder'><div class='vertical-center'><img style='vertical-align:center; align:center' src='img/fixation2_sml.jpg'></div><div class='arrayDiv1'><div class='tc'><img class='introPic' src='trustrating_stim/white_mw010.bmp'><br><font color='green'><strong>Share</strong></font></div></div></div>","null","ARRAY","1","trustrating_stim/white_mw010.bmp","1","Match","e","1500","","","","",""
"html-keyboard-response","42","104853","0.0-7.0-3.1","64013a68f0b6846f5e68b7ad","bdp_wmem","Sun Mar 12 2023 23:15:39 GMT-0500 (Central Daylight Time)","554678","Match,No Match","","null","","","","","","<div class='trialBorder'><div class='vertical-center'><img src='img/fixation2_sml.jpg'</img></div></div>","null","DELAY","","","","","","","","","","",""
"html-keyboard-response","43","106352","0.0-7.0-4.1","64013a68f0b6846f5e68b7ad","bdp_wmem","Sun Mar 12 2023 23:15:39 GMT-0500 (Central Daylight Time)","554678","Match,No Match","","1498","","","","","","<div class='trialBorder'><div class='targDiv'><div class='tc'><img class='introPic' src='trustrating_stim/white_mw010.bmp'><br><font color='green'><strong>Share</strong></font></div></div><div class='respDiv'><div class='respDivL'>Match<br>(e)</div><div class='respDivR'>No Match<br>(i)</div></div></div>","e","TARGET","1","trustrating_stim/white_mw010.bmp","1","Match","e","1500","trustrating_stim/white_mw010.bmp","green","Share","REAL","1"
"html-keyboard-response","44","106854","0.0-7.0-5.1","64013a68f0b6846f5e68b7ad","bdp_wmem","Sun Mar 12 2023 23:15:39 GMT-0500 (Central Daylight Time)","554678","Match,No Match","","null","","","","","","<div class='trialBorder'><div class='vertical-center'><img src='img/correct.jpg'></div><div class='respDiv'><div class='respDivL'><font style='color:orange'>Match<br>(e)</font></div><div class='respDivR'>No Match<br>(i)</div></div></div>","null","FEEDBACK","","","","","","","","","","",""
"html-keyboard-response","45","107356","0.0-7.0-1.2","64013a68f0b6846f5e68b7ad","bdp_wmem","Sun Mar 12 2023 23:15:39 GMT-0500 (Central Daylight Time)","554678","Match,No Match","","null","","","","","","<div class='trialBorder'><div class='vertical-center'><img src='img/fixation2_sml.jpg'</img></div></div>","null","FIX","","","","","","","","","","",""
"html-keyboard-response","46","111858","0.0-7.0-2.2","64013a68f0b6846f5e68b7ad","bdp_wmem","Sun Mar 12 2023 23:15:39 GMT-0500 (Central Daylight Time)","554678","Match,No Match","","null","","","","","","<div class='trialBorder'><div class='vertical-center'><img style='vertical-align:center; align:center' src='img/fixation2_sml.jpg'></div><div class='arrayDiv3'><div class='tl'><img class='introPic' src='trustrating_stim/white_mw010.bmp'><br><font color='red'><strong>Keep</strong></font></div><div class='tc'><img class='introPic' src='trustrating_stim/white_mw003.bmp'><br><font color='green'><strong>Share</strong></font></div><div class='tr'><img class='introPic' src='trustrating_stim/white_mw013.bmp'><br><font color='red'><strong>Keep</strong></font></div></div></div>","null","ARRAY","3","trustrating_stim/white_mw010.bmp,trustrating_stim/white_mw003.bmp,trustrating_stim/white_mw013.bmp","0,1,0","noMatchFace","i","4500","","","","",""
"html-keyboard-response","47","115859","0.0-7.0-3.2","64013a68f0b6846f5e68b7ad","bdp_wmem","Sun Mar 12 2023 23:15:39 GMT-0500 (Central Daylight Time)","554678","Match,No Match","","null","","","","","","<div class='trialBorder'><div class='vertical-center'><img src='img/fixation2_sml.jpg'</img></div></div>","null","DELAY","","","","","","","","","","",""
"html-keyboard-response","48","117336","0.0-7.0-4.2","64013a68f0b6846f5e68b7ad","bdp_wmem","Sun Mar 12 2023 23:15:39 GMT-0500 (Central Daylight Time)","554678","Match,No Match","","1476","","","","","","<div class='trialBorder'><div class='targDiv'><div class='tc'><img class='introPic' src='trustrating_stim/white_mw085.bmp'><br><font color='green'><strong>Share</strong></font></div></div><div class='respDiv'><div class='respDivL'>Match<br>(e)</div><div class='respDivR'>No Match<br>(i)</div></div></div>","i","TARGET","3","trustrating_stim/white_mw010.bmp,trustrating_stim/white_mw003.bmp,trustrating_stim/white_mw013.bmp","0,1,0","noMatchFace","i","4500","trustrating_stim/white_mw085.bmp","green","Share","REAL","1"
"html-keyboard-response","49","117837","0.0-7.0-5.2","64013a68f0b6846f5e68b7ad","bdp_wmem","Sun Mar 12 2023 23:15:39 GMT-0500 (Central Daylight Time)","554678","Match,No Match","","null","","","","","","<div class='trialBorder'><div class='vertical-center'><img src='img/correct.jpg'></div><div class='respDiv'><div class='respDivL'>Match<br>(e)</div><div class='respDivR'><font style='color:orange'>No Match<br>(i)</font></div></div></div>","null","FEEDBACK","","","","","","","","","","",""
"html-keyboard-response","50","118338","0.0-7.0-1.3","64013a68f0b6846f5e68b7ad","bdp_wmem","Sun Mar 12 2023 23:15:39 GMT-0500 (Central Daylight Time)","554678","Match,No Match","","null","","","","","","<div class='trialBorder'><div class='vertical-center'><img src='img/fixation2_sml.jpg'</img></div></div>","null","FIX","","","","","","","","","","",""
"html-keyboard-response","51","119839","0.0-7.0-2.3","64013a68f0b6846f5e68b7ad","bdp_wmem","Sun Mar 12 2023 23:15:39 GMT-0500 (Central Daylight Time)","554678","Match,No Match","","null","","","","","","<div class='trialBorder'><div class='vertical-center'><img style='vertical-align:center; align:center' src='img/fixation2_sml.jpg'></div><div class='arrayDiv1'><div class='tc'><img class='introPic' src='trustrating_stim/white_mw038.bmp'><br><font color='green'><strong>Share</strong></font></div></div></div>","null","ARRAY","1","trustrating_stim/white_mw038.bmp","1","noMatchOutcome","i","1500","","","","",""
"html-keyboard-response","52","123841","0.0-7.0-3.3","64013a68f0b6846f5e68b7ad","bdp_wmem","Sun Mar 12 2023 23:15:39 GMT-0500 (Central Daylight Time)","554678","Match,No Match","","null","","","","","","<div class='trialBorder'><div class='vertical-center'><img src='img/fixation2_sml.jpg'</img></div></div>","null","DELAY","","","","","","","","","","",""
"html-keyboard-response","53","126551","0.0-7.0-4.3","64013a68f0b6846f5e68b7ad","bdp_wmem","Sun Mar 12 2023 23:15:39 GMT-0500 (Central Daylight Time)","554678","Match,No Match","","2710","","","","","","<div class='trialBorder'><div class='targDiv'><div class='tc'><img class='introPic' src='trustrating_stim/white_mw038.bmp'><br><font color='red'><strong>Keep</strong></font></div></div><div class='respDiv'><div class='respDivL'>Match<br>(e)</div><div class='respDivR'>No Match<br>(i)</div></div></div>","i","TARGET","1","trustrating_stim/white_mw038.bmp","1","noMatchOutcome","i","1500","trustrating_stim/white_mw038.bmp","red","Keep","REAL","1"
"html-keyboard-response","54","127053","0.0-7.0-5.3","64013a68f0b6846f5e68b7ad","bdp_wmem","Sun Mar 12 2023 23:15:39 GMT-0500 (Central Daylight Time)","554678","Match,No Match","","null","","","","","","<div class='trialBorder'><div class='vertical-center'><img src='img/correct.jpg'></div><div class='respDiv'><div class='respDivL'>Match<br>(e)</div><div class='respDivR'><font style='color:orange'>No Match<br>(i)</font></div></div></div>","null","FEEDBACK","","","","","","","","","","",""
"html-keyboard-response","55","127556","0.0-7.0-1.4","64013a68f0b6846f5e68b7ad","bdp_wmem","Sun Mar 12 2023 23:15:39 GMT-0500 (Central Daylight Time)","554678","Match,No Match","","null","","","","","","<div class='trialBorder'><div class='vertical-center'><img src='img/fixation2_sml.jpg'</img></div></div>","null","FIX","","","","","","","","","","",""
"html-keyboard-response","56","130558","0.0-7.0-2.4","64013a68f0b6846f5e68b7ad","bdp_wmem","Sun Mar 12 2023 23:15:39 GMT-0500 (Central Daylight Time)","554678","Match,No Match","","null","","","","","","<div class='trialBorder'><div class='vertical-center'><img style='vertical-align:center; align:center' src='img/fixation2_sml.jpg'></div><div class='arrayDiv2'><div class='tl'><img class='introPic' src='trustrating_stim/white_mw091.bmp'><br><font color='red'><strong>Keep</strong></font></div><div class='tr'><img class='introPic' src='trustrating_stim/white_mw040.bmp'><br><font color='green'><strong>Share</strong></font></div></div></div>","null","ARRAY","2","trustrating_stim/white_mw091.bmp,trustrating_stim/white_mw040.bmp","0,1","noMatchFace","i","3000","","","","",""
"html-keyboard-response","57","134559","0.0-7.0-3.4","64013a68f0b6846f5e68b7ad","bdp_wmem","Sun Mar 12 2023 23:15:39 GMT-0500 (Central Daylight Time)","554678","Match,No Match","","null","","","","","","<div class='trialBorder'><div class='vertical-center'><img src='img/fixation2_sml.jpg'</img></div></div>","null","DELAY","","","","","","","","","","",""
"html-keyboard-response","58","137656","0.0-7.0-4.4","64013a68f0b6846f5e68b7ad","bdp_wmem","Sun Mar 12 2023 23:15:39 GMT-0500 (Central Daylight Time)","554678","Match,No Match","","3096","","","","","","<div class='trialBorder'><div class='targDiv'><div class='tc'><img class='introPic' src='trustrating_stim/white_mw092.bmp'><br><font color='green'><strong>Share</strong></font></div></div><div class='respDiv'><div class='respDivL'>Match<br>(e)</div><div class='respDivR'>No Match<br>(i)</div></div></div>","e","TARGET","2","trustrating_stim/white_mw091.bmp,trustrating_stim/white_mw040.bmp","0,1","noMatchFace","i","3000","trustrating_stim/white_mw092.bmp","green","Share","REAL","0"
"html-keyboard-response","59","138158","0.0-7.0-5.4","64013a68f0b6846f5e68b7ad","bdp_wmem","Sun Mar 12 2023 23:15:39 GMT-0500 (Central Daylight Time)","554678","Match,No Match","","null","","","","","","<div class='trialBorder'><div class='vertical-center'><img src='img/error.jpg'></div><div class='respDiv'><div class='respDivL'><font style='color:orange'>Match<br>(e)</font></div><div class='respDivR'>No Match<br>(i)</div></div></div>","null","FEEDBACK","","","","","","","","","","",""
"html-keyboard-response","60","138658","0.0-7.0-1.5","64013a68f0b6846f5e68b7ad","bdp_wmem","Sun Mar 12 2023 23:15:39 GMT-0500 (Central Daylight Time)","554678","Match,No Match","","null","","","","","","<div class='trialBorder'><div class='vertical-center'><img src='img/fixation2_sml.jpg'</img></div></div>","null","FIX","","","","","","","","","","",""
"html-keyboard-response","61","141672","0.0-7.0-2.5","64013a68f0b6846f5e68b7ad","bdp_wmem","Sun Mar 12 2023 23:15:39 GMT-0500 (Central Daylight Time)","554678","Match,No Match","","null","","","","","","<div class='trialBorder'><div class='vertical-center'><img style='vertical-align:center; align:center' src='img/fixation2_sml.jpg'></div><div class='arrayDiv2'><div class='tl'><img class='introPic' src='trustrating_stim/white_mw012.bmp'><br><font color='green'><strong>Share</strong></font></div><div class='tr'><img class='introPic' src='trustrating_stim/white_mw013.bmp'><br><font color='red'><strong>Keep</strong></font></div></div></div>","null","ARRAY","2","trustrating_stim/white_mw012.bmp,trustrating_stim/white_mw013.bmp","1,0","noMatchOutcome","i","3000","","","","",""
"html-keyboard-response","62","145673","0.0-7.0-3.5","64013a68f0b6846f5e68b7ad","bdp_wmem","Sun Mar 12 2023 23:15:39 GMT-0500 (Central Daylight Time)","554678","Match,No Match","","null","","","","","","<div class='trialBorder'><div class='vertical-center'><img src='img/fixation2_sml.jpg'</img></div></div>","null","DELAY","","","","","","","","","","",""
"html-keyboard-response","63","147143","0.0-7.0-4.5","64013a68f0b6846f5e68b7ad","bdp_wmem","Sun Mar 12 2023 23:15:39 GMT-0500 (Central Daylight Time)","554678","Match,No Match","","1469","","","","","","<div class='trialBorder'><div class='targDiv'><div class='tc'><img class='introPic' src='trustrating_stim/white_mw013.bmp'><br><font color='green'><strong>Share</strong></font></div></div><div class='respDiv'><div class='respDivL'>Match<br>(e)</div><div class='respDivR'>No Match<br>(i)</div></div></div>","e","TARGET","2","trustrating_stim/white_mw012.bmp,trustrating_stim/white_mw013.bmp","1,0","noMatchOutcome","i","3000","trustrating_stim/white_mw013.bmp","green","Share","REAL","0"
"html-keyboard-response","64","147645","0.0-7.0-5.5","64013a68f0b6846f5e68b7ad","bdp_wmem","Sun Mar 12 2023 23:15:39 GMT-0500 (Central Daylight Time)","554678","Match,No Match","","null","","","","","","<div class='trialBorder'><div class='vertical-center'><img src='img/error.jpg'></div><div class='respDiv'><div class='respDivL'><font style='color:orange'>Match<br>(e)</font></div><div class='respDivR'>No Match<br>(i)</div></div></div>","null","FEEDBACK","","","","","","","","","","",""
"html-keyboard-response","65","148146","0.0-7.0-1.6","64013a68f0b6846f5e68b7ad","bdp_wmem","Sun Mar 12 2023 23:15:39 GMT-0500 (Central Daylight Time)","554678","Match,No Match","","null","","","","","","<div class='trialBorder'><div class='vertical-center'><img src='img/fixation2_sml.jpg'</img></div></div>","null","FIX","","","","","","","","","","",""
"html-keyboard-response","66","151148","0.0-7.0-2.6","64013a68f0b6846f5e68b7ad","bdp_wmem","Sun Mar 12 2023 23:15:39 GMT-0500 (Central Daylight Time)","554678","Match,No Match","","null","","","","","","<div class='trialBorder'><div class='vertical-center'><img style='vertical-align:center; align:center' src='img/fixation2_sml.jpg'></div><div class='arrayDiv2'><div class='tl'><img class='introPic' src='trustrating_stim/white_mw070.bmp'><br><font color='red'><strong>Keep</strong></font></div><div class='tr'><img class='introPic' src='trustrating_stim/white_mw092.bmp'><br><font color='green'><strong>Share</strong></font></div></div></div>","null","ARRAY","2","trustrating_stim/white_mw070.bmp,trustrating_stim/white_mw092.bmp","0,1","noMatchFace","i","3000","","","","",""
"html-keyboard-response","67","155150","0.0-7.0-3.6","64013a68f0b6846f5e68b7ad","bdp_wmem","Sun Mar 12 2023 23:15:39 GMT-0500 (Central Daylight Time)","554678","Match,No Match","","null","","","","","","<div class='trialBorder'><div class='vertical-center'><img src='img/fixation2_sml.jpg'</img></div></div>","null","DELAY","","","","","","","","","","",""
"html-keyboard-response","68","156792","0.0-7.0-4.6","64013a68f0b6846f5e68b7ad","bdp_wmem","Sun Mar 12 2023 23:15:39 GMT-0500 (Central Daylight Time)","554678","Match,No Match","","1641","","","","","","<div class='trialBorder'><div class='targDiv'><div class='tc'><img class='introPic' src='trustrating_stim/white_mw091.bmp'><br><font color='green'><strong>Share</strong></font></div></div><div class='respDiv'><div class='respDivL'>Match<br>(e)</div><div class='respDivR'>No Match<br>(i)</div></div></div>","i","TARGET","2","trustrating_stim/white_mw070.bmp,trustrating_stim/white_mw092.bmp","0,1","noMatchFace","i","3000","trustrating_stim/white_mw091.bmp","green","Share","REAL","1"
"html-keyboard-response","69","157294","0.0-7.0-5.6","64013a68f0b6846f5e68b7ad","bdp_wmem","Sun Mar 12 2023 23:15:39 GMT-0500 (Central Daylight Time)","554678","Match,No Match","","null","","","","","","<div class='trialBorder'><div class='vertical-center'><img src='img/correct.jpg'></div><div class='respDiv'><div class='respDivL'>Match<br>(e)</div><div class='respDivR'><font style='color:orange'>No Match<br>(i)</font></div></div></div>","null","FEEDBACK","","","","","","","","","","",""
"html-keyboard-response","70","157795","0.0-7.0-1.7","64013a68f0b6846f5e68b7ad","bdp_wmem","Sun Mar 12 2023 23:15:39 GMT-0500 (Central Daylight Time)","554678","Match,No Match","","null","","","","","","<div class='trialBorder'><div class='vertical-center'><img src='img/fixation2_sml.jpg'</img></div></div>","null","FIX","","","","","","","","","","",""
"html-keyboard-response","71","159296","0.0-7.0-2.7","64013a68f0b6846f5e68b7ad","bdp_wmem","Sun Mar 12 2023 23:15:39 GMT-0500 (Central Daylight Time)","554678","Match,No Match","","null","","","","","","<div class='trialBorder'><div class='vertical-center'><img style='vertical-align:center; align:center' src='img/fixation2_sml.jpg'></div><div class='arrayDiv1'><div class='tc'><img class='introPic' src='trustrating_stim/white_mw003.bmp'><br><font color='green'><strong>Share</strong></font></div></div></div>","null","ARRAY","1","trustrating_stim/white_mw003.bmp","1","noMatchFace","i","1500","","","","",""
"html-keyboard-response","72","163298","0.0-7.0-3.7","64013a68f0b6846f5e68b7ad","bdp_wmem","Sun Mar 12 2023 23:15:39 GMT-0500 (Central Daylight Time)","554678","Match,No Match","","null","","","","","","<div class='trialBorder'><div class='vertical-center'><img src='img/fixation2_sml.jpg'</img></div></div>","null","DELAY","","","","","","","","","","",""
"html-keyboard-response","73","164968","0.0-7.0-4.7","64013a68f0b6846f5e68b7ad","bdp_wmem","Sun Mar 12 2023 23:15:39 GMT-0500 (Central Daylight Time)","554678","Match,No Match","","1669","","","","","","<div class='trialBorder'><div class='targDiv'><div class='tc'><img class='introPic' src='trustrating_stim/white_mw092.bmp'><br><font color='green'><strong>Share</strong></font></div></div><div class='respDiv'><div class='respDivL'>Match<br>(e)</div><div class='respDivR'>No Match<br>(i)</div></div></div>","i","TARGET","1","trustrating_stim/white_mw003.bmp","1","noMatchFace","i","1500","trustrating_stim/white_mw092.bmp","green","Share","REAL","1"
"html-keyboard-response","74","165469","0.0-7.0-5.7","64013a68f0b6846f5e68b7ad","bdp_wmem","Sun Mar 12 2023 23:15:39 GMT-0500 (Central Daylight Time)","554678","Match,No Match","","null","","","","","","<div class='trialBorder'><div class='vertical-center'><img src='img/correct.jpg'></div><div class='respDiv'><div class='respDivL'>Match<br>(e)</div><div class='respDivR'><font style='color:orange'>No Match<br>(i)</font></div></div></div>","null","FEEDBACK","","","","","","","","","","",""
"html-keyboard-response","75","165970","0.0-7.0-1.8","64013a68f0b6846f5e68b7ad","bdp_wmem","Sun Mar 12 2023 23:15:39 GMT-0500 (Central Daylight Time)","554678","Match,No Match","","null","","","","","","<div class='trialBorder'><div class='vertical-center'><img src='img/fixation2_sml.jpg'</img></div></div>","null","FIX","","","","","","","","","","",""
"html-keyboard-response","76","168972","0.0-7.0-2.8","64013a68f0b6846f5e68b7ad","bdp_wmem","Sun Mar 12 2023 23:15:39 GMT-0500 (Central Daylight Time)","554678","Match,No Match","","null","","","","","","<div class='trialBorder'><div class='vertical-center'><img style='vertical-align:center; align:center' src='img/fixation2_sml.jpg'></div><div class='arrayDiv2'><div class='tl'><img class='introPic' src='trustrating_stim/white_mw092.bmp'><br><font color='red'><strong>Keep</strong></font></div><div class='tr'><img class='introPic' src='trustrating_stim/white_mw038.bmp'><br><font color='green'><strong>Share</strong></font></div></div></div>","null","ARRAY","2","trustrating_stim/white_mw092.bmp,trustrating_stim/white_mw038.bmp","0,1","noMatchFace","i","3000","","","","",""
"html-keyboard-response","77","172972","0.0-7.0-3.8","64013a68f0b6846f5e68b7ad","bdp_wmem","Sun Mar 12 2023 23:15:39 GMT-0500 (Central Daylight Time)","554678","Match,No Match","","null","","","","","","<div class='trialBorder'><div class='vertical-center'><img src='img/fixation2_sml.jpg'</img></div></div>","null","DELAY","","","","","","","","","","",""
"html-keyboard-response","78","174432","0.0-7.0-4.8","64013a68f0b6846f5e68b7ad","bdp_wmem","Sun Mar 12 2023 23:15:39 GMT-0500 (Central Daylight Time)","554678","Match,No Match","","1459","","","","","","<div class='trialBorder'><div class='targDiv'><div class='tc'><img class='introPic' src='trustrating_stim/white_mw012.bmp'><br><font color='green'><strong>Share</strong></font></div></div><div class='respDiv'><div class='respDivL'>Match<br>(e)</div><div class='respDivR'>No Match<br>(i)</div></div></div>","i","TARGET","2","trustrating_stim/white_mw092.bmp,trustrating_stim/white_mw038.bmp","0,1","noMatchFace","i","3000","trustrating_stim/white_mw012.bmp","green","Share","REAL","1"
"html-keyboard-response","79","174934","0.0-7.0-5.8","64013a68f0b6846f5e68b7ad","bdp_wmem","Sun Mar 12 2023 23:15:39 GMT-0500 (Central Daylight Time)","554678","Match,No Match","","null","","","","","","<div class='trialBorder'><div class='vertical-center'><img src='img/correct.jpg'></div><div class='respDiv'><div class='respDivL'>Match<br>(e)</div><div class='respDivR'><font style='color:orange'>No Match<br>(i)</font></div></div></div>","null","FEEDBACK","","","","","","","","","","",""
"html-keyboard-response","80","175435","0.0-7.0-1.9","64013a68f0b6846f5e68b7ad","bdp_wmem","Sun Mar 12 2023 23:15:39 GMT-0500 (Central Daylight Time)","554678","Match,No Match","","null","","","","","","<div class='trialBorder'><div class='vertical-center'><img src='img/fixation2_sml.jpg'</img></div></div>","null","FIX","","","","","","","","","","",""
"html-keyboard-response","81","179937","0.0-7.0-2.9","64013a68f0b6846f5e68b7ad","bdp_wmem","Sun Mar 12 2023 23:15:39 GMT-0500 (Central Daylight Time)","554678","Match,No Match","","null","","","","","","<div class='trialBorder'><div class='vertical-center'><img style='vertical-align:center; align:center' src='img/fixation2_sml.jpg'></div><div class='arrayDiv3'><div class='tl'><img class='introPic' src='trustrating_stim/white_mw070.bmp'><br><font color='red'><strong>Keep</strong></font></div><div class='tc'><img class='introPic' src='trustrating_stim/white_mw042.bmp'><br><font color='red'><strong>Keep</strong></font></div><div class='tr'><img class='introPic' src='trustrating_stim/white_mw010.bmp'><br><font color='green'><strong>Share</strong></font></div></div></div>","null","ARRAY","3","trustrating_stim/white_mw070.bmp,trustrating_stim/white_mw042.bmp,trustrating_stim/white_mw010.bmp","0,0,1","Match","e","4500","","","","",""
"html-keyboard-response","82","183939","0.0-7.0-3.9","64013a68f0b6846f5e68b7ad","bdp_wmem","Sun Mar 12 2023 23:15:39 GMT-0500 (Central Daylight Time)","554678","Match,No Match","","null","","","","","","<div class='trialBorder'><div class='vertical-center'><img src='img/fixation2_sml.jpg'</img></div></div>","null","DELAY","","","","","","","","","","",""
"html-keyboard-response","83","185385","0.0-7.0-4.9","64013a68f0b6846f5e68b7ad","bdp_wmem","Sun Mar 12 2023 23:15:39 GMT-0500 (Central Daylight Time)","554678","Match,No Match","","1445","","","","","","<div class='trialBorder'><div class='targDiv'><div class='tc'><img class='introPic' src='trustrating_stim/white_mw070.bmp'><br><font color='red'><strong>Keep</strong></font></div></div><div class='respDiv'><div class='respDivL'>Match<br>(e)</div><div class='respDivR'>No Match<br>(i)</div></div></div>","i","TARGET","3","trustrating_stim/white_mw070.bmp,trustrating_stim/white_mw042.bmp,trustrating_stim/white_mw010.bmp","0,0,1","Match","e","4500","trustrating_stim/white_mw070.bmp","red","Keep","REAL","0"
"html-keyboard-response","84","185886","0.0-7.0-5.9","64013a68f0b6846f5e68b7ad","bdp_wmem","Sun Mar 12 2023 23:15:39 GMT-0500 (Central Daylight Time)","554678","Match,No Match","","null","","","","","","<div class='trialBorder'><div class='vertical-center'><img src='img/error.jpg'></div><div class='respDiv'><div class='respDivL'>Match<br>(e)</div><div class='respDivR'><font style='color:orange'>No Match<br>(i)</font></div></div></div>","null","FEEDBACK","","","","","","","","","","",""
"html-keyboard-response","85","186388","0.0-7.0-1.10","64013a68f0b6846f5e68b7ad","bdp_wmem","Sun Mar 12 2023 23:15:39 GMT-0500 (Central Daylight Time)","554678","Match,No Match","","null","","","","","","<div class='trialBorder'><div class='vertical-center'><img src='img/fixation2_sml.jpg'</img></div></div>","null","FIX","","","","","","","","","","",""
"html-keyboard-response","86","189389","0.0-7.0-2.10","64013a68f0b6846f5e68b7ad","bdp_wmem","Sun Mar 12 2023 23:15:39 GMT-0500 (Central Daylight Time)","554678","Match,No Match","","null","","","","","","<div class='trialBorder'><div class='vertical-center'><img style='vertical-align:center; align:center' src='img/fixation2_sml.jpg'></div><div class='arrayDiv2'><div class='tl'><img class='introPic' src='trustrating_stim/white_mw040.bmp'><br><font color='green'><strong>Share</strong></font></div><div class='tr'><img class='introPic' src='trustrating_stim/white_mw092.bmp'><br><font color='red'><strong>Keep</strong></font></div></div></div>","null","ARRAY","2","trustrating_stim/white_mw040.bmp,trustrating_stim/white_mw092.bmp","1,0","Match","e","3000","","","","",""
"html-keyboard-response","87","193391","0.0-7.0-3.10","64013a68f0b6846f5e68b7ad","bdp_wmem","Sun Mar 12 2023 23:15:39 GMT-0500 (Central Daylight Time)","554678","Match,No Match","","null","","","","","","<div class='trialBorder'><div class='vertical-center'><img src='img/fixation2_sml.jpg'</img></div></div>","null","DELAY","","","","","","","","","","",""
"html-keyboard-response","88","195304","0.0-7.0-4.10","64013a68f0b6846f5e68b7ad","bdp_wmem","Sun Mar 12 2023 23:15:39 GMT-0500 (Central Daylight Time)","554678","Match,No Match","","1912","","","","","","<div class='trialBorder'><div class='targDiv'><div class='tc'><img class='introPic' src='trustrating_stim/white_mw092.bmp'><br><font color='red'><strong>Keep</strong></font></div></div><div class='respDiv'><div class='respDivL'>Match<br>(e)</div><div class='respDivR'>No Match<br>(i)</div></div></div>","i","TARGET","2","trustrating_stim/white_mw040.bmp,trustrating_stim/white_mw092.bmp","1,0","Match","e","3000","trustrating_stim/white_mw092.bmp","red","Keep","REAL","0"
"html-keyboard-response","89","195805","0.0-7.0-5.10","64013a68f0b6846f5e68b7ad","bdp_wmem","Sun Mar 12 2023 23:15:39 GMT-0500 (Central Daylight Time)","554678","Match,No Match","","null","","","","","","<div class='trialBorder'><div class='vertical-center'><img src='img/error.jpg'></div><div class='respDiv'><div class='respDivL'>Match<br>(e)</div><div class='respDivR'><font style='color:orange'>No Match<br>(i)</font></div></div></div>","null","FEEDBACK","","","","","","","","","","",""
"html-keyboard-response","90","196306","0.0-7.0-1.11","64013a68f0b6846f5e68b7ad","bdp_wmem","Sun Mar 12 2023 23:15:39 GMT-0500 (Central Daylight Time)","554678","Match,No Match","","null","","","","","","<div class='trialBorder'><div class='vertical-center'><img src='img/fixation2_sml.jpg'</img></div></div>","null","FIX","","","","","","","","","","",""
"html-keyboard-response","91","197808","0.0-7.0-2.11","64013a68f0b6846f5e68b7ad","bdp_wmem","Sun Mar 12 2023 23:15:39 GMT-0500 (Central Daylight Time)","554678","Match,No Match","","null","","","","","","<div class='trialBorder'><div class='vertical-center'><img style='vertical-align:center; align:center' src='img/fixation2_sml.jpg'></div><div class='arrayDiv1'><div class='tc'><img class='introPic' src='trustrating_stim/white_mw013.bmp'><br><font color='green'><strong>Share</strong></font></div></div></div>","null","ARRAY","1","trustrating_stim/white_mw013.bmp","1","Match","e","1500","","","","",""
"html-keyboard-response","92","201810","0.0-7.0-3.11","64013a68f0b6846f5e68b7ad","bdp_wmem","Sun Mar 12 2023 23:15:39 GMT-0500 (Central Daylight Time)","554678","Match,No Match","","null","","","","","","<div class='trialBorder'><div class='vertical-center'><img src='img/fixation2_sml.jpg'</img></div></div>","null","DELAY","","","","","","","","","","",""
"html-keyboard-response","93","203232","0.0-7.0-4.11","64013a68f0b6846f5e68b7ad","bdp_wmem","Sun Mar 12 2023 23:15:39 GMT-0500 (Central Daylight Time)","554678","Match,No Match","","1421","","","","","","<div class='trialBorder'><div class='targDiv'><div class='tc'><img class='introPic' src='trustrating_stim/white_mw013.bmp'><br><font color='green'><strong>Share</strong></font></div></div><div class='respDiv'><div class='respDivL'>Match<br>(e)</div><div class='respDivR'>No Match<br>(i)</div></div></div>","e","TARGET","1","trustrating_stim/white_mw013.bmp","1","Match","e","1500","trustrating_stim/white_mw013.bmp","green","Share","REAL","1"
"html-keyboard-response","94","203734","0.0-7.0-5.11","64013a68f0b6846f5e68b7ad","bdp_wmem","Sun Mar 12 2023 23:15:39 GMT-0500 (Central Daylight Time)","554678","Match,No Match","","null","","","","","","<div class='trialBorder'><div class='vertical-center'><img src='img/correct.jpg'></div><div class='respDiv'><div class='respDivL'><font style='color:orange'>Match<br>(e)</font></div><div class='respDivR'>No Match<br>(i)</div></div></div>","null","FEEDBACK","","","","","","","","","","",""
"html-keyboard-response","95","204236","0.0-7.0-1.12","64013a68f0b6846f5e68b7ad","bdp_wmem","Sun Mar 12 2023 23:15:39 GMT-0500 (Central Daylight Time)","554678","Match,No Match","","null","","","","","","<div class='trialBorder'><div class='vertical-center'><img src='img/fixation2_sml.jpg'</img></div></div>","null","FIX","","","","","","","","","","",""
"html-keyboard-response","96","205738","0.0-7.0-2.12","64013a68f0b6846f5e68b7ad","bdp_wmem","Sun Mar 12 2023 23:15:39 GMT-0500 (Central Daylight Time)","554678","Match,No Match","","null","","","","","","<div class='trialBorder'><div class='vertical-center'><img style='vertical-align:center; align:center' src='img/fixation2_sml.jpg'></div><div class='arrayDiv1'><div class='tc'><img class='introPic' src='trustrating_stim/white_mw012.bmp'><br><font color='green'><strong>Share</strong></font></div></div></div>","null","ARRAY","1","trustrating_stim/white_mw012.bmp","1","noMatchOutcome","i","1500","","","","",""
"html-keyboard-response","97","209739","0.0-7.0-3.12","64013a68f0b6846f5e68b7ad","bdp_wmem","Sun Mar 12 2023 23:15:39 GMT-0500 (Central Daylight Time)","554678","Match,No Match","","null","","","","","","<div class='trialBorder'><div class='vertical-center'><img src='img/fixation2_sml.jpg'</img></div></div>","null","DELAY","","","","","","","","","","",""
"html-keyboard-response","98","211183","0.0-7.0-4.12","64013a68f0b6846f5e68b7ad","bdp_wmem","Sun Mar 12 2023 23:15:39 GMT-0500 (Central Daylight Time)","554678","Match,No Match","","1444","","","","","","<div class='trialBorder'><div class='targDiv'><div class='tc'><img class='introPic' src='trustrating_stim/white_mw012.bmp'><br><font color='red'><strong>Keep</strong></font></div></div><div class='respDiv'><div class='respDivL'>Match<br>(e)</div><div class='respDivR'>No Match<br>(i)</div></div></div>","i","TARGET","1","trustrating_stim/white_mw012.bmp","1","noMatchOutcome","i","1500","trustrating_stim/white_mw012.bmp","red","Keep","REAL","1"
"html-keyboard-response","99","211684","0.0-7.0-5.12","64013a68f0b6846f5e68b7ad","bdp_wmem","Sun Mar 12 2023 23:15:39 GMT-0500 (Central Daylight Time)","554678","Match,No Match","","null","","","","","","<div class='trialBorder'><div class='vertical-center'><img src='img/correct.jpg'></div><div class='respDiv'><div class='respDivL'>Match<br>(e)</div><div class='respDivR'><font style='color:orange'>No Match<br>(i)</font></div></div></div>","null","FEEDBACK","","","","","","","","","","",""
"html-keyboard-response","100","212185","0.0-7.0-1.13","64013a68f0b6846f5e68b7ad","bdp_wmem","Sun Mar 12 2023 23:15:39 GMT-0500 (Central Daylight Time)","554678","Match,No Match","","null","","","","","","<div class='trialBorder'><div class='vertical-center'><img src='img/fixation2_sml.jpg'</img></div></div>","null","FIX","","","","","","","","","","",""
"html-keyboard-response","101","216687","0.0-7.0-2.13","64013a68f0b6846f5e68b7ad","bdp_wmem","Sun Mar 12 2023 23:15:39 GMT-0500 (Central Daylight Time)","554678","Match,No Match","","null","","","","","","<div class='trialBorder'><div class='vertical-center'><img style='vertical-align:center; align:center' src='img/fixation2_sml.jpg'></div><div class='arrayDiv3'><div class='tl'><img class='introPic' src='trustrating_stim/white_mw013.bmp'><br><font color='green'><strong>Share</strong></font></div><div class='tc'><img class='introPic' src='trustrating_stim/white_mw070.bmp'><br><font color='green'><strong>Share</strong></font></div><div class='tr'><img class='introPic' src='trustrating_stim/white_mw078.bmp'><br><font color='red'><strong>Keep</strong></font></div></div></div>","null","ARRAY","3","trustrating_stim/white_mw013.bmp,trustrating_stim/white_mw070.bmp,trustrating_stim/white_mw078.bmp","1,1,0","noMatchOutcome","i","4500","","","","",""
"html-keyboard-response","102","220688","0.0-7.0-3.13","64013a68f0b6846f5e68b7ad","bdp_wmem","Sun Mar 12 2023 23:15:39 GMT-0500 (Central Daylight Time)","554678","Match,No Match","","null","","","","","","<div class='trialBorder'><div class='vertical-center'><img src='img/fixation2_sml.jpg'</img></div></div>","null","DELAY","","","","","","","","","","",""
"html-keyboard-response","103","223320","0.0-7.0-4.13","64013a68f0b6846f5e68b7ad","bdp_wmem","Sun Mar 12 2023 23:15:39 GMT-0500 (Central Daylight Time)","554678","Match,No Match","","2631","","","","","","<div class='trialBorder'><div class='targDiv'><div class='tc'><img class='introPic' src='trustrating_stim/white_mw070.bmp'><br><font color='red'><strong>Keep</strong></font></div></div><div class='respDiv'><div class='respDivL'>Match<br>(e)</div><div class='respDivR'>No Match<br>(i)</div></div></div>","e","TARGET","3","trustrating_stim/white_mw013.bmp,trustrating_stim/white_mw070.bmp,trustrating_stim/white_mw078.bmp","1,1,0","noMatchOutcome","i","4500","trustrating_stim/white_mw070.bmp","red","Keep","REAL","0"
"html-keyboard-response","104","223830","0.0-7.0-5.13","64013a68f0b6846f5e68b7ad","bdp_wmem","Sun Mar 12 2023 23:15:39 GMT-0500 (Central Daylight Time)","554678","Match,No Match","","null","","","","","","<div class='trialBorder'><div class='vertical-center'><img src='img/error.jpg'></div><div class='respDiv'><div class='respDivL'><font style='color:orange'>Match<br>(e)</font></div><div class='respDivR'>No Match<br>(i)</div></div></div>","null","FEEDBACK","","","","","","","","","","",""
"html-keyboard-response","105","224332","0.0-7.0-1.14","64013a68f0b6846f5e68b7ad","bdp_wmem","Sun Mar 12 2023 23:15:39 GMT-0500 (Central Daylight Time)","554678","Match,No Match","","null","","","","","","<div class='trialBorder'><div class='vertical-center'><img src='img/fixation2_sml.jpg'</img></div></div>","null","FIX","","","","","","","","","","",""
"html-keyboard-response","106","228841","0.0-7.0-2.14","64013a68f0b6846f5e68b7ad","bdp_wmem","Sun Mar 12 2023 23:15:39 GMT-0500 (Central Daylight Time)","554678","Match,No Match","","null","","","","","","<div class='trialBorder'><div class='vertical-center'><img style='vertical-align:center; align:center' src='img/fixation2_sml.jpg'></div><div class='arrayDiv3'><div class='tl'><img class='introPic' src='trustrating_stim/white_mw040.bmp'><br><font color='red'><strong>Keep</strong></font></div><div class='tc'><img class='introPic' src='trustrating_stim/white_mw042.bmp'><br><font color='red'><strong>Keep</strong></font></div><div class='tr'><img class='introPic' src='trustrating_stim/white_mw003.bmp'><br><font color='green'><strong>Share</strong></font></div></div></div>","null","ARRAY","3","trustrating_stim/white_mw040.bmp,trustrating_stim/white_mw042.bmp,trustrating_stim/white_mw003.bmp","0,0,1","noMatchOutcome","i","4500","","","","",""
"html-keyboard-response","107","232843","0.0-7.0-3.14","64013a68f0b6846f5e68b7ad","bdp_wmem","Sun Mar 12 2023 23:15:39 GMT-0500 (Central Daylight Time)","554678","Match,No Match","","null","","","","","","<div class='trialBorder'><div class='vertical-center'><img src='img/fixation2_sml.jpg'</img></div></div>","null","DELAY","","","","","","","","","","",""
"html-keyboard-response","108","234448","0.0-7.0-4.14","64013a68f0b6846f5e68b7ad","bdp_wmem","Sun Mar 12 2023 23:15:39 GMT-0500 (Central Daylight Time)","554678","Match,No Match","","1605","","","","","","<div class='trialBorder'><div class='targDiv'><div class='tc'><img class='introPic' src='trustrating_stim/white_mw003.bmp'><br><font color='red'><strong>Keep</strong></font></div></div><div class='respDiv'><div class='respDivL'>Match<br>(e)</div><div class='respDivR'>No Match<br>(i)</div></div></div>","e","TARGET","3","trustrating_stim/white_mw040.bmp,trustrating_stim/white_mw042.bmp,trustrating_stim/white_mw003.bmp","0,0,1","noMatchOutcome","i","4500","trustrating_stim/white_mw003.bmp","red","Keep","REAL","0"
"html-keyboard-response","109","234949","0.0-7.0-5.14","64013a68f0b6846f5e68b7ad","bdp_wmem","Sun Mar 12 2023 23:15:39 GMT-0500 (Central Daylight Time)","554678","Match,No Match","","null","","","","","","<div class='trialBorder'><div class='vertical-center'><img src='img/error.jpg'></div><div class='respDiv'><div class='respDivL'><font style='color:orange'>Match<br>(e)</font></div><div class='respDivR'>No Match<br>(i)</div></div></div>","null","FEEDBACK","","","","","","","","","","",""
"html-keyboard-response","110","235451","0.0-7.0-1.15","64013a68f0b6846f5e68b7ad","bdp_wmem","Sun Mar 12 2023 23:15:39 GMT-0500 (Central Daylight Time)","554678","Match,No Match","","null","","","","","","<div class='trialBorder'><div class='vertical-center'><img src='img/fixation2_sml.jpg'</img></div></div>","null","FIX","","","","","","","","","","",""
"html-keyboard-response","111","238453","0.0-7.0-2.15","64013a68f0b6846f5e68b7ad","bdp_wmem","Sun Mar 12 2023 23:15:39 GMT-0500 (Central Daylight Time)","554678","Match,No Match","","null","","","","","","<div class='trialBorder'><div class='vertical-center'><img style='vertical-align:center; align:center' src='img/fixation2_sml.jpg'></div><div class='arrayDiv2'><div class='tl'><img class='introPic' src='trustrating_stim/white_mw070.bmp'><br><font color='green'><strong>Share</strong></font></div><div class='tr'><img class='introPic' src='trustrating_stim/white_mw038.bmp'><br><font color='red'><strong>Keep</strong></font></div></div></div>","null","ARRAY","2","trustrating_stim/white_mw070.bmp,trustrating_stim/white_mw038.bmp","1,0","Match","e","3000","","","","",""
"html-keyboard-response","112","242454","0.0-7.0-3.15","64013a68f0b6846f5e68b7ad","bdp_wmem","Sun Mar 12 2023 23:15:39 GMT-0500 (Central Daylight Time)","554678","Match,No Match","","null","","","","","","<div class='trialBorder'><div class='vertical-center'><img src='img/fixation2_sml.jpg'</img></div></div>","null","DELAY","","","","","","","","","","",""
"html-keyboard-response","113","244239","0.0-7.0-4.15","64013a68f0b6846f5e68b7ad","bdp_wmem","Sun Mar 12 2023 23:15:39 GMT-0500 (Central Daylight Time)","554678","Match,No Match","","1784","","","","","","<div class='trialBorder'><div class='targDiv'><div class='tc'><img class='introPic' src='trustrating_stim/white_mw070.bmp'><br><font color='green'><strong>Share</strong></font></div></div><div class='respDiv'><div class='respDivL'>Match<br>(e)</div><div class='respDivR'>No Match<br>(i)</div></div></div>","e","TARGET","2","trustrating_stim/white_mw070.bmp,trustrating_stim/white_mw038.bmp","1,0","Match","e","3000","trustrating_stim/white_mw070.bmp","green","Share","REAL","1"
"html-keyboard-response","114","244741","0.0-7.0-5.15","64013a68f0b6846f5e68b7ad","bdp_wmem","Sun Mar 12 2023 23:15:39 GMT-0500 (Central Daylight Time)","554678","Match,No Match","","null","","","","","","<div class='trialBorder'><div class='vertical-center'><img src='img/correct.jpg'></div><div class='respDiv'><div class='respDivL'><font style='color:orange'>Match<br>(e)</font></div><div class='respDivR'>No Match<br>(i)</div></div></div>","null","FEEDBACK","","","","","","","","","","",""
"html-keyboard-response","115","245242","0.0-7.0-1.16","64013a68f0b6846f5e68b7ad","bdp_wmem","Sun Mar 12 2023 23:15:39 GMT-0500 (Central Daylight Time)","554678","Match,No Match","","null","","","","","","<div class='trialBorder'><div class='vertical-center'><img src='img/fixation2_sml.jpg'</img></div></div>","null","FIX","","","","","","","","","","",""
"html-keyboard-response","116","246743","0.0-7.0-2.16","64013a68f0b6846f5e68b7ad","bdp_wmem","Sun Mar 12 2023 23:15:39 GMT-0500 (Central Daylight Time)","554678","Match,No Match","","null","","","","","","<div class='trialBorder'><div class='vertical-center'><img style='vertical-align:center; align:center' src='img/fixation2_sml.jpg'></div><div class='arrayDiv1'><div class='tc'><img class='introPic' src='trustrating_stim/white_mw003.bmp'><br><font color='red'><strong>Keep</strong></font></div></div></div>","null","ARRAY","1","trustrating_stim/white_mw003.bmp","0","noMatchOutcome","i","1500","","","","",""
"html-keyboard-response","117","250744","0.0-7.0-3.16","64013a68f0b6846f5e68b7ad","bdp_wmem","Sun Mar 12 2023 23:15:39 GMT-0500 (Central Daylight Time)","554678","Match,No Match","","null","","","","","","<div class='trialBorder'><div class='vertical-center'><img src='img/fixation2_sml.jpg'</img></div></div>","null","DELAY","","","","","","","","","","",""
"html-keyboard-response","118","252289","0.0-7.0-4.16","64013a68f0b6846f5e68b7ad","bdp_wmem","Sun Mar 12 2023 23:15:39 GMT-0500 (Central Daylight Time)","554678","Match,No Match","","1545","","","","","","<div class='trialBorder'><div class='targDiv'><div class='tc'><img class='introPic' src='trustrating_stim/white_mw003.bmp'><br><font color='green'><strong>Share</strong></font></div></div><div class='respDiv'><div class='respDivL'>Match<br>(e)</div><div class='respDivR'>No Match<br>(i)</div></div></div>","i","TARGET","1","trustrating_stim/white_mw003.bmp","0","noMatchOutcome","i","1500","trustrating_stim/white_mw003.bmp","green","Share","REAL","1"
"html-keyboard-response","119","252791","0.0-7.0-5.16","64013a68f0b6846f5e68b7ad","bdp_wmem","Sun Mar 12 2023 23:15:39 GMT-0500 (Central Daylight Time)","554678","Match,No Match","","null","","","","","","<div class='trialBorder'><div class='vertical-center'><img src='img/correct.jpg'></div><div class='respDiv'><div class='respDivL'>Match<br>(e)</div><div class='respDivR'><font style='color:orange'>No Match<br>(i)</font></div></div></div>","null","FEEDBACK","","","","","","","","","","",""
"html-keyboard-response","120","253292","0.0-7.0-1.17","64013a68f0b6846f5e68b7ad","bdp_wmem","Sun Mar 12 2023 23:15:39 GMT-0500 (Central Daylight Time)","554678","Match,No Match","","null","","","","","","<div class='trialBorder'><div class='vertical-center'><img src='img/fixation2_sml.jpg'</img></div></div>","null","FIX","","","","","","","","","","",""
"html-keyboard-response","121","256294","0.0-7.0-2.17","64013a68f0b6846f5e68b7ad","bdp_wmem","Sun Mar 12 2023 23:15:39 GMT-0500 (Central Daylight Time)","554678","Match,No Match","","null","","","","","","<div class='trialBorder'><div class='vertical-center'><img style='vertical-align:center; align:center' src='img/fixation2_sml.jpg'></div><div class='arrayDiv2'><div class='tl'><img class='introPic' src='trustrating_stim/white_mw003.bmp'><br><font color='green'><strong>Share</strong></font></div><div class='tr'><img class='introPic' src='trustrating_stim/white_mw070.bmp'><br><font color='red'><strong>Keep</strong></font></div></div></div>","null","ARRAY","2","trustrating_stim/white_mw003.bmp,trustrating_stim/white_mw070.bmp","1,0","Match","e","3000","","","","",""
"html-keyboard-response","122","260295","0.0-7.0-3.17","64013a68f0b6846f5e68b7ad","bdp_wmem","Sun Mar 12 2023 23:15:39 GMT-0500 (Central Daylight Time)","554678","Match,No Match","","null","","","","","","<div class='trialBorder'><div class='vertical-center'><img src='img/fixation2_sml.jpg'</img></div></div>","null","DELAY","","","","","","","","","","",""
"html-keyboard-response","123","261656","0.0-7.0-4.17","64013a68f0b6846f5e68b7ad","bdp_wmem","Sun Mar 12 2023 23:15:39 GMT-0500 (Central Daylight Time)","554678","Match,No Match","","1360","","","","","","<div class='trialBorder'><div class='targDiv'><div class='tc'><img class='introPic' src='trustrating_stim/white_mw003.bmp'><br><font color='green'><strong>Share</strong></font></div></div><div class='respDiv'><div class='respDivL'>Match<br>(e)</div><div class='respDivR'>No Match<br>(i)</div></div></div>","e","TARGET","2","trustrating_stim/white_mw003.bmp,trustrating_stim/white_mw070.bmp","1,0","Match","e","3000","trustrating_stim/white_mw003.bmp","green","Share","REAL","1"
"html-keyboard-response","124","262157","0.0-7.0-5.17","64013a68f0b6846f5e68b7ad","bdp_wmem","Sun Mar 12 2023 23:15:39 GMT-0500 (Central Daylight Time)","554678","Match,No Match","","null","","","","","","<div class='trialBorder'><div class='vertical-center'><img src='img/correct.jpg'></div><div class='respDiv'><div class='respDivL'><font style='color:orange'>Match<br>(e)</font></div><div class='respDivR'>No Match<br>(i)</div></div></div>","null","FEEDBACK","","","","","","","","","","",""
"html-keyboard-response","125","262659","0.0-7.0-1.18","64013a68f0b6846f5e68b7ad","bdp_wmem","Sun Mar 12 2023 23:15:39 GMT-0500 (Central Daylight Time)","554678","Match,No Match","","null","","","","","","<div class='trialBorder'><div class='vertical-center'><img src='img/fixation2_sml.jpg'</img></div></div>","null","FIX","","","","","","","","","","",""
"html-keyboard-response","126","265661","0.0-7.0-2.18","64013a68f0b6846f5e68b7ad","bdp_wmem","Sun Mar 12 2023 23:15:39 GMT-0500 (Central Daylight Time)","554678","Match,No Match","","null","","","","","","<div class='trialBorder'><div class='vertical-center'><img style='vertical-align:center; align:center' src='img/fixation2_sml.jpg'></div><div class='arrayDiv2'><div class='tl'><img class='introPic' src='trustrating_stim/white_mw091.bmp'><br><font color='green'><strong>Share</strong></font></div><div class='tr'><img class='introPic' src='trustrating_stim/white_mw010.bmp'><br><font color='red'><strong>Keep</strong></font></div></div></div>","null","ARRAY","2","trustrating_stim/white_mw091.bmp,trustrating_stim/white_mw010.bmp","1,0","Match","e","3000","","","","",""
"html-keyboard-response","127","269662","0.0-7.0-3.18","64013a68f0b6846f5e68b7ad","bdp_wmem","Sun Mar 12 2023 23:15:39 GMT-0500 (Central Daylight Time)","554678","Match,No Match","","null","","","","","","<div class='trialBorder'><div class='vertical-center'><img src='img/fixation2_sml.jpg'</img></div></div>","null","DELAY","","","","","","","","","","",""
"html-keyboard-response","128","271057","0.0-7.0-4.18","64013a68f0b6846f5e68b7ad","bdp_wmem","Sun Mar 12 2023 23:15:39 GMT-0500 (Central Daylight Time)","554678","Match,No Match","","1394","","","","","","<div class='trialBorder'><div class='targDiv'><div class='tc'><img class='introPic' src='trustrating_stim/white_mw091.bmp'><br><font color='green'><strong>Share</strong></font></div></div><div class='respDiv'><div class='respDivL'>Match<br>(e)</div><div class='respDivR'>No Match<br>(i)</div></div></div>","e","TARGET","2","trustrating_stim/white_mw091.bmp,trustrating_stim/white_mw010.bmp","1,0","Match","e","3000","trustrating_stim/white_mw091.bmp","green","Share","REAL","1"
"html-keyboard-response","129","271559","0.0-7.0-5.18","64013a68f0b6846f5e68b7ad","bdp_wmem","Sun Mar 12 2023 23:15:39 GMT-0500 (Central Daylight Time)","554678","Match,No Match","","null","","","","","","<div class='trialBorder'><div class='vertical-center'><img src='img/correct.jpg'></div><div class='respDiv'><div class='respDivL'><font style='color:orange'>Match<br>(e)</font></div><div class='respDivR'>No Match<br>(i)</div></div></div>","null","FEEDBACK","","","","","","","","","","",""
"html-keyboard-response","130","272061","0.0-7.0-1.19","64013a68f0b6846f5e68b7ad","bdp_wmem","Sun Mar 12 2023 23:15:39 GMT-0500 (Central Daylight Time)","554678","Match,No Match","","null","","","","","","<div class='trialBorder'><div class='vertical-center'><img src='img/fixation2_sml.jpg'</img></div></div>","null","FIX","","","","","","","","","","",""
"html-keyboard-response","131","276562","0.0-7.0-2.19","64013a68f0b6846f5e68b7ad","bdp_wmem","Sun Mar 12 2023 23:15:39 GMT-0500 (Central Daylight Time)","554678","Match,No Match","","null","","","","","","<div class='trialBorder'><div class='vertical-center'><img style='vertical-align:center; align:center' src='img/fixation2_sml.jpg'></div><div class='arrayDiv3'><div class='tl'><img class='introPic' src='trustrating_stim/white_mw040.bmp'><br><font color='red'><strong>Keep</strong></font></div><div class='tc'><img class='introPic' src='trustrating_stim/white_mw013.bmp'><br><font color='red'><strong>Keep</strong></font></div><div class='tr'><img class='introPic' src='trustrating_stim/white_mw092.bmp'><br><font color='green'><strong>Share</strong></font></div></div></div>","null","ARRAY","3","trustrating_stim/white_mw040.bmp,trustrating_stim/white_mw013.bmp,trustrating_stim/white_mw092.bmp","0,0,1","noMatchOutcome","i","4500","","","","",""
"html-keyboard-response","132","280563","0.0-7.0-3.19","64013a68f0b6846f5e68b7ad","bdp_wmem","Sun Mar 12 2023 23:15:39 GMT-0500 (Central Daylight Time)","554678","Match,No Match","","null","","","","","","<div class='trialBorder'><div class='vertical-center'><img src='img/fixation2_sml.jpg'</img></div></div>","null","DELAY","","","","","","","","","","",""
"html-keyboard-response","133","282312","0.0-7.0-4.19","64013a68f0b6846f5e68b7ad","bdp_wmem","Sun Mar 12 2023 23:15:39 GMT-0500 (Central Daylight Time)","554678","Match,No Match","","1748","","","","","","<div class='trialBorder'><div class='targDiv'><div class='tc'><img class='introPic' src='trustrating_stim/white_mw092.bmp'><br><font color='red'><strong>Keep</strong></font></div></div><div class='respDiv'><div class='respDivL'>Match<br>(e)</div><div class='respDivR'>No Match<br>(i)</div></div></div>","e","TARGET","3","trustrating_stim/white_mw040.bmp,trustrating_stim/white_mw013.bmp,trustrating_stim/white_mw092.bmp","0,0,1","noMatchOutcome","i","4500","trustrating_stim/white_mw092.bmp","red","Keep","REAL","0"
"html-keyboard-response","134","282814","0.0-7.0-5.19","64013a68f0b6846f5e68b7ad","bdp_wmem","Sun Mar 12 2023 23:15:39 GMT-0500 (Central Daylight Time)","554678","Match,No Match","","null","","","","","","<div class='trialBorder'><div class='vertical-center'><img src='img/error.jpg'></div><div class='respDiv'><div class='respDivL'><font style='color:orange'>Match<br>(e)</font></div><div class='respDivR'>No Match<br>(i)</div></div></div>","null","FEEDBACK","","","","","","","","","","",""
"html-keyboard-response","135","283315","0.0-7.0-1.20","64013a68f0b6846f5e68b7ad","bdp_wmem","Sun Mar 12 2023 23:15:39 GMT-0500 (Central Daylight Time)","554678","Match,No Match","","null","","","","","","<div class='trialBorder'><div class='vertical-center'><img src='img/fixation2_sml.jpg'</img></div></div>","null","FIX","","","","","","","","","","",""
"html-keyboard-response","136","286316","0.0-7.0-2.20","64013a68f0b6846f5e68b7ad","bdp_wmem","Sun Mar 12 2023 23:15:39 GMT-0500 (Central Daylight Time)","554678","Match,No Match","","null","","","","","","<div class='trialBorder'><div class='vertical-center'><img style='vertical-align:center; align:center' src='img/fixation2_sml.jpg'></div><div class='arrayDiv2'><div class='tl'><img class='introPic' src='trustrating_stim/white_mw003.bmp'><br><font color='red'><strong>Keep</strong></font></div><div class='tr'><img class='introPic' src='trustrating_stim/white_mw092.bmp'><br><font color='green'><strong>Share</strong></font></div></div></div>","null","ARRAY","2","trustrating_stim/white_mw003.bmp,trustrating_stim/white_mw092.bmp","0,1","Match","e","3000","","","","",""
"html-keyboard-response","137","290318","0.0-7.0-3.20","64013a68f0b6846f5e68b7ad","bdp_wmem","Sun Mar 12 2023 23:15:39 GMT-0500 (Central Daylight Time)","554678","Match,No Match","","null","","","","","","<div class='trialBorder'><div class='vertical-center'><img src='img/fixation2_sml.jpg'</img></div></div>","null","DELAY","","","","","","","","","","",""
"html-keyboard-response","138","291776","0.0-7.0-4.20","64013a68f0b6846f5e68b7ad","bdp_wmem","Sun Mar 12 2023 23:15:39 GMT-0500 (Central Daylight Time)","554678","Match,No Match","","1458","","","","","","<div class='trialBorder'><div class='targDiv'><div class='tc'><img class='introPic' src='trustrating_stim/white_mw092.bmp'><br><font color='green'><strong>Share</strong></font></div></div><div class='respDiv'><div class='respDivL'>Match<br>(e)</div><div class='respDivR'>No Match<br>(i)</div></div></div>","e","TARGET","2","trustrating_stim/white_mw003.bmp,trustrating_stim/white_mw092.bmp","0,1","Match","e","3000","trustrating_stim/white_mw092.bmp","green","Share","REAL","1"
"html-keyboard-response","139","292278","0.0-7.0-5.20","64013a68f0b6846f5e68b7ad","bdp_wmem","Sun Mar 12 2023 23:15:39 GMT-0500 (Central Daylight Time)","554678","Match,No Match","","null","","","","","","<div class='trialBorder'><div class='vertical-center'><img src='img/correct.jpg'></div><div class='respDiv'><div class='respDivL'><font style='color:orange'>Match<br>(e)</font></div><div class='respDivR'>No Match<br>(i)</div></div></div>","null","FEEDBACK","","","","","","","","","","",""
"html-keyboard-response","140","292780","0.0-7.0-1.21","64013a68f0b6846f5e68b7ad","bdp_wmem","Sun Mar 12 2023 23:15:39 GMT-0500 (Central Daylight Time)","554678","Match,No Match","","null","","","","","","<div class='trialBorder'><div class='vertical-center'><img src='img/fixation2_sml.jpg'</img></div></div>","null","FIX","","","","","","","","","","",""
"html-keyboard-response","141","297281","0.0-7.0-2.21","64013a68f0b6846f5e68b7ad","bdp_wmem","Sun Mar 12 2023 23:15:39 GMT-0500 (Central Daylight Time)","554678","Match,No Match","","null","","","","","","<div class='trialBorder'><div class='vertical-center'><img style='vertical-align:center; align:center' src='img/fixation2_sml.jpg'></div><div class='arrayDiv3'><div class='tl'><img class='introPic' src='trustrating_stim/white_mw085.bmp'><br><font color='red'><strong>Keep</strong></font></div><div class='tc'><img class='introPic' src='trustrating_stim/white_mw003.bmp'><br><font color='green'><strong>Share</strong></font></div><div class='tr'><img class='introPic' src='trustrating_stim/white_mw092.bmp'><br><font color='red'><strong>Keep</strong></font></div></div></div>","null","ARRAY","3","trustrating_stim/white_mw085.bmp,trustrating_stim/white_mw003.bmp,trustrating_stim/white_mw092.bmp","0,1,0","Match","e","4500","","","","",""
"html-keyboard-response","142","301282","0.0-7.0-3.21","64013a68f0b6846f5e68b7ad","bdp_wmem","Sun Mar 12 2023 23:15:39 GMT-0500 (Central Daylight Time)","554678","Match,No Match","","null","","","","","","<div class='trialBorder'><div class='vertical-center'><img src='img/fixation2_sml.jpg'</img></div></div>","null","DELAY","","","","","","","","","","",""
"html-keyboard-response","143","302936","0.0-7.0-4.21","64013a68f0b6846f5e68b7ad","bdp_wmem","Sun Mar 12 2023 23:15:39 GMT-0500 (Central Daylight Time)","554678","Match,No Match","","1654","","","","","","<div class='trialBorder'><div class='targDiv'><div class='tc'><img class='introPic' src='trustrating_stim/white_mw085.bmp'><br><font color='red'><strong>Keep</strong></font></div></div><div class='respDiv'><div class='respDivL'>Match<br>(e)</div><div class='respDivR'>No Match<br>(i)</div></div></div>","e","TARGET","3","trustrating_stim/white_mw085.bmp,trustrating_stim/white_mw003.bmp,trustrating_stim/white_mw092.bmp","0,1,0","Match","e","4500","trustrating_stim/white_mw085.bmp","red","Keep","REAL","1"
"html-keyboard-response","144","303437","0.0-7.0-5.21","64013a68f0b6846f5e68b7ad","bdp_wmem","Sun Mar 12 2023 23:15:39 GMT-0500 (Central Daylight Time)","554678","Match,No Match","","null","","","","","","<div class='trialBorder'><div class='vertical-center'><img src='img/correct.jpg'></div><div class='respDiv'><div class='respDivL'><font style='color:orange'>Match<br>(e)</font></div><div class='respDivR'>No Match<br>(i)</div></div></div>","null","FEEDBACK","","","","","","","","","","",""
"html-keyboard-response","145","303939","0.0-7.0-1.22","64013a68f0b6846f5e68b7ad","bdp_wmem","Sun Mar 12 2023 23:15:39 GMT-0500 (Central Daylight Time)","554678","Match,No Match","","null","","","","","","<div class='trialBorder'><div class='vertical-center'><img src='img/fixation2_sml.jpg'</img></div></div>","null","FIX","","","","","","","","","","",""
"html-keyboard-response","146","305440","0.0-7.0-2.22","64013a68f0b6846f5e68b7ad","bdp_wmem","Sun Mar 12 2023 23:15:39 GMT-0500 (Central Daylight Time)","554678","Match,No Match","","null","","","","","","<div class='trialBorder'><div class='vertical-center'><img style='vertical-align:center; align:center' src='img/fixation2_sml.jpg'></div><div class='arrayDiv1'><div class='tc'><img class='introPic' src='trustrating_stim/white_mw003.bmp'><br><font color='green'><strong>Share</strong></font></div></div></div>","null","ARRAY","1","trustrating_stim/white_mw003.bmp","1","noMatchFace","i","1500","","","","",""
"html-keyboard-response","147","309442","0.0-7.0-3.22","64013a68f0b6846f5e68b7ad","bdp_wmem","Sun Mar 12 2023 23:15:39 GMT-0500 (Central Daylight Time)","554678","Match,No Match","","null","","","","","","<div class='trialBorder'><div class='vertical-center'><img src='img/fixation2_sml.jpg'</img></div></div>","null","DELAY","","","","","","","","","","",""
"html-keyboard-response","148","310927","0.0-7.0-4.22","64013a68f0b6846f5e68b7ad","bdp_wmem","Sun Mar 12 2023 23:15:39 GMT-0500 (Central Daylight Time)","554678","Match,No Match","","1484","","","","","","<div class='trialBorder'><div class='targDiv'><div class='tc'><img class='introPic' src='trustrating_stim/white_mw013.bmp'><br><font color='green'><strong>Share</strong></font></div></div><div class='respDiv'><div class='respDivL'>Match<br>(e)</div><div class='respDivR'>No Match<br>(i)</div></div></div>","i","TARGET","1","trustrating_stim/white_mw003.bmp","1","noMatchFace","i","1500","trustrating_stim/white_mw013.bmp","green","Share","REAL","1"
"html-keyboard-response","149","311427","0.0-7.0-5.22","64013a68f0b6846f5e68b7ad","bdp_wmem","Sun Mar 12 2023 23:15:39 GMT-0500 (Central Daylight Time)","554678","Match,No Match","","null","","","","","","<div class='trialBorder'><div class='vertical-center'><img src='img/correct.jpg'></div><div class='respDiv'><div class='respDivL'>Match<br>(e)</div><div class='respDivR'><font style='color:orange'>No Match<br>(i)</font></div></div></div>","null","FEEDBACK","","","","","","","","","","",""
"html-keyboard-response","150","311929","0.0-7.0-1.23","64013a68f0b6846f5e68b7ad","bdp_wmem","Sun Mar 12 2023 23:15:39 GMT-0500 (Central Daylight Time)","554678","Match,No Match","","null","","","","","","<div class='trialBorder'><div class='vertical-center'><img src='img/fixation2_sml.jpg'</img></div></div>","null","FIX","","","","","","","","","","",""
"html-keyboard-response","151","313430","0.0-7.0-2.23","64013a68f0b6846f5e68b7ad","bdp_wmem","Sun Mar 12 2023 23:15:39 GMT-0500 (Central Daylight Time)","554678","Match,No Match","","null","","","","","","<div class='trialBorder'><div class='vertical-center'><img style='vertical-align:center; align:center' src='img/fixation2_sml.jpg'></div><div class='arrayDiv1'><div class='tc'><img class='introPic' src='trustrating_stim/white_mw010.bmp'><br><font color='green'><strong>Share</strong></font></div></div></div>","null","ARRAY","1","trustrating_stim/white_mw010.bmp","1","Match","e","1500","","","","",""
"html-keyboard-response","152","317431","0.0-7.0-3.23","64013a68f0b6846f5e68b7ad","bdp_wmem","Sun Mar 12 2023 23:15:39 GMT-0500 (Central Daylight Time)","554678","Match,No Match","","null","","","","","","<div class='trialBorder'><div class='vertical-center'><img src='img/fixation2_sml.jpg'</img></div></div>","null","DELAY","","","","","","","","","","",""
"html-keyboard-response","153","318831","0.0-7.0-4.23","64013a68f0b6846f5e68b7ad","bdp_wmem","Sun Mar 12 2023 23:15:39 GMT-0500 (Central Daylight Time)","554678","Match,No Match","","1399","","","","","","<div class='trialBorder'><div class='targDiv'><div class='tc'><img class='introPic' src='trustrating_stim/white_mw010.bmp'><br><font color='green'><strong>Share</strong></font></div></div><div class='respDiv'><div class='respDivL'>Match<br>(e)</div><div class='respDivR'>No Match<br>(i)</div></div></div>","e","TARGET","1","trustrating_stim/white_mw010.bmp","1","Match","e","1500","trustrating_stim/white_mw010.bmp","green","Share","REAL","1"
"html-keyboard-response","154","319332","0.0-7.0-5.23","64013a68f0b6846f5e68b7ad","bdp_wmem","Sun Mar 12 2023 23:15:39 GMT-0500 (Central Daylight Time)","554678","Match,No Match","","null","","","","","","<div class='trialBorder'><div class='vertical-center'><img src='img/correct.jpg'></div><div class='respDiv'><div class='respDivL'><font style='color:orange'>Match<br>(e)</font></div><div class='respDivR'>No Match<br>(i)</div></div></div>","null","FEEDBACK","","","","","","","","","","",""
"html-keyboard-response","155","319833","0.0-7.0-1.24","64013a68f0b6846f5e68b7ad","bdp_wmem","Sun Mar 12 2023 23:15:39 GMT-0500 (Central Daylight Time)","554678","Match,No Match","","null","","","","","","<div class='trialBorder'><div class='vertical-center'><img src='img/fixation2_sml.jpg'</img></div></div>","null","FIX","","","","","","","","","","",""
"html-keyboard-response","156","321335","0.0-7.0-2.24","64013a68f0b6846f5e68b7ad","bdp_wmem","Sun Mar 12 2023 23:15:39 GMT-0500 (Central Daylight Time)","554678","Match,No Match","","null","","","","","","<div class='trialBorder'><div class='vertical-center'><img style='vertical-align:center; align:center' src='img/fixation2_sml.jpg'></div><div class='arrayDiv1'><div class='tc'><img class='introPic' src='trustrating_stim/white_mw038.bmp'><br><font color='green'><strong>Share</strong></font></div></div></div>","null","ARRAY","1","trustrating_stim/white_mw038.bmp","1","Match","e","1500","","","","",""
"html-keyboard-response","157","325336","0.0-7.0-3.24","64013a68f0b6846f5e68b7ad","bdp_wmem","Sun Mar 12 2023 23:15:39 GMT-0500 (Central Daylight Time)","554678","Match,No Match","","null","","","","","","<div class='trialBorder'><div class='vertical-center'><img src='img/fixation2_sml.jpg'</img></div></div>","null","DELAY","","","","","","","","","","",""
"html-keyboard-response","158","326991","0.0-7.0-4.24","64013a68f0b6846f5e68b7ad","bdp_wmem","Sun Mar 12 2023 23:15:39 GMT-0500 (Central Daylight Time)","554678","Match,No Match","","1655","","","","","","<div class='trialBorder'><div class='targDiv'><div class='tc'><img class='introPic' src='trustrating_stim/white_mw038.bmp'><br><font color='green'><strong>Share</strong></font></div></div><div class='respDiv'><div class='respDivL'>Match<br>(e)</div><div class='respDivR'>No Match<br>(i)</div></div></div>","e","TARGET","1","trustrating_stim/white_mw038.bmp","1","Match","e","1500","trustrating_stim/white_mw038.bmp","green","Share","REAL","1"
"html-keyboard-response","159","327494","0.0-7.0-5.24","64013a68f0b6846f5e68b7ad","bdp_wmem","Sun Mar 12 2023 23:15:39 GMT-0500 (Central Daylight Time)","554678","Match,No Match","","null","","","","","","<div class='trialBorder'><div class='vertical-center'><img src='img/correct.jpg'></div><div class='respDiv'><div class='respDivL'><font style='color:orange'>Match<br>(e)</font></div><div class='respDivR'>No Match<br>(i)</div></div></div>","null","FEEDBACK","","","","","","","","","","",""
"html-keyboard-response","160","327994","0.0-7.0-1.25","64013a68f0b6846f5e68b7ad","bdp_wmem","Sun Mar 12 2023 23:15:39 GMT-0500 (Central Daylight Time)","554678","Match,No Match","","null","","","","","","<div class='trialBorder'><div class='vertical-center'><img src='img/fixation2_sml.jpg'</img></div></div>","null","FIX","","","","","","","","","","",""
"html-keyboard-response","161","330995","0.0-7.0-2.25","64013a68f0b6846f5e68b7ad","bdp_wmem","Sun Mar 12 2023 23:15:39 GMT-0500 (Central Daylight Time)","554678","Match,No Match","","null","","","","","","<div class='trialBorder'><div class='vertical-center'><img style='vertical-align:center; align:center' src='img/fixation2_sml.jpg'></div><div class='arrayDiv2'><div class='tl'><img class='introPic' src='trustrating_stim/white_mw078.bmp'><br><font color='green'><strong>Share</strong></font></div><div class='tr'><img class='introPic' src='trustrating_stim/white_mw010.bmp'><br><font color='red'><strong>Keep</strong></font></div></div></div>","null","ARRAY","2","trustrating_stim/white_mw078.bmp,trustrating_stim/white_mw010.bmp","1,0","noMatchOutcome","i","3000","","","","",""
"html-keyboard-response","162","334996","0.0-7.0-3.25","64013a68f0b6846f5e68b7ad","bdp_wmem","Sun Mar 12 2023 23:15:39 GMT-0500 (Central Daylight Time)","554678","Match,No Match","","null","","","","","","<div class='trialBorder'><div class='vertical-center'><img src='img/fixation2_sml.jpg'</img></div></div>","null","DELAY","","","","","","","","","","",""
"html-keyboard-response","163","336584","0.0-7.0-4.25","64013a68f0b6846f5e68b7ad","bdp_wmem","Sun Mar 12 2023 23:15:39 GMT-0500 (Central Daylight Time)","554678","Match,No Match","","1587","","","","","","<div class='trialBorder'><div class='targDiv'><div class='tc'><img class='introPic' src='trustrating_stim/white_mw010.bmp'><br><font color='green'><strong>Share</strong></font></div></div><div class='respDiv'><div class='respDivL'>Match<br>(e)</div><div class='respDivR'>No Match<br>(i)</div></div></div>","i","TARGET","2","trustrating_stim/white_mw078.bmp,trustrating_stim/white_mw010.bmp","1,0","noMatchOutcome","i","3000","trustrating_stim/white_mw010.bmp","green","Share","REAL","1"
"html-keyboard-response","164","337086","0.0-7.0-5.25","64013a68f0b6846f5e68b7ad","bdp_wmem","Sun Mar 12 2023 23:15:39 GMT-0500 (Central Daylight Time)","554678","Match,No Match","","null","","","","","","<div class='trialBorder'><div class='vertical-center'><img src='img/correct.jpg'></div><div class='respDiv'><div class='respDivL'>Match<br>(e)</div><div class='respDivR'><font style='color:orange'>No Match<br>(i)</font></div></div></div>","null","FEEDBACK","","","","","","","","","","",""
"html-keyboard-response","165","337588","0.0-7.0-1.26","64013a68f0b6846f5e68b7ad","bdp_wmem","Sun Mar 12 2023 23:15:39 GMT-0500 (Central Daylight Time)","554678","Match,No Match","","null","","","","","","<div class='trialBorder'><div class='vertical-center'><img src='img/fixation2_sml.jpg'</img></div></div>","null","FIX","","","","","","","","","","",""
"html-keyboard-response","166","342090","0.0-7.0-2.26","64013a68f0b6846f5e68b7ad","bdp_wmem","Sun Mar 12 2023 23:15:39 GMT-0500 (Central Daylight Time)","554678","Match,No Match","","null","","","","","","<div class='trialBorder'><div class='vertical-center'><img style='vertical-align:center; align:center' src='img/fixation2_sml.jpg'></div><div class='arrayDiv3'><div class='tl'><img class='introPic' src='trustrating_stim/white_mw092.bmp'><br><font color='green'><strong>Share</strong></font></div><div class='tc'><img class='introPic' src='trustrating_stim/white_mw070.bmp'><br><font color='green'><strong>Share</strong></font></div><div class='tr'><img class='introPic' src='trustrating_stim/white_mw085.bmp'><br><font color='red'><strong>Keep</strong></font></div></div></div>","null","ARRAY","3","trustrating_stim/white_mw092.bmp,trustrating_stim/white_mw070.bmp,trustrating_stim/white_mw085.bmp","1,1,0","noMatchOutcome","i","4500","","","","",""
"html-keyboard-response","167","346091","0.0-7.0-3.26","64013a68f0b6846f5e68b7ad","bdp_wmem","Sun Mar 12 2023 23:15:39 GMT-0500 (Central Daylight Time)","554678","Match,No Match","","null","","","","","","<div class='trialBorder'><div class='vertical-center'><img src='img/fixation2_sml.jpg'</img></div></div>","null","DELAY","","","","","","","","","","",""
"html-keyboard-response","168","347560","0.0-7.0-4.26","64013a68f0b6846f5e68b7ad","bdp_wmem","Sun Mar 12 2023 23:15:39 GMT-0500 (Central Daylight Time)","554678","Match,No Match","","1468","","","","","","<div class='trialBorder'><div class='targDiv'><div class='tc'><img class='introPic' src='trustrating_stim/white_mw092.bmp'><br><font color='red'><strong>Keep</strong></font></div></div><div class='respDiv'><div class='respDivL'>Match<br>(e)</div><div class='respDivR'>No Match<br>(i)</div></div></div>","e","TARGET","3","trustrating_stim/white_mw092.bmp,trustrating_stim/white_mw070.bmp,trustrating_stim/white_mw085.bmp","1,1,0","noMatchOutcome","i","4500","trustrating_stim/white_mw092.bmp","red","Keep","REAL","0"
"html-keyboard-response","169","348061","0.0-7.0-5.26","64013a68f0b6846f5e68b7ad","bdp_wmem","Sun Mar 12 2023 23:15:39 GMT-0500 (Central Daylight Time)","554678","Match,No Match","","null","","","","","","<div class='trialBorder'><div class='vertical-center'><img src='img/error.jpg'></div><div class='respDiv'><div class='respDivL'><font style='color:orange'>Match<br>(e)</font></div><div class='respDivR'>No Match<br>(i)</div></div></div>","null","FEEDBACK","","","","","","","","","","",""
"html-keyboard-response","170","348563","0.0-7.0-1.27","64013a68f0b6846f5e68b7ad","bdp_wmem","Sun Mar 12 2023 23:15:39 GMT-0500 (Central Daylight Time)","554678","Match,No Match","","null","","","","","","<div class='trialBorder'><div class='vertical-center'><img src='img/fixation2_sml.jpg'</img></div></div>","null","FIX","","","","","","","","","","",""
"html-keyboard-response","171","350064","0.0-7.0-2.27","64013a68f0b6846f5e68b7ad","bdp_wmem","Sun Mar 12 2023 23:15:39 GMT-0500 (Central Daylight Time)","554678","Match,No Match","","null","","","","","","<div class='trialBorder'><div class='vertical-center'><img style='vertical-align:center; align:center' src='img/fixation2_sml.jpg'></div><div class='arrayDiv1'><div class='tc'><img class='introPic' src='trustrating_stim/white_mw085.bmp'><br><font color='red'><strong>Keep</strong></font></div></div></div>","null","ARRAY","1","trustrating_stim/white_mw085.bmp","0","noMatchFace","i","1500","","","","",""
"html-keyboard-response","172","354066","0.0-7.0-3.27","64013a68f0b6846f5e68b7ad","bdp_wmem","Sun Mar 12 2023 23:15:39 GMT-0500 (Central Daylight Time)","554678","Match,No Match","","null","","","","","","<div class='trialBorder'><div class='vertical-center'><img src='img/fixation2_sml.jpg'</img></div></div>","null","DELAY","","","","","","","","","","",""
"html-keyboard-response","173","355599","0.0-7.0-4.27","64013a68f0b6846f5e68b7ad","bdp_wmem","Sun Mar 12 2023 23:15:39 GMT-0500 (Central Daylight Time)","554678","Match,No Match","","1532","","","","","","<div class='trialBorder'><div class='targDiv'><div class='tc'><img class='introPic' src='trustrating_stim/white_mw038.bmp'><br><font color='red'><strong>Keep</strong></font></div></div><div class='respDiv'><div class='respDivL'>Match<br>(e)</div><div class='respDivR'>No Match<br>(i)</div></div></div>","i","TARGET","1","trustrating_stim/white_mw085.bmp","0","noMatchFace","i","1500","trustrating_stim/white_mw038.bmp","red","Keep","REAL","1"
"html-keyboard-response","174","356100","0.0-7.0-5.27","64013a68f0b6846f5e68b7ad","bdp_wmem","Sun Mar 12 2023 23:15:39 GMT-0500 (Central Daylight Time)","554678","Match,No Match","","null","","","","","","<div class='trialBorder'><div class='vertical-center'><img src='img/correct.jpg'></div><div class='respDiv'><div class='respDivL'>Match<br>(e)</div><div class='respDivR'><font style='color:orange'>No Match<br>(i)</font></div></div></div>","null","FEEDBACK","","","","","","","","","","",""
"html-keyboard-response","175","356603","0.0-7.0-1.28","64013a68f0b6846f5e68b7ad","bdp_wmem","Sun Mar 12 2023 23:15:39 GMT-0500 (Central Daylight Time)","554678","Match,No Match","","null","","","","","","<div class='trialBorder'><div class='vertical-center'><img src='img/fixation2_sml.jpg'</img></div></div>","null","FIX","","","","","","","","","","",""
"html-keyboard-response","176","358104","0.0-7.0-2.28","64013a68f0b6846f5e68b7ad","bdp_wmem","Sun Mar 12 2023 23:15:39 GMT-0500 (Central Daylight Time)","554678","Match,No Match","","null","","","","","","<div class='trialBorder'><div class='vertical-center'><img style='vertical-align:center; align:center' src='img/fixation2_sml.jpg'></div><div class='arrayDiv1'><div class='tc'><img class='introPic' src='trustrating_stim/white_mw010.bmp'><br><font color='green'><strong>Share</strong></font></div></div></div>","null","ARRAY","1","trustrating_stim/white_mw010.bmp","1","Match","e","1500","","","","",""
"html-keyboard-response","177","362105","0.0-7.0-3.28","64013a68f0b6846f5e68b7ad","bdp_wmem","Sun Mar 12 2023 23:15:39 GMT-0500 (Central Daylight Time)","554678","Match,No Match","","null","","","","","","<div class='trialBorder'><div class='vertical-center'><img src='img/fixation2_sml.jpg'</img></div></div>","null","DELAY","","","","","","","","","","",""
"html-keyboard-response","178","363559","0.0-7.0-4.28","64013a68f0b6846f5e68b7ad","bdp_wmem","Sun Mar 12 2023 23:15:39 GMT-0500 (Central Daylight Time)","554678","Match,No Match","","1454","","","","","","<div class='trialBorder'><div class='targDiv'><div class='tc'><img class='introPic' src='trustrating_stim/white_mw010.bmp'><br><font color='green'><strong>Share</strong></font></div></div><div class='respDiv'><div class='respDivL'>Match<br>(e)</div><div class='respDivR'>No Match<br>(i)</div></div></div>","e","TARGET","1","trustrating_stim/white_mw010.bmp","1","Match","e","1500","trustrating_stim/white_mw010.bmp","green","Share","REAL","1"
"html-keyboard-response","179","364061","0.0-7.0-5.28","64013a68f0b6846f5e68b7ad","bdp_wmem","Sun Mar 12 2023 23:15:39 GMT-0500 (Central Daylight Time)","554678","Match,No Match","","null","","","","","","<div class='trialBorder'><div class='vertical-center'><img src='img/correct.jpg'></div><div class='respDiv'><div class='respDivL'><font style='color:orange'>Match<br>(e)</font></div><div class='respDivR'>No Match<br>(i)</div></div></div>","null","FEEDBACK","","","","","","","","","","",""
"html-keyboard-response","180","364563","0.0-7.0-1.29","64013a68f0b6846f5e68b7ad","bdp_wmem","Sun Mar 12 2023 23:15:39 GMT-0500 (Central Daylight Time)","554678","Match,No Match","","null","","","","","","<div class='trialBorder'><div class='vertical-center'><img src='img/fixation2_sml.jpg'</img></div></div>","null","FIX","","","","","","","","","","",""
"html-keyboard-response","181","367565","0.0-7.0-2.29","64013a68f0b6846f5e68b7ad","bdp_wmem","Sun Mar 12 2023 23:15:39 GMT-0500 (Central Daylight Time)","554678","Match,No Match","","null","","","","","","<div class='trialBorder'><div class='vertical-center'><img style='vertical-align:center; align:center' src='img/fixation2_sml.jpg'></div><div class='arrayDiv2'><div class='tl'><img class='introPic' src='trustrating_stim/white_mw010.bmp'><br><font color='green'><strong>Share</strong></font></div><div class='tr'><img class='introPic' src='trustrating_stim/white_mw038.bmp'><br><font color='red'><strong>Keep</strong></font></div></div></div>","null","ARRAY","2","trustrating_stim/white_mw010.bmp,trustrating_stim/white_mw038.bmp","1,0","Match","e","3000","","","","",""
"html-keyboard-response","182","371567","0.0-7.0-3.29","64013a68f0b6846f5e68b7ad","bdp_wmem","Sun Mar 12 2023 23:15:39 GMT-0500 (Central Daylight Time)","554678","Match,No Match","","null","","","","","","<div class='trialBorder'><div class='vertical-center'><img src='img/fixation2_sml.jpg'</img></div></div>","null","DELAY","","","","","","","","","","",""
"html-keyboard-response","183","373127","0.0-7.0-4.29","64013a68f0b6846f5e68b7ad","bdp_wmem","Sun Mar 12 2023 23:15:39 GMT-0500 (Central Daylight Time)","554678","Match,No Match","","1559","","","","","","<div class='trialBorder'><div class='targDiv'><div class='tc'><img class='introPic' src='trustrating_stim/white_mw038.bmp'><br><font color='red'><strong>Keep</strong></font></div></div><div class='respDiv'><div class='respDivL'>Match<br>(e)</div><div class='respDivR'>No Match<br>(i)</div></div></div>","e","TARGET","2","trustrating_stim/white_mw010.bmp,trustrating_stim/white_mw038.bmp","1,0","Match","e","3000","trustrating_stim/white_mw038.bmp","red","Keep","REAL","1"
"html-keyboard-response","184","373628","0.0-7.0-5.29","64013a68f0b6846f5e68b7ad","bdp_wmem","Sun Mar 12 2023 23:15:39 GMT-0500 (Central Daylight Time)","554678","Match,No Match","","null","","","","","","<div class='trialBorder'><div class='vertical-center'><img src='img/correct.jpg'></div><div class='respDiv'><div class='respDivL'><font style='color:orange'>Match<br>(e)</font></div><div class='respDivR'>No Match<br>(i)</div></div></div>","null","FEEDBACK","","","","","","","","","","",""
"html-keyboard-response","185","374129","0.0-7.0-1.30","64013a68f0b6846f5e68b7ad","bdp_wmem","Sun Mar 12 2023 23:15:39 GMT-0500 (Central Daylight Time)","554678","Match,No Match","","null","","","","","","<div class='trialBorder'><div class='vertical-center'><img src='img/fixation2_sml.jpg'</img></div></div>","null","FIX","","","","","","","","","","",""
"html-keyboard-response","186","378631","0.0-7.0-2.30","64013a68f0b6846f5e68b7ad","bdp_wmem","Sun Mar 12 2023 23:15:39 GMT-0500 (Central Daylight Time)","554678","Match,No Match","","null","","","","","","<div class='trialBorder'><div class='vertical-center'><img style='vertical-align:center; align:center' src='img/fixation2_sml.jpg'></div><div class='arrayDiv3'><div class='tl'><img class='introPic' src='trustrating_stim/white_mw092.bmp'><br><font color='red'><strong>Keep</strong></font></div><div class='tc'><img class='introPic' src='trustrating_stim/white_mw091.bmp'><br><font color='green'><strong>Share</strong></font></div><div class='tr'><img class='introPic' src='trustrating_stim/white_mw078.bmp'><br><font color='green'><strong>Share</strong></font></div></div></div>","null","ARRAY","3","trustrating_stim/white_mw092.bmp,trustrating_stim/white_mw091.bmp,trustrating_stim/white_mw078.bmp","0,1,1","Match","e","4500","","","","",""
"html-keyboard-response","187","382632","0.0-7.0-3.30","64013a68f0b6846f5e68b7ad","bdp_wmem","Sun Mar 12 2023 23:15:39 GMT-0500 (Central Daylight Time)","554678","Match,No Match","","null","","","","","","<div class='trialBorder'><div class='vertical-center'><img src='img/fixation2_sml.jpg'</img></div></div>","null","DELAY","","","","","","","","","","",""
"html-keyboard-response","188","384368","0.0-7.0-4.30","64013a68f0b6846f5e68b7ad","bdp_wmem","Sun Mar 12 2023 23:15:39 GMT-0500 (Central Daylight Time)","554678","Match,No Match","","1735","","","","","","<div class='trialBorder'><div class='targDiv'><div class='tc'><img class='introPic' src='trustrating_stim/white_mw092.bmp'><br><font color='red'><strong>Keep</strong></font></div></div><div class='respDiv'><div class='respDivL'>Match<br>(e)</div><div class='respDivR'>No Match<br>(i)</div></div></div>","e","TARGET","3","trustrating_stim/white_mw092.bmp,trustrating_stim/white_mw091.bmp,trustrating_stim/white_mw078.bmp","0,1,1","Match","e","4500","trustrating_stim/white_mw092.bmp","red","Keep","REAL","1"
"html-keyboard-response","189","384869","0.0-7.0-5.30","64013a68f0b6846f5e68b7ad","bdp_wmem","Sun Mar 12 2023 23:15:39 GMT-0500 (Central Daylight Time)","554678","Match,No Match","","null","","","","","","<div class='trialBorder'><div class='vertical-center'><img src='img/correct.jpg'></div><div class='respDiv'><div class='respDivL'><font style='color:orange'>Match<br>(e)</font></div><div class='respDivR'>No Match<br>(i)</div></div></div>","null","FEEDBACK","","","","","","","","","","",""
