"trial_type","trial_index","time_elapsed","internal_node_id","subject_id","task","startTime","totalTime","labels","view_history","rt","event","trial","time","trialtype","success","stimulus","key_press","stimType","arraySize","arrayFaces","arrayOutcomes","matchType","corrResp","arrayDur","targFace","targCol","targOutcome","trialType","corr"
"pavlovia","0","1","0.0-0.0","5aea7d94a110a00001f7e50e","bdp_wmem","Tue Mar 14 2023 21:33:35 GMT-0400 (Eastern Daylight Time)","613695","Match,No Match","","","","","","","","","","","","","","","","","","","","",""
"instructions","1","6014","0.0-1.0","5aea7d94a110a00001f7e50e","bdp_wmem","Tue Mar 14 2023 21:33:35 GMT-0400 (Eastern Daylight Time)","613695","Match,No Match","[{""page_index"":0,""viewing_time"":6013}]","6013","","","","","","","","","","","","","","","","","","",""
"","","","","5aea7d94a110a00001f7e50e","bdp_wmem","Tue Mar 14 2023 21:33:35 GMT-0400 (Eastern Daylight Time)","613695","Match,No Match","","","fullscreenenter","2","8223","fullscreenenter","","","","","","","","","","","","","","",""
"fullscreen","2","9213","0.0-2.0","5aea7d94a110a00001f7e50e","bdp_wmem","Tue Mar 14 2023 21:33:35 GMT-0400 (Eastern Daylight Time)","613695","Match,No Match","","","","","","","true","","","","","","","","","","","","","",""
"instructions","3","96730","0.0-4.0","5aea7d94a110a00001f7e50e","bdp_wmem","Tue Mar 14 2023 21:33:35 GMT-0400 (Eastern Daylight Time)","613695","Match,No Match","[{""page_index"":0,""viewing_time"":21864},{""page_index"":1,""viewing_time"":34665},{""page_index"":2,""viewing_time"":20624},{""page_index"":3,""viewing_time"":5431},{""page_index"":4,""viewing_time"":4932}]","87516","","","","","","","","","","","","","","","","","","",""
"html-keyboard-response","4","97231","0.0-5.0-1.0","5aea7d94a110a00001f7e50e","bdp_wmem","Tue Mar 14 2023 21:33:35 GMT-0400 (Eastern Daylight Time)","613695","Match,No Match","","null","","","","","","<div class='trialBorder'><div class='vertical-center'><img src='img/fixation2_sml.jpg'</img></div></div>","null","FIX","","","","","","","","","","",""
"html-keyboard-response","5","101734","0.0-5.0-2.0","5aea7d94a110a00001f7e50e","bdp_wmem","Tue Mar 14 2023 21:33:35 GMT-0400 (Eastern Daylight Time)","613695","Match,No Match","","null","","","","","","<div class='trialBorder'><div class='vertical-center'><img style='vertical-align:center; align:center' src='img/fixation2_sml.jpg'></div><div class='arrayDiv3'><div class='tl'><img class='introPic' src='trustrating_stim/white_mw085.bmp'><br><font color='red'><strong>Keep</strong></font></div><div class='tc'><img class='introPic' src='trustrating_stim/white_mw012.bmp'><br><font color='green'><strong>Share</strong></font></div><div class='tr'><img class='introPic' src='trustrating_stim/white_mw042.bmp'><br><font color='red'><strong>Keep</strong></font></div></div></div>","null","ARRAY","3","trustrating_stim/white_mw085.bmp,trustrating_stim/white_mw012.bmp,trustrating_stim/white_mw042.bmp","0,1,0","Match","e","4500","","","","",""
"html-keyboard-response","6","105735","0.0-5.0-3.0","5aea7d94a110a00001f7e50e","bdp_wmem","Tue Mar 14 2023 21:33:35 GMT-0400 (Eastern Daylight Time)","613695","Match,No Match","","null","","","","","","<div class='trialBorder'><div class='vertical-center'><img src='img/fixation2_sml.jpg'</img></div></div>","null","DELAY","","","","","","","","","","",""
"html-keyboard-response","7","112136","0.0-5.0-4.0","5aea7d94a110a00001f7e50e","bdp_wmem","Tue Mar 14 2023 21:33:35 GMT-0400 (Eastern Daylight Time)","613695","Match,No Match","","6400","","","","","","<div class='trialBorder'><div class='targDiv'><div class='tc'><img class='introPic' src='trustrating_stim/white_mw042.bmp'><br><font color='red'><strong>Keep</strong></font></div></div><div class='respDiv'><div class='respDivL'>Match<br>(e)</div><div class='respDivR'>No Match<br>(i)</div></div></div>","e","TARGET","3","trustrating_stim/white_mw085.bmp,trustrating_stim/white_mw012.bmp,trustrating_stim/white_mw042.bmp","0,1,0","Match","e","4500","trustrating_stim/white_mw042.bmp","red","Keep","PRACTICE","1"
"html-keyboard-response","8","112637","0.0-5.0-5.0","5aea7d94a110a00001f7e50e","bdp_wmem","Tue Mar 14 2023 21:33:35 GMT-0400 (Eastern Daylight Time)","613695","Match,No Match","","null","","","","","","<div class='trialBorder'><div class='vertical-center'><img src='img/correct.jpg'></div><div class='respDiv'><div class='respDivL'><font style='color:orange'>Match<br>(e)</font></div><div class='respDivR'>No Match<br>(i)</div></div></div>","null","FEEDBACK","","","","","","","","","","",""
"html-keyboard-response","9","113138","0.0-5.0-1.1","5aea7d94a110a00001f7e50e","bdp_wmem","Tue Mar 14 2023 21:33:35 GMT-0400 (Eastern Daylight Time)","613695","Match,No Match","","null","","","","","","<div class='trialBorder'><div class='vertical-center'><img src='img/fixation2_sml.jpg'</img></div></div>","null","FIX","","","","","","","","","","",""
"html-keyboard-response","10","116139","0.0-5.0-2.1","5aea7d94a110a00001f7e50e","bdp_wmem","Tue Mar 14 2023 21:33:35 GMT-0400 (Eastern Daylight Time)","613695","Match,No Match","","null","","","","","","<div class='trialBorder'><div class='vertical-center'><img style='vertical-align:center; align:center' src='img/fixation2_sml.jpg'></div><div class='arrayDiv2'><div class='tl'><img class='introPic' src='trustrating_stim/white_mw085.bmp'><br><font color='green'><strong>Share</strong></font></div><div class='tr'><img class='introPic' src='trustrating_stim/white_mw040.bmp'><br><font color='red'><strong>Keep</strong></font></div></div></div>","null","ARRAY","2","trustrating_stim/white_mw085.bmp,trustrating_stim/white_mw040.bmp","1,0","noMatchFace","i","3000","","","","",""
"html-keyboard-response","11","120141","0.0-5.0-3.1","5aea7d94a110a00001f7e50e","bdp_wmem","Tue Mar 14 2023 21:33:35 GMT-0400 (Eastern Daylight Time)","613695","Match,No Match","","null","","","","","","<div class='trialBorder'><div class='vertical-center'><img src='img/fixation2_sml.jpg'</img></div></div>","null","DELAY","","","","","","","","","","",""
"html-keyboard-response","12","121927","0.0-5.0-4.1","5aea7d94a110a00001f7e50e","bdp_wmem","Tue Mar 14 2023 21:33:35 GMT-0400 (Eastern Daylight Time)","613695","Match,No Match","","1786","","","","","","<div class='trialBorder'><div class='targDiv'><div class='tc'><img class='introPic' src='trustrating_stim/white_mw042.bmp'><br><font color='green'><strong>Share</strong></font></div></div><div class='respDiv'><div class='respDivL'>Match<br>(e)</div><div class='respDivR'>No Match<br>(i)</div></div></div>","i","TARGET","2","trustrating_stim/white_mw085.bmp,trustrating_stim/white_mw040.bmp","1,0","noMatchFace","i","3000","trustrating_stim/white_mw042.bmp","green","Share","PRACTICE","1"
"html-keyboard-response","13","122428","0.0-5.0-5.1","5aea7d94a110a00001f7e50e","bdp_wmem","Tue Mar 14 2023 21:33:35 GMT-0400 (Eastern Daylight Time)","613695","Match,No Match","","null","","","","","","<div class='trialBorder'><div class='vertical-center'><img src='img/correct.jpg'></div><div class='respDiv'><div class='respDivL'>Match<br>(e)</div><div class='respDivR'><font style='color:orange'>No Match<br>(i)</font></div></div></div>","null","FEEDBACK","","","","","","","","","","",""
"html-keyboard-response","14","122929","0.0-5.0-1.2","5aea7d94a110a00001f7e50e","bdp_wmem","Tue Mar 14 2023 21:33:35 GMT-0400 (Eastern Daylight Time)","613695","Match,No Match","","null","","","","","","<div class='trialBorder'><div class='vertical-center'><img src='img/fixation2_sml.jpg'</img></div></div>","null","FIX","","","","","","","","","","",""
"html-keyboard-response","15","124431","0.0-5.0-2.2","5aea7d94a110a00001f7e50e","bdp_wmem","Tue Mar 14 2023 21:33:35 GMT-0400 (Eastern Daylight Time)","613695","Match,No Match","","null","","","","","","<div class='trialBorder'><div class='vertical-center'><img style='vertical-align:center; align:center' src='img/fixation2_sml.jpg'></div><div class='arrayDiv1'><div class='tc'><img class='introPic' src='trustrating_stim/white_mw092.bmp'><br><font color='green'><strong>Share</strong></font></div></div></div>","null","ARRAY","1","trustrating_stim/white_mw092.bmp","1","noMatchFace","i","1500","","","","",""
"html-keyboard-response","16","128433","0.0-5.0-3.2","5aea7d94a110a00001f7e50e","bdp_wmem","Tue Mar 14 2023 21:33:35 GMT-0400 (Eastern Daylight Time)","613695","Match,No Match","","null","","","","","","<div class='trialBorder'><div class='vertical-center'><img src='img/fixation2_sml.jpg'</img></div></div>","null","DELAY","","","","","","","","","","",""
"html-keyboard-response","17","130435","0.0-5.0-4.2","5aea7d94a110a00001f7e50e","bdp_wmem","Tue Mar 14 2023 21:33:35 GMT-0400 (Eastern Daylight Time)","613695","Match,No Match","","2001","","","","","","<div class='trialBorder'><div class='targDiv'><div class='tc'><img class='introPic' src='trustrating_stim/white_mw040.bmp'><br><font color='green'><strong>Share</strong></font></div></div><div class='respDiv'><div class='respDivL'>Match<br>(e)</div><div class='respDivR'>No Match<br>(i)</div></div></div>","e","TARGET","1","trustrating_stim/white_mw092.bmp","1","noMatchFace","i","1500","trustrating_stim/white_mw040.bmp","green","Share","PRACTICE","0"
"html-keyboard-response","18","130936","0.0-5.0-5.2","5aea7d94a110a00001f7e50e","bdp_wmem","Tue Mar 14 2023 21:33:35 GMT-0400 (Eastern Daylight Time)","613695","Match,No Match","","null","","","","","","<div class='trialBorder'><div class='vertical-center'><img src='img/error.jpg'></div><div class='respDiv'><div class='respDivL'><font style='color:orange'>Match<br>(e)</font></div><div class='respDivR'>No Match<br>(i)</div></div></div>","null","FEEDBACK","","","","","","","","","","",""
"html-keyboard-response","19","131437","0.0-5.0-1.3","5aea7d94a110a00001f7e50e","bdp_wmem","Tue Mar 14 2023 21:33:35 GMT-0400 (Eastern Daylight Time)","613695","Match,No Match","","null","","","","","","<div class='trialBorder'><div class='vertical-center'><img src='img/fixation2_sml.jpg'</img></div></div>","null","FIX","","","","","","","","","","",""
"html-keyboard-response","20","132939","0.0-5.0-2.3","5aea7d94a110a00001f7e50e","bdp_wmem","Tue Mar 14 2023 21:33:35 GMT-0400 (Eastern Daylight Time)","613695","Match,No Match","","null","","","","","","<div class='trialBorder'><div class='vertical-center'><img style='vertical-align:center; align:center' src='img/fixation2_sml.jpg'></div><div class='arrayDiv1'><div class='tc'><img class='introPic' src='trustrating_stim/white_mw010.bmp'><br><font color='red'><strong>Keep</strong></font></div></div></div>","null","ARRAY","1","trustrating_stim/white_mw010.bmp","0","Match","e","1500","","","","",""
"html-keyboard-response","21","136942","0.0-5.0-3.3","5aea7d94a110a00001f7e50e","bdp_wmem","Tue Mar 14 2023 21:33:35 GMT-0400 (Eastern Daylight Time)","613695","Match,No Match","","null","","","","","","<div class='trialBorder'><div class='vertical-center'><img src='img/fixation2_sml.jpg'</img></div></div>","null","DELAY","","","","","","","","","","",""
"html-keyboard-response","22","138578","0.0-5.0-4.3","5aea7d94a110a00001f7e50e","bdp_wmem","Tue Mar 14 2023 21:33:35 GMT-0400 (Eastern Daylight Time)","613695","Match,No Match","","1636","","","","","","<div class='trialBorder'><div class='targDiv'><div class='tc'><img class='introPic' src='trustrating_stim/white_mw010.bmp'><br><font color='red'><strong>Keep</strong></font></div></div><div class='respDiv'><div class='respDivL'>Match<br>(e)</div><div class='respDivR'>No Match<br>(i)</div></div></div>","e","TARGET","1","trustrating_stim/white_mw010.bmp","0","Match","e","1500","trustrating_stim/white_mw010.bmp","red","Keep","PRACTICE","1"
"html-keyboard-response","23","139080","0.0-5.0-5.3","5aea7d94a110a00001f7e50e","bdp_wmem","Tue Mar 14 2023 21:33:35 GMT-0400 (Eastern Daylight Time)","613695","Match,No Match","","null","","","","","","<div class='trialBorder'><div class='vertical-center'><img src='img/correct.jpg'></div><div class='respDiv'><div class='respDivL'><font style='color:orange'>Match<br>(e)</font></div><div class='respDivR'>No Match<br>(i)</div></div></div>","null","FEEDBACK","","","","","","","","","","",""
"html-keyboard-response","24","139580","0.0-5.0-1.4","5aea7d94a110a00001f7e50e","bdp_wmem","Tue Mar 14 2023 21:33:35 GMT-0400 (Eastern Daylight Time)","613695","Match,No Match","","null","","","","","","<div class='trialBorder'><div class='vertical-center'><img src='img/fixation2_sml.jpg'</img></div></div>","null","FIX","","","","","","","","","","",""
"html-keyboard-response","25","144082","0.0-5.0-2.4","5aea7d94a110a00001f7e50e","bdp_wmem","Tue Mar 14 2023 21:33:35 GMT-0400 (Eastern Daylight Time)","613695","Match,No Match","","null","","","","","","<div class='trialBorder'><div class='vertical-center'><img style='vertical-align:center; align:center' src='img/fixation2_sml.jpg'></div><div class='arrayDiv3'><div class='tl'><img class='introPic' src='trustrating_stim/white_mw038.bmp'><br><font color='red'><strong>Keep</strong></font></div><div class='tc'><img class='introPic' src='trustrating_stim/white_mw040.bmp'><br><font color='green'><strong>Share</strong></font></div><div class='tr'><img class='introPic' src='trustrating_stim/white_mw042.bmp'><br><font color='red'><strong>Keep</strong></font></div></div></div>","null","ARRAY","3","trustrating_stim/white_mw038.bmp,trustrating_stim/white_mw040.bmp,trustrating_stim/white_mw042.bmp","0,1,0","noMatchOutcome","i","4500","","","","",""
"html-keyboard-response","26","148083","0.0-5.0-3.4","5aea7d94a110a00001f7e50e","bdp_wmem","Tue Mar 14 2023 21:33:35 GMT-0400 (Eastern Daylight Time)","613695","Match,No Match","","null","","","","","","<div class='trialBorder'><div class='vertical-center'><img src='img/fixation2_sml.jpg'</img></div></div>","null","DELAY","","","","","","","","","","",""
"html-keyboard-response","27","150223","0.0-5.0-4.4","5aea7d94a110a00001f7e50e","bdp_wmem","Tue Mar 14 2023 21:33:35 GMT-0400 (Eastern Daylight Time)","613695","Match,No Match","","2139","","","","","","<div class='trialBorder'><div class='targDiv'><div class='tc'><img class='introPic' src='trustrating_stim/white_mw040.bmp'><br><font color='red'><strong>Keep</strong></font></div></div><div class='respDiv'><div class='respDivL'>Match<br>(e)</div><div class='respDivR'>No Match<br>(i)</div></div></div>","i","TARGET","3","trustrating_stim/white_mw038.bmp,trustrating_stim/white_mw040.bmp,trustrating_stim/white_mw042.bmp","0,1,0","noMatchOutcome","i","4500","trustrating_stim/white_mw040.bmp","red","Keep","PRACTICE","1"
"html-keyboard-response","28","150724","0.0-5.0-5.4","5aea7d94a110a00001f7e50e","bdp_wmem","Tue Mar 14 2023 21:33:35 GMT-0400 (Eastern Daylight Time)","613695","Match,No Match","","null","","","","","","<div class='trialBorder'><div class='vertical-center'><img src='img/correct.jpg'></div><div class='respDiv'><div class='respDivL'>Match<br>(e)</div><div class='respDivR'><font style='color:orange'>No Match<br>(i)</font></div></div></div>","null","FEEDBACK","","","","","","","","","","",""
"html-keyboard-response","29","151225","0.0-5.0-1.5","5aea7d94a110a00001f7e50e","bdp_wmem","Tue Mar 14 2023 21:33:35 GMT-0400 (Eastern Daylight Time)","613695","Match,No Match","","null","","","","","","<div class='trialBorder'><div class='vertical-center'><img src='img/fixation2_sml.jpg'</img></div></div>","null","FIX","","","","","","","","","","",""
"html-keyboard-response","30","154227","0.0-5.0-2.5","5aea7d94a110a00001f7e50e","bdp_wmem","Tue Mar 14 2023 21:33:35 GMT-0400 (Eastern Daylight Time)","613695","Match,No Match","","null","","","","","","<div class='trialBorder'><div class='vertical-center'><img style='vertical-align:center; align:center' src='img/fixation2_sml.jpg'></div><div class='arrayDiv2'><div class='tl'><img class='introPic' src='trustrating_stim/white_mw038.bmp'><br><font color='red'><strong>Keep</strong></font></div><div class='tr'><img class='introPic' src='trustrating_stim/white_mw042.bmp'><br><font color='green'><strong>Share</strong></font></div></div></div>","null","ARRAY","2","trustrating_stim/white_mw038.bmp,trustrating_stim/white_mw042.bmp","0,1","Match","e","3000","","","","",""
"html-keyboard-response","31","158229","0.0-5.0-3.5","5aea7d94a110a00001f7e50e","bdp_wmem","Tue Mar 14 2023 21:33:35 GMT-0400 (Eastern Daylight Time)","613695","Match,No Match","","null","","","","","","<div class='trialBorder'><div class='vertical-center'><img src='img/fixation2_sml.jpg'</img></div></div>","null","DELAY","","","","","","","","","","",""
"html-keyboard-response","32","159787","0.0-5.0-4.5","5aea7d94a110a00001f7e50e","bdp_wmem","Tue Mar 14 2023 21:33:35 GMT-0400 (Eastern Daylight Time)","613695","Match,No Match","","1557","","","","","","<div class='trialBorder'><div class='targDiv'><div class='tc'><img class='introPic' src='trustrating_stim/white_mw038.bmp'><br><font color='red'><strong>Keep</strong></font></div></div><div class='respDiv'><div class='respDivL'>Match<br>(e)</div><div class='respDivR'>No Match<br>(i)</div></div></div>","e","TARGET","2","trustrating_stim/white_mw038.bmp,trustrating_stim/white_mw042.bmp","0,1","Match","e","3000","trustrating_stim/white_mw038.bmp","red","Keep","PRACTICE","1"
"html-keyboard-response","33","160289","0.0-5.0-5.5","5aea7d94a110a00001f7e50e","bdp_wmem","Tue Mar 14 2023 21:33:35 GMT-0400 (Eastern Daylight Time)","613695","Match,No Match","","null","","","","","","<div class='trialBorder'><div class='vertical-center'><img src='img/correct.jpg'></div><div class='respDiv'><div class='respDivL'><font style='color:orange'>Match<br>(e)</font></div><div class='respDivR'>No Match<br>(i)</div></div></div>","null","FEEDBACK","","","","","","","","","","",""
"instructions","34","163710","0.0-6.0","5aea7d94a110a00001f7e50e","bdp_wmem","Tue Mar 14 2023 21:33:35 GMT-0400 (Eastern Daylight Time)","613695","Match,No Match","[{""page_index"":0,""viewing_time"":3421}]","3421","","","","","","","","","","","","","","","","","","",""
"html-keyboard-response","35","164210","0.0-7.0-1.0","5aea7d94a110a00001f7e50e","bdp_wmem","Tue Mar 14 2023 21:33:35 GMT-0400 (Eastern Daylight Time)","613695","Match,No Match","","null","","","","","","<div class='trialBorder'><div class='vertical-center'><img src='img/fixation2_sml.jpg'</img></div></div>","null","FIX","","","","","","","","","","",""
"html-keyboard-response","36","167213","0.0-7.0-2.0","5aea7d94a110a00001f7e50e","bdp_wmem","Tue Mar 14 2023 21:33:35 GMT-0400 (Eastern Daylight Time)","613695","Match,No Match","","null","","","","","","<div class='trialBorder'><div class='vertical-center'><img style='vertical-align:center; align:center' src='img/fixation2_sml.jpg'></div><div class='arrayDiv2'><div class='tl'><img class='introPic' src='trustrating_stim/white_mw003.bmp'><br><font color='green'><strong>Share</strong></font></div><div class='tr'><img class='introPic' src='trustrating_stim/white_mw040.bmp'><br><font color='red'><strong>Keep</strong></font></div></div></div>","null","ARRAY","2","trustrating_stim/white_mw003.bmp,trustrating_stim/white_mw040.bmp","1,0","Match","e","3000","","","","",""
"html-keyboard-response","37","171214","0.0-7.0-3.0","5aea7d94a110a00001f7e50e","bdp_wmem","Tue Mar 14 2023 21:33:35 GMT-0400 (Eastern Daylight Time)","613695","Match,No Match","","null","","","","","","<div class='trialBorder'><div class='vertical-center'><img src='img/fixation2_sml.jpg'</img></div></div>","null","DELAY","","","","","","","","","","",""
"html-keyboard-response","38","172560","0.0-7.0-4.0","5aea7d94a110a00001f7e50e","bdp_wmem","Tue Mar 14 2023 21:33:35 GMT-0400 (Eastern Daylight Time)","613695","Match,No Match","","1345","","","","","","<div class='trialBorder'><div class='targDiv'><div class='tc'><img class='introPic' src='trustrating_stim/white_mw003.bmp'><br><font color='green'><strong>Share</strong></font></div></div><div class='respDiv'><div class='respDivL'>Match<br>(e)</div><div class='respDivR'>No Match<br>(i)</div></div></div>","e","TARGET","2","trustrating_stim/white_mw003.bmp,trustrating_stim/white_mw040.bmp","1,0","Match","e","3000","trustrating_stim/white_mw003.bmp","green","Share","REAL","1"
"html-keyboard-response","39","173061","0.0-7.0-5.0","5aea7d94a110a00001f7e50e","bdp_wmem","Tue Mar 14 2023 21:33:35 GMT-0400 (Eastern Daylight Time)","613695","Match,No Match","","null","","","","","","<div class='trialBorder'><div class='vertical-center'><img src='img/correct.jpg'></div><div class='respDiv'><div class='respDivL'><font style='color:orange'>Match<br>(e)</font></div><div class='respDivR'>No Match<br>(i)</div></div></div>","null","FEEDBACK","","","","","","","","","","",""
"html-keyboard-response","40","173562","0.0-7.0-1.1","5aea7d94a110a00001f7e50e","bdp_wmem","Tue Mar 14 2023 21:33:35 GMT-0400 (Eastern Daylight Time)","613695","Match,No Match","","null","","","","","","<div class='trialBorder'><div class='vertical-center'><img src='img/fixation2_sml.jpg'</img></div></div>","null","FIX","","","","","","","","","","",""
"html-keyboard-response","41","175064","0.0-7.0-2.1","5aea7d94a110a00001f7e50e","bdp_wmem","Tue Mar 14 2023 21:33:35 GMT-0400 (Eastern Daylight Time)","613695","Match,No Match","","null","","","","","","<div class='trialBorder'><div class='vertical-center'><img style='vertical-align:center; align:center' src='img/fixation2_sml.jpg'></div><div class='arrayDiv1'><div class='tc'><img class='introPic' src='trustrating_stim/white_mw042.bmp'><br><font color='green'><strong>Share</strong></font></div></div></div>","null","ARRAY","1","trustrating_stim/white_mw042.bmp","1","Match","e","1500","","","","",""
"html-keyboard-response","42","179066","0.0-7.0-3.1","5aea7d94a110a00001f7e50e","bdp_wmem","Tue Mar 14 2023 21:33:35 GMT-0400 (Eastern Daylight Time)","613695","Match,No Match","","null","","","","","","<div class='trialBorder'><div class='vertical-center'><img src='img/fixation2_sml.jpg'</img></div></div>","null","DELAY","","","","","","","","","","",""
"html-keyboard-response","43","180136","0.0-7.0-4.1","5aea7d94a110a00001f7e50e","bdp_wmem","Tue Mar 14 2023 21:33:35 GMT-0400 (Eastern Daylight Time)","613695","Match,No Match","","1069","","","","","","<div class='trialBorder'><div class='targDiv'><div class='tc'><img class='introPic' src='trustrating_stim/white_mw042.bmp'><br><font color='green'><strong>Share</strong></font></div></div><div class='respDiv'><div class='respDivL'>Match<br>(e)</div><div class='respDivR'>No Match<br>(i)</div></div></div>","e","TARGET","1","trustrating_stim/white_mw042.bmp","1","Match","e","1500","trustrating_stim/white_mw042.bmp","green","Share","REAL","1"
"html-keyboard-response","44","180636","0.0-7.0-5.1","5aea7d94a110a00001f7e50e","bdp_wmem","Tue Mar 14 2023 21:33:35 GMT-0400 (Eastern Daylight Time)","613695","Match,No Match","","null","","","","","","<div class='trialBorder'><div class='vertical-center'><img src='img/correct.jpg'></div><div class='respDiv'><div class='respDivL'><font style='color:orange'>Match<br>(e)</font></div><div class='respDivR'>No Match<br>(i)</div></div></div>","null","FEEDBACK","","","","","","","","","","",""
"html-keyboard-response","45","181137","0.0-7.0-1.2","5aea7d94a110a00001f7e50e","bdp_wmem","Tue Mar 14 2023 21:33:35 GMT-0400 (Eastern Daylight Time)","613695","Match,No Match","","null","","","","","","<div class='trialBorder'><div class='vertical-center'><img src='img/fixation2_sml.jpg'</img></div></div>","null","FIX","","","","","","","","","","",""
"html-keyboard-response","46","182639","0.0-7.0-2.2","5aea7d94a110a00001f7e50e","bdp_wmem","Tue Mar 14 2023 21:33:35 GMT-0400 (Eastern Daylight Time)","613695","Match,No Match","","null","","","","","","<div class='trialBorder'><div class='vertical-center'><img style='vertical-align:center; align:center' src='img/fixation2_sml.jpg'></div><div class='arrayDiv1'><div class='tc'><img class='introPic' src='trustrating_stim/white_mw038.bmp'><br><font color='green'><strong>Share</strong></font></div></div></div>","null","ARRAY","1","trustrating_stim/white_mw038.bmp","1","noMatchOutcome","i","1500","","","","",""
"html-keyboard-response","47","186641","0.0-7.0-3.2","5aea7d94a110a00001f7e50e","bdp_wmem","Tue Mar 14 2023 21:33:35 GMT-0400 (Eastern Daylight Time)","613695","Match,No Match","","null","","","","","","<div class='trialBorder'><div class='vertical-center'><img src='img/fixation2_sml.jpg'</img></div></div>","null","DELAY","","","","","","","","","","",""
"html-keyboard-response","48","187964","0.0-7.0-4.2","5aea7d94a110a00001f7e50e","bdp_wmem","Tue Mar 14 2023 21:33:35 GMT-0400 (Eastern Daylight Time)","613695","Match,No Match","","1323","","","","","","<div class='trialBorder'><div class='targDiv'><div class='tc'><img class='introPic' src='trustrating_stim/white_mw038.bmp'><br><font color='red'><strong>Keep</strong></font></div></div><div class='respDiv'><div class='respDivL'>Match<br>(e)</div><div class='respDivR'>No Match<br>(i)</div></div></div>","i","TARGET","1","trustrating_stim/white_mw038.bmp","1","noMatchOutcome","i","1500","trustrating_stim/white_mw038.bmp","red","Keep","REAL","1"
"html-keyboard-response","49","188465","0.0-7.0-5.2","5aea7d94a110a00001f7e50e","bdp_wmem","Tue Mar 14 2023 21:33:35 GMT-0400 (Eastern Daylight Time)","613695","Match,No Match","","null","","","","","","<div class='trialBorder'><div class='vertical-center'><img src='img/correct.jpg'></div><div class='respDiv'><div class='respDivL'>Match<br>(e)</div><div class='respDivR'><font style='color:orange'>No Match<br>(i)</font></div></div></div>","null","FEEDBACK","","","","","","","","","","",""
"html-keyboard-response","50","188967","0.0-7.0-1.3","5aea7d94a110a00001f7e50e","bdp_wmem","Tue Mar 14 2023 21:33:35 GMT-0400 (Eastern Daylight Time)","613695","Match,No Match","","null","","","","","","<div class='trialBorder'><div class='vertical-center'><img src='img/fixation2_sml.jpg'</img></div></div>","null","FIX","","","","","","","","","","",""
"html-keyboard-response","51","190469","0.0-7.0-2.3","5aea7d94a110a00001f7e50e","bdp_wmem","Tue Mar 14 2023 21:33:35 GMT-0400 (Eastern Daylight Time)","613695","Match,No Match","","null","","","","","","<div class='trialBorder'><div class='vertical-center'><img style='vertical-align:center; align:center' src='img/fixation2_sml.jpg'></div><div class='arrayDiv1'><div class='tc'><img class='introPic' src='trustrating_stim/white_mw042.bmp'><br><font color='green'><strong>Share</strong></font></div></div></div>","null","ARRAY","1","trustrating_stim/white_mw042.bmp","1","Match","e","1500","","","","",""
"html-keyboard-response","52","194471","0.0-7.0-3.3","5aea7d94a110a00001f7e50e","bdp_wmem","Tue Mar 14 2023 21:33:35 GMT-0400 (Eastern Daylight Time)","613695","Match,No Match","","null","","","","","","<div class='trialBorder'><div class='vertical-center'><img src='img/fixation2_sml.jpg'</img></div></div>","null","DELAY","","","","","","","","","","",""
"html-keyboard-response","53","195322","0.0-7.0-4.3","5aea7d94a110a00001f7e50e","bdp_wmem","Tue Mar 14 2023 21:33:35 GMT-0400 (Eastern Daylight Time)","613695","Match,No Match","","850","","","","","","<div class='trialBorder'><div class='targDiv'><div class='tc'><img class='introPic' src='trustrating_stim/white_mw042.bmp'><br><font color='green'><strong>Share</strong></font></div></div><div class='respDiv'><div class='respDivL'>Match<br>(e)</div><div class='respDivR'>No Match<br>(i)</div></div></div>","e","TARGET","1","trustrating_stim/white_mw042.bmp","1","Match","e","1500","trustrating_stim/white_mw042.bmp","green","Share","REAL","1"
"html-keyboard-response","54","195823","0.0-7.0-5.3","5aea7d94a110a00001f7e50e","bdp_wmem","Tue Mar 14 2023 21:33:35 GMT-0400 (Eastern Daylight Time)","613695","Match,No Match","","null","","","","","","<div class='trialBorder'><div class='vertical-center'><img src='img/correct.jpg'></div><div class='respDiv'><div class='respDivL'><font style='color:orange'>Match<br>(e)</font></div><div class='respDivR'>No Match<br>(i)</div></div></div>","null","FEEDBACK","","","","","","","","","","",""
"html-keyboard-response","55","196324","0.0-7.0-1.4","5aea7d94a110a00001f7e50e","bdp_wmem","Tue Mar 14 2023 21:33:35 GMT-0400 (Eastern Daylight Time)","613695","Match,No Match","","null","","","","","","<div class='trialBorder'><div class='vertical-center'><img src='img/fixation2_sml.jpg'</img></div></div>","null","FIX","","","","","","","","","","",""
"html-keyboard-response","56","200825","0.0-7.0-2.4","5aea7d94a110a00001f7e50e","bdp_wmem","Tue Mar 14 2023 21:33:35 GMT-0400 (Eastern Daylight Time)","613695","Match,No Match","","null","","","","","","<div class='trialBorder'><div class='vertical-center'><img style='vertical-align:center; align:center' src='img/fixation2_sml.jpg'></div><div class='arrayDiv3'><div class='tl'><img class='introPic' src='trustrating_stim/white_mw070.bmp'><br><font color='red'><strong>Keep</strong></font></div><div class='tc'><img class='introPic' src='trustrating_stim/white_mw013.bmp'><br><font color='green'><strong>Share</strong></font></div><div class='tr'><img class='introPic' src='trustrating_stim/white_mw042.bmp'><br><font color='red'><strong>Keep</strong></font></div></div></div>","null","ARRAY","3","trustrating_stim/white_mw070.bmp,trustrating_stim/white_mw013.bmp,trustrating_stim/white_mw042.bmp","0,1,0","Match","e","4500","","","","",""
"html-keyboard-response","57","204827","0.0-7.0-3.4","5aea7d94a110a00001f7e50e","bdp_wmem","Tue Mar 14 2023 21:33:35 GMT-0400 (Eastern Daylight Time)","613695","Match,No Match","","null","","","","","","<div class='trialBorder'><div class='vertical-center'><img src='img/fixation2_sml.jpg'</img></div></div>","null","DELAY","","","","","","","","","","",""
"html-keyboard-response","58","205862","0.0-7.0-4.4","5aea7d94a110a00001f7e50e","bdp_wmem","Tue Mar 14 2023 21:33:35 GMT-0400 (Eastern Daylight Time)","613695","Match,No Match","","1034","","","","","","<div class='trialBorder'><div class='targDiv'><div class='tc'><img class='introPic' src='trustrating_stim/white_mw013.bmp'><br><font color='green'><strong>Share</strong></font></div></div><div class='respDiv'><div class='respDivL'>Match<br>(e)</div><div class='respDivR'>No Match<br>(i)</div></div></div>","e","TARGET","3","trustrating_stim/white_mw070.bmp,trustrating_stim/white_mw013.bmp,trustrating_stim/white_mw042.bmp","0,1,0","Match","e","4500","trustrating_stim/white_mw013.bmp","green","Share","REAL","1"
"html-keyboard-response","59","206363","0.0-7.0-5.4","5aea7d94a110a00001f7e50e","bdp_wmem","Tue Mar 14 2023 21:33:35 GMT-0400 (Eastern Daylight Time)","613695","Match,No Match","","null","","","","","","<div class='trialBorder'><div class='vertical-center'><img src='img/correct.jpg'></div><div class='respDiv'><div class='respDivL'><font style='color:orange'>Match<br>(e)</font></div><div class='respDivR'>No Match<br>(i)</div></div></div>","null","FEEDBACK","","","","","","","","","","",""
"html-keyboard-response","60","206864","0.0-7.0-1.5","5aea7d94a110a00001f7e50e","bdp_wmem","Tue Mar 14 2023 21:33:35 GMT-0400 (Eastern Daylight Time)","613695","Match,No Match","","null","","","","","","<div class='trialBorder'><div class='vertical-center'><img src='img/fixation2_sml.jpg'</img></div></div>","null","FIX","","","","","","","","","","",""
"html-keyboard-response","61","209866","0.0-7.0-2.5","5aea7d94a110a00001f7e50e","bdp_wmem","Tue Mar 14 2023 21:33:35 GMT-0400 (Eastern Daylight Time)","613695","Match,No Match","","null","","","","","","<div class='trialBorder'><div class='vertical-center'><img style='vertical-align:center; align:center' src='img/fixation2_sml.jpg'></div><div class='arrayDiv2'><div class='tl'><img class='introPic' src='trustrating_stim/white_mw091.bmp'><br><font color='red'><strong>Keep</strong></font></div><div class='tr'><img class='introPic' src='trustrating_stim/white_mw042.bmp'><br><font color='green'><strong>Share</strong></font></div></div></div>","null","ARRAY","2","trustrating_stim/white_mw091.bmp,trustrating_stim/white_mw042.bmp","0,1","noMatchOutcome","i","3000","","","","",""
"html-keyboard-response","62","213867","0.0-7.0-3.5","5aea7d94a110a00001f7e50e","bdp_wmem","Tue Mar 14 2023 21:33:35 GMT-0400 (Eastern Daylight Time)","613695","Match,No Match","","null","","","","","","<div class='trialBorder'><div class='vertical-center'><img src='img/fixation2_sml.jpg'</img></div></div>","null","DELAY","","","","","","","","","","",""
"html-keyboard-response","63","215351","0.0-7.0-4.5","5aea7d94a110a00001f7e50e","bdp_wmem","Tue Mar 14 2023 21:33:35 GMT-0400 (Eastern Daylight Time)","613695","Match,No Match","","1483","","","","","","<div class='trialBorder'><div class='targDiv'><div class='tc'><img class='introPic' src='trustrating_stim/white_mw042.bmp'><br><font color='red'><strong>Keep</strong></font></div></div><div class='respDiv'><div class='respDivL'>Match<br>(e)</div><div class='respDivR'>No Match<br>(i)</div></div></div>","i","TARGET","2","trustrating_stim/white_mw091.bmp,trustrating_stim/white_mw042.bmp","0,1","noMatchOutcome","i","3000","trustrating_stim/white_mw042.bmp","red","Keep","REAL","1"
"html-keyboard-response","64","215853","0.0-7.0-5.5","5aea7d94a110a00001f7e50e","bdp_wmem","Tue Mar 14 2023 21:33:35 GMT-0400 (Eastern Daylight Time)","613695","Match,No Match","","null","","","","","","<div class='trialBorder'><div class='vertical-center'><img src='img/correct.jpg'></div><div class='respDiv'><div class='respDivL'>Match<br>(e)</div><div class='respDivR'><font style='color:orange'>No Match<br>(i)</font></div></div></div>","null","FEEDBACK","","","","","","","","","","",""
"html-keyboard-response","65","216353","0.0-7.0-1.6","5aea7d94a110a00001f7e50e","bdp_wmem","Tue Mar 14 2023 21:33:35 GMT-0400 (Eastern Daylight Time)","613695","Match,No Match","","null","","","","","","<div class='trialBorder'><div class='vertical-center'><img src='img/fixation2_sml.jpg'</img></div></div>","null","FIX","","","","","","","","","","",""
"html-keyboard-response","66","220855","0.0-7.0-2.6","5aea7d94a110a00001f7e50e","bdp_wmem","Tue Mar 14 2023 21:33:35 GMT-0400 (Eastern Daylight Time)","613695","Match,No Match","","null","","","","","","<div class='trialBorder'><div class='vertical-center'><img style='vertical-align:center; align:center' src='img/fixation2_sml.jpg'></div><div class='arrayDiv3'><div class='tl'><img class='introPic' src='trustrating_stim/white_mw013.bmp'><br><font color='green'><strong>Share</strong></font></div><div class='tc'><img class='introPic' src='trustrating_stim/white_mw091.bmp'><br><font color='green'><strong>Share</strong></font></div><div class='tr'><img class='introPic' src='trustrating_stim/white_mw038.bmp'><br><font color='red'><strong>Keep</strong></font></div></div></div>","null","ARRAY","3","trustrating_stim/white_mw013.bmp,trustrating_stim/white_mw091.bmp,trustrating_stim/white_mw038.bmp","1,1,0","noMatchOutcome","i","4500","","","","",""
"html-keyboard-response","67","224855","0.0-7.0-3.6","5aea7d94a110a00001f7e50e","bdp_wmem","Tue Mar 14 2023 21:33:35 GMT-0400 (Eastern Daylight Time)","613695","Match,No Match","","null","","","","","","<div class='trialBorder'><div class='vertical-center'><img src='img/fixation2_sml.jpg'</img></div></div>","null","DELAY","","","","","","","","","","",""
"html-keyboard-response","68","225953","0.0-7.0-4.6","5aea7d94a110a00001f7e50e","bdp_wmem","Tue Mar 14 2023 21:33:35 GMT-0400 (Eastern Daylight Time)","613695","Match,No Match","","1097","","","","","","<div class='trialBorder'><div class='targDiv'><div class='tc'><img class='introPic' src='trustrating_stim/white_mw038.bmp'><br><font color='green'><strong>Share</strong></font></div></div><div class='respDiv'><div class='respDivL'>Match<br>(e)</div><div class='respDivR'>No Match<br>(i)</div></div></div>","i","TARGET","3","trustrating_stim/white_mw013.bmp,trustrating_stim/white_mw091.bmp,trustrating_stim/white_mw038.bmp","1,1,0","noMatchOutcome","i","4500","trustrating_stim/white_mw038.bmp","green","Share","REAL","1"
"html-keyboard-response","69","226454","0.0-7.0-5.6","5aea7d94a110a00001f7e50e","bdp_wmem","Tue Mar 14 2023 21:33:35 GMT-0400 (Eastern Daylight Time)","613695","Match,No Match","","null","","","","","","<div class='trialBorder'><div class='vertical-center'><img src='img/correct.jpg'></div><div class='respDiv'><div class='respDivL'>Match<br>(e)</div><div class='respDivR'><font style='color:orange'>No Match<br>(i)</font></div></div></div>","null","FEEDBACK","","","","","","","","","","",""
"html-keyboard-response","70","226955","0.0-7.0-1.7","5aea7d94a110a00001f7e50e","bdp_wmem","Tue Mar 14 2023 21:33:35 GMT-0400 (Eastern Daylight Time)","613695","Match,No Match","","null","","","","","","<div class='trialBorder'><div class='vertical-center'><img src='img/fixation2_sml.jpg'</img></div></div>","null","FIX","","","","","","","","","","",""
"html-keyboard-response","71","229957","0.0-7.0-2.7","5aea7d94a110a00001f7e50e","bdp_wmem","Tue Mar 14 2023 21:33:35 GMT-0400 (Eastern Daylight Time)","613695","Match,No Match","","null","","","","","","<div class='trialBorder'><div class='vertical-center'><img style='vertical-align:center; align:center' src='img/fixation2_sml.jpg'></div><div class='arrayDiv2'><div class='tl'><img class='introPic' src='trustrating_stim/white_mw091.bmp'><br><font color='green'><strong>Share</strong></font></div><div class='tr'><img class='introPic' src='trustrating_stim/white_mw038.bmp'><br><font color='red'><strong>Keep</strong></font></div></div></div>","null","ARRAY","2","trustrating_stim/white_mw091.bmp,trustrating_stim/white_mw038.bmp","1,0","noMatchFace","i","3000","","","","",""
"html-keyboard-response","72","233959","0.0-7.0-3.7","5aea7d94a110a00001f7e50e","bdp_wmem","Tue Mar 14 2023 21:33:35 GMT-0400 (Eastern Daylight Time)","613695","Match,No Match","","null","","","","","","<div class='trialBorder'><div class='vertical-center'><img src='img/fixation2_sml.jpg'</img></div></div>","null","DELAY","","","","","","","","","","",""
"html-keyboard-response","73","235373","0.0-7.0-4.7","5aea7d94a110a00001f7e50e","bdp_wmem","Tue Mar 14 2023 21:33:35 GMT-0400 (Eastern Daylight Time)","613695","Match,No Match","","1413","","","","","","<div class='trialBorder'><div class='targDiv'><div class='tc'><img class='introPic' src='trustrating_stim/white_mw012.bmp'><br><font color='green'><strong>Share</strong></font></div></div><div class='respDiv'><div class='respDivL'>Match<br>(e)</div><div class='respDivR'>No Match<br>(i)</div></div></div>","i","TARGET","2","trustrating_stim/white_mw091.bmp,trustrating_stim/white_mw038.bmp","1,0","noMatchFace","i","3000","trustrating_stim/white_mw012.bmp","green","Share","REAL","1"
"html-keyboard-response","74","235875","0.0-7.0-5.7","5aea7d94a110a00001f7e50e","bdp_wmem","Tue Mar 14 2023 21:33:35 GMT-0400 (Eastern Daylight Time)","613695","Match,No Match","","null","","","","","","<div class='trialBorder'><div class='vertical-center'><img src='img/correct.jpg'></div><div class='respDiv'><div class='respDivL'>Match<br>(e)</div><div class='respDivR'><font style='color:orange'>No Match<br>(i)</font></div></div></div>","null","FEEDBACK","","","","","","","","","","",""
"html-keyboard-response","75","236376","0.0-7.0-1.8","5aea7d94a110a00001f7e50e","bdp_wmem","Tue Mar 14 2023 21:33:35 GMT-0400 (Eastern Daylight Time)","613695","Match,No Match","","null","","","","","","<div class='trialBorder'><div class='vertical-center'><img src='img/fixation2_sml.jpg'</img></div></div>","null","FIX","","","","","","","","","","",""
"html-keyboard-response","76","239376","0.0-7.0-2.8","5aea7d94a110a00001f7e50e","bdp_wmem","Tue Mar 14 2023 21:33:35 GMT-0400 (Eastern Daylight Time)","613695","Match,No Match","","null","","","","","","<div class='trialBorder'><div class='vertical-center'><img style='vertical-align:center; align:center' src='img/fixation2_sml.jpg'></div><div class='arrayDiv2'><div class='tl'><img class='introPic' src='trustrating_stim/white_mw042.bmp'><br><font color='red'><strong>Keep</strong></font></div><div class='tr'><img class='introPic' src='trustrating_stim/white_mw038.bmp'><br><font color='green'><strong>Share</strong></font></div></div></div>","null","ARRAY","2","trustrating_stim/white_mw042.bmp,trustrating_stim/white_mw038.bmp","0,1","noMatchOutcome","i","3000","","","","",""
"html-keyboard-response","77","243378","0.0-7.0-3.8","5aea7d94a110a00001f7e50e","bdp_wmem","Tue Mar 14 2023 21:33:35 GMT-0400 (Eastern Daylight Time)","613695","Match,No Match","","null","","","","","","<div class='trialBorder'><div class='vertical-center'><img src='img/fixation2_sml.jpg'</img></div></div>","null","DELAY","","","","","","","","","","",""
"html-keyboard-response","78","244326","0.0-7.0-4.8","5aea7d94a110a00001f7e50e","bdp_wmem","Tue Mar 14 2023 21:33:35 GMT-0400 (Eastern Daylight Time)","613695","Match,No Match","","948","","","","","","<div class='trialBorder'><div class='targDiv'><div class='tc'><img class='introPic' src='trustrating_stim/white_mw038.bmp'><br><font color='red'><strong>Keep</strong></font></div></div><div class='respDiv'><div class='respDivL'>Match<br>(e)</div><div class='respDivR'>No Match<br>(i)</div></div></div>","i","TARGET","2","trustrating_stim/white_mw042.bmp,trustrating_stim/white_mw038.bmp","0,1","noMatchOutcome","i","3000","trustrating_stim/white_mw038.bmp","red","Keep","REAL","1"
"html-keyboard-response","79","244827","0.0-7.0-5.8","5aea7d94a110a00001f7e50e","bdp_wmem","Tue Mar 14 2023 21:33:35 GMT-0400 (Eastern Daylight Time)","613695","Match,No Match","","null","","","","","","<div class='trialBorder'><div class='vertical-center'><img src='img/correct.jpg'></div><div class='respDiv'><div class='respDivL'>Match<br>(e)</div><div class='respDivR'><font style='color:orange'>No Match<br>(i)</font></div></div></div>","null","FEEDBACK","","","","","","","","","","",""
"html-keyboard-response","80","245327","0.0-7.0-1.9","5aea7d94a110a00001f7e50e","bdp_wmem","Tue Mar 14 2023 21:33:35 GMT-0400 (Eastern Daylight Time)","613695","Match,No Match","","null","","","","","","<div class='trialBorder'><div class='vertical-center'><img src='img/fixation2_sml.jpg'</img></div></div>","null","FIX","","","","","","","","","","",""
"html-keyboard-response","81","246828","0.0-7.0-2.9","5aea7d94a110a00001f7e50e","bdp_wmem","Tue Mar 14 2023 21:33:35 GMT-0400 (Eastern Daylight Time)","613695","Match,No Match","","null","","","","","","<div class='trialBorder'><div class='vertical-center'><img style='vertical-align:center; align:center' src='img/fixation2_sml.jpg'></div><div class='arrayDiv1'><div class='tc'><img class='introPic' src='trustrating_stim/white_mw012.bmp'><br><font color='green'><strong>Share</strong></font></div></div></div>","null","ARRAY","1","trustrating_stim/white_mw012.bmp","1","noMatchOutcome","i","1500","","","","",""
"html-keyboard-response","82","250829","0.0-7.0-3.9","5aea7d94a110a00001f7e50e","bdp_wmem","Tue Mar 14 2023 21:33:35 GMT-0400 (Eastern Daylight Time)","613695","Match,No Match","","null","","","","","","<div class='trialBorder'><div class='vertical-center'><img src='img/fixation2_sml.jpg'</img></div></div>","null","DELAY","","","","","","","","","","",""
"html-keyboard-response","83","251915","0.0-7.0-4.9","5aea7d94a110a00001f7e50e","bdp_wmem","Tue Mar 14 2023 21:33:35 GMT-0400 (Eastern Daylight Time)","613695","Match,No Match","","1085","","","","","","<div class='trialBorder'><div class='targDiv'><div class='tc'><img class='introPic' src='trustrating_stim/white_mw012.bmp'><br><font color='red'><strong>Keep</strong></font></div></div><div class='respDiv'><div class='respDivL'>Match<br>(e)</div><div class='respDivR'>No Match<br>(i)</div></div></div>","i","TARGET","1","trustrating_stim/white_mw012.bmp","1","noMatchOutcome","i","1500","trustrating_stim/white_mw012.bmp","red","Keep","REAL","1"
"html-keyboard-response","84","252416","0.0-7.0-5.9","5aea7d94a110a00001f7e50e","bdp_wmem","Tue Mar 14 2023 21:33:35 GMT-0400 (Eastern Daylight Time)","613695","Match,No Match","","null","","","","","","<div class='trialBorder'><div class='vertical-center'><img src='img/correct.jpg'></div><div class='respDiv'><div class='respDivL'>Match<br>(e)</div><div class='respDivR'><font style='color:orange'>No Match<br>(i)</font></div></div></div>","null","FEEDBACK","","","","","","","","","","",""
"html-keyboard-response","85","252917","0.0-7.0-1.10","5aea7d94a110a00001f7e50e","bdp_wmem","Tue Mar 14 2023 21:33:35 GMT-0400 (Eastern Daylight Time)","613695","Match,No Match","","null","","","","","","<div class='trialBorder'><div class='vertical-center'><img src='img/fixation2_sml.jpg'</img></div></div>","null","FIX","","","","","","","","","","",""
"html-keyboard-response","86","255919","0.0-7.0-2.10","5aea7d94a110a00001f7e50e","bdp_wmem","Tue Mar 14 2023 21:33:35 GMT-0400 (Eastern Daylight Time)","613695","Match,No Match","","null","","","","","","<div class='trialBorder'><div class='vertical-center'><img style='vertical-align:center; align:center' src='img/fixation2_sml.jpg'></div><div class='arrayDiv2'><div class='tl'><img class='introPic' src='trustrating_stim/white_mw003.bmp'><br><font color='green'><strong>Share</strong></font></div><div class='tr'><img class='introPic' src='trustrating_stim/white_mw091.bmp'><br><font color='red'><strong>Keep</strong></font></div></div></div>","null","ARRAY","2","trustrating_stim/white_mw003.bmp,trustrating_stim/white_mw091.bmp","1,0","Match","e","3000","","","","",""
"html-keyboard-response","87","259920","0.0-7.0-3.10","5aea7d94a110a00001f7e50e","bdp_wmem","Tue Mar 14 2023 21:33:35 GMT-0400 (Eastern Daylight Time)","613695","Match,No Match","","null","","","","","","<div class='trialBorder'><div class='vertical-center'><img src='img/fixation2_sml.jpg'</img></div></div>","null","DELAY","","","","","","","","","","",""
"html-keyboard-response","88","261242","0.0-7.0-4.10","5aea7d94a110a00001f7e50e","bdp_wmem","Tue Mar 14 2023 21:33:35 GMT-0400 (Eastern Daylight Time)","613695","Match,No Match","","1321","","","","","","<div class='trialBorder'><div class='targDiv'><div class='tc'><img class='introPic' src='trustrating_stim/white_mw091.bmp'><br><font color='red'><strong>Keep</strong></font></div></div><div class='respDiv'><div class='respDivL'>Match<br>(e)</div><div class='respDivR'>No Match<br>(i)</div></div></div>","i","TARGET","2","trustrating_stim/white_mw003.bmp,trustrating_stim/white_mw091.bmp","1,0","Match","e","3000","trustrating_stim/white_mw091.bmp","red","Keep","REAL","0"
"html-keyboard-response","89","261743","0.0-7.0-5.10","5aea7d94a110a00001f7e50e","bdp_wmem","Tue Mar 14 2023 21:33:35 GMT-0400 (Eastern Daylight Time)","613695","Match,No Match","","null","","","","","","<div class='trialBorder'><div class='vertical-center'><img src='img/error.jpg'></div><div class='respDiv'><div class='respDivL'>Match<br>(e)</div><div class='respDivR'><font style='color:orange'>No Match<br>(i)</font></div></div></div>","null","FEEDBACK","","","","","","","","","","",""
"html-keyboard-response","90","262244","0.0-7.0-1.11","5aea7d94a110a00001f7e50e","bdp_wmem","Tue Mar 14 2023 21:33:35 GMT-0400 (Eastern Daylight Time)","613695","Match,No Match","","null","","","","","","<div class='trialBorder'><div class='vertical-center'><img src='img/fixation2_sml.jpg'</img></div></div>","null","FIX","","","","","","","","","","",""
"html-keyboard-response","91","263745","0.0-7.0-2.11","5aea7d94a110a00001f7e50e","bdp_wmem","Tue Mar 14 2023 21:33:35 GMT-0400 (Eastern Daylight Time)","613695","Match,No Match","","null","","","","","","<div class='trialBorder'><div class='vertical-center'><img style='vertical-align:center; align:center' src='img/fixation2_sml.jpg'></div><div class='arrayDiv1'><div class='tc'><img class='introPic' src='trustrating_stim/white_mw010.bmp'><br><font color='green'><strong>Share</strong></font></div></div></div>","null","ARRAY","1","trustrating_stim/white_mw010.bmp","1","noMatchFace","i","1500","","","","",""
"html-keyboard-response","92","267746","0.0-7.0-3.11","5aea7d94a110a00001f7e50e","bdp_wmem","Tue Mar 14 2023 21:33:35 GMT-0400 (Eastern Daylight Time)","613695","Match,No Match","","null","","","","","","<div class='trialBorder'><div class='vertical-center'><img src='img/fixation2_sml.jpg'</img></div></div>","null","DELAY","","","","","","","","","","",""
"html-keyboard-response","93","268563","0.0-7.0-4.11","5aea7d94a110a00001f7e50e","bdp_wmem","Tue Mar 14 2023 21:33:35 GMT-0400 (Eastern Daylight Time)","613695","Match,No Match","","817","","","","","","<div class='trialBorder'><div class='targDiv'><div class='tc'><img class='introPic' src='trustrating_stim/white_mw040.bmp'><br><font color='green'><strong>Share</strong></font></div></div><div class='respDiv'><div class='respDivL'>Match<br>(e)</div><div class='respDivR'>No Match<br>(i)</div></div></div>","i","TARGET","1","trustrating_stim/white_mw010.bmp","1","noMatchFace","i","1500","trustrating_stim/white_mw040.bmp","green","Share","REAL","1"
"html-keyboard-response","94","269072","0.0-7.0-5.11","5aea7d94a110a00001f7e50e","bdp_wmem","Tue Mar 14 2023 21:33:35 GMT-0400 (Eastern Daylight Time)","613695","Match,No Match","","null","","","","","","<div class='trialBorder'><div class='vertical-center'><img src='img/correct.jpg'></div><div class='respDiv'><div class='respDivL'>Match<br>(e)</div><div class='respDivR'><font style='color:orange'>No Match<br>(i)</font></div></div></div>","null","FEEDBACK","","","","","","","","","","",""
"html-keyboard-response","95","269573","0.0-7.0-1.12","5aea7d94a110a00001f7e50e","bdp_wmem","Tue Mar 14 2023 21:33:35 GMT-0400 (Eastern Daylight Time)","613695","Match,No Match","","null","","","","","","<div class='trialBorder'><div class='vertical-center'><img src='img/fixation2_sml.jpg'</img></div></div>","null","FIX","","","","","","","","","","",""
"html-keyboard-response","96","272575","0.0-7.0-2.12","5aea7d94a110a00001f7e50e","bdp_wmem","Tue Mar 14 2023 21:33:35 GMT-0400 (Eastern Daylight Time)","613695","Match,No Match","","null","","","","","","<div class='trialBorder'><div class='vertical-center'><img style='vertical-align:center; align:center' src='img/fixation2_sml.jpg'></div><div class='arrayDiv2'><div class='tl'><img class='introPic' src='trustrating_stim/white_mw070.bmp'><br><font color='red'><strong>Keep</strong></font></div><div class='tr'><img class='introPic' src='trustrating_stim/white_mw091.bmp'><br><font color='green'><strong>Share</strong></font></div></div></div>","null","ARRAY","2","trustrating_stim/white_mw070.bmp,trustrating_stim/white_mw091.bmp","0,1","noMatchFace","i","3000","","","","",""
"html-keyboard-response","97","276576","0.0-7.0-3.12","5aea7d94a110a00001f7e50e","bdp_wmem","Tue Mar 14 2023 21:33:35 GMT-0400 (Eastern Daylight Time)","613695","Match,No Match","","null","","","","","","<div class='trialBorder'><div class='vertical-center'><img src='img/fixation2_sml.jpg'</img></div></div>","null","DELAY","","","","","","","","","","",""
"html-keyboard-response","98","277602","0.0-7.0-4.12","5aea7d94a110a00001f7e50e","bdp_wmem","Tue Mar 14 2023 21:33:35 GMT-0400 (Eastern Daylight Time)","613695","Match,No Match","","1025","","","","","","<div class='trialBorder'><div class='targDiv'><div class='tc'><img class='introPic' src='trustrating_stim/white_mw038.bmp'><br><font color='green'><strong>Share</strong></font></div></div><div class='respDiv'><div class='respDivL'>Match<br>(e)</div><div class='respDivR'>No Match<br>(i)</div></div></div>","i","TARGET","2","trustrating_stim/white_mw070.bmp,trustrating_stim/white_mw091.bmp","0,1","noMatchFace","i","3000","trustrating_stim/white_mw038.bmp","green","Share","REAL","1"
"html-keyboard-response","99","278102","0.0-7.0-5.12","5aea7d94a110a00001f7e50e","bdp_wmem","Tue Mar 14 2023 21:33:35 GMT-0400 (Eastern Daylight Time)","613695","Match,No Match","","null","","","","","","<div class='trialBorder'><div class='vertical-center'><img src='img/correct.jpg'></div><div class='respDiv'><div class='respDivL'>Match<br>(e)</div><div class='respDivR'><font style='color:orange'>No Match<br>(i)</font></div></div></div>","null","FEEDBACK","","","","","","","","","","",""
"html-keyboard-response","100","278604","0.0-7.0-1.13","5aea7d94a110a00001f7e50e","bdp_wmem","Tue Mar 14 2023 21:33:35 GMT-0400 (Eastern Daylight Time)","613695","Match,No Match","","null","","","","","","<div class='trialBorder'><div class='vertical-center'><img src='img/fixation2_sml.jpg'</img></div></div>","null","FIX","","","","","","","","","","",""
"html-keyboard-response","101","280106","0.0-7.0-2.13","5aea7d94a110a00001f7e50e","bdp_wmem","Tue Mar 14 2023 21:33:35 GMT-0400 (Eastern Daylight Time)","613695","Match,No Match","","null","","","","","","<div class='trialBorder'><div class='vertical-center'><img style='vertical-align:center; align:center' src='img/fixation2_sml.jpg'></div><div class='arrayDiv1'><div class='tc'><img class='introPic' src='trustrating_stim/white_mw042.bmp'><br><font color='green'><strong>Share</strong></font></div></div></div>","null","ARRAY","1","trustrating_stim/white_mw042.bmp","1","noMatchOutcome","i","1500","","","","",""
"html-keyboard-response","102","284107","0.0-7.0-3.13","5aea7d94a110a00001f7e50e","bdp_wmem","Tue Mar 14 2023 21:33:35 GMT-0400 (Eastern Daylight Time)","613695","Match,No Match","","null","","","","","","<div class='trialBorder'><div class='vertical-center'><img src='img/fixation2_sml.jpg'</img></div></div>","null","DELAY","","","","","","","","","","",""
"html-keyboard-response","103","285246","0.0-7.0-4.13","5aea7d94a110a00001f7e50e","bdp_wmem","Tue Mar 14 2023 21:33:35 GMT-0400 (Eastern Daylight Time)","613695","Match,No Match","","1138","","","","","","<div class='trialBorder'><div class='targDiv'><div class='tc'><img class='introPic' src='trustrating_stim/white_mw042.bmp'><br><font color='red'><strong>Keep</strong></font></div></div><div class='respDiv'><div class='respDivL'>Match<br>(e)</div><div class='respDivR'>No Match<br>(i)</div></div></div>","i","TARGET","1","trustrating_stim/white_mw042.bmp","1","noMatchOutcome","i","1500","trustrating_stim/white_mw042.bmp","red","Keep","REAL","1"
"html-keyboard-response","104","285747","0.0-7.0-5.13","5aea7d94a110a00001f7e50e","bdp_wmem","Tue Mar 14 2023 21:33:35 GMT-0400 (Eastern Daylight Time)","613695","Match,No Match","","null","","","","","","<div class='trialBorder'><div class='vertical-center'><img src='img/correct.jpg'></div><div class='respDiv'><div class='respDivL'>Match<br>(e)</div><div class='respDivR'><font style='color:orange'>No Match<br>(i)</font></div></div></div>","null","FEEDBACK","","","","","","","","","","",""
"html-keyboard-response","105","286249","0.0-7.0-1.14","5aea7d94a110a00001f7e50e","bdp_wmem","Tue Mar 14 2023 21:33:35 GMT-0400 (Eastern Daylight Time)","613695","Match,No Match","","null","","","","","","<div class='trialBorder'><div class='vertical-center'><img src='img/fixation2_sml.jpg'</img></div></div>","null","FIX","","","","","","","","","","",""
"html-keyboard-response","106","290751","0.0-7.0-2.14","5aea7d94a110a00001f7e50e","bdp_wmem","Tue Mar 14 2023 21:33:35 GMT-0400 (Eastern Daylight Time)","613695","Match,No Match","","null","","","","","","<div class='trialBorder'><div class='vertical-center'><img style='vertical-align:center; align:center' src='img/fixation2_sml.jpg'></div><div class='arrayDiv3'><div class='tl'><img class='introPic' src='trustrating_stim/white_mw091.bmp'><br><font color='green'><strong>Share</strong></font></div><div class='tc'><img class='introPic' src='trustrating_stim/white_mw038.bmp'><br><font color='red'><strong>Keep</strong></font></div><div class='tr'><img class='introPic' src='trustrating_stim/white_mw003.bmp'><br><font color='green'><strong>Share</strong></font></div></div></div>","null","ARRAY","3","trustrating_stim/white_mw091.bmp,trustrating_stim/white_mw038.bmp,trustrating_stim/white_mw003.bmp","1,0,1","Match","e","4500","","","","",""
"html-keyboard-response","107","294752","0.0-7.0-3.14","5aea7d94a110a00001f7e50e","bdp_wmem","Tue Mar 14 2023 21:33:35 GMT-0400 (Eastern Daylight Time)","613695","Match,No Match","","null","","","","","","<div class='trialBorder'><div class='vertical-center'><img src='img/fixation2_sml.jpg'</img></div></div>","null","DELAY","","","","","","","","","","",""
"html-keyboard-response","108","296464","0.0-7.0-4.14","5aea7d94a110a00001f7e50e","bdp_wmem","Tue Mar 14 2023 21:33:35 GMT-0400 (Eastern Daylight Time)","613695","Match,No Match","","1711","","","","","","<div class='trialBorder'><div class='targDiv'><div class='tc'><img class='introPic' src='trustrating_stim/white_mw091.bmp'><br><font color='green'><strong>Share</strong></font></div></div><div class='respDiv'><div class='respDivL'>Match<br>(e)</div><div class='respDivR'>No Match<br>(i)</div></div></div>","e","TARGET","3","trustrating_stim/white_mw091.bmp,trustrating_stim/white_mw038.bmp,trustrating_stim/white_mw003.bmp","1,0,1","Match","e","4500","trustrating_stim/white_mw091.bmp","green","Share","REAL","1"
"html-keyboard-response","109","296965","0.0-7.0-5.14","5aea7d94a110a00001f7e50e","bdp_wmem","Tue Mar 14 2023 21:33:35 GMT-0400 (Eastern Daylight Time)","613695","Match,No Match","","null","","","","","","<div class='trialBorder'><div class='vertical-center'><img src='img/correct.jpg'></div><div class='respDiv'><div class='respDivL'><font style='color:orange'>Match<br>(e)</font></div><div class='respDivR'>No Match<br>(i)</div></div></div>","null","FEEDBACK","","","","","","","","","","",""
"html-keyboard-response","110","297467","0.0-7.0-1.15","5aea7d94a110a00001f7e50e","bdp_wmem","Tue Mar 14 2023 21:33:35 GMT-0400 (Eastern Daylight Time)","613695","Match,No Match","","null","","","","","","<div class='trialBorder'><div class='vertical-center'><img src='img/fixation2_sml.jpg'</img></div></div>","null","FIX","","","","","","","","","","",""
"html-keyboard-response","111","301968","0.0-7.0-2.15","5aea7d94a110a00001f7e50e","bdp_wmem","Tue Mar 14 2023 21:33:35 GMT-0400 (Eastern Daylight Time)","613695","Match,No Match","","null","","","","","","<div class='trialBorder'><div class='vertical-center'><img style='vertical-align:center; align:center' src='img/fixation2_sml.jpg'></div><div class='arrayDiv3'><div class='tl'><img class='introPic' src='trustrating_stim/white_mw010.bmp'><br><font color='green'><strong>Share</strong></font></div><div class='tc'><img class='introPic' src='trustrating_stim/white_mw003.bmp'><br><font color='green'><strong>Share</strong></font></div><div class='tr'><img class='introPic' src='trustrating_stim/white_mw091.bmp'><br><font color='red'><strong>Keep</strong></font></div></div></div>","null","ARRAY","3","trustrating_stim/white_mw010.bmp,trustrating_stim/white_mw003.bmp,trustrating_stim/white_mw091.bmp","1,1,0","noMatchFace","i","4500","","","","",""
"html-keyboard-response","112","305970","0.0-7.0-3.15","5aea7d94a110a00001f7e50e","bdp_wmem","Tue Mar 14 2023 21:33:35 GMT-0400 (Eastern Daylight Time)","613695","Match,No Match","","null","","","","","","<div class='trialBorder'><div class='vertical-center'><img src='img/fixation2_sml.jpg'</img></div></div>","null","DELAY","","","","","","","","","","",""
"html-keyboard-response","113","307190","0.0-7.0-4.15","5aea7d94a110a00001f7e50e","bdp_wmem","Tue Mar 14 2023 21:33:35 GMT-0400 (Eastern Daylight Time)","613695","Match,No Match","","1220","","","","","","<div class='trialBorder'><div class='targDiv'><div class='tc'><img class='introPic' src='trustrating_stim/white_mw040.bmp'><br><font color='red'><strong>Keep</strong></font></div></div><div class='respDiv'><div class='respDivL'>Match<br>(e)</div><div class='respDivR'>No Match<br>(i)</div></div></div>","i","TARGET","3","trustrating_stim/white_mw010.bmp,trustrating_stim/white_mw003.bmp,trustrating_stim/white_mw091.bmp","1,1,0","noMatchFace","i","4500","trustrating_stim/white_mw040.bmp","red","Keep","REAL","1"
"html-keyboard-response","114","307691","0.0-7.0-5.15","5aea7d94a110a00001f7e50e","bdp_wmem","Tue Mar 14 2023 21:33:35 GMT-0400 (Eastern Daylight Time)","613695","Match,No Match","","null","","","","","","<div class='trialBorder'><div class='vertical-center'><img src='img/correct.jpg'></div><div class='respDiv'><div class='respDivL'>Match<br>(e)</div><div class='respDivR'><font style='color:orange'>No Match<br>(i)</font></div></div></div>","null","FEEDBACK","","","","","","","","","","",""
"html-keyboard-response","115","308193","0.0-7.0-1.16","5aea7d94a110a00001f7e50e","bdp_wmem","Tue Mar 14 2023 21:33:35 GMT-0400 (Eastern Daylight Time)","613695","Match,No Match","","null","","","","","","<div class='trialBorder'><div class='vertical-center'><img src='img/fixation2_sml.jpg'</img></div></div>","null","FIX","","","","","","","","","","",""
"html-keyboard-response","116","309695","0.0-7.0-2.16","5aea7d94a110a00001f7e50e","bdp_wmem","Tue Mar 14 2023 21:33:35 GMT-0400 (Eastern Daylight Time)","613695","Match,No Match","","null","","","","","","<div class='trialBorder'><div class='vertical-center'><img style='vertical-align:center; align:center' src='img/fixation2_sml.jpg'></div><div class='arrayDiv1'><div class='tc'><img class='introPic' src='trustrating_stim/white_mw038.bmp'><br><font color='red'><strong>Keep</strong></font></div></div></div>","null","ARRAY","1","trustrating_stim/white_mw038.bmp","0","noMatchFace","i","1500","","","","",""
"html-keyboard-response","117","313696","0.0-7.0-3.16","5aea7d94a110a00001f7e50e","bdp_wmem","Tue Mar 14 2023 21:33:35 GMT-0400 (Eastern Daylight Time)","613695","Match,No Match","","null","","","","","","<div class='trialBorder'><div class='vertical-center'><img src='img/fixation2_sml.jpg'</img></div></div>","null","DELAY","","","","","","","","","","",""
"html-keyboard-response","118","314490","0.0-7.0-4.16","5aea7d94a110a00001f7e50e","bdp_wmem","Tue Mar 14 2023 21:33:35 GMT-0400 (Eastern Daylight Time)","613695","Match,No Match","","794","","","","","","<div class='trialBorder'><div class='targDiv'><div class='tc'><img class='introPic' src='trustrating_stim/white_mw040.bmp'><br><font color='red'><strong>Keep</strong></font></div></div><div class='respDiv'><div class='respDivL'>Match<br>(e)</div><div class='respDivR'>No Match<br>(i)</div></div></div>","i","TARGET","1","trustrating_stim/white_mw038.bmp","0","noMatchFace","i","1500","trustrating_stim/white_mw040.bmp","red","Keep","REAL","1"
"html-keyboard-response","119","314991","0.0-7.0-5.16","5aea7d94a110a00001f7e50e","bdp_wmem","Tue Mar 14 2023 21:33:35 GMT-0400 (Eastern Daylight Time)","613695","Match,No Match","","null","","","","","","<div class='trialBorder'><div class='vertical-center'><img src='img/correct.jpg'></div><div class='respDiv'><div class='respDivL'>Match<br>(e)</div><div class='respDivR'><font style='color:orange'>No Match<br>(i)</font></div></div></div>","null","FEEDBACK","","","","","","","","","","",""
"html-keyboard-response","120","315493","0.0-7.0-1.17","5aea7d94a110a00001f7e50e","bdp_wmem","Tue Mar 14 2023 21:33:35 GMT-0400 (Eastern Daylight Time)","613695","Match,No Match","","null","","","","","","<div class='trialBorder'><div class='vertical-center'><img src='img/fixation2_sml.jpg'</img></div></div>","null","FIX","","","","","","","","","","",""
"html-keyboard-response","121","316995","0.0-7.0-2.17","5aea7d94a110a00001f7e50e","bdp_wmem","Tue Mar 14 2023 21:33:35 GMT-0400 (Eastern Daylight Time)","613695","Match,No Match","","null","","","","","","<div class='trialBorder'><div class='vertical-center'><img style='vertical-align:center; align:center' src='img/fixation2_sml.jpg'></div><div class='arrayDiv1'><div class='tc'><img class='introPic' src='trustrating_stim/white_mw070.bmp'><br><font color='red'><strong>Keep</strong></font></div></div></div>","null","ARRAY","1","trustrating_stim/white_mw070.bmp","0","Match","e","1500","","","","",""
"html-keyboard-response","122","320996","0.0-7.0-3.17","5aea7d94a110a00001f7e50e","bdp_wmem","Tue Mar 14 2023 21:33:35 GMT-0400 (Eastern Daylight Time)","613695","Match,No Match","","null","","","","","","<div class='trialBorder'><div class='vertical-center'><img src='img/fixation2_sml.jpg'</img></div></div>","null","DELAY","","","","","","","","","","",""
"html-keyboard-response","123","322210","0.0-7.0-4.17","5aea7d94a110a00001f7e50e","bdp_wmem","Tue Mar 14 2023 21:33:35 GMT-0400 (Eastern Daylight Time)","613695","Match,No Match","","1214","","","","","","<div class='trialBorder'><div class='targDiv'><div class='tc'><img class='introPic' src='trustrating_stim/white_mw070.bmp'><br><font color='red'><strong>Keep</strong></font></div></div><div class='respDiv'><div class='respDivL'>Match<br>(e)</div><div class='respDivR'>No Match<br>(i)</div></div></div>","e","TARGET","1","trustrating_stim/white_mw070.bmp","0","Match","e","1500","trustrating_stim/white_mw070.bmp","red","Keep","REAL","1"
"html-keyboard-response","124","322711","0.0-7.0-5.17","5aea7d94a110a00001f7e50e","bdp_wmem","Tue Mar 14 2023 21:33:35 GMT-0400 (Eastern Daylight Time)","613695","Match,No Match","","null","","","","","","<div class='trialBorder'><div class='vertical-center'><img src='img/correct.jpg'></div><div class='respDiv'><div class='respDivL'><font style='color:orange'>Match<br>(e)</font></div><div class='respDivR'>No Match<br>(i)</div></div></div>","null","FEEDBACK","","","","","","","","","","",""
"html-keyboard-response","125","323213","0.0-7.0-1.18","5aea7d94a110a00001f7e50e","bdp_wmem","Tue Mar 14 2023 21:33:35 GMT-0400 (Eastern Daylight Time)","613695","Match,No Match","","null","","","","","","<div class='trialBorder'><div class='vertical-center'><img src='img/fixation2_sml.jpg'</img></div></div>","null","FIX","","","","","","","","","","",""
"html-keyboard-response","126","324714","0.0-7.0-2.18","5aea7d94a110a00001f7e50e","bdp_wmem","Tue Mar 14 2023 21:33:35 GMT-0400 (Eastern Daylight Time)","613695","Match,No Match","","null","","","","","","<div class='trialBorder'><div class='vertical-center'><img style='vertical-align:center; align:center' src='img/fixation2_sml.jpg'></div><div class='arrayDiv1'><div class='tc'><img class='introPic' src='trustrating_stim/white_mw092.bmp'><br><font color='red'><strong>Keep</strong></font></div></div></div>","null","ARRAY","1","trustrating_stim/white_mw092.bmp","0","Match","e","1500","","","","",""
"html-keyboard-response","127","328716","0.0-7.0-3.18","5aea7d94a110a00001f7e50e","bdp_wmem","Tue Mar 14 2023 21:33:35 GMT-0400 (Eastern Daylight Time)","613695","Match,No Match","","null","","","","","","<div class='trialBorder'><div class='vertical-center'><img src='img/fixation2_sml.jpg'</img></div></div>","null","DELAY","","","","","","","","","","",""
"html-keyboard-response","128","329956","0.0-7.0-4.18","5aea7d94a110a00001f7e50e","bdp_wmem","Tue Mar 14 2023 21:33:35 GMT-0400 (Eastern Daylight Time)","613695","Match,No Match","","1239","","","","","","<div class='trialBorder'><div class='targDiv'><div class='tc'><img class='introPic' src='trustrating_stim/white_mw092.bmp'><br><font color='red'><strong>Keep</strong></font></div></div><div class='respDiv'><div class='respDivL'>Match<br>(e)</div><div class='respDivR'>No Match<br>(i)</div></div></div>","e","TARGET","1","trustrating_stim/white_mw092.bmp","0","Match","e","1500","trustrating_stim/white_mw092.bmp","red","Keep","REAL","1"
"html-keyboard-response","129","330457","0.0-7.0-5.18","5aea7d94a110a00001f7e50e","bdp_wmem","Tue Mar 14 2023 21:33:35 GMT-0400 (Eastern Daylight Time)","613695","Match,No Match","","null","","","","","","<div class='trialBorder'><div class='vertical-center'><img src='img/correct.jpg'></div><div class='respDiv'><div class='respDivL'><font style='color:orange'>Match<br>(e)</font></div><div class='respDivR'>No Match<br>(i)</div></div></div>","null","FEEDBACK","","","","","","","","","","",""
"html-keyboard-response","130","330959","0.0-7.0-1.19","5aea7d94a110a00001f7e50e","bdp_wmem","Tue Mar 14 2023 21:33:35 GMT-0400 (Eastern Daylight Time)","613695","Match,No Match","","null","","","","","","<div class='trialBorder'><div class='vertical-center'><img src='img/fixation2_sml.jpg'</img></div></div>","null","FIX","","","","","","","","","","",""
"html-keyboard-response","131","332461","0.0-7.0-2.19","5aea7d94a110a00001f7e50e","bdp_wmem","Tue Mar 14 2023 21:33:35 GMT-0400 (Eastern Daylight Time)","613695","Match,No Match","","null","","","","","","<div class='trialBorder'><div class='vertical-center'><img style='vertical-align:center; align:center' src='img/fixation2_sml.jpg'></div><div class='arrayDiv1'><div class='tc'><img class='introPic' src='trustrating_stim/white_mw070.bmp'><br><font color='green'><strong>Share</strong></font></div></div></div>","null","ARRAY","1","trustrating_stim/white_mw070.bmp","1","Match","e","1500","","","","",""
"html-keyboard-response","132","336463","0.0-7.0-3.19","5aea7d94a110a00001f7e50e","bdp_wmem","Tue Mar 14 2023 21:33:35 GMT-0400 (Eastern Daylight Time)","613695","Match,No Match","","null","","","","","","<div class='trialBorder'><div class='vertical-center'><img src='img/fixation2_sml.jpg'</img></div></div>","null","DELAY","","","","","","","","","","",""
"html-keyboard-response","133","337781","0.0-7.0-4.19","5aea7d94a110a00001f7e50e","bdp_wmem","Tue Mar 14 2023 21:33:35 GMT-0400 (Eastern Daylight Time)","613695","Match,No Match","","1317","","","","","","<div class='trialBorder'><div class='targDiv'><div class='tc'><img class='introPic' src='trustrating_stim/white_mw070.bmp'><br><font color='green'><strong>Share</strong></font></div></div><div class='respDiv'><div class='respDivL'>Match<br>(e)</div><div class='respDivR'>No Match<br>(i)</div></div></div>","e","TARGET","1","trustrating_stim/white_mw070.bmp","1","Match","e","1500","trustrating_stim/white_mw070.bmp","green","Share","REAL","1"
"html-keyboard-response","134","338282","0.0-7.0-5.19","5aea7d94a110a00001f7e50e","bdp_wmem","Tue Mar 14 2023 21:33:35 GMT-0400 (Eastern Daylight Time)","613695","Match,No Match","","null","","","","","","<div class='trialBorder'><div class='vertical-center'><img src='img/correct.jpg'></div><div class='respDiv'><div class='respDivL'><font style='color:orange'>Match<br>(e)</font></div><div class='respDivR'>No Match<br>(i)</div></div></div>","null","FEEDBACK","","","","","","","","","","",""
"html-keyboard-response","135","338784","0.0-7.0-1.20","5aea7d94a110a00001f7e50e","bdp_wmem","Tue Mar 14 2023 21:33:35 GMT-0400 (Eastern Daylight Time)","613695","Match,No Match","","null","","","","","","<div class='trialBorder'><div class='vertical-center'><img src='img/fixation2_sml.jpg'</img></div></div>","null","FIX","","","","","","","","","","",""
"html-keyboard-response","136","340284","0.0-7.0-2.20","5aea7d94a110a00001f7e50e","bdp_wmem","Tue Mar 14 2023 21:33:35 GMT-0400 (Eastern Daylight Time)","613695","Match,No Match","","null","","","","","","<div class='trialBorder'><div class='vertical-center'><img style='vertical-align:center; align:center' src='img/fixation2_sml.jpg'></div><div class='arrayDiv1'><div class='tc'><img class='introPic' src='trustrating_stim/white_mw070.bmp'><br><font color='red'><strong>Keep</strong></font></div></div></div>","null","ARRAY","1","trustrating_stim/white_mw070.bmp","0","Match","e","1500","","","","",""
"html-keyboard-response","137","344286","0.0-7.0-3.20","5aea7d94a110a00001f7e50e","bdp_wmem","Tue Mar 14 2023 21:33:35 GMT-0400 (Eastern Daylight Time)","613695","Match,No Match","","null","","","","","","<div class='trialBorder'><div class='vertical-center'><img src='img/fixation2_sml.jpg'</img></div></div>","null","DELAY","","","","","","","","","","",""
"html-keyboard-response","138","345267","0.0-7.0-4.20","5aea7d94a110a00001f7e50e","bdp_wmem","Tue Mar 14 2023 21:33:35 GMT-0400 (Eastern Daylight Time)","613695","Match,No Match","","981","","","","","","<div class='trialBorder'><div class='targDiv'><div class='tc'><img class='introPic' src='trustrating_stim/white_mw070.bmp'><br><font color='red'><strong>Keep</strong></font></div></div><div class='respDiv'><div class='respDivL'>Match<br>(e)</div><div class='respDivR'>No Match<br>(i)</div></div></div>","e","TARGET","1","trustrating_stim/white_mw070.bmp","0","Match","e","1500","trustrating_stim/white_mw070.bmp","red","Keep","REAL","1"
"html-keyboard-response","139","345768","0.0-7.0-5.20","5aea7d94a110a00001f7e50e","bdp_wmem","Tue Mar 14 2023 21:33:35 GMT-0400 (Eastern Daylight Time)","613695","Match,No Match","","null","","","","","","<div class='trialBorder'><div class='vertical-center'><img src='img/correct.jpg'></div><div class='respDiv'><div class='respDivL'><font style='color:orange'>Match<br>(e)</font></div><div class='respDivR'>No Match<br>(i)</div></div></div>","null","FEEDBACK","","","","","","","","","","",""
"html-keyboard-response","140","346269","0.0-7.0-1.21","5aea7d94a110a00001f7e50e","bdp_wmem","Tue Mar 14 2023 21:33:35 GMT-0400 (Eastern Daylight Time)","613695","Match,No Match","","null","","","","","","<div class='trialBorder'><div class='vertical-center'><img src='img/fixation2_sml.jpg'</img></div></div>","null","FIX","","","","","","","","","","",""
"html-keyboard-response","141","347771","0.0-7.0-2.21","5aea7d94a110a00001f7e50e","bdp_wmem","Tue Mar 14 2023 21:33:35 GMT-0400 (Eastern Daylight Time)","613695","Match,No Match","","null","","","","","","<div class='trialBorder'><div class='vertical-center'><img style='vertical-align:center; align:center' src='img/fixation2_sml.jpg'></div><div class='arrayDiv1'><div class='tc'><img class='introPic' src='trustrating_stim/white_mw012.bmp'><br><font color='red'><strong>Keep</strong></font></div></div></div>","null","ARRAY","1","trustrating_stim/white_mw012.bmp","0","noMatchOutcome","i","1500","","","","",""
"html-keyboard-response","142","351772","0.0-7.0-3.21","5aea7d94a110a00001f7e50e","bdp_wmem","Tue Mar 14 2023 21:33:35 GMT-0400 (Eastern Daylight Time)","613695","Match,No Match","","null","","","","","","<div class='trialBorder'><div class='vertical-center'><img src='img/fixation2_sml.jpg'</img></div></div>","null","DELAY","","","","","","","","","","",""
"html-keyboard-response","143","352689","0.0-7.0-4.21","5aea7d94a110a00001f7e50e","bdp_wmem","Tue Mar 14 2023 21:33:35 GMT-0400 (Eastern Daylight Time)","613695","Match,No Match","","916","","","","","","<div class='trialBorder'><div class='targDiv'><div class='tc'><img class='introPic' src='trustrating_stim/white_mw012.bmp'><br><font color='green'><strong>Share</strong></font></div></div><div class='respDiv'><div class='respDivL'>Match<br>(e)</div><div class='respDivR'>No Match<br>(i)</div></div></div>","i","TARGET","1","trustrating_stim/white_mw012.bmp","0","noMatchOutcome","i","1500","trustrating_stim/white_mw012.bmp","green","Share","REAL","1"
"html-keyboard-response","144","353196","0.0-7.0-5.21","5aea7d94a110a00001f7e50e","bdp_wmem","Tue Mar 14 2023 21:33:35 GMT-0400 (Eastern Daylight Time)","613695","Match,No Match","","null","","","","","","<div class='trialBorder'><div class='vertical-center'><img src='img/correct.jpg'></div><div class='respDiv'><div class='respDivL'>Match<br>(e)</div><div class='respDivR'><font style='color:orange'>No Match<br>(i)</font></div></div></div>","null","FEEDBACK","","","","","","","","","","",""
"html-keyboard-response","145","353698","0.0-7.0-1.22","5aea7d94a110a00001f7e50e","bdp_wmem","Tue Mar 14 2023 21:33:35 GMT-0400 (Eastern Daylight Time)","613695","Match,No Match","","null","","","","","","<div class='trialBorder'><div class='vertical-center'><img src='img/fixation2_sml.jpg'</img></div></div>","null","FIX","","","","","","","","","","",""
"html-keyboard-response","146","358198","0.0-7.0-2.22","5aea7d94a110a00001f7e50e","bdp_wmem","Tue Mar 14 2023 21:33:35 GMT-0400 (Eastern Daylight Time)","613695","Match,No Match","","null","","","","","","<div class='trialBorder'><div class='vertical-center'><img style='vertical-align:center; align:center' src='img/fixation2_sml.jpg'></div><div class='arrayDiv3'><div class='tl'><img class='introPic' src='trustrating_stim/white_mw003.bmp'><br><font color='green'><strong>Share</strong></font></div><div class='tc'><img class='introPic' src='trustrating_stim/white_mw012.bmp'><br><font color='red'><strong>Keep</strong></font></div><div class='tr'><img class='introPic' src='trustrating_stim/white_mw010.bmp'><br><font color='red'><strong>Keep</strong></font></div></div></div>","null","ARRAY","3","trustrating_stim/white_mw003.bmp,trustrating_stim/white_mw012.bmp,trustrating_stim/white_mw010.bmp","1,0,0","Match","e","4500","","","","",""
"html-keyboard-response","147","362200","0.0-7.0-3.22","5aea7d94a110a00001f7e50e","bdp_wmem","Tue Mar 14 2023 21:33:35 GMT-0400 (Eastern Daylight Time)","613695","Match,No Match","","null","","","","","","<div class='trialBorder'><div class='vertical-center'><img src='img/fixation2_sml.jpg'</img></div></div>","null","DELAY","","","","","","","","","","",""
"html-keyboard-response","148","365523","0.0-7.0-4.22","5aea7d94a110a00001f7e50e","bdp_wmem","Tue Mar 14 2023 21:33:35 GMT-0400 (Eastern Daylight Time)","613695","Match,No Match","","3322","","","","","","<div class='trialBorder'><div class='targDiv'><div class='tc'><img class='introPic' src='trustrating_stim/white_mw003.bmp'><br><font color='green'><strong>Share</strong></font></div></div><div class='respDiv'><div class='respDivL'>Match<br>(e)</div><div class='respDivR'>No Match<br>(i)</div></div></div>","e","TARGET","3","trustrating_stim/white_mw003.bmp,trustrating_stim/white_mw012.bmp,trustrating_stim/white_mw010.bmp","1,0,0","Match","e","4500","trustrating_stim/white_mw003.bmp","green","Share","REAL","1"
"html-keyboard-response","149","366038","0.0-7.0-5.22","5aea7d94a110a00001f7e50e","bdp_wmem","Tue Mar 14 2023 21:33:35 GMT-0400 (Eastern Daylight Time)","613695","Match,No Match","","null","","","","","","<div class='trialBorder'><div class='vertical-center'><img src='img/correct.jpg'></div><div class='respDiv'><div class='respDivL'><font style='color:orange'>Match<br>(e)</font></div><div class='respDivR'>No Match<br>(i)</div></div></div>","null","FEEDBACK","","","","","","","","","","",""
"html-keyboard-response","150","366539","0.0-7.0-1.23","5aea7d94a110a00001f7e50e","bdp_wmem","Tue Mar 14 2023 21:33:35 GMT-0400 (Eastern Daylight Time)","613695","Match,No Match","","null","","","","","","<div class='trialBorder'><div class='vertical-center'><img src='img/fixation2_sml.jpg'</img></div></div>","null","FIX","","","","","","","","","","",""
"html-keyboard-response","151","368040","0.0-7.0-2.23","5aea7d94a110a00001f7e50e","bdp_wmem","Tue Mar 14 2023 21:33:35 GMT-0400 (Eastern Daylight Time)","613695","Match,No Match","","null","","","","","","<div class='trialBorder'><div class='vertical-center'><img style='vertical-align:center; align:center' src='img/fixation2_sml.jpg'></div><div class='arrayDiv1'><div class='tc'><img class='introPic' src='trustrating_stim/white_mw013.bmp'><br><font color='red'><strong>Keep</strong></font></div></div></div>","null","ARRAY","1","trustrating_stim/white_mw013.bmp","0","noMatchFace","i","1500","","","","",""
"html-keyboard-response","152","372041","0.0-7.0-3.23","5aea7d94a110a00001f7e50e","bdp_wmem","Tue Mar 14 2023 21:33:35 GMT-0400 (Eastern Daylight Time)","613695","Match,No Match","","null","","","","","","<div class='trialBorder'><div class='vertical-center'><img src='img/fixation2_sml.jpg'</img></div></div>","null","DELAY","","","","","","","","","","",""
"html-keyboard-response","153","373052","0.0-7.0-4.23","5aea7d94a110a00001f7e50e","bdp_wmem","Tue Mar 14 2023 21:33:35 GMT-0400 (Eastern Daylight Time)","613695","Match,No Match","","1010","","","","","","<div class='trialBorder'><div class='targDiv'><div class='tc'><img class='introPic' src='trustrating_stim/white_mw085.bmp'><br><font color='red'><strong>Keep</strong></font></div></div><div class='respDiv'><div class='respDivL'>Match<br>(e)</div><div class='respDivR'>No Match<br>(i)</div></div></div>","i","TARGET","1","trustrating_stim/white_mw013.bmp","0","noMatchFace","i","1500","trustrating_stim/white_mw085.bmp","red","Keep","REAL","1"
"html-keyboard-response","154","373552","0.0-7.0-5.23","5aea7d94a110a00001f7e50e","bdp_wmem","Tue Mar 14 2023 21:33:35 GMT-0400 (Eastern Daylight Time)","613695","Match,No Match","","null","","","","","","<div class='trialBorder'><div class='vertical-center'><img src='img/correct.jpg'></div><div class='respDiv'><div class='respDivL'>Match<br>(e)</div><div class='respDivR'><font style='color:orange'>No Match<br>(i)</font></div></div></div>","null","FEEDBACK","","","","","","","","","","",""
"html-keyboard-response","155","374053","0.0-7.0-1.24","5aea7d94a110a00001f7e50e","bdp_wmem","Tue Mar 14 2023 21:33:35 GMT-0400 (Eastern Daylight Time)","613695","Match,No Match","","null","","","","","","<div class='trialBorder'><div class='vertical-center'><img src='img/fixation2_sml.jpg'</img></div></div>","null","FIX","","","","","","","","","","",""
"html-keyboard-response","156","377054","0.0-7.0-2.24","5aea7d94a110a00001f7e50e","bdp_wmem","Tue Mar 14 2023 21:33:35 GMT-0400 (Eastern Daylight Time)","613695","Match,No Match","","null","","","","","","<div class='trialBorder'><div class='vertical-center'><img style='vertical-align:center; align:center' src='img/fixation2_sml.jpg'></div><div class='arrayDiv2'><div class='tl'><img class='introPic' src='trustrating_stim/white_mw013.bmp'><br><font color='red'><strong>Keep</strong></font></div><div class='tr'><img class='introPic' src='trustrating_stim/white_mw092.bmp'><br><font color='green'><strong>Share</strong></font></div></div></div>","null","ARRAY","2","trustrating_stim/white_mw013.bmp,trustrating_stim/white_mw092.bmp","0,1","Match","e","3000","","","","",""
"html-keyboard-response","157","381055","0.0-7.0-3.24","5aea7d94a110a00001f7e50e","bdp_wmem","Tue Mar 14 2023 21:33:35 GMT-0400 (Eastern Daylight Time)","613695","Match,No Match","","null","","","","","","<div class='trialBorder'><div class='vertical-center'><img src='img/fixation2_sml.jpg'</img></div></div>","null","DELAY","","","","","","","","","","",""
"html-keyboard-response","158","383274","0.0-7.0-4.24","5aea7d94a110a00001f7e50e","bdp_wmem","Tue Mar 14 2023 21:33:35 GMT-0400 (Eastern Daylight Time)","613695","Match,No Match","","2218","","","","","","<div class='trialBorder'><div class='targDiv'><div class='tc'><img class='introPic' src='trustrating_stim/white_mw092.bmp'><br><font color='green'><strong>Share</strong></font></div></div><div class='respDiv'><div class='respDivL'>Match<br>(e)</div><div class='respDivR'>No Match<br>(i)</div></div></div>","i","TARGET","2","trustrating_stim/white_mw013.bmp,trustrating_stim/white_mw092.bmp","0,1","Match","e","3000","trustrating_stim/white_mw092.bmp","green","Share","REAL","0"
"html-keyboard-response","159","383783","0.0-7.0-5.24","5aea7d94a110a00001f7e50e","bdp_wmem","Tue Mar 14 2023 21:33:35 GMT-0400 (Eastern Daylight Time)","613695","Match,No Match","","null","","","","","","<div class='trialBorder'><div class='vertical-center'><img src='img/error.jpg'></div><div class='respDiv'><div class='respDivL'>Match<br>(e)</div><div class='respDivR'><font style='color:orange'>No Match<br>(i)</font></div></div></div>","null","FEEDBACK","","","","","","","","","","",""
"html-keyboard-response","160","384284","0.0-7.0-1.25","5aea7d94a110a00001f7e50e","bdp_wmem","Tue Mar 14 2023 21:33:35 GMT-0400 (Eastern Daylight Time)","613695","Match,No Match","","null","","","","","","<div class='trialBorder'><div class='vertical-center'><img src='img/fixation2_sml.jpg'</img></div></div>","null","FIX","","","","","","","","","","",""
"html-keyboard-response","161","387285","0.0-7.0-2.25","5aea7d94a110a00001f7e50e","bdp_wmem","Tue Mar 14 2023 21:33:35 GMT-0400 (Eastern Daylight Time)","613695","Match,No Match","","null","","","","","","<div class='trialBorder'><div class='vertical-center'><img style='vertical-align:center; align:center' src='img/fixation2_sml.jpg'></div><div class='arrayDiv2'><div class='tl'><img class='introPic' src='trustrating_stim/white_mw091.bmp'><br><font color='red'><strong>Keep</strong></font></div><div class='tr'><img class='introPic' src='trustrating_stim/white_mw013.bmp'><br><font color='green'><strong>Share</strong></font></div></div></div>","null","ARRAY","2","trustrating_stim/white_mw091.bmp,trustrating_stim/white_mw013.bmp","0,1","Match","e","3000","","","","",""
"html-keyboard-response","162","391286","0.0-7.0-3.25","5aea7d94a110a00001f7e50e","bdp_wmem","Tue Mar 14 2023 21:33:35 GMT-0400 (Eastern Daylight Time)","613695","Match,No Match","","null","","","","","","<div class='trialBorder'><div class='vertical-center'><img src='img/fixation2_sml.jpg'</img></div></div>","null","DELAY","","","","","","","","","","",""
"html-keyboard-response","163","392773","0.0-7.0-4.25","5aea7d94a110a00001f7e50e","bdp_wmem","Tue Mar 14 2023 21:33:35 GMT-0400 (Eastern Daylight Time)","613695","Match,No Match","","1486","","","","","","<div class='trialBorder'><div class='targDiv'><div class='tc'><img class='introPic' src='trustrating_stim/white_mw091.bmp'><br><font color='red'><strong>Keep</strong></font></div></div><div class='respDiv'><div class='respDivL'>Match<br>(e)</div><div class='respDivR'>No Match<br>(i)</div></div></div>","e","TARGET","2","trustrating_stim/white_mw091.bmp,trustrating_stim/white_mw013.bmp","0,1","Match","e","3000","trustrating_stim/white_mw091.bmp","red","Keep","REAL","1"
"html-keyboard-response","164","393274","0.0-7.0-5.25","5aea7d94a110a00001f7e50e","bdp_wmem","Tue Mar 14 2023 21:33:35 GMT-0400 (Eastern Daylight Time)","613695","Match,No Match","","null","","","","","","<div class='trialBorder'><div class='vertical-center'><img src='img/correct.jpg'></div><div class='respDiv'><div class='respDivL'><font style='color:orange'>Match<br>(e)</font></div><div class='respDivR'>No Match<br>(i)</div></div></div>","null","FEEDBACK","","","","","","","","","","",""
"html-keyboard-response","165","393775","0.0-7.0-1.26","5aea7d94a110a00001f7e50e","bdp_wmem","Tue Mar 14 2023 21:33:35 GMT-0400 (Eastern Daylight Time)","613695","Match,No Match","","null","","","","","","<div class='trialBorder'><div class='vertical-center'><img src='img/fixation2_sml.jpg'</img></div></div>","null","FIX","","","","","","","","","","",""
"html-keyboard-response","166","395277","0.0-7.0-2.26","5aea7d94a110a00001f7e50e","bdp_wmem","Tue Mar 14 2023 21:33:35 GMT-0400 (Eastern Daylight Time)","613695","Match,No Match","","null","","","","","","<div class='trialBorder'><div class='vertical-center'><img style='vertical-align:center; align:center' src='img/fixation2_sml.jpg'></div><div class='arrayDiv1'><div class='tc'><img class='introPic' src='trustrating_stim/white_mw013.bmp'><br><font color='green'><strong>Share</strong></font></div></div></div>","null","ARRAY","1","trustrating_stim/white_mw013.bmp","1","Match","e","1500","","","","",""
"html-keyboard-response","167","399279","0.0-7.0-3.26","5aea7d94a110a00001f7e50e","bdp_wmem","Tue Mar 14 2023 21:33:35 GMT-0400 (Eastern Daylight Time)","613695","Match,No Match","","null","","","","","","<div class='trialBorder'><div class='vertical-center'><img src='img/fixation2_sml.jpg'</img></div></div>","null","DELAY","","","","","","","","","","",""
"html-keyboard-response","168","400420","0.0-7.0-4.26","5aea7d94a110a00001f7e50e","bdp_wmem","Tue Mar 14 2023 21:33:35 GMT-0400 (Eastern Daylight Time)","613695","Match,No Match","","1140","","","","","","<div class='trialBorder'><div class='targDiv'><div class='tc'><img class='introPic' src='trustrating_stim/white_mw013.bmp'><br><font color='green'><strong>Share</strong></font></div></div><div class='respDiv'><div class='respDivL'>Match<br>(e)</div><div class='respDivR'>No Match<br>(i)</div></div></div>","e","TARGET","1","trustrating_stim/white_mw013.bmp","1","Match","e","1500","trustrating_stim/white_mw013.bmp","green","Share","REAL","1"
"html-keyboard-response","169","400921","0.0-7.0-5.26","5aea7d94a110a00001f7e50e","bdp_wmem","Tue Mar 14 2023 21:33:35 GMT-0400 (Eastern Daylight Time)","613695","Match,No Match","","null","","","","","","<div class='trialBorder'><div class='vertical-center'><img src='img/correct.jpg'></div><div class='respDiv'><div class='respDivL'><font style='color:orange'>Match<br>(e)</font></div><div class='respDivR'>No Match<br>(i)</div></div></div>","null","FEEDBACK","","","","","","","","","","",""
"html-keyboard-response","170","401423","0.0-7.0-1.27","5aea7d94a110a00001f7e50e","bdp_wmem","Tue Mar 14 2023 21:33:35 GMT-0400 (Eastern Daylight Time)","613695","Match,No Match","","null","","","","","","<div class='trialBorder'><div class='vertical-center'><img src='img/fixation2_sml.jpg'</img></div></div>","null","FIX","","","","","","","","","","",""
"html-keyboard-response","171","405925","0.0-7.0-2.27","5aea7d94a110a00001f7e50e","bdp_wmem","Tue Mar 14 2023 21:33:35 GMT-0400 (Eastern Daylight Time)","613695","Match,No Match","","null","","","","","","<div class='trialBorder'><div class='vertical-center'><img style='vertical-align:center; align:center' src='img/fixation2_sml.jpg'></div><div class='arrayDiv3'><div class='tl'><img class='introPic' src='trustrating_stim/white_mw092.bmp'><br><font color='red'><strong>Keep</strong></font></div><div class='tc'><img class='introPic' src='trustrating_stim/white_mw085.bmp'><br><font color='green'><strong>Share</strong></font></div><div class='tr'><img class='introPic' src='trustrating_stim/white_mw012.bmp'><br><font color='red'><strong>Keep</strong></font></div></div></div>","null","ARRAY","3","trustrating_stim/white_mw092.bmp,trustrating_stim/white_mw085.bmp,trustrating_stim/white_mw012.bmp","0,1,0","Match","e","4500","","","","",""
"html-keyboard-response","172","409926","0.0-7.0-3.27","5aea7d94a110a00001f7e50e","bdp_wmem","Tue Mar 14 2023 21:33:35 GMT-0400 (Eastern Daylight Time)","613695","Match,No Match","","null","","","","","","<div class='trialBorder'><div class='vertical-center'><img src='img/fixation2_sml.jpg'</img></div></div>","null","DELAY","","","","","","","","","","",""
"html-keyboard-response","173","411325","0.0-7.0-4.27","5aea7d94a110a00001f7e50e","bdp_wmem","Tue Mar 14 2023 21:33:35 GMT-0400 (Eastern Daylight Time)","613695","Match,No Match","","1398","","","","","","<div class='trialBorder'><div class='targDiv'><div class='tc'><img class='introPic' src='trustrating_stim/white_mw092.bmp'><br><font color='red'><strong>Keep</strong></font></div></div><div class='respDiv'><div class='respDivL'>Match<br>(e)</div><div class='respDivR'>No Match<br>(i)</div></div></div>","e","TARGET","3","trustrating_stim/white_mw092.bmp,trustrating_stim/white_mw085.bmp,trustrating_stim/white_mw012.bmp","0,1,0","Match","e","4500","trustrating_stim/white_mw092.bmp","red","Keep","REAL","1"
"html-keyboard-response","174","411826","0.0-7.0-5.27","5aea7d94a110a00001f7e50e","bdp_wmem","Tue Mar 14 2023 21:33:35 GMT-0400 (Eastern Daylight Time)","613695","Match,No Match","","null","","","","","","<div class='trialBorder'><div class='vertical-center'><img src='img/correct.jpg'></div><div class='respDiv'><div class='respDivL'><font style='color:orange'>Match<br>(e)</font></div><div class='respDivR'>No Match<br>(i)</div></div></div>","null","FEEDBACK","","","","","","","","","","",""
"html-keyboard-response","175","412328","0.0-7.0-1.28","5aea7d94a110a00001f7e50e","bdp_wmem","Tue Mar 14 2023 21:33:35 GMT-0400 (Eastern Daylight Time)","613695","Match,No Match","","null","","","","","","<div class='trialBorder'><div class='vertical-center'><img src='img/fixation2_sml.jpg'</img></div></div>","null","FIX","","","","","","","","","","",""
"html-keyboard-response","176","416840","0.0-7.0-2.28","5aea7d94a110a00001f7e50e","bdp_wmem","Tue Mar 14 2023 21:33:35 GMT-0400 (Eastern Daylight Time)","613695","Match,No Match","","null","","","","","","<div class='trialBorder'><div class='vertical-center'><img style='vertical-align:center; align:center' src='img/fixation2_sml.jpg'></div><div class='arrayDiv3'><div class='tl'><img class='introPic' src='trustrating_stim/white_mw012.bmp'><br><font color='green'><strong>Share</strong></font></div><div class='tc'><img class='introPic' src='trustrating_stim/white_mw040.bmp'><br><font color='red'><strong>Keep</strong></font></div><div class='tr'><img class='introPic' src='trustrating_stim/white_mw092.bmp'><br><font color='green'><strong>Share</strong></font></div></div></div>","null","ARRAY","3","trustrating_stim/white_mw012.bmp,trustrating_stim/white_mw040.bmp,trustrating_stim/white_mw092.bmp","1,0,1","noMatchOutcome","i","4500","","","","",""
"html-keyboard-response","177","420841","0.0-7.0-3.28","5aea7d94a110a00001f7e50e","bdp_wmem","Tue Mar 14 2023 21:33:35 GMT-0400 (Eastern Daylight Time)","613695","Match,No Match","","null","","","","","","<div class='trialBorder'><div class='vertical-center'><img src='img/fixation2_sml.jpg'</img></div></div>","null","DELAY","","","","","","","","","","",""
"html-keyboard-response","178","422386","0.0-7.0-4.28","5aea7d94a110a00001f7e50e","bdp_wmem","Tue Mar 14 2023 21:33:35 GMT-0400 (Eastern Daylight Time)","613695","Match,No Match","","1544","","","","","","<div class='trialBorder'><div class='targDiv'><div class='tc'><img class='introPic' src='trustrating_stim/white_mw092.bmp'><br><font color='red'><strong>Keep</strong></font></div></div><div class='respDiv'><div class='respDivL'>Match<br>(e)</div><div class='respDivR'>No Match<br>(i)</div></div></div>","e","TARGET","3","trustrating_stim/white_mw012.bmp,trustrating_stim/white_mw040.bmp,trustrating_stim/white_mw092.bmp","1,0,1","noMatchOutcome","i","4500","trustrating_stim/white_mw092.bmp","red","Keep","REAL","0"
"html-keyboard-response","179","422887","0.0-7.0-5.28","5aea7d94a110a00001f7e50e","bdp_wmem","Tue Mar 14 2023 21:33:35 GMT-0400 (Eastern Daylight Time)","613695","Match,No Match","","null","","","","","","<div class='trialBorder'><div class='vertical-center'><img src='img/error.jpg'></div><div class='respDiv'><div class='respDivL'><font style='color:orange'>Match<br>(e)</font></div><div class='respDivR'>No Match<br>(i)</div></div></div>","null","FEEDBACK","","","","","","","","","","",""
"html-keyboard-response","180","423389","0.0-7.0-1.29","5aea7d94a110a00001f7e50e","bdp_wmem","Tue Mar 14 2023 21:33:35 GMT-0400 (Eastern Daylight Time)","613695","Match,No Match","","null","","","","","","<div class='trialBorder'><div class='vertical-center'><img src='img/fixation2_sml.jpg'</img></div></div>","null","FIX","","","","","","","","","","",""
"html-keyboard-response","181","427891","0.0-7.0-2.29","5aea7d94a110a00001f7e50e","bdp_wmem","Tue Mar 14 2023 21:33:35 GMT-0400 (Eastern Daylight Time)","613695","Match,No Match","","null","","","","","","<div class='trialBorder'><div class='vertical-center'><img style='vertical-align:center; align:center' src='img/fixation2_sml.jpg'></div><div class='arrayDiv3'><div class='tl'><img class='introPic' src='trustrating_stim/white_mw092.bmp'><br><font color='green'><strong>Share</strong></font></div><div class='tc'><img class='introPic' src='trustrating_stim/white_mw070.bmp'><br><font color='green'><strong>Share</strong></font></div><div class='tr'><img class='introPic' src='trustrating_stim/white_mw012.bmp'><br><font color='red'><strong>Keep</strong></font></div></div></div>","null","ARRAY","3","trustrating_stim/white_mw092.bmp,trustrating_stim/white_mw070.bmp,trustrating_stim/white_mw012.bmp","1,1,0","Match","e","4500","","","","",""
"html-keyboard-response","182","431893","0.0-7.0-3.29","5aea7d94a110a00001f7e50e","bdp_wmem","Tue Mar 14 2023 21:33:35 GMT-0400 (Eastern Daylight Time)","613695","Match,No Match","","null","","","","","","<div class='trialBorder'><div class='vertical-center'><img src='img/fixation2_sml.jpg'</img></div></div>","null","DELAY","","","","","","","","","","",""
"html-keyboard-response","183","433401","0.0-7.0-4.29","5aea7d94a110a00001f7e50e","bdp_wmem","Tue Mar 14 2023 21:33:35 GMT-0400 (Eastern Daylight Time)","613695","Match,No Match","","1507","","","","","","<div class='trialBorder'><div class='targDiv'><div class='tc'><img class='introPic' src='trustrating_stim/white_mw012.bmp'><br><font color='red'><strong>Keep</strong></font></div></div><div class='respDiv'><div class='respDivL'>Match<br>(e)</div><div class='respDivR'>No Match<br>(i)</div></div></div>","e","TARGET","3","trustrating_stim/white_mw092.bmp,trustrating_stim/white_mw070.bmp,trustrating_stim/white_mw012.bmp","1,1,0","Match","e","4500","trustrating_stim/white_mw012.bmp","red","Keep","REAL","1"
"html-keyboard-response","184","433902","0.0-7.0-5.29","5aea7d94a110a00001f7e50e","bdp_wmem","Tue Mar 14 2023 21:33:35 GMT-0400 (Eastern Daylight Time)","613695","Match,No Match","","null","","","","","","<div class='trialBorder'><div class='vertical-center'><img src='img/correct.jpg'></div><div class='respDiv'><div class='respDivL'><font style='color:orange'>Match<br>(e)</font></div><div class='respDivR'>No Match<br>(i)</div></div></div>","null","FEEDBACK","","","","","","","","","","",""
"html-keyboard-response","185","434402","0.0-7.0-1.30","5aea7d94a110a00001f7e50e","bdp_wmem","Tue Mar 14 2023 21:33:35 GMT-0400 (Eastern Daylight Time)","613695","Match,No Match","","null","","","","","","<div class='trialBorder'><div class='vertical-center'><img src='img/fixation2_sml.jpg'</img></div></div>","null","FIX","","","","","","","","","","",""
"html-keyboard-response","186","438904","0.0-7.0-2.30","5aea7d94a110a00001f7e50e","bdp_wmem","Tue Mar 14 2023 21:33:35 GMT-0400 (Eastern Daylight Time)","613695","Match,No Match","","null","","","","","","<div class='trialBorder'><div class='vertical-center'><img style='vertical-align:center; align:center' src='img/fixation2_sml.jpg'></div><div class='arrayDiv3'><div class='tl'><img class='introPic' src='trustrating_stim/white_mw042.bmp'><br><font color='green'><strong>Share</strong></font></div><div class='tc'><img class='introPic' src='trustrating_stim/white_mw085.bmp'><br><font color='red'><strong>Keep</strong></font></div><div class='tr'><img class='introPic' src='trustrating_stim/white_mw078.bmp'><br><font color='red'><strong>Keep</strong></font></div></div></div>","null","ARRAY","3","trustrating_stim/white_mw042.bmp,trustrating_stim/white_mw085.bmp,trustrating_stim/white_mw078.bmp","1,0,0","Match","e","4500","","","","",""
"html-keyboard-response","187","442905","0.0-7.0-3.30","5aea7d94a110a00001f7e50e","bdp_wmem","Tue Mar 14 2023 21:33:35 GMT-0400 (Eastern Daylight Time)","613695","Match,No Match","","null","","","","","","<div class='trialBorder'><div class='vertical-center'><img src='img/fixation2_sml.jpg'</img></div></div>","null","DELAY","","","","","","","","","","",""
"html-keyboard-response","188","444225","0.0-7.0-4.30","5aea7d94a110a00001f7e50e","bdp_wmem","Tue Mar 14 2023 21:33:35 GMT-0400 (Eastern Daylight Time)","613695","Match,No Match","","1319","","","","","","<div class='trialBorder'><div class='targDiv'><div class='tc'><img class='introPic' src='trustrating_stim/white_mw042.bmp'><br><font color='green'><strong>Share</strong></font></div></div><div class='respDiv'><div class='respDivL'>Match<br>(e)</div><div class='respDivR'>No Match<br>(i)</div></div></div>","e","TARGET","3","trustrating_stim/white_mw042.bmp,trustrating_stim/white_mw085.bmp,trustrating_stim/white_mw078.bmp","1,0,0","Match","e","4500","trustrating_stim/white_mw042.bmp","green","Share","REAL","1"
"html-keyboard-response","189","444727","0.0-7.0-5.30","5aea7d94a110a00001f7e50e","bdp_wmem","Tue Mar 14 2023 21:33:35 GMT-0400 (Eastern Daylight Time)","613695","Match,No Match","","null","","","","","","<div class='trialBorder'><div class='vertical-center'><img src='img/correct.jpg'></div><div class='respDiv'><div class='respDivL'><font style='color:orange'>Match<br>(e)</font></div><div class='respDivR'>No Match<br>(i)</div></div></div>","null","FEEDBACK","","","","","","","","","","",""
