"trial_type","trial_index","time_elapsed","internal_node_id","subject_id","task","startTime","totalTime","labels","view_history","rt","event","trial","time","trialtype","success","stimulus","key_press","stimType","arraySize","arrayFaces","arrayOutcomes","matchType","corrResp","arrayDur","targFace","targCol","targOutcome","trialType","corr"
"pavlovia","0","3","0.0-0.0","63614ad63aec6bcf8a045124","bdp_wmem","Tue Mar 14 2023 14:06:10 GMT-0400 (Eastern Daylight Time)","605287","Match,No Match","","","","","","","","","","","","","","","","","","","","",""
"instructions","1","4200","0.0-1.0","63614ad63aec6bcf8a045124","bdp_wmem","Tue Mar 14 2023 14:06:10 GMT-0400 (Eastern Daylight Time)","605287","Match,No Match","[{""page_index"":0,""viewing_time"":4196}]","4197","","","","","","","","","","","","","","","","","","",""
"","","","","63614ad63aec6bcf8a045124","bdp_wmem","Tue Mar 14 2023 14:06:10 GMT-0400 (Eastern Daylight Time)","605287","Match,No Match","","","fullscreenenter","2","5783","fullscreenenter","","","","","","","","","","","","","","",""
"fullscreen","2","6758","0.0-2.0","63614ad63aec6bcf8a045124","bdp_wmem","Tue Mar 14 2023 14:06:10 GMT-0400 (Eastern Daylight Time)","605287","Match,No Match","","","","","","","true","","","","","","","","","","","","","",""
"instructions","3","81076","0.0-4.0","63614ad63aec6bcf8a045124","bdp_wmem","Tue Mar 14 2023 14:06:10 GMT-0400 (Eastern Daylight Time)","605287","Match,No Match","[{""page_index"":0,""viewing_time"":18543},{""page_index"":1,""viewing_time"":21234},{""page_index"":2,""viewing_time"":21477},{""page_index"":3,""viewing_time"":7737},{""page_index"":4,""viewing_time"":5327}]","74318","","","","","","","","","","","","","","","","","","",""
"html-keyboard-response","4","81578","0.0-5.0-1.0","63614ad63aec6bcf8a045124","bdp_wmem","Tue Mar 14 2023 14:06:10 GMT-0400 (Eastern Daylight Time)","605287","Match,No Match","","null","","","","","","<div class='trialBorder'><div class='vertical-center'><img src='img/fixation2_sml.jpg'</img></div></div>","null","FIX","","","","","","","","","","",""
"html-keyboard-response","5","83080","0.0-5.0-2.0","63614ad63aec6bcf8a045124","bdp_wmem","Tue Mar 14 2023 14:06:10 GMT-0400 (Eastern Daylight Time)","605287","Match,No Match","","null","","","","","","<div class='trialBorder'><div class='vertical-center'><img style='vertical-align:center; align:center' src='img/fixation2_sml.jpg'></div><div class='arrayDiv1'><div class='tc'><img class='introPic' src='trustrating_stim/white_mw003.bmp'><br><font color='green'><strong>Share</strong></font></div></div></div>","null","ARRAY","1","trustrating_stim/white_mw003.bmp","1","Match","e","1500","","","","",""
"html-keyboard-response","6","87082","0.0-5.0-3.0","63614ad63aec6bcf8a045124","bdp_wmem","Tue Mar 14 2023 14:06:10 GMT-0400 (Eastern Daylight Time)","605287","Match,No Match","","null","","","","","","<div class='trialBorder'><div class='vertical-center'><img src='img/fixation2_sml.jpg'</img></div></div>","null","DELAY","","","","","","","","","","",""
"html-keyboard-response","7","88253","0.0-5.0-4.0","63614ad63aec6bcf8a045124","bdp_wmem","Tue Mar 14 2023 14:06:10 GMT-0400 (Eastern Daylight Time)","605287","Match,No Match","","1171","","","","","","<div class='trialBorder'><div class='targDiv'><div class='tc'><img class='introPic' src='trustrating_stim/white_mw003.bmp'><br><font color='green'><strong>Share</strong></font></div></div><div class='respDiv'><div class='respDivL'>Match<br>(e)</div><div class='respDivR'>No Match<br>(i)</div></div></div>","i","TARGET","1","trustrating_stim/white_mw003.bmp","1","Match","e","1500","trustrating_stim/white_mw003.bmp","green","Share","PRACTICE","0"
"html-keyboard-response","8","88755","0.0-5.0-5.0","63614ad63aec6bcf8a045124","bdp_wmem","Tue Mar 14 2023 14:06:10 GMT-0400 (Eastern Daylight Time)","605287","Match,No Match","","null","","","","","","<div class='trialBorder'><div class='vertical-center'><img src='img/error.jpg'></div><div class='respDiv'><div class='respDivL'>Match<br>(e)</div><div class='respDivR'><font style='color:orange'>No Match<br>(i)</font></div></div></div>","null","FEEDBACK","","","","","","","","","","",""
"html-keyboard-response","9","89256","0.0-5.0-1.1","63614ad63aec6bcf8a045124","bdp_wmem","Tue Mar 14 2023 14:06:10 GMT-0400 (Eastern Daylight Time)","605287","Match,No Match","","null","","","","","","<div class='trialBorder'><div class='vertical-center'><img src='img/fixation2_sml.jpg'</img></div></div>","null","FIX","","","","","","","","","","",""
"html-keyboard-response","10","92257","0.0-5.0-2.1","63614ad63aec6bcf8a045124","bdp_wmem","Tue Mar 14 2023 14:06:10 GMT-0400 (Eastern Daylight Time)","605287","Match,No Match","","null","","","","","","<div class='trialBorder'><div class='vertical-center'><img style='vertical-align:center; align:center' src='img/fixation2_sml.jpg'></div><div class='arrayDiv2'><div class='tl'><img class='introPic' src='trustrating_stim/white_mw092.bmp'><br><font color='green'><strong>Share</strong></font></div><div class='tr'><img class='introPic' src='trustrating_stim/white_mw070.bmp'><br><font color='red'><strong>Keep</strong></font></div></div></div>","null","ARRAY","2","trustrating_stim/white_mw092.bmp,trustrating_stim/white_mw070.bmp","1,0","noMatchOutcome","i","3000","","","","",""
"html-keyboard-response","11","96258","0.0-5.0-3.1","63614ad63aec6bcf8a045124","bdp_wmem","Tue Mar 14 2023 14:06:10 GMT-0400 (Eastern Daylight Time)","605287","Match,No Match","","null","","","","","","<div class='trialBorder'><div class='vertical-center'><img src='img/fixation2_sml.jpg'</img></div></div>","null","DELAY","","","","","","","","","","",""
"html-keyboard-response","12","98564","0.0-5.0-4.1","63614ad63aec6bcf8a045124","bdp_wmem","Tue Mar 14 2023 14:06:10 GMT-0400 (Eastern Daylight Time)","605287","Match,No Match","","2305","","","","","","<div class='trialBorder'><div class='targDiv'><div class='tc'><img class='introPic' src='trustrating_stim/white_mw092.bmp'><br><font color='red'><strong>Keep</strong></font></div></div><div class='respDiv'><div class='respDivL'>Match<br>(e)</div><div class='respDivR'>No Match<br>(i)</div></div></div>","i","TARGET","2","trustrating_stim/white_mw092.bmp,trustrating_stim/white_mw070.bmp","1,0","noMatchOutcome","i","3000","trustrating_stim/white_mw092.bmp","red","Keep","PRACTICE","1"
"html-keyboard-response","13","99065","0.0-5.0-5.1","63614ad63aec6bcf8a045124","bdp_wmem","Tue Mar 14 2023 14:06:10 GMT-0400 (Eastern Daylight Time)","605287","Match,No Match","","null","","","","","","<div class='trialBorder'><div class='vertical-center'><img src='img/correct.jpg'></div><div class='respDiv'><div class='respDivL'>Match<br>(e)</div><div class='respDivR'><font style='color:orange'>No Match<br>(i)</font></div></div></div>","null","FEEDBACK","","","","","","","","","","",""
"html-keyboard-response","14","99567","0.0-5.0-1.2","63614ad63aec6bcf8a045124","bdp_wmem","Tue Mar 14 2023 14:06:10 GMT-0400 (Eastern Daylight Time)","605287","Match,No Match","","null","","","","","","<div class='trialBorder'><div class='vertical-center'><img src='img/fixation2_sml.jpg'</img></div></div>","null","FIX","","","","","","","","","","",""
"html-keyboard-response","15","104068","0.0-5.0-2.2","63614ad63aec6bcf8a045124","bdp_wmem","Tue Mar 14 2023 14:06:10 GMT-0400 (Eastern Daylight Time)","605287","Match,No Match","","null","","","","","","<div class='trialBorder'><div class='vertical-center'><img style='vertical-align:center; align:center' src='img/fixation2_sml.jpg'></div><div class='arrayDiv3'><div class='tl'><img class='introPic' src='trustrating_stim/white_mw038.bmp'><br><font color='green'><strong>Share</strong></font></div><div class='tc'><img class='introPic' src='trustrating_stim/white_mw078.bmp'><br><font color='red'><strong>Keep</strong></font></div><div class='tr'><img class='introPic' src='trustrating_stim/white_mw042.bmp'><br><font color='red'><strong>Keep</strong></font></div></div></div>","null","ARRAY","3","trustrating_stim/white_mw038.bmp,trustrating_stim/white_mw078.bmp,trustrating_stim/white_mw042.bmp","1,0,0","Match","e","4500","","","","",""
"html-keyboard-response","16","108070","0.0-5.0-3.2","63614ad63aec6bcf8a045124","bdp_wmem","Tue Mar 14 2023 14:06:10 GMT-0400 (Eastern Daylight Time)","605287","Match,No Match","","null","","","","","","<div class='trialBorder'><div class='vertical-center'><img src='img/fixation2_sml.jpg'</img></div></div>","null","DELAY","","","","","","","","","","",""
"html-keyboard-response","17","109109","0.0-5.0-4.2","63614ad63aec6bcf8a045124","bdp_wmem","Tue Mar 14 2023 14:06:10 GMT-0400 (Eastern Daylight Time)","605287","Match,No Match","","1038","","","","","","<div class='trialBorder'><div class='targDiv'><div class='tc'><img class='introPic' src='trustrating_stim/white_mw042.bmp'><br><font color='red'><strong>Keep</strong></font></div></div><div class='respDiv'><div class='respDivL'>Match<br>(e)</div><div class='respDivR'>No Match<br>(i)</div></div></div>","i","TARGET","3","trustrating_stim/white_mw038.bmp,trustrating_stim/white_mw078.bmp,trustrating_stim/white_mw042.bmp","1,0,0","Match","e","4500","trustrating_stim/white_mw042.bmp","red","Keep","PRACTICE","0"
"html-keyboard-response","18","109610","0.0-5.0-5.2","63614ad63aec6bcf8a045124","bdp_wmem","Tue Mar 14 2023 14:06:10 GMT-0400 (Eastern Daylight Time)","605287","Match,No Match","","null","","","","","","<div class='trialBorder'><div class='vertical-center'><img src='img/error.jpg'></div><div class='respDiv'><div class='respDivL'>Match<br>(e)</div><div class='respDivR'><font style='color:orange'>No Match<br>(i)</font></div></div></div>","null","FEEDBACK","","","","","","","","","","",""
"html-keyboard-response","19","110111","0.0-5.0-1.3","63614ad63aec6bcf8a045124","bdp_wmem","Tue Mar 14 2023 14:06:10 GMT-0400 (Eastern Daylight Time)","605287","Match,No Match","","null","","","","","","<div class='trialBorder'><div class='vertical-center'><img src='img/fixation2_sml.jpg'</img></div></div>","null","FIX","","","","","","","","","","",""
"html-keyboard-response","20","111613","0.0-5.0-2.3","63614ad63aec6bcf8a045124","bdp_wmem","Tue Mar 14 2023 14:06:10 GMT-0400 (Eastern Daylight Time)","605287","Match,No Match","","null","","","","","","<div class='trialBorder'><div class='vertical-center'><img style='vertical-align:center; align:center' src='img/fixation2_sml.jpg'></div><div class='arrayDiv1'><div class='tc'><img class='introPic' src='trustrating_stim/white_mw042.bmp'><br><font color='red'><strong>Keep</strong></font></div></div></div>","null","ARRAY","1","trustrating_stim/white_mw042.bmp","0","noMatchFace","i","1500","","","","",""
"html-keyboard-response","21","115614","0.0-5.0-3.3","63614ad63aec6bcf8a045124","bdp_wmem","Tue Mar 14 2023 14:06:10 GMT-0400 (Eastern Daylight Time)","605287","Match,No Match","","null","","","","","","<div class='trialBorder'><div class='vertical-center'><img src='img/fixation2_sml.jpg'</img></div></div>","null","DELAY","","","","","","","","","","",""
"html-keyboard-response","22","117412","0.0-5.0-4.3","63614ad63aec6bcf8a045124","bdp_wmem","Tue Mar 14 2023 14:06:10 GMT-0400 (Eastern Daylight Time)","605287","Match,No Match","","1797","","","","","","<div class='trialBorder'><div class='targDiv'><div class='tc'><img class='introPic' src='trustrating_stim/white_mw010.bmp'><br><font color='red'><strong>Keep</strong></font></div></div><div class='respDiv'><div class='respDivL'>Match<br>(e)</div><div class='respDivR'>No Match<br>(i)</div></div></div>","i","TARGET","1","trustrating_stim/white_mw042.bmp","0","noMatchFace","i","1500","trustrating_stim/white_mw010.bmp","red","Keep","PRACTICE","1"
"html-keyboard-response","23","117914","0.0-5.0-5.3","63614ad63aec6bcf8a045124","bdp_wmem","Tue Mar 14 2023 14:06:10 GMT-0400 (Eastern Daylight Time)","605287","Match,No Match","","null","","","","","","<div class='trialBorder'><div class='vertical-center'><img src='img/correct.jpg'></div><div class='respDiv'><div class='respDivL'>Match<br>(e)</div><div class='respDivR'><font style='color:orange'>No Match<br>(i)</font></div></div></div>","null","FEEDBACK","","","","","","","","","","",""
"html-keyboard-response","24","118416","0.0-5.0-1.4","63614ad63aec6bcf8a045124","bdp_wmem","Tue Mar 14 2023 14:06:10 GMT-0400 (Eastern Daylight Time)","605287","Match,No Match","","null","","","","","","<div class='trialBorder'><div class='vertical-center'><img src='img/fixation2_sml.jpg'</img></div></div>","null","FIX","","","","","","","","","","",""
"html-keyboard-response","25","122918","0.0-5.0-2.4","63614ad63aec6bcf8a045124","bdp_wmem","Tue Mar 14 2023 14:06:10 GMT-0400 (Eastern Daylight Time)","605287","Match,No Match","","null","","","","","","<div class='trialBorder'><div class='vertical-center'><img style='vertical-align:center; align:center' src='img/fixation2_sml.jpg'></div><div class='arrayDiv3'><div class='tl'><img class='introPic' src='trustrating_stim/white_mw013.bmp'><br><font color='green'><strong>Share</strong></font></div><div class='tc'><img class='introPic' src='trustrating_stim/white_mw012.bmp'><br><font color='red'><strong>Keep</strong></font></div><div class='tr'><img class='introPic' src='trustrating_stim/white_mw078.bmp'><br><font color='red'><strong>Keep</strong></font></div></div></div>","null","ARRAY","3","trustrating_stim/white_mw013.bmp,trustrating_stim/white_mw012.bmp,trustrating_stim/white_mw078.bmp","1,0,0","noMatchOutcome","i","4500","","","","",""
"html-keyboard-response","26","126919","0.0-5.0-3.4","63614ad63aec6bcf8a045124","bdp_wmem","Tue Mar 14 2023 14:06:10 GMT-0400 (Eastern Daylight Time)","605287","Match,No Match","","null","","","","","","<div class='trialBorder'><div class='vertical-center'><img src='img/fixation2_sml.jpg'</img></div></div>","null","DELAY","","","","","","","","","","",""
"html-keyboard-response","27","128004","0.0-5.0-4.4","63614ad63aec6bcf8a045124","bdp_wmem","Tue Mar 14 2023 14:06:10 GMT-0400 (Eastern Daylight Time)","605287","Match,No Match","","1084","","","","","","<div class='trialBorder'><div class='targDiv'><div class='tc'><img class='introPic' src='trustrating_stim/white_mw078.bmp'><br><font color='green'><strong>Share</strong></font></div></div><div class='respDiv'><div class='respDivL'>Match<br>(e)</div><div class='respDivR'>No Match<br>(i)</div></div></div>","i","TARGET","3","trustrating_stim/white_mw013.bmp,trustrating_stim/white_mw012.bmp,trustrating_stim/white_mw078.bmp","1,0,0","noMatchOutcome","i","4500","trustrating_stim/white_mw078.bmp","green","Share","PRACTICE","1"
"html-keyboard-response","28","128505","0.0-5.0-5.4","63614ad63aec6bcf8a045124","bdp_wmem","Tue Mar 14 2023 14:06:10 GMT-0400 (Eastern Daylight Time)","605287","Match,No Match","","null","","","","","","<div class='trialBorder'><div class='vertical-center'><img src='img/correct.jpg'></div><div class='respDiv'><div class='respDivL'>Match<br>(e)</div><div class='respDivR'><font style='color:orange'>No Match<br>(i)</font></div></div></div>","null","FEEDBACK","","","","","","","","","","",""
"html-keyboard-response","29","129006","0.0-5.0-1.5","63614ad63aec6bcf8a045124","bdp_wmem","Tue Mar 14 2023 14:06:10 GMT-0400 (Eastern Daylight Time)","605287","Match,No Match","","null","","","","","","<div class='trialBorder'><div class='vertical-center'><img src='img/fixation2_sml.jpg'</img></div></div>","null","FIX","","","","","","","","","","",""
"html-keyboard-response","30","132008","0.0-5.0-2.5","63614ad63aec6bcf8a045124","bdp_wmem","Tue Mar 14 2023 14:06:10 GMT-0400 (Eastern Daylight Time)","605287","Match,No Match","","null","","","","","","<div class='trialBorder'><div class='vertical-center'><img style='vertical-align:center; align:center' src='img/fixation2_sml.jpg'></div><div class='arrayDiv2'><div class='tl'><img class='introPic' src='trustrating_stim/white_mw040.bmp'><br><font color='green'><strong>Share</strong></font></div><div class='tr'><img class='introPic' src='trustrating_stim/white_mw042.bmp'><br><font color='red'><strong>Keep</strong></font></div></div></div>","null","ARRAY","2","trustrating_stim/white_mw040.bmp,trustrating_stim/white_mw042.bmp","1,0","Match","e","3000","","","","",""
"html-keyboard-response","31","136009","0.0-5.0-3.5","63614ad63aec6bcf8a045124","bdp_wmem","Tue Mar 14 2023 14:06:10 GMT-0400 (Eastern Daylight Time)","605287","Match,No Match","","null","","","","","","<div class='trialBorder'><div class='vertical-center'><img src='img/fixation2_sml.jpg'</img></div></div>","null","DELAY","","","","","","","","","","",""
"html-keyboard-response","32","137940","0.0-5.0-4.5","63614ad63aec6bcf8a045124","bdp_wmem","Tue Mar 14 2023 14:06:10 GMT-0400 (Eastern Daylight Time)","605287","Match,No Match","","1930","","","","","","<div class='trialBorder'><div class='targDiv'><div class='tc'><img class='introPic' src='trustrating_stim/white_mw040.bmp'><br><font color='green'><strong>Share</strong></font></div></div><div class='respDiv'><div class='respDivL'>Match<br>(e)</div><div class='respDivR'>No Match<br>(i)</div></div></div>","i","TARGET","2","trustrating_stim/white_mw040.bmp,trustrating_stim/white_mw042.bmp","1,0","Match","e","3000","trustrating_stim/white_mw040.bmp","green","Share","PRACTICE","0"
"html-keyboard-response","33","138442","0.0-5.0-5.5","63614ad63aec6bcf8a045124","bdp_wmem","Tue Mar 14 2023 14:06:10 GMT-0400 (Eastern Daylight Time)","605287","Match,No Match","","null","","","","","","<div class='trialBorder'><div class='vertical-center'><img src='img/error.jpg'></div><div class='respDiv'><div class='respDivL'>Match<br>(e)</div><div class='respDivR'><font style='color:orange'>No Match<br>(i)</font></div></div></div>","null","FEEDBACK","","","","","","","","","","",""
"instructions","34","140293","0.0-6.0","63614ad63aec6bcf8a045124","bdp_wmem","Tue Mar 14 2023 14:06:10 GMT-0400 (Eastern Daylight Time)","605287","Match,No Match","[{""page_index"":0,""viewing_time"":1849}]","1849","","","","","","","","","","","","","","","","","","",""
"html-keyboard-response","35","140794","0.0-7.0-1.0","63614ad63aec6bcf8a045124","bdp_wmem","Tue Mar 14 2023 14:06:10 GMT-0400 (Eastern Daylight Time)","605287","Match,No Match","","null","","","","","","<div class='trialBorder'><div class='vertical-center'><img src='img/fixation2_sml.jpg'</img></div></div>","null","FIX","","","","","","","","","","",""
"html-keyboard-response","36","143796","0.0-7.0-2.0","63614ad63aec6bcf8a045124","bdp_wmem","Tue Mar 14 2023 14:06:10 GMT-0400 (Eastern Daylight Time)","605287","Match,No Match","","null","","","","","","<div class='trialBorder'><div class='vertical-center'><img style='vertical-align:center; align:center' src='img/fixation2_sml.jpg'></div><div class='arrayDiv2'><div class='tl'><img class='introPic' src='trustrating_stim/white_mw078.bmp'><br><font color='red'><strong>Keep</strong></font></div><div class='tr'><img class='introPic' src='trustrating_stim/white_mw013.bmp'><br><font color='green'><strong>Share</strong></font></div></div></div>","null","ARRAY","2","trustrating_stim/white_mw078.bmp,trustrating_stim/white_mw013.bmp","0,1","noMatchFace","i","3000","","","","",""
"html-keyboard-response","37","147798","0.0-7.0-3.0","63614ad63aec6bcf8a045124","bdp_wmem","Tue Mar 14 2023 14:06:10 GMT-0400 (Eastern Daylight Time)","605287","Match,No Match","","null","","","","","","<div class='trialBorder'><div class='vertical-center'><img src='img/fixation2_sml.jpg'</img></div></div>","null","DELAY","","","","","","","","","","",""
"html-keyboard-response","38","149501","0.0-7.0-4.0","63614ad63aec6bcf8a045124","bdp_wmem","Tue Mar 14 2023 14:06:10 GMT-0400 (Eastern Daylight Time)","605287","Match,No Match","","1702","","","","","","<div class='trialBorder'><div class='targDiv'><div class='tc'><img class='introPic' src='trustrating_stim/white_mw070.bmp'><br><font color='red'><strong>Keep</strong></font></div></div><div class='respDiv'><div class='respDivL'>Match<br>(e)</div><div class='respDivR'>No Match<br>(i)</div></div></div>","i","TARGET","2","trustrating_stim/white_mw078.bmp,trustrating_stim/white_mw013.bmp","0,1","noMatchFace","i","3000","trustrating_stim/white_mw070.bmp","red","Keep","REAL","1"
"html-keyboard-response","39","150002","0.0-7.0-5.0","63614ad63aec6bcf8a045124","bdp_wmem","Tue Mar 14 2023 14:06:10 GMT-0400 (Eastern Daylight Time)","605287","Match,No Match","","null","","","","","","<div class='trialBorder'><div class='vertical-center'><img src='img/correct.jpg'></div><div class='respDiv'><div class='respDivL'>Match<br>(e)</div><div class='respDivR'><font style='color:orange'>No Match<br>(i)</font></div></div></div>","null","FEEDBACK","","","","","","","","","","",""
"html-keyboard-response","40","150503","0.0-7.0-1.1","63614ad63aec6bcf8a045124","bdp_wmem","Tue Mar 14 2023 14:06:10 GMT-0400 (Eastern Daylight Time)","605287","Match,No Match","","null","","","","","","<div class='trialBorder'><div class='vertical-center'><img src='img/fixation2_sml.jpg'</img></div></div>","null","FIX","","","","","","","","","","",""
"html-keyboard-response","41","155004","0.0-7.0-2.1","63614ad63aec6bcf8a045124","bdp_wmem","Tue Mar 14 2023 14:06:10 GMT-0400 (Eastern Daylight Time)","605287","Match,No Match","","null","","","","","","<div class='trialBorder'><div class='vertical-center'><img style='vertical-align:center; align:center' src='img/fixation2_sml.jpg'></div><div class='arrayDiv3'><div class='tl'><img class='introPic' src='trustrating_stim/white_mw040.bmp'><br><font color='red'><strong>Keep</strong></font></div><div class='tc'><img class='introPic' src='trustrating_stim/white_mw038.bmp'><br><font color='green'><strong>Share</strong></font></div><div class='tr'><img class='introPic' src='trustrating_stim/white_mw091.bmp'><br><font color='green'><strong>Share</strong></font></div></div></div>","null","ARRAY","3","trustrating_stim/white_mw040.bmp,trustrating_stim/white_mw038.bmp,trustrating_stim/white_mw091.bmp","0,1,1","noMatchFace","i","4500","","","","",""
"html-keyboard-response","42","159005","0.0-7.0-3.1","63614ad63aec6bcf8a045124","bdp_wmem","Tue Mar 14 2023 14:06:10 GMT-0400 (Eastern Daylight Time)","605287","Match,No Match","","null","","","","","","<div class='trialBorder'><div class='vertical-center'><img src='img/fixation2_sml.jpg'</img></div></div>","null","DELAY","","","","","","","","","","",""
"html-keyboard-response","43","160533","0.0-7.0-4.1","63614ad63aec6bcf8a045124","bdp_wmem","Tue Mar 14 2023 14:06:10 GMT-0400 (Eastern Daylight Time)","605287","Match,No Match","","1526","","","","","","<div class='trialBorder'><div class='targDiv'><div class='tc'><img class='introPic' src='trustrating_stim/white_mw013.bmp'><br><font color='red'><strong>Keep</strong></font></div></div><div class='respDiv'><div class='respDivL'>Match<br>(e)</div><div class='respDivR'>No Match<br>(i)</div></div></div>","i","TARGET","3","trustrating_stim/white_mw040.bmp,trustrating_stim/white_mw038.bmp,trustrating_stim/white_mw091.bmp","0,1,1","noMatchFace","i","4500","trustrating_stim/white_mw013.bmp","red","Keep","REAL","1"
"html-keyboard-response","44","161035","0.0-7.0-5.1","63614ad63aec6bcf8a045124","bdp_wmem","Tue Mar 14 2023 14:06:10 GMT-0400 (Eastern Daylight Time)","605287","Match,No Match","","null","","","","","","<div class='trialBorder'><div class='vertical-center'><img src='img/correct.jpg'></div><div class='respDiv'><div class='respDivL'>Match<br>(e)</div><div class='respDivR'><font style='color:orange'>No Match<br>(i)</font></div></div></div>","null","FEEDBACK","","","","","","","","","","",""
"html-keyboard-response","45","161537","0.0-7.0-1.2","63614ad63aec6bcf8a045124","bdp_wmem","Tue Mar 14 2023 14:06:10 GMT-0400 (Eastern Daylight Time)","605287","Match,No Match","","null","","","","","","<div class='trialBorder'><div class='vertical-center'><img src='img/fixation2_sml.jpg'</img></div></div>","null","FIX","","","","","","","","","","",""
"html-keyboard-response","46","166039","0.0-7.0-2.2","63614ad63aec6bcf8a045124","bdp_wmem","Tue Mar 14 2023 14:06:10 GMT-0400 (Eastern Daylight Time)","605287","Match,No Match","","null","","","","","","<div class='trialBorder'><div class='vertical-center'><img style='vertical-align:center; align:center' src='img/fixation2_sml.jpg'></div><div class='arrayDiv3'><div class='tl'><img class='introPic' src='trustrating_stim/white_mw092.bmp'><br><font color='red'><strong>Keep</strong></font></div><div class='tc'><img class='introPic' src='trustrating_stim/white_mw040.bmp'><br><font color='green'><strong>Share</strong></font></div><div class='tr'><img class='introPic' src='trustrating_stim/white_mw091.bmp'><br><font color='red'><strong>Keep</strong></font></div></div></div>","null","ARRAY","3","trustrating_stim/white_mw092.bmp,trustrating_stim/white_mw040.bmp,trustrating_stim/white_mw091.bmp","0,1,0","noMatchOutcome","i","4500","","","","",""
"html-keyboard-response","47","170040","0.0-7.0-3.2","63614ad63aec6bcf8a045124","bdp_wmem","Tue Mar 14 2023 14:06:10 GMT-0400 (Eastern Daylight Time)","605287","Match,No Match","","null","","","","","","<div class='trialBorder'><div class='vertical-center'><img src='img/fixation2_sml.jpg'</img></div></div>","null","DELAY","","","","","","","","","","",""
"html-keyboard-response","48","170856","0.0-7.0-4.2","63614ad63aec6bcf8a045124","bdp_wmem","Tue Mar 14 2023 14:06:10 GMT-0400 (Eastern Daylight Time)","605287","Match,No Match","","815","","","","","","<div class='trialBorder'><div class='targDiv'><div class='tc'><img class='introPic' src='trustrating_stim/white_mw092.bmp'><br><font color='green'><strong>Share</strong></font></div></div><div class='respDiv'><div class='respDivL'>Match<br>(e)</div><div class='respDivR'>No Match<br>(i)</div></div></div>","i","TARGET","3","trustrating_stim/white_mw092.bmp,trustrating_stim/white_mw040.bmp,trustrating_stim/white_mw091.bmp","0,1,0","noMatchOutcome","i","4500","trustrating_stim/white_mw092.bmp","green","Share","REAL","1"
"html-keyboard-response","49","171357","0.0-7.0-5.2","63614ad63aec6bcf8a045124","bdp_wmem","Tue Mar 14 2023 14:06:10 GMT-0400 (Eastern Daylight Time)","605287","Match,No Match","","null","","","","","","<div class='trialBorder'><div class='vertical-center'><img src='img/correct.jpg'></div><div class='respDiv'><div class='respDivL'>Match<br>(e)</div><div class='respDivR'><font style='color:orange'>No Match<br>(i)</font></div></div></div>","null","FEEDBACK","","","","","","","","","","",""
"html-keyboard-response","50","171858","0.0-7.0-1.3","63614ad63aec6bcf8a045124","bdp_wmem","Tue Mar 14 2023 14:06:10 GMT-0400 (Eastern Daylight Time)","605287","Match,No Match","","null","","","","","","<div class='trialBorder'><div class='vertical-center'><img src='img/fixation2_sml.jpg'</img></div></div>","null","FIX","","","","","","","","","","",""
"html-keyboard-response","51","174859","0.0-7.0-2.3","63614ad63aec6bcf8a045124","bdp_wmem","Tue Mar 14 2023 14:06:10 GMT-0400 (Eastern Daylight Time)","605287","Match,No Match","","null","","","","","","<div class='trialBorder'><div class='vertical-center'><img style='vertical-align:center; align:center' src='img/fixation2_sml.jpg'></div><div class='arrayDiv2'><div class='tl'><img class='introPic' src='trustrating_stim/white_mw010.bmp'><br><font color='red'><strong>Keep</strong></font></div><div class='tr'><img class='introPic' src='trustrating_stim/white_mw070.bmp'><br><font color='green'><strong>Share</strong></font></div></div></div>","null","ARRAY","2","trustrating_stim/white_mw010.bmp,trustrating_stim/white_mw070.bmp","0,1","Match","e","3000","","","","",""
"html-keyboard-response","52","178861","0.0-7.0-3.3","63614ad63aec6bcf8a045124","bdp_wmem","Tue Mar 14 2023 14:06:10 GMT-0400 (Eastern Daylight Time)","605287","Match,No Match","","null","","","","","","<div class='trialBorder'><div class='vertical-center'><img src='img/fixation2_sml.jpg'</img></div></div>","null","DELAY","","","","","","","","","","",""
"html-keyboard-response","53","179348","0.0-7.0-4.3","63614ad63aec6bcf8a045124","bdp_wmem","Tue Mar 14 2023 14:06:10 GMT-0400 (Eastern Daylight Time)","605287","Match,No Match","","486","","","","","","<div class='trialBorder'><div class='targDiv'><div class='tc'><img class='introPic' src='trustrating_stim/white_mw070.bmp'><br><font color='green'><strong>Share</strong></font></div></div><div class='respDiv'><div class='respDivL'>Match<br>(e)</div><div class='respDivR'>No Match<br>(i)</div></div></div>","i","TARGET","2","trustrating_stim/white_mw010.bmp,trustrating_stim/white_mw070.bmp","0,1","Match","e","3000","trustrating_stim/white_mw070.bmp","green","Share","REAL","0"
"html-keyboard-response","54","179849","0.0-7.0-5.3","63614ad63aec6bcf8a045124","bdp_wmem","Tue Mar 14 2023 14:06:10 GMT-0400 (Eastern Daylight Time)","605287","Match,No Match","","null","","","","","","<div class='trialBorder'><div class='vertical-center'><img src='img/error.jpg'></div><div class='respDiv'><div class='respDivL'>Match<br>(e)</div><div class='respDivR'><font style='color:orange'>No Match<br>(i)</font></div></div></div>","null","FEEDBACK","","","","","","","","","","",""
"html-keyboard-response","55","180351","0.0-7.0-1.4","63614ad63aec6bcf8a045124","bdp_wmem","Tue Mar 14 2023 14:06:10 GMT-0400 (Eastern Daylight Time)","605287","Match,No Match","","null","","","","","","<div class='trialBorder'><div class='vertical-center'><img src='img/fixation2_sml.jpg'</img></div></div>","null","FIX","","","","","","","","","","",""
"html-keyboard-response","56","183353","0.0-7.0-2.4","63614ad63aec6bcf8a045124","bdp_wmem","Tue Mar 14 2023 14:06:10 GMT-0400 (Eastern Daylight Time)","605287","Match,No Match","","null","","","","","","<div class='trialBorder'><div class='vertical-center'><img style='vertical-align:center; align:center' src='img/fixation2_sml.jpg'></div><div class='arrayDiv2'><div class='tl'><img class='introPic' src='trustrating_stim/white_mw091.bmp'><br><font color='red'><strong>Keep</strong></font></div><div class='tr'><img class='introPic' src='trustrating_stim/white_mw092.bmp'><br><font color='green'><strong>Share</strong></font></div></div></div>","null","ARRAY","2","trustrating_stim/white_mw091.bmp,trustrating_stim/white_mw092.bmp","0,1","Match","e","3000","","","","",""
"html-keyboard-response","57","187354","0.0-7.0-3.4","63614ad63aec6bcf8a045124","bdp_wmem","Tue Mar 14 2023 14:06:10 GMT-0400 (Eastern Daylight Time)","605287","Match,No Match","","null","","","","","","<div class='trialBorder'><div class='vertical-center'><img src='img/fixation2_sml.jpg'</img></div></div>","null","DELAY","","","","","","","","","","",""
"html-keyboard-response","58","190980","0.0-7.0-4.4","63614ad63aec6bcf8a045124","bdp_wmem","Tue Mar 14 2023 14:06:10 GMT-0400 (Eastern Daylight Time)","605287","Match,No Match","","3625","","","","","","<div class='trialBorder'><div class='targDiv'><div class='tc'><img class='introPic' src='trustrating_stim/white_mw091.bmp'><br><font color='red'><strong>Keep</strong></font></div></div><div class='respDiv'><div class='respDivL'>Match<br>(e)</div><div class='respDivR'>No Match<br>(i)</div></div></div>","e","TARGET","2","trustrating_stim/white_mw091.bmp,trustrating_stim/white_mw092.bmp","0,1","Match","e","3000","trustrating_stim/white_mw091.bmp","red","Keep","REAL","1"
"html-keyboard-response","59","191481","0.0-7.0-5.4","63614ad63aec6bcf8a045124","bdp_wmem","Tue Mar 14 2023 14:06:10 GMT-0400 (Eastern Daylight Time)","605287","Match,No Match","","null","","","","","","<div class='trialBorder'><div class='vertical-center'><img src='img/correct.jpg'></div><div class='respDiv'><div class='respDivL'><font style='color:orange'>Match<br>(e)</font></div><div class='respDivR'>No Match<br>(i)</div></div></div>","null","FEEDBACK","","","","","","","","","","",""
"html-keyboard-response","60","191982","0.0-7.0-1.5","63614ad63aec6bcf8a045124","bdp_wmem","Tue Mar 14 2023 14:06:10 GMT-0400 (Eastern Daylight Time)","605287","Match,No Match","","null","","","","","","<div class='trialBorder'><div class='vertical-center'><img src='img/fixation2_sml.jpg'</img></div></div>","null","FIX","","","","","","","","","","",""
"html-keyboard-response","61","193484","0.0-7.0-2.5","63614ad63aec6bcf8a045124","bdp_wmem","Tue Mar 14 2023 14:06:10 GMT-0400 (Eastern Daylight Time)","605287","Match,No Match","","null","","","","","","<div class='trialBorder'><div class='vertical-center'><img style='vertical-align:center; align:center' src='img/fixation2_sml.jpg'></div><div class='arrayDiv1'><div class='tc'><img class='introPic' src='trustrating_stim/white_mw003.bmp'><br><font color='green'><strong>Share</strong></font></div></div></div>","null","ARRAY","1","trustrating_stim/white_mw003.bmp","1","Match","e","1500","","","","",""
"html-keyboard-response","62","197486","0.0-7.0-3.5","63614ad63aec6bcf8a045124","bdp_wmem","Tue Mar 14 2023 14:06:10 GMT-0400 (Eastern Daylight Time)","605287","Match,No Match","","null","","","","","","<div class='trialBorder'><div class='vertical-center'><img src='img/fixation2_sml.jpg'</img></div></div>","null","DELAY","","","","","","","","","","",""
"html-keyboard-response","63","200181","0.0-7.0-4.5","63614ad63aec6bcf8a045124","bdp_wmem","Tue Mar 14 2023 14:06:10 GMT-0400 (Eastern Daylight Time)","605287","Match,No Match","","2693","","","","","","<div class='trialBorder'><div class='targDiv'><div class='tc'><img class='introPic' src='trustrating_stim/white_mw003.bmp'><br><font color='green'><strong>Share</strong></font></div></div><div class='respDiv'><div class='respDivL'>Match<br>(e)</div><div class='respDivR'>No Match<br>(i)</div></div></div>","i","TARGET","1","trustrating_stim/white_mw003.bmp","1","Match","e","1500","trustrating_stim/white_mw003.bmp","green","Share","REAL","0"
"html-keyboard-response","64","200682","0.0-7.0-5.5","63614ad63aec6bcf8a045124","bdp_wmem","Tue Mar 14 2023 14:06:10 GMT-0400 (Eastern Daylight Time)","605287","Match,No Match","","null","","","","","","<div class='trialBorder'><div class='vertical-center'><img src='img/error.jpg'></div><div class='respDiv'><div class='respDivL'>Match<br>(e)</div><div class='respDivR'><font style='color:orange'>No Match<br>(i)</font></div></div></div>","null","FEEDBACK","","","","","","","","","","",""
"html-keyboard-response","65","201184","0.0-7.0-1.6","63614ad63aec6bcf8a045124","bdp_wmem","Tue Mar 14 2023 14:06:10 GMT-0400 (Eastern Daylight Time)","605287","Match,No Match","","null","","","","","","<div class='trialBorder'><div class='vertical-center'><img src='img/fixation2_sml.jpg'</img></div></div>","null","FIX","","","","","","","","","","",""
"html-keyboard-response","66","205687","0.0-7.0-2.6","63614ad63aec6bcf8a045124","bdp_wmem","Tue Mar 14 2023 14:06:10 GMT-0400 (Eastern Daylight Time)","605287","Match,No Match","","null","","","","","","<div class='trialBorder'><div class='vertical-center'><img style='vertical-align:center; align:center' src='img/fixation2_sml.jpg'></div><div class='arrayDiv3'><div class='tl'><img class='introPic' src='trustrating_stim/white_mw092.bmp'><br><font color='green'><strong>Share</strong></font></div><div class='tc'><img class='introPic' src='trustrating_stim/white_mw042.bmp'><br><font color='red'><strong>Keep</strong></font></div><div class='tr'><img class='introPic' src='trustrating_stim/white_mw070.bmp'><br><font color='green'><strong>Share</strong></font></div></div></div>","null","ARRAY","3","trustrating_stim/white_mw092.bmp,trustrating_stim/white_mw042.bmp,trustrating_stim/white_mw070.bmp","1,0,1","noMatchFace","i","4500","","","","",""
"html-keyboard-response","67","209688","0.0-7.0-3.6","63614ad63aec6bcf8a045124","bdp_wmem","Tue Mar 14 2023 14:06:10 GMT-0400 (Eastern Daylight Time)","605287","Match,No Match","","null","","","","","","<div class='trialBorder'><div class='vertical-center'><img src='img/fixation2_sml.jpg'</img></div></div>","null","DELAY","","","","","","","","","","",""
"html-keyboard-response","68","213709","0.0-7.0-4.6","63614ad63aec6bcf8a045124","bdp_wmem","Tue Mar 14 2023 14:06:10 GMT-0400 (Eastern Daylight Time)","605287","Match,No Match","","4020","","","","","","<div class='trialBorder'><div class='targDiv'><div class='tc'><img class='introPic' src='trustrating_stim/white_mw038.bmp'><br><font color='green'><strong>Share</strong></font></div></div><div class='respDiv'><div class='respDivL'>Match<br>(e)</div><div class='respDivR'>No Match<br>(i)</div></div></div>","i","TARGET","3","trustrating_stim/white_mw092.bmp,trustrating_stim/white_mw042.bmp,trustrating_stim/white_mw070.bmp","1,0,1","noMatchFace","i","4500","trustrating_stim/white_mw038.bmp","green","Share","REAL","1"
"html-keyboard-response","69","214210","0.0-7.0-5.6","63614ad63aec6bcf8a045124","bdp_wmem","Tue Mar 14 2023 14:06:10 GMT-0400 (Eastern Daylight Time)","605287","Match,No Match","","null","","","","","","<div class='trialBorder'><div class='vertical-center'><img src='img/correct.jpg'></div><div class='respDiv'><div class='respDivL'>Match<br>(e)</div><div class='respDivR'><font style='color:orange'>No Match<br>(i)</font></div></div></div>","null","FEEDBACK","","","","","","","","","","",""
"html-keyboard-response","70","214712","0.0-7.0-1.7","63614ad63aec6bcf8a045124","bdp_wmem","Tue Mar 14 2023 14:06:10 GMT-0400 (Eastern Daylight Time)","605287","Match,No Match","","null","","","","","","<div class='trialBorder'><div class='vertical-center'><img src='img/fixation2_sml.jpg'</img></div></div>","null","FIX","","","","","","","","","","",""
"html-keyboard-response","71","216215","0.0-7.0-2.7","63614ad63aec6bcf8a045124","bdp_wmem","Tue Mar 14 2023 14:06:10 GMT-0400 (Eastern Daylight Time)","605287","Match,No Match","","null","","","","","","<div class='trialBorder'><div class='vertical-center'><img style='vertical-align:center; align:center' src='img/fixation2_sml.jpg'></div><div class='arrayDiv1'><div class='tc'><img class='introPic' src='trustrating_stim/white_mw038.bmp'><br><font color='red'><strong>Keep</strong></font></div></div></div>","null","ARRAY","1","trustrating_stim/white_mw038.bmp","0","noMatchFace","i","1500","","","","",""
"html-keyboard-response","72","220217","0.0-7.0-3.7","63614ad63aec6bcf8a045124","bdp_wmem","Tue Mar 14 2023 14:06:10 GMT-0400 (Eastern Daylight Time)","605287","Match,No Match","","null","","","","","","<div class='trialBorder'><div class='vertical-center'><img src='img/fixation2_sml.jpg'</img></div></div>","null","DELAY","","","","","","","","","","",""
"html-keyboard-response","73","223828","0.0-7.0-4.7","63614ad63aec6bcf8a045124","bdp_wmem","Tue Mar 14 2023 14:06:10 GMT-0400 (Eastern Daylight Time)","605287","Match,No Match","","3610","","","","","","<div class='trialBorder'><div class='targDiv'><div class='tc'><img class='introPic' src='trustrating_stim/white_mw010.bmp'><br><font color='red'><strong>Keep</strong></font></div></div><div class='respDiv'><div class='respDivL'>Match<br>(e)</div><div class='respDivR'>No Match<br>(i)</div></div></div>","e","TARGET","1","trustrating_stim/white_mw038.bmp","0","noMatchFace","i","1500","trustrating_stim/white_mw010.bmp","red","Keep","REAL","0"
"html-keyboard-response","74","224328","0.0-7.0-5.7","63614ad63aec6bcf8a045124","bdp_wmem","Tue Mar 14 2023 14:06:10 GMT-0400 (Eastern Daylight Time)","605287","Match,No Match","","null","","","","","","<div class='trialBorder'><div class='vertical-center'><img src='img/error.jpg'></div><div class='respDiv'><div class='respDivL'><font style='color:orange'>Match<br>(e)</font></div><div class='respDivR'>No Match<br>(i)</div></div></div>","null","FEEDBACK","","","","","","","","","","",""
"html-keyboard-response","75","224829","0.0-7.0-1.8","63614ad63aec6bcf8a045124","bdp_wmem","Tue Mar 14 2023 14:06:10 GMT-0400 (Eastern Daylight Time)","605287","Match,No Match","","null","","","","","","<div class='trialBorder'><div class='vertical-center'><img src='img/fixation2_sml.jpg'</img></div></div>","null","FIX","","","","","","","","","","",""
"html-keyboard-response","76","229330","0.0-7.0-2.8","63614ad63aec6bcf8a045124","bdp_wmem","Tue Mar 14 2023 14:06:10 GMT-0400 (Eastern Daylight Time)","605287","Match,No Match","","null","","","","","","<div class='trialBorder'><div class='vertical-center'><img style='vertical-align:center; align:center' src='img/fixation2_sml.jpg'></div><div class='arrayDiv3'><div class='tl'><img class='introPic' src='trustrating_stim/white_mw012.bmp'><br><font color='green'><strong>Share</strong></font></div><div class='tc'><img class='introPic' src='trustrating_stim/white_mw038.bmp'><br><font color='red'><strong>Keep</strong></font></div><div class='tr'><img class='introPic' src='trustrating_stim/white_mw070.bmp'><br><font color='green'><strong>Share</strong></font></div></div></div>","null","ARRAY","3","trustrating_stim/white_mw012.bmp,trustrating_stim/white_mw038.bmp,trustrating_stim/white_mw070.bmp","1,0,1","Match","e","4500","","","","",""
"html-keyboard-response","77","233331","0.0-7.0-3.8","63614ad63aec6bcf8a045124","bdp_wmem","Tue Mar 14 2023 14:06:10 GMT-0400 (Eastern Daylight Time)","605287","Match,No Match","","null","","","","","","<div class='trialBorder'><div class='vertical-center'><img src='img/fixation2_sml.jpg'</img></div></div>","null","DELAY","","","","","","","","","","",""
"html-keyboard-response","78","234564","0.0-7.0-4.8","63614ad63aec6bcf8a045124","bdp_wmem","Tue Mar 14 2023 14:06:10 GMT-0400 (Eastern Daylight Time)","605287","Match,No Match","","1232","","","","","","<div class='trialBorder'><div class='targDiv'><div class='tc'><img class='introPic' src='trustrating_stim/white_mw038.bmp'><br><font color='red'><strong>Keep</strong></font></div></div><div class='respDiv'><div class='respDivL'>Match<br>(e)</div><div class='respDivR'>No Match<br>(i)</div></div></div>","i","TARGET","3","trustrating_stim/white_mw012.bmp,trustrating_stim/white_mw038.bmp,trustrating_stim/white_mw070.bmp","1,0,1","Match","e","4500","trustrating_stim/white_mw038.bmp","red","Keep","REAL","0"
"html-keyboard-response","79","235065","0.0-7.0-5.8","63614ad63aec6bcf8a045124","bdp_wmem","Tue Mar 14 2023 14:06:10 GMT-0400 (Eastern Daylight Time)","605287","Match,No Match","","null","","","","","","<div class='trialBorder'><div class='vertical-center'><img src='img/error.jpg'></div><div class='respDiv'><div class='respDivL'>Match<br>(e)</div><div class='respDivR'><font style='color:orange'>No Match<br>(i)</font></div></div></div>","null","FEEDBACK","","","","","","","","","","",""
"html-keyboard-response","80","235567","0.0-7.0-1.9","63614ad63aec6bcf8a045124","bdp_wmem","Tue Mar 14 2023 14:06:10 GMT-0400 (Eastern Daylight Time)","605287","Match,No Match","","null","","","","","","<div class='trialBorder'><div class='vertical-center'><img src='img/fixation2_sml.jpg'</img></div></div>","null","FIX","","","","","","","","","","",""
"html-keyboard-response","81","240070","0.0-7.0-2.9","63614ad63aec6bcf8a045124","bdp_wmem","Tue Mar 14 2023 14:06:10 GMT-0400 (Eastern Daylight Time)","605287","Match,No Match","","null","","","","","","<div class='trialBorder'><div class='vertical-center'><img style='vertical-align:center; align:center' src='img/fixation2_sml.jpg'></div><div class='arrayDiv3'><div class='tl'><img class='introPic' src='trustrating_stim/white_mw091.bmp'><br><font color='green'><strong>Share</strong></font></div><div class='tc'><img class='introPic' src='trustrating_stim/white_mw013.bmp'><br><font color='red'><strong>Keep</strong></font></div><div class='tr'><img class='introPic' src='trustrating_stim/white_mw078.bmp'><br><font color='red'><strong>Keep</strong></font></div></div></div>","null","ARRAY","3","trustrating_stim/white_mw091.bmp,trustrating_stim/white_mw013.bmp,trustrating_stim/white_mw078.bmp","1,0,0","noMatchOutcome","i","4500","","","","",""
"html-keyboard-response","82","244072","0.0-7.0-3.9","63614ad63aec6bcf8a045124","bdp_wmem","Tue Mar 14 2023 14:06:10 GMT-0400 (Eastern Daylight Time)","605287","Match,No Match","","null","","","","","","<div class='trialBorder'><div class='vertical-center'><img src='img/fixation2_sml.jpg'</img></div></div>","null","DELAY","","","","","","","","","","",""
"html-keyboard-response","83","246092","0.0-7.0-4.9","63614ad63aec6bcf8a045124","bdp_wmem","Tue Mar 14 2023 14:06:10 GMT-0400 (Eastern Daylight Time)","605287","Match,No Match","","2019","","","","","","<div class='trialBorder'><div class='targDiv'><div class='tc'><img class='introPic' src='trustrating_stim/white_mw078.bmp'><br><font color='green'><strong>Share</strong></font></div></div><div class='respDiv'><div class='respDivL'>Match<br>(e)</div><div class='respDivR'>No Match<br>(i)</div></div></div>","i","TARGET","3","trustrating_stim/white_mw091.bmp,trustrating_stim/white_mw013.bmp,trustrating_stim/white_mw078.bmp","1,0,0","noMatchOutcome","i","4500","trustrating_stim/white_mw078.bmp","green","Share","REAL","1"
"html-keyboard-response","84","246594","0.0-7.0-5.9","63614ad63aec6bcf8a045124","bdp_wmem","Tue Mar 14 2023 14:06:10 GMT-0400 (Eastern Daylight Time)","605287","Match,No Match","","null","","","","","","<div class='trialBorder'><div class='vertical-center'><img src='img/correct.jpg'></div><div class='respDiv'><div class='respDivL'>Match<br>(e)</div><div class='respDivR'><font style='color:orange'>No Match<br>(i)</font></div></div></div>","null","FEEDBACK","","","","","","","","","","",""
"html-keyboard-response","85","247095","0.0-7.0-1.10","63614ad63aec6bcf8a045124","bdp_wmem","Tue Mar 14 2023 14:06:10 GMT-0400 (Eastern Daylight Time)","605287","Match,No Match","","null","","","","","","<div class='trialBorder'><div class='vertical-center'><img src='img/fixation2_sml.jpg'</img></div></div>","null","FIX","","","","","","","","","","",""
"html-keyboard-response","86","248597","0.0-7.0-2.10","63614ad63aec6bcf8a045124","bdp_wmem","Tue Mar 14 2023 14:06:10 GMT-0400 (Eastern Daylight Time)","605287","Match,No Match","","null","","","","","","<div class='trialBorder'><div class='vertical-center'><img style='vertical-align:center; align:center' src='img/fixation2_sml.jpg'></div><div class='arrayDiv1'><div class='tc'><img class='introPic' src='trustrating_stim/white_mw078.bmp'><br><font color='red'><strong>Keep</strong></font></div></div></div>","null","ARRAY","1","trustrating_stim/white_mw078.bmp","0","Match","e","1500","","","","",""
"html-keyboard-response","87","252598","0.0-7.0-3.10","63614ad63aec6bcf8a045124","bdp_wmem","Tue Mar 14 2023 14:06:10 GMT-0400 (Eastern Daylight Time)","605287","Match,No Match","","null","","","","","","<div class='trialBorder'><div class='vertical-center'><img src='img/fixation2_sml.jpg'</img></div></div>","null","DELAY","","","","","","","","","","",""
"html-keyboard-response","88","257324","0.0-7.0-4.10","63614ad63aec6bcf8a045124","bdp_wmem","Tue Mar 14 2023 14:06:10 GMT-0400 (Eastern Daylight Time)","605287","Match,No Match","","4725","","","","","","<div class='trialBorder'><div class='targDiv'><div class='tc'><img class='introPic' src='trustrating_stim/white_mw078.bmp'><br><font color='red'><strong>Keep</strong></font></div></div><div class='respDiv'><div class='respDivL'>Match<br>(e)</div><div class='respDivR'>No Match<br>(i)</div></div></div>","i","TARGET","1","trustrating_stim/white_mw078.bmp","0","Match","e","1500","trustrating_stim/white_mw078.bmp","red","Keep","REAL","0"
"html-keyboard-response","89","257825","0.0-7.0-5.10","63614ad63aec6bcf8a045124","bdp_wmem","Tue Mar 14 2023 14:06:10 GMT-0400 (Eastern Daylight Time)","605287","Match,No Match","","null","","","","","","<div class='trialBorder'><div class='vertical-center'><img src='img/error.jpg'></div><div class='respDiv'><div class='respDivL'>Match<br>(e)</div><div class='respDivR'><font style='color:orange'>No Match<br>(i)</font></div></div></div>","null","FEEDBACK","","","","","","","","","","",""
"html-keyboard-response","90","258326","0.0-7.0-1.11","63614ad63aec6bcf8a045124","bdp_wmem","Tue Mar 14 2023 14:06:10 GMT-0400 (Eastern Daylight Time)","605287","Match,No Match","","null","","","","","","<div class='trialBorder'><div class='vertical-center'><img src='img/fixation2_sml.jpg'</img></div></div>","null","FIX","","","","","","","","","","",""
"html-keyboard-response","91","261327","0.0-7.0-2.11","63614ad63aec6bcf8a045124","bdp_wmem","Tue Mar 14 2023 14:06:10 GMT-0400 (Eastern Daylight Time)","605287","Match,No Match","","null","","","","","","<div class='trialBorder'><div class='vertical-center'><img style='vertical-align:center; align:center' src='img/fixation2_sml.jpg'></div><div class='arrayDiv2'><div class='tl'><img class='introPic' src='trustrating_stim/white_mw070.bmp'><br><font color='red'><strong>Keep</strong></font></div><div class='tr'><img class='introPic' src='trustrating_stim/white_mw091.bmp'><br><font color='green'><strong>Share</strong></font></div></div></div>","null","ARRAY","2","trustrating_stim/white_mw070.bmp,trustrating_stim/white_mw091.bmp","0,1","noMatchOutcome","i","3000","","","","",""
"html-keyboard-response","92","265329","0.0-7.0-3.11","63614ad63aec6bcf8a045124","bdp_wmem","Tue Mar 14 2023 14:06:10 GMT-0400 (Eastern Daylight Time)","605287","Match,No Match","","null","","","","","","<div class='trialBorder'><div class='vertical-center'><img src='img/fixation2_sml.jpg'</img></div></div>","null","DELAY","","","","","","","","","","",""
"html-keyboard-response","93","266460","0.0-7.0-4.11","63614ad63aec6bcf8a045124","bdp_wmem","Tue Mar 14 2023 14:06:10 GMT-0400 (Eastern Daylight Time)","605287","Match,No Match","","1130","","","","","","<div class='trialBorder'><div class='targDiv'><div class='tc'><img class='introPic' src='trustrating_stim/white_mw070.bmp'><br><font color='green'><strong>Share</strong></font></div></div><div class='respDiv'><div class='respDivL'>Match<br>(e)</div><div class='respDivR'>No Match<br>(i)</div></div></div>","i","TARGET","2","trustrating_stim/white_mw070.bmp,trustrating_stim/white_mw091.bmp","0,1","noMatchOutcome","i","3000","trustrating_stim/white_mw070.bmp","green","Share","REAL","1"
"html-keyboard-response","94","266960","0.0-7.0-5.11","63614ad63aec6bcf8a045124","bdp_wmem","Tue Mar 14 2023 14:06:10 GMT-0400 (Eastern Daylight Time)","605287","Match,No Match","","null","","","","","","<div class='trialBorder'><div class='vertical-center'><img src='img/correct.jpg'></div><div class='respDiv'><div class='respDivL'>Match<br>(e)</div><div class='respDivR'><font style='color:orange'>No Match<br>(i)</font></div></div></div>","null","FEEDBACK","","","","","","","","","","",""
"html-keyboard-response","95","267462","0.0-7.0-1.12","63614ad63aec6bcf8a045124","bdp_wmem","Tue Mar 14 2023 14:06:10 GMT-0400 (Eastern Daylight Time)","605287","Match,No Match","","null","","","","","","<div class='trialBorder'><div class='vertical-center'><img src='img/fixation2_sml.jpg'</img></div></div>","null","FIX","","","","","","","","","","",""
"html-keyboard-response","96","271964","0.0-7.0-2.12","63614ad63aec6bcf8a045124","bdp_wmem","Tue Mar 14 2023 14:06:10 GMT-0400 (Eastern Daylight Time)","605287","Match,No Match","","null","","","","","","<div class='trialBorder'><div class='vertical-center'><img style='vertical-align:center; align:center' src='img/fixation2_sml.jpg'></div><div class='arrayDiv3'><div class='tl'><img class='introPic' src='trustrating_stim/white_mw091.bmp'><br><font color='red'><strong>Keep</strong></font></div><div class='tc'><img class='introPic' src='trustrating_stim/white_mw012.bmp'><br><font color='green'><strong>Share</strong></font></div><div class='tr'><img class='introPic' src='trustrating_stim/white_mw078.bmp'><br><font color='red'><strong>Keep</strong></font></div></div></div>","null","ARRAY","3","trustrating_stim/white_mw091.bmp,trustrating_stim/white_mw012.bmp,trustrating_stim/white_mw078.bmp","0,1,0","Match","e","4500","","","","",""
"html-keyboard-response","97","275966","0.0-7.0-3.12","63614ad63aec6bcf8a045124","bdp_wmem","Tue Mar 14 2023 14:06:10 GMT-0400 (Eastern Daylight Time)","605287","Match,No Match","","null","","","","","","<div class='trialBorder'><div class='vertical-center'><img src='img/fixation2_sml.jpg'</img></div></div>","null","DELAY","","","","","","","","","","",""
"html-keyboard-response","98","277956","0.0-7.0-4.12","63614ad63aec6bcf8a045124","bdp_wmem","Tue Mar 14 2023 14:06:10 GMT-0400 (Eastern Daylight Time)","605287","Match,No Match","","1989","","","","","","<div class='trialBorder'><div class='targDiv'><div class='tc'><img class='introPic' src='trustrating_stim/white_mw091.bmp'><br><font color='red'><strong>Keep</strong></font></div></div><div class='respDiv'><div class='respDivL'>Match<br>(e)</div><div class='respDivR'>No Match<br>(i)</div></div></div>","e","TARGET","3","trustrating_stim/white_mw091.bmp,trustrating_stim/white_mw012.bmp,trustrating_stim/white_mw078.bmp","0,1,0","Match","e","4500","trustrating_stim/white_mw091.bmp","red","Keep","REAL","1"
"html-keyboard-response","99","278457","0.0-7.0-5.12","63614ad63aec6bcf8a045124","bdp_wmem","Tue Mar 14 2023 14:06:10 GMT-0400 (Eastern Daylight Time)","605287","Match,No Match","","null","","","","","","<div class='trialBorder'><div class='vertical-center'><img src='img/correct.jpg'></div><div class='respDiv'><div class='respDivL'><font style='color:orange'>Match<br>(e)</font></div><div class='respDivR'>No Match<br>(i)</div></div></div>","null","FEEDBACK","","","","","","","","","","",""
"html-keyboard-response","100","278959","0.0-7.0-1.13","63614ad63aec6bcf8a045124","bdp_wmem","Tue Mar 14 2023 14:06:10 GMT-0400 (Eastern Daylight Time)","605287","Match,No Match","","null","","","","","","<div class='trialBorder'><div class='vertical-center'><img src='img/fixation2_sml.jpg'</img></div></div>","null","FIX","","","","","","","","","","",""
"html-keyboard-response","101","280460","0.0-7.0-2.13","63614ad63aec6bcf8a045124","bdp_wmem","Tue Mar 14 2023 14:06:10 GMT-0400 (Eastern Daylight Time)","605287","Match,No Match","","null","","","","","","<div class='trialBorder'><div class='vertical-center'><img style='vertical-align:center; align:center' src='img/fixation2_sml.jpg'></div><div class='arrayDiv1'><div class='tc'><img class='introPic' src='trustrating_stim/white_mw070.bmp'><br><font color='green'><strong>Share</strong></font></div></div></div>","null","ARRAY","1","trustrating_stim/white_mw070.bmp","1","Match","e","1500","","","","",""
"html-keyboard-response","102","284462","0.0-7.0-3.13","63614ad63aec6bcf8a045124","bdp_wmem","Tue Mar 14 2023 14:06:10 GMT-0400 (Eastern Daylight Time)","605287","Match,No Match","","null","","","","","","<div class='trialBorder'><div class='vertical-center'><img src='img/fixation2_sml.jpg'</img></div></div>","null","DELAY","","","","","","","","","","",""
"html-keyboard-response","103","285644","0.0-7.0-4.13","63614ad63aec6bcf8a045124","bdp_wmem","Tue Mar 14 2023 14:06:10 GMT-0400 (Eastern Daylight Time)","605287","Match,No Match","","1180","","","","","","<div class='trialBorder'><div class='targDiv'><div class='tc'><img class='introPic' src='trustrating_stim/white_mw070.bmp'><br><font color='green'><strong>Share</strong></font></div></div><div class='respDiv'><div class='respDivL'>Match<br>(e)</div><div class='respDivR'>No Match<br>(i)</div></div></div>","i","TARGET","1","trustrating_stim/white_mw070.bmp","1","Match","e","1500","trustrating_stim/white_mw070.bmp","green","Share","REAL","0"
"html-keyboard-response","104","286144","0.0-7.0-5.13","63614ad63aec6bcf8a045124","bdp_wmem","Tue Mar 14 2023 14:06:10 GMT-0400 (Eastern Daylight Time)","605287","Match,No Match","","null","","","","","","<div class='trialBorder'><div class='vertical-center'><img src='img/error.jpg'></div><div class='respDiv'><div class='respDivL'>Match<br>(e)</div><div class='respDivR'><font style='color:orange'>No Match<br>(i)</font></div></div></div>","null","FEEDBACK","","","","","","","","","","",""
"html-keyboard-response","105","286645","0.0-7.0-1.14","63614ad63aec6bcf8a045124","bdp_wmem","Tue Mar 14 2023 14:06:10 GMT-0400 (Eastern Daylight Time)","605287","Match,No Match","","null","","","","","","<div class='trialBorder'><div class='vertical-center'><img src='img/fixation2_sml.jpg'</img></div></div>","null","FIX","","","","","","","","","","",""
"html-keyboard-response","106","288147","0.0-7.0-2.14","63614ad63aec6bcf8a045124","bdp_wmem","Tue Mar 14 2023 14:06:10 GMT-0400 (Eastern Daylight Time)","605287","Match,No Match","","null","","","","","","<div class='trialBorder'><div class='vertical-center'><img style='vertical-align:center; align:center' src='img/fixation2_sml.jpg'></div><div class='arrayDiv1'><div class='tc'><img class='introPic' src='trustrating_stim/white_mw070.bmp'><br><font color='green'><strong>Share</strong></font></div></div></div>","null","ARRAY","1","trustrating_stim/white_mw070.bmp","1","Match","e","1500","","","","",""
"html-keyboard-response","107","292148","0.0-7.0-3.14","63614ad63aec6bcf8a045124","bdp_wmem","Tue Mar 14 2023 14:06:10 GMT-0400 (Eastern Daylight Time)","605287","Match,No Match","","null","","","","","","<div class='trialBorder'><div class='vertical-center'><img src='img/fixation2_sml.jpg'</img></div></div>","null","DELAY","","","","","","","","","","",""
"html-keyboard-response","108","293964","0.0-7.0-4.14","63614ad63aec6bcf8a045124","bdp_wmem","Tue Mar 14 2023 14:06:10 GMT-0400 (Eastern Daylight Time)","605287","Match,No Match","","1815","","","","","","<div class='trialBorder'><div class='targDiv'><div class='tc'><img class='introPic' src='trustrating_stim/white_mw070.bmp'><br><font color='green'><strong>Share</strong></font></div></div><div class='respDiv'><div class='respDivL'>Match<br>(e)</div><div class='respDivR'>No Match<br>(i)</div></div></div>","i","TARGET","1","trustrating_stim/white_mw070.bmp","1","Match","e","1500","trustrating_stim/white_mw070.bmp","green","Share","REAL","0"
"html-keyboard-response","109","294464","0.0-7.0-5.14","63614ad63aec6bcf8a045124","bdp_wmem","Tue Mar 14 2023 14:06:10 GMT-0400 (Eastern Daylight Time)","605287","Match,No Match","","null","","","","","","<div class='trialBorder'><div class='vertical-center'><img src='img/error.jpg'></div><div class='respDiv'><div class='respDivL'>Match<br>(e)</div><div class='respDivR'><font style='color:orange'>No Match<br>(i)</font></div></div></div>","null","FEEDBACK","","","","","","","","","","",""
"html-keyboard-response","110","294965","0.0-7.0-1.15","63614ad63aec6bcf8a045124","bdp_wmem","Tue Mar 14 2023 14:06:10 GMT-0400 (Eastern Daylight Time)","605287","Match,No Match","","null","","","","","","<div class='trialBorder'><div class='vertical-center'><img src='img/fixation2_sml.jpg'</img></div></div>","null","FIX","","","","","","","","","","",""
"html-keyboard-response","111","297966","0.0-7.0-2.15","63614ad63aec6bcf8a045124","bdp_wmem","Tue Mar 14 2023 14:06:10 GMT-0400 (Eastern Daylight Time)","605287","Match,No Match","","null","","","","","","<div class='trialBorder'><div class='vertical-center'><img style='vertical-align:center; align:center' src='img/fixation2_sml.jpg'></div><div class='arrayDiv2'><div class='tl'><img class='introPic' src='trustrating_stim/white_mw010.bmp'><br><font color='red'><strong>Keep</strong></font></div><div class='tr'><img class='introPic' src='trustrating_stim/white_mw078.bmp'><br><font color='green'><strong>Share</strong></font></div></div></div>","null","ARRAY","2","trustrating_stim/white_mw010.bmp,trustrating_stim/white_mw078.bmp","0,1","noMatchOutcome","i","3000","","","","",""
"html-keyboard-response","112","301968","0.0-7.0-3.15","63614ad63aec6bcf8a045124","bdp_wmem","Tue Mar 14 2023 14:06:10 GMT-0400 (Eastern Daylight Time)","605287","Match,No Match","","null","","","","","","<div class='trialBorder'><div class='vertical-center'><img src='img/fixation2_sml.jpg'</img></div></div>","null","DELAY","","","","","","","","","","",""
"html-keyboard-response","113","304692","0.0-7.0-4.15","63614ad63aec6bcf8a045124","bdp_wmem","Tue Mar 14 2023 14:06:10 GMT-0400 (Eastern Daylight Time)","605287","Match,No Match","","2721","","","","","","<div class='trialBorder'><div class='targDiv'><div class='tc'><img class='introPic' src='trustrating_stim/white_mw010.bmp'><br><font color='green'><strong>Share</strong></font></div></div><div class='respDiv'><div class='respDivL'>Match<br>(e)</div><div class='respDivR'>No Match<br>(i)</div></div></div>","i","TARGET","2","trustrating_stim/white_mw010.bmp,trustrating_stim/white_mw078.bmp","0,1","noMatchOutcome","i","3000","trustrating_stim/white_mw010.bmp","green","Share","REAL","1"
"html-keyboard-response","114","305193","0.0-7.0-5.15","63614ad63aec6bcf8a045124","bdp_wmem","Tue Mar 14 2023 14:06:10 GMT-0400 (Eastern Daylight Time)","605287","Match,No Match","","null","","","","","","<div class='trialBorder'><div class='vertical-center'><img src='img/correct.jpg'></div><div class='respDiv'><div class='respDivL'>Match<br>(e)</div><div class='respDivR'><font style='color:orange'>No Match<br>(i)</font></div></div></div>","null","FEEDBACK","","","","","","","","","","",""
"html-keyboard-response","115","305694","0.0-7.0-1.16","63614ad63aec6bcf8a045124","bdp_wmem","Tue Mar 14 2023 14:06:10 GMT-0400 (Eastern Daylight Time)","605287","Match,No Match","","null","","","","","","<div class='trialBorder'><div class='vertical-center'><img src='img/fixation2_sml.jpg'</img></div></div>","null","FIX","","","","","","","","","","",""
"html-keyboard-response","116","307196","0.0-7.0-2.16","63614ad63aec6bcf8a045124","bdp_wmem","Tue Mar 14 2023 14:06:10 GMT-0400 (Eastern Daylight Time)","605287","Match,No Match","","null","","","","","","<div class='trialBorder'><div class='vertical-center'><img style='vertical-align:center; align:center' src='img/fixation2_sml.jpg'></div><div class='arrayDiv1'><div class='tc'><img class='introPic' src='trustrating_stim/white_mw091.bmp'><br><font color='red'><strong>Keep</strong></font></div></div></div>","null","ARRAY","1","trustrating_stim/white_mw091.bmp","0","noMatchOutcome","i","1500","","","","",""
"html-keyboard-response","117","311198","0.0-7.0-3.16","63614ad63aec6bcf8a045124","bdp_wmem","Tue Mar 14 2023 14:06:10 GMT-0400 (Eastern Daylight Time)","605287","Match,No Match","","null","","","","","","<div class='trialBorder'><div class='vertical-center'><img src='img/fixation2_sml.jpg'</img></div></div>","null","DELAY","","","","","","","","","","",""
"html-keyboard-response","118","312844","0.0-7.0-4.16","63614ad63aec6bcf8a045124","bdp_wmem","Tue Mar 14 2023 14:06:10 GMT-0400 (Eastern Daylight Time)","605287","Match,No Match","","1645","","","","","","<div class='trialBorder'><div class='targDiv'><div class='tc'><img class='introPic' src='trustrating_stim/white_mw091.bmp'><br><font color='green'><strong>Share</strong></font></div></div><div class='respDiv'><div class='respDivL'>Match<br>(e)</div><div class='respDivR'>No Match<br>(i)</div></div></div>","e","TARGET","1","trustrating_stim/white_mw091.bmp","0","noMatchOutcome","i","1500","trustrating_stim/white_mw091.bmp","green","Share","REAL","0"
"html-keyboard-response","119","313345","0.0-7.0-5.16","63614ad63aec6bcf8a045124","bdp_wmem","Tue Mar 14 2023 14:06:10 GMT-0400 (Eastern Daylight Time)","605287","Match,No Match","","null","","","","","","<div class='trialBorder'><div class='vertical-center'><img src='img/error.jpg'></div><div class='respDiv'><div class='respDivL'><font style='color:orange'>Match<br>(e)</font></div><div class='respDivR'>No Match<br>(i)</div></div></div>","null","FEEDBACK","","","","","","","","","","",""
"html-keyboard-response","120","313846","0.0-7.0-1.17","63614ad63aec6bcf8a045124","bdp_wmem","Tue Mar 14 2023 14:06:10 GMT-0400 (Eastern Daylight Time)","605287","Match,No Match","","null","","","","","","<div class='trialBorder'><div class='vertical-center'><img src='img/fixation2_sml.jpg'</img></div></div>","null","FIX","","","","","","","","","","",""
"html-keyboard-response","121","315347","0.0-7.0-2.17","63614ad63aec6bcf8a045124","bdp_wmem","Tue Mar 14 2023 14:06:10 GMT-0400 (Eastern Daylight Time)","605287","Match,No Match","","null","","","","","","<div class='trialBorder'><div class='vertical-center'><img style='vertical-align:center; align:center' src='img/fixation2_sml.jpg'></div><div class='arrayDiv1'><div class='tc'><img class='introPic' src='trustrating_stim/white_mw003.bmp'><br><font color='red'><strong>Keep</strong></font></div></div></div>","null","ARRAY","1","trustrating_stim/white_mw003.bmp","0","Match","e","1500","","","","",""
"html-keyboard-response","122","319348","0.0-7.0-3.17","63614ad63aec6bcf8a045124","bdp_wmem","Tue Mar 14 2023 14:06:10 GMT-0400 (Eastern Daylight Time)","605287","Match,No Match","","null","","","","","","<div class='trialBorder'><div class='vertical-center'><img src='img/fixation2_sml.jpg'</img></div></div>","null","DELAY","","","","","","","","","","",""
"html-keyboard-response","123","320869","0.0-7.0-4.17","63614ad63aec6bcf8a045124","bdp_wmem","Tue Mar 14 2023 14:06:10 GMT-0400 (Eastern Daylight Time)","605287","Match,No Match","","1520","","","","","","<div class='trialBorder'><div class='targDiv'><div class='tc'><img class='introPic' src='trustrating_stim/white_mw003.bmp'><br><font color='red'><strong>Keep</strong></font></div></div><div class='respDiv'><div class='respDivL'>Match<br>(e)</div><div class='respDivR'>No Match<br>(i)</div></div></div>","i","TARGET","1","trustrating_stim/white_mw003.bmp","0","Match","e","1500","trustrating_stim/white_mw003.bmp","red","Keep","REAL","0"
"html-keyboard-response","124","321370","0.0-7.0-5.17","63614ad63aec6bcf8a045124","bdp_wmem","Tue Mar 14 2023 14:06:10 GMT-0400 (Eastern Daylight Time)","605287","Match,No Match","","null","","","","","","<div class='trialBorder'><div class='vertical-center'><img src='img/error.jpg'></div><div class='respDiv'><div class='respDivL'>Match<br>(e)</div><div class='respDivR'><font style='color:orange'>No Match<br>(i)</font></div></div></div>","null","FEEDBACK","","","","","","","","","","",""
"html-keyboard-response","125","321871","0.0-7.0-1.18","63614ad63aec6bcf8a045124","bdp_wmem","Tue Mar 14 2023 14:06:10 GMT-0400 (Eastern Daylight Time)","605287","Match,No Match","","null","","","","","","<div class='trialBorder'><div class='vertical-center'><img src='img/fixation2_sml.jpg'</img></div></div>","null","FIX","","","","","","","","","","",""
"html-keyboard-response","126","323374","0.0-7.0-2.18","63614ad63aec6bcf8a045124","bdp_wmem","Tue Mar 14 2023 14:06:10 GMT-0400 (Eastern Daylight Time)","605287","Match,No Match","","null","","","","","","<div class='trialBorder'><div class='vertical-center'><img style='vertical-align:center; align:center' src='img/fixation2_sml.jpg'></div><div class='arrayDiv1'><div class='tc'><img class='introPic' src='trustrating_stim/white_mw038.bmp'><br><font color='red'><strong>Keep</strong></font></div></div></div>","null","ARRAY","1","trustrating_stim/white_mw038.bmp","0","noMatchOutcome","i","1500","","","","",""
"html-keyboard-response","127","327376","0.0-7.0-3.18","63614ad63aec6bcf8a045124","bdp_wmem","Tue Mar 14 2023 14:06:10 GMT-0400 (Eastern Daylight Time)","605287","Match,No Match","","null","","","","","","<div class='trialBorder'><div class='vertical-center'><img src='img/fixation2_sml.jpg'</img></div></div>","null","DELAY","","","","","","","","","","",""
"html-keyboard-response","128","328332","0.0-7.0-4.18","63614ad63aec6bcf8a045124","bdp_wmem","Tue Mar 14 2023 14:06:10 GMT-0400 (Eastern Daylight Time)","605287","Match,No Match","","955","","","","","","<div class='trialBorder'><div class='targDiv'><div class='tc'><img class='introPic' src='trustrating_stim/white_mw038.bmp'><br><font color='green'><strong>Share</strong></font></div></div><div class='respDiv'><div class='respDivL'>Match<br>(e)</div><div class='respDivR'>No Match<br>(i)</div></div></div>","i","TARGET","1","trustrating_stim/white_mw038.bmp","0","noMatchOutcome","i","1500","trustrating_stim/white_mw038.bmp","green","Share","REAL","1"
"html-keyboard-response","129","328833","0.0-7.0-5.18","63614ad63aec6bcf8a045124","bdp_wmem","Tue Mar 14 2023 14:06:10 GMT-0400 (Eastern Daylight Time)","605287","Match,No Match","","null","","","","","","<div class='trialBorder'><div class='vertical-center'><img src='img/correct.jpg'></div><div class='respDiv'><div class='respDivL'>Match<br>(e)</div><div class='respDivR'><font style='color:orange'>No Match<br>(i)</font></div></div></div>","null","FEEDBACK","","","","","","","","","","",""
"html-keyboard-response","130","329334","0.0-7.0-1.19","63614ad63aec6bcf8a045124","bdp_wmem","Tue Mar 14 2023 14:06:10 GMT-0400 (Eastern Daylight Time)","605287","Match,No Match","","null","","","","","","<div class='trialBorder'><div class='vertical-center'><img src='img/fixation2_sml.jpg'</img></div></div>","null","FIX","","","","","","","","","","",""
"html-keyboard-response","131","333836","0.0-7.0-2.19","63614ad63aec6bcf8a045124","bdp_wmem","Tue Mar 14 2023 14:06:10 GMT-0400 (Eastern Daylight Time)","605287","Match,No Match","","null","","","","","","<div class='trialBorder'><div class='vertical-center'><img style='vertical-align:center; align:center' src='img/fixation2_sml.jpg'></div><div class='arrayDiv3'><div class='tl'><img class='introPic' src='trustrating_stim/white_mw092.bmp'><br><font color='green'><strong>Share</strong></font></div><div class='tc'><img class='introPic' src='trustrating_stim/white_mw013.bmp'><br><font color='red'><strong>Keep</strong></font></div><div class='tr'><img class='introPic' src='trustrating_stim/white_mw003.bmp'><br><font color='red'><strong>Keep</strong></font></div></div></div>","null","ARRAY","3","trustrating_stim/white_mw092.bmp,trustrating_stim/white_mw013.bmp,trustrating_stim/white_mw003.bmp","1,0,0","noMatchFace","i","4500","","","","",""
"html-keyboard-response","132","337838","0.0-7.0-3.19","63614ad63aec6bcf8a045124","bdp_wmem","Tue Mar 14 2023 14:06:10 GMT-0400 (Eastern Daylight Time)","605287","Match,No Match","","null","","","","","","<div class='trialBorder'><div class='vertical-center'><img src='img/fixation2_sml.jpg'</img></div></div>","null","DELAY","","","","","","","","","","",""
"html-keyboard-response","133","339844","0.0-7.0-4.19","63614ad63aec6bcf8a045124","bdp_wmem","Tue Mar 14 2023 14:06:10 GMT-0400 (Eastern Daylight Time)","605287","Match,No Match","","2006","","","","","","<div class='trialBorder'><div class='targDiv'><div class='tc'><img class='introPic' src='trustrating_stim/white_mw091.bmp'><br><font color='red'><strong>Keep</strong></font></div></div><div class='respDiv'><div class='respDivL'>Match<br>(e)</div><div class='respDivR'>No Match<br>(i)</div></div></div>","e","TARGET","3","trustrating_stim/white_mw092.bmp,trustrating_stim/white_mw013.bmp,trustrating_stim/white_mw003.bmp","1,0,0","noMatchFace","i","4500","trustrating_stim/white_mw091.bmp","red","Keep","REAL","0"
"html-keyboard-response","134","340345","0.0-7.0-5.19","63614ad63aec6bcf8a045124","bdp_wmem","Tue Mar 14 2023 14:06:10 GMT-0400 (Eastern Daylight Time)","605287","Match,No Match","","null","","","","","","<div class='trialBorder'><div class='vertical-center'><img src='img/error.jpg'></div><div class='respDiv'><div class='respDivL'><font style='color:orange'>Match<br>(e)</font></div><div class='respDivR'>No Match<br>(i)</div></div></div>","null","FEEDBACK","","","","","","","","","","",""
"html-keyboard-response","135","340846","0.0-7.0-1.20","63614ad63aec6bcf8a045124","bdp_wmem","Tue Mar 14 2023 14:06:10 GMT-0400 (Eastern Daylight Time)","605287","Match,No Match","","null","","","","","","<div class='trialBorder'><div class='vertical-center'><img src='img/fixation2_sml.jpg'</img></div></div>","null","FIX","","","","","","","","","","",""
"html-keyboard-response","136","342348","0.0-7.0-2.20","63614ad63aec6bcf8a045124","bdp_wmem","Tue Mar 14 2023 14:06:10 GMT-0400 (Eastern Daylight Time)","605287","Match,No Match","","null","","","","","","<div class='trialBorder'><div class='vertical-center'><img style='vertical-align:center; align:center' src='img/fixation2_sml.jpg'></div><div class='arrayDiv1'><div class='tc'><img class='introPic' src='trustrating_stim/white_mw038.bmp'><br><font color='green'><strong>Share</strong></font></div></div></div>","null","ARRAY","1","trustrating_stim/white_mw038.bmp","1","noMatchFace","i","1500","","","","",""
"html-keyboard-response","137","346351","0.0-7.0-3.20","63614ad63aec6bcf8a045124","bdp_wmem","Tue Mar 14 2023 14:06:10 GMT-0400 (Eastern Daylight Time)","605287","Match,No Match","","null","","","","","","<div class='trialBorder'><div class='vertical-center'><img src='img/fixation2_sml.jpg'</img></div></div>","null","DELAY","","","","","","","","","","",""
"html-keyboard-response","138","348285","0.0-7.0-4.20","63614ad63aec6bcf8a045124","bdp_wmem","Tue Mar 14 2023 14:06:10 GMT-0400 (Eastern Daylight Time)","605287","Match,No Match","","1934","","","","","","<div class='trialBorder'><div class='targDiv'><div class='tc'><img class='introPic' src='trustrating_stim/white_mw078.bmp'><br><font color='green'><strong>Share</strong></font></div></div><div class='respDiv'><div class='respDivL'>Match<br>(e)</div><div class='respDivR'>No Match<br>(i)</div></div></div>","i","TARGET","1","trustrating_stim/white_mw038.bmp","1","noMatchFace","i","1500","trustrating_stim/white_mw078.bmp","green","Share","REAL","1"
"html-keyboard-response","139","348788","0.0-7.0-5.20","63614ad63aec6bcf8a045124","bdp_wmem","Tue Mar 14 2023 14:06:10 GMT-0400 (Eastern Daylight Time)","605287","Match,No Match","","null","","","","","","<div class='trialBorder'><div class='vertical-center'><img src='img/correct.jpg'></div><div class='respDiv'><div class='respDivL'>Match<br>(e)</div><div class='respDivR'><font style='color:orange'>No Match<br>(i)</font></div></div></div>","null","FEEDBACK","","","","","","","","","","",""
"html-keyboard-response","140","349289","0.0-7.0-1.21","63614ad63aec6bcf8a045124","bdp_wmem","Tue Mar 14 2023 14:06:10 GMT-0400 (Eastern Daylight Time)","605287","Match,No Match","","null","","","","","","<div class='trialBorder'><div class='vertical-center'><img src='img/fixation2_sml.jpg'</img></div></div>","null","FIX","","","","","","","","","","",""
"html-keyboard-response","141","352290","0.0-7.0-2.21","63614ad63aec6bcf8a045124","bdp_wmem","Tue Mar 14 2023 14:06:10 GMT-0400 (Eastern Daylight Time)","605287","Match,No Match","","null","","","","","","<div class='trialBorder'><div class='vertical-center'><img style='vertical-align:center; align:center' src='img/fixation2_sml.jpg'></div><div class='arrayDiv2'><div class='tl'><img class='introPic' src='trustrating_stim/white_mw078.bmp'><br><font color='green'><strong>Share</strong></font></div><div class='tr'><img class='introPic' src='trustrating_stim/white_mw010.bmp'><br><font color='red'><strong>Keep</strong></font></div></div></div>","null","ARRAY","2","trustrating_stim/white_mw078.bmp,trustrating_stim/white_mw010.bmp","1,0","noMatchOutcome","i","3000","","","","",""
"html-keyboard-response","142","356291","0.0-7.0-3.21","63614ad63aec6bcf8a045124","bdp_wmem","Tue Mar 14 2023 14:06:10 GMT-0400 (Eastern Daylight Time)","605287","Match,No Match","","null","","","","","","<div class='trialBorder'><div class='vertical-center'><img src='img/fixation2_sml.jpg'</img></div></div>","null","DELAY","","","","","","","","","","",""
"html-keyboard-response","143","357999","0.0-7.0-4.21","63614ad63aec6bcf8a045124","bdp_wmem","Tue Mar 14 2023 14:06:10 GMT-0400 (Eastern Daylight Time)","605287","Match,No Match","","1706","","","","","","<div class='trialBorder'><div class='targDiv'><div class='tc'><img class='introPic' src='trustrating_stim/white_mw078.bmp'><br><font color='red'><strong>Keep</strong></font></div></div><div class='respDiv'><div class='respDivL'>Match<br>(e)</div><div class='respDivR'>No Match<br>(i)</div></div></div>","i","TARGET","2","trustrating_stim/white_mw078.bmp,trustrating_stim/white_mw010.bmp","1,0","noMatchOutcome","i","3000","trustrating_stim/white_mw078.bmp","red","Keep","REAL","1"
"html-keyboard-response","144","358502","0.0-7.0-5.21","63614ad63aec6bcf8a045124","bdp_wmem","Tue Mar 14 2023 14:06:10 GMT-0400 (Eastern Daylight Time)","605287","Match,No Match","","null","","","","","","<div class='trialBorder'><div class='vertical-center'><img src='img/correct.jpg'></div><div class='respDiv'><div class='respDivL'>Match<br>(e)</div><div class='respDivR'><font style='color:orange'>No Match<br>(i)</font></div></div></div>","null","FEEDBACK","","","","","","","","","","",""
"html-keyboard-response","145","359004","0.0-7.0-1.22","63614ad63aec6bcf8a045124","bdp_wmem","Tue Mar 14 2023 14:06:10 GMT-0400 (Eastern Daylight Time)","605287","Match,No Match","","null","","","","","","<div class='trialBorder'><div class='vertical-center'><img src='img/fixation2_sml.jpg'</img></div></div>","null","FIX","","","","","","","","","","",""
"html-keyboard-response","146","363507","0.0-7.0-2.22","63614ad63aec6bcf8a045124","bdp_wmem","Tue Mar 14 2023 14:06:10 GMT-0400 (Eastern Daylight Time)","605287","Match,No Match","","null","","","","","","<div class='trialBorder'><div class='vertical-center'><img style='vertical-align:center; align:center' src='img/fixation2_sml.jpg'></div><div class='arrayDiv3'><div class='tl'><img class='introPic' src='trustrating_stim/white_mw010.bmp'><br><font color='green'><strong>Share</strong></font></div><div class='tc'><img class='introPic' src='trustrating_stim/white_mw092.bmp'><br><font color='red'><strong>Keep</strong></font></div><div class='tr'><img class='introPic' src='trustrating_stim/white_mw040.bmp'><br><font color='red'><strong>Keep</strong></font></div></div></div>","null","ARRAY","3","trustrating_stim/white_mw010.bmp,trustrating_stim/white_mw092.bmp,trustrating_stim/white_mw040.bmp","1,0,0","Match","e","4500","","","","",""
"html-keyboard-response","147","367509","0.0-7.0-3.22","63614ad63aec6bcf8a045124","bdp_wmem","Tue Mar 14 2023 14:06:10 GMT-0400 (Eastern Daylight Time)","605287","Match,No Match","","null","","","","","","<div class='trialBorder'><div class='vertical-center'><img src='img/fixation2_sml.jpg'</img></div></div>","null","DELAY","","","","","","","","","","",""
"html-keyboard-response","148","368772","0.0-7.0-4.22","63614ad63aec6bcf8a045124","bdp_wmem","Tue Mar 14 2023 14:06:10 GMT-0400 (Eastern Daylight Time)","605287","Match,No Match","","1263","","","","","","<div class='trialBorder'><div class='targDiv'><div class='tc'><img class='introPic' src='trustrating_stim/white_mw092.bmp'><br><font color='red'><strong>Keep</strong></font></div></div><div class='respDiv'><div class='respDivL'>Match<br>(e)</div><div class='respDivR'>No Match<br>(i)</div></div></div>","i","TARGET","3","trustrating_stim/white_mw010.bmp,trustrating_stim/white_mw092.bmp,trustrating_stim/white_mw040.bmp","1,0,0","Match","e","4500","trustrating_stim/white_mw092.bmp","red","Keep","REAL","0"
"html-keyboard-response","149","369273","0.0-7.0-5.22","63614ad63aec6bcf8a045124","bdp_wmem","Tue Mar 14 2023 14:06:10 GMT-0400 (Eastern Daylight Time)","605287","Match,No Match","","null","","","","","","<div class='trialBorder'><div class='vertical-center'><img src='img/error.jpg'></div><div class='respDiv'><div class='respDivL'>Match<br>(e)</div><div class='respDivR'><font style='color:orange'>No Match<br>(i)</font></div></div></div>","null","FEEDBACK","","","","","","","","","","",""
"html-keyboard-response","150","369774","0.0-7.0-1.23","63614ad63aec6bcf8a045124","bdp_wmem","Tue Mar 14 2023 14:06:10 GMT-0400 (Eastern Daylight Time)","605287","Match,No Match","","null","","","","","","<div class='trialBorder'><div class='vertical-center'><img src='img/fixation2_sml.jpg'</img></div></div>","null","FIX","","","","","","","","","","",""
"html-keyboard-response","151","371276","0.0-7.0-2.23","63614ad63aec6bcf8a045124","bdp_wmem","Tue Mar 14 2023 14:06:10 GMT-0400 (Eastern Daylight Time)","605287","Match,No Match","","null","","","","","","<div class='trialBorder'><div class='vertical-center'><img style='vertical-align:center; align:center' src='img/fixation2_sml.jpg'></div><div class='arrayDiv1'><div class='tc'><img class='introPic' src='trustrating_stim/white_mw003.bmp'><br><font color='red'><strong>Keep</strong></font></div></div></div>","null","ARRAY","1","trustrating_stim/white_mw003.bmp","0","Match","e","1500","","","","",""
"html-keyboard-response","152","375278","0.0-7.0-3.23","63614ad63aec6bcf8a045124","bdp_wmem","Tue Mar 14 2023 14:06:10 GMT-0400 (Eastern Daylight Time)","605287","Match,No Match","","null","","","","","","<div class='trialBorder'><div class='vertical-center'><img src='img/fixation2_sml.jpg'</img></div></div>","null","DELAY","","","","","","","","","","",""
"html-keyboard-response","153","376452","0.0-7.0-4.23","63614ad63aec6bcf8a045124","bdp_wmem","Tue Mar 14 2023 14:06:10 GMT-0400 (Eastern Daylight Time)","605287","Match,No Match","","1173","","","","","","<div class='trialBorder'><div class='targDiv'><div class='tc'><img class='introPic' src='trustrating_stim/white_mw003.bmp'><br><font color='red'><strong>Keep</strong></font></div></div><div class='respDiv'><div class='respDivL'>Match<br>(e)</div><div class='respDivR'>No Match<br>(i)</div></div></div>","i","TARGET","1","trustrating_stim/white_mw003.bmp","0","Match","e","1500","trustrating_stim/white_mw003.bmp","red","Keep","REAL","0"
"html-keyboard-response","154","376954","0.0-7.0-5.23","63614ad63aec6bcf8a045124","bdp_wmem","Tue Mar 14 2023 14:06:10 GMT-0400 (Eastern Daylight Time)","605287","Match,No Match","","null","","","","","","<div class='trialBorder'><div class='vertical-center'><img src='img/error.jpg'></div><div class='respDiv'><div class='respDivL'>Match<br>(e)</div><div class='respDivR'><font style='color:orange'>No Match<br>(i)</font></div></div></div>","null","FEEDBACK","","","","","","","","","","",""
"html-keyboard-response","155","377456","0.0-7.0-1.24","63614ad63aec6bcf8a045124","bdp_wmem","Tue Mar 14 2023 14:06:10 GMT-0400 (Eastern Daylight Time)","605287","Match,No Match","","null","","","","","","<div class='trialBorder'><div class='vertical-center'><img src='img/fixation2_sml.jpg'</img></div></div>","null","FIX","","","","","","","","","","",""
"html-keyboard-response","156","380458","0.0-7.0-2.24","63614ad63aec6bcf8a045124","bdp_wmem","Tue Mar 14 2023 14:06:10 GMT-0400 (Eastern Daylight Time)","605287","Match,No Match","","null","","","","","","<div class='trialBorder'><div class='vertical-center'><img style='vertical-align:center; align:center' src='img/fixation2_sml.jpg'></div><div class='arrayDiv2'><div class='tl'><img class='introPic' src='trustrating_stim/white_mw012.bmp'><br><font color='red'><strong>Keep</strong></font></div><div class='tr'><img class='introPic' src='trustrating_stim/white_mw042.bmp'><br><font color='green'><strong>Share</strong></font></div></div></div>","null","ARRAY","2","trustrating_stim/white_mw012.bmp,trustrating_stim/white_mw042.bmp","0,1","Match","e","3000","","","","",""
"html-keyboard-response","157","384460","0.0-7.0-3.24","63614ad63aec6bcf8a045124","bdp_wmem","Tue Mar 14 2023 14:06:10 GMT-0400 (Eastern Daylight Time)","605287","Match,No Match","","null","","","","","","<div class='trialBorder'><div class='vertical-center'><img src='img/fixation2_sml.jpg'</img></div></div>","null","DELAY","","","","","","","","","","",""
"html-keyboard-response","158","386164","0.0-7.0-4.24","63614ad63aec6bcf8a045124","bdp_wmem","Tue Mar 14 2023 14:06:10 GMT-0400 (Eastern Daylight Time)","605287","Match,No Match","","1702","","","","","","<div class='trialBorder'><div class='targDiv'><div class='tc'><img class='introPic' src='trustrating_stim/white_mw042.bmp'><br><font color='green'><strong>Share</strong></font></div></div><div class='respDiv'><div class='respDivL'>Match<br>(e)</div><div class='respDivR'>No Match<br>(i)</div></div></div>","i","TARGET","2","trustrating_stim/white_mw012.bmp,trustrating_stim/white_mw042.bmp","0,1","Match","e","3000","trustrating_stim/white_mw042.bmp","green","Share","REAL","0"
"html-keyboard-response","159","386664","0.0-7.0-5.24","63614ad63aec6bcf8a045124","bdp_wmem","Tue Mar 14 2023 14:06:10 GMT-0400 (Eastern Daylight Time)","605287","Match,No Match","","null","","","","","","<div class='trialBorder'><div class='vertical-center'><img src='img/error.jpg'></div><div class='respDiv'><div class='respDivL'>Match<br>(e)</div><div class='respDivR'><font style='color:orange'>No Match<br>(i)</font></div></div></div>","null","FEEDBACK","","","","","","","","","","",""
"html-keyboard-response","160","387165","0.0-7.0-1.25","63614ad63aec6bcf8a045124","bdp_wmem","Tue Mar 14 2023 14:06:10 GMT-0400 (Eastern Daylight Time)","605287","Match,No Match","","null","","","","","","<div class='trialBorder'><div class='vertical-center'><img src='img/fixation2_sml.jpg'</img></div></div>","null","FIX","","","","","","","","","","",""
"html-keyboard-response","161","391667","0.0-7.0-2.25","63614ad63aec6bcf8a045124","bdp_wmem","Tue Mar 14 2023 14:06:10 GMT-0400 (Eastern Daylight Time)","605287","Match,No Match","","null","","","","","","<div class='trialBorder'><div class='vertical-center'><img style='vertical-align:center; align:center' src='img/fixation2_sml.jpg'></div><div class='arrayDiv3'><div class='tl'><img class='introPic' src='trustrating_stim/white_mw003.bmp'><br><font color='red'><strong>Keep</strong></font></div><div class='tc'><img class='introPic' src='trustrating_stim/white_mw010.bmp'><br><font color='green'><strong>Share</strong></font></div><div class='tr'><img class='introPic' src='trustrating_stim/white_mw085.bmp'><br><font color='red'><strong>Keep</strong></font></div></div></div>","null","ARRAY","3","trustrating_stim/white_mw003.bmp,trustrating_stim/white_mw010.bmp,trustrating_stim/white_mw085.bmp","0,1,0","Match","e","4500","","","","",""
"html-keyboard-response","162","395671","0.0-7.0-3.25","63614ad63aec6bcf8a045124","bdp_wmem","Tue Mar 14 2023 14:06:10 GMT-0400 (Eastern Daylight Time)","605287","Match,No Match","","null","","","","","","<div class='trialBorder'><div class='vertical-center'><img src='img/fixation2_sml.jpg'</img></div></div>","null","DELAY","","","","","","","","","","",""
"html-keyboard-response","163","398028","0.0-7.0-4.25","63614ad63aec6bcf8a045124","bdp_wmem","Tue Mar 14 2023 14:06:10 GMT-0400 (Eastern Daylight Time)","605287","Match,No Match","","2357","","","","","","<div class='trialBorder'><div class='targDiv'><div class='tc'><img class='introPic' src='trustrating_stim/white_mw010.bmp'><br><font color='green'><strong>Share</strong></font></div></div><div class='respDiv'><div class='respDivL'>Match<br>(e)</div><div class='respDivR'>No Match<br>(i)</div></div></div>","e","TARGET","3","trustrating_stim/white_mw003.bmp,trustrating_stim/white_mw010.bmp,trustrating_stim/white_mw085.bmp","0,1,0","Match","e","4500","trustrating_stim/white_mw010.bmp","green","Share","REAL","1"
"html-keyboard-response","164","398529","0.0-7.0-5.25","63614ad63aec6bcf8a045124","bdp_wmem","Tue Mar 14 2023 14:06:10 GMT-0400 (Eastern Daylight Time)","605287","Match,No Match","","null","","","","","","<div class='trialBorder'><div class='vertical-center'><img src='img/correct.jpg'></div><div class='respDiv'><div class='respDivL'><font style='color:orange'>Match<br>(e)</font></div><div class='respDivR'>No Match<br>(i)</div></div></div>","null","FEEDBACK","","","","","","","","","","",""
"html-keyboard-response","165","399030","0.0-7.0-1.26","63614ad63aec6bcf8a045124","bdp_wmem","Tue Mar 14 2023 14:06:10 GMT-0400 (Eastern Daylight Time)","605287","Match,No Match","","null","","","","","","<div class='trialBorder'><div class='vertical-center'><img src='img/fixation2_sml.jpg'</img></div></div>","null","FIX","","","","","","","","","","",""
"html-keyboard-response","166","400532","0.0-7.0-2.26","63614ad63aec6bcf8a045124","bdp_wmem","Tue Mar 14 2023 14:06:10 GMT-0400 (Eastern Daylight Time)","605287","Match,No Match","","null","","","","","","<div class='trialBorder'><div class='vertical-center'><img style='vertical-align:center; align:center' src='img/fixation2_sml.jpg'></div><div class='arrayDiv1'><div class='tc'><img class='introPic' src='trustrating_stim/white_mw013.bmp'><br><font color='green'><strong>Share</strong></font></div></div></div>","null","ARRAY","1","trustrating_stim/white_mw013.bmp","1","noMatchOutcome","i","1500","","","","",""
"html-keyboard-response","167","404534","0.0-7.0-3.26","63614ad63aec6bcf8a045124","bdp_wmem","Tue Mar 14 2023 14:06:10 GMT-0400 (Eastern Daylight Time)","605287","Match,No Match","","null","","","","","","<div class='trialBorder'><div class='vertical-center'><img src='img/fixation2_sml.jpg'</img></div></div>","null","DELAY","","","","","","","","","","",""
"html-keyboard-response","168","407596","0.0-7.0-4.26","63614ad63aec6bcf8a045124","bdp_wmem","Tue Mar 14 2023 14:06:10 GMT-0400 (Eastern Daylight Time)","605287","Match,No Match","","3061","","","","","","<div class='trialBorder'><div class='targDiv'><div class='tc'><img class='introPic' src='trustrating_stim/white_mw013.bmp'><br><font color='red'><strong>Keep</strong></font></div></div><div class='respDiv'><div class='respDivL'>Match<br>(e)</div><div class='respDivR'>No Match<br>(i)</div></div></div>","i","TARGET","1","trustrating_stim/white_mw013.bmp","1","noMatchOutcome","i","1500","trustrating_stim/white_mw013.bmp","red","Keep","REAL","1"
"html-keyboard-response","169","408097","0.0-7.0-5.26","63614ad63aec6bcf8a045124","bdp_wmem","Tue Mar 14 2023 14:06:10 GMT-0400 (Eastern Daylight Time)","605287","Match,No Match","","null","","","","","","<div class='trialBorder'><div class='vertical-center'><img src='img/correct.jpg'></div><div class='respDiv'><div class='respDivL'>Match<br>(e)</div><div class='respDivR'><font style='color:orange'>No Match<br>(i)</font></div></div></div>","null","FEEDBACK","","","","","","","","","","",""
"html-keyboard-response","170","408598","0.0-7.0-1.27","63614ad63aec6bcf8a045124","bdp_wmem","Tue Mar 14 2023 14:06:10 GMT-0400 (Eastern Daylight Time)","605287","Match,No Match","","null","","","","","","<div class='trialBorder'><div class='vertical-center'><img src='img/fixation2_sml.jpg'</img></div></div>","null","FIX","","","","","","","","","","",""
"html-keyboard-response","171","411599","0.0-7.0-2.27","63614ad63aec6bcf8a045124","bdp_wmem","Tue Mar 14 2023 14:06:10 GMT-0400 (Eastern Daylight Time)","605287","Match,No Match","","null","","","","","","<div class='trialBorder'><div class='vertical-center'><img style='vertical-align:center; align:center' src='img/fixation2_sml.jpg'></div><div class='arrayDiv2'><div class='tl'><img class='introPic' src='trustrating_stim/white_mw010.bmp'><br><font color='red'><strong>Keep</strong></font></div><div class='tr'><img class='introPic' src='trustrating_stim/white_mw012.bmp'><br><font color='green'><strong>Share</strong></font></div></div></div>","null","ARRAY","2","trustrating_stim/white_mw010.bmp,trustrating_stim/white_mw012.bmp","0,1","noMatchFace","i","3000","","","","",""
"html-keyboard-response","172","415600","0.0-7.0-3.27","63614ad63aec6bcf8a045124","bdp_wmem","Tue Mar 14 2023 14:06:10 GMT-0400 (Eastern Daylight Time)","605287","Match,No Match","","null","","","","","","<div class='trialBorder'><div class='vertical-center'><img src='img/fixation2_sml.jpg'</img></div></div>","null","DELAY","","","","","","","","","","",""
"html-keyboard-response","173","417604","0.0-7.0-4.27","63614ad63aec6bcf8a045124","bdp_wmem","Tue Mar 14 2023 14:06:10 GMT-0400 (Eastern Daylight Time)","605287","Match,No Match","","2003","","","","","","<div class='trialBorder'><div class='targDiv'><div class='tc'><img class='introPic' src='trustrating_stim/white_mw091.bmp'><br><font color='green'><strong>Share</strong></font></div></div><div class='respDiv'><div class='respDivL'>Match<br>(e)</div><div class='respDivR'>No Match<br>(i)</div></div></div>","i","TARGET","2","trustrating_stim/white_mw010.bmp,trustrating_stim/white_mw012.bmp","0,1","noMatchFace","i","3000","trustrating_stim/white_mw091.bmp","green","Share","REAL","1"
"html-keyboard-response","174","418106","0.0-7.0-5.27","63614ad63aec6bcf8a045124","bdp_wmem","Tue Mar 14 2023 14:06:10 GMT-0400 (Eastern Daylight Time)","605287","Match,No Match","","null","","","","","","<div class='trialBorder'><div class='vertical-center'><img src='img/correct.jpg'></div><div class='respDiv'><div class='respDivL'>Match<br>(e)</div><div class='respDivR'><font style='color:orange'>No Match<br>(i)</font></div></div></div>","null","FEEDBACK","","","","","","","","","","",""
"html-keyboard-response","175","418609","0.0-7.0-1.28","63614ad63aec6bcf8a045124","bdp_wmem","Tue Mar 14 2023 14:06:10 GMT-0400 (Eastern Daylight Time)","605287","Match,No Match","","null","","","","","","<div class='trialBorder'><div class='vertical-center'><img src='img/fixation2_sml.jpg'</img></div></div>","null","FIX","","","","","","","","","","",""
"html-keyboard-response","176","423110","0.0-7.0-2.28","63614ad63aec6bcf8a045124","bdp_wmem","Tue Mar 14 2023 14:06:10 GMT-0400 (Eastern Daylight Time)","605287","Match,No Match","","null","","","","","","<div class='trialBorder'><div class='vertical-center'><img style='vertical-align:center; align:center' src='img/fixation2_sml.jpg'></div><div class='arrayDiv3'><div class='tl'><img class='introPic' src='trustrating_stim/white_mw091.bmp'><br><font color='green'><strong>Share</strong></font></div><div class='tc'><img class='introPic' src='trustrating_stim/white_mw012.bmp'><br><font color='red'><strong>Keep</strong></font></div><div class='tr'><img class='introPic' src='trustrating_stim/white_mw085.bmp'><br><font color='red'><strong>Keep</strong></font></div></div></div>","null","ARRAY","3","trustrating_stim/white_mw091.bmp,trustrating_stim/white_mw012.bmp,trustrating_stim/white_mw085.bmp","1,0,0","noMatchOutcome","i","4500","","","","",""
"html-keyboard-response","177","427112","0.0-7.0-3.28","63614ad63aec6bcf8a045124","bdp_wmem","Tue Mar 14 2023 14:06:10 GMT-0400 (Eastern Daylight Time)","605287","Match,No Match","","null","","","","","","<div class='trialBorder'><div class='vertical-center'><img src='img/fixation2_sml.jpg'</img></div></div>","null","DELAY","","","","","","","","","","",""
"html-keyboard-response","178","429052","0.0-7.0-4.28","63614ad63aec6bcf8a045124","bdp_wmem","Tue Mar 14 2023 14:06:10 GMT-0400 (Eastern Daylight Time)","605287","Match,No Match","","1939","","","","","","<div class='trialBorder'><div class='targDiv'><div class='tc'><img class='introPic' src='trustrating_stim/white_mw091.bmp'><br><font color='red'><strong>Keep</strong></font></div></div><div class='respDiv'><div class='respDivL'>Match<br>(e)</div><div class='respDivR'>No Match<br>(i)</div></div></div>","e","TARGET","3","trustrating_stim/white_mw091.bmp,trustrating_stim/white_mw012.bmp,trustrating_stim/white_mw085.bmp","1,0,0","noMatchOutcome","i","4500","trustrating_stim/white_mw091.bmp","red","Keep","REAL","0"
"html-keyboard-response","179","429553","0.0-7.0-5.28","63614ad63aec6bcf8a045124","bdp_wmem","Tue Mar 14 2023 14:06:10 GMT-0400 (Eastern Daylight Time)","605287","Match,No Match","","null","","","","","","<div class='trialBorder'><div class='vertical-center'><img src='img/error.jpg'></div><div class='respDiv'><div class='respDivL'><font style='color:orange'>Match<br>(e)</font></div><div class='respDivR'>No Match<br>(i)</div></div></div>","null","FEEDBACK","","","","","","","","","","",""
"html-keyboard-response","180","430054","0.0-7.0-1.29","63614ad63aec6bcf8a045124","bdp_wmem","Tue Mar 14 2023 14:06:10 GMT-0400 (Eastern Daylight Time)","605287","Match,No Match","","null","","","","","","<div class='trialBorder'><div class='vertical-center'><img src='img/fixation2_sml.jpg'</img></div></div>","null","FIX","","","","","","","","","","",""
"html-keyboard-response","181","434555","0.0-7.0-2.29","63614ad63aec6bcf8a045124","bdp_wmem","Tue Mar 14 2023 14:06:10 GMT-0400 (Eastern Daylight Time)","605287","Match,No Match","","null","","","","","","<div class='trialBorder'><div class='vertical-center'><img style='vertical-align:center; align:center' src='img/fixation2_sml.jpg'></div><div class='arrayDiv3'><div class='tl'><img class='introPic' src='trustrating_stim/white_mw038.bmp'><br><font color='red'><strong>Keep</strong></font></div><div class='tc'><img class='introPic' src='trustrating_stim/white_mw003.bmp'><br><font color='green'><strong>Share</strong></font></div><div class='tr'><img class='introPic' src='trustrating_stim/white_mw085.bmp'><br><font color='red'><strong>Keep</strong></font></div></div></div>","null","ARRAY","3","trustrating_stim/white_mw038.bmp,trustrating_stim/white_mw003.bmp,trustrating_stim/white_mw085.bmp","0,1,0","Match","e","4500","","","","",""
"html-keyboard-response","182","438556","0.0-7.0-3.29","63614ad63aec6bcf8a045124","bdp_wmem","Tue Mar 14 2023 14:06:10 GMT-0400 (Eastern Daylight Time)","605287","Match,No Match","","null","","","","","","<div class='trialBorder'><div class='vertical-center'><img src='img/fixation2_sml.jpg'</img></div></div>","null","DELAY","","","","","","","","","","",""
"html-keyboard-response","183","439511","0.0-7.0-4.29","63614ad63aec6bcf8a045124","bdp_wmem","Tue Mar 14 2023 14:06:10 GMT-0400 (Eastern Daylight Time)","605287","Match,No Match","","951","","","","","","<div class='trialBorder'><div class='targDiv'><div class='tc'><img class='introPic' src='trustrating_stim/white_mw003.bmp'><br><font color='green'><strong>Share</strong></font></div></div><div class='respDiv'><div class='respDivL'>Match<br>(e)</div><div class='respDivR'>No Match<br>(i)</div></div></div>","i","TARGET","3","trustrating_stim/white_mw038.bmp,trustrating_stim/white_mw003.bmp,trustrating_stim/white_mw085.bmp","0,1,0","Match","e","4500","trustrating_stim/white_mw003.bmp","green","Share","REAL","0"
"html-keyboard-response","184","440012","0.0-7.0-5.29","63614ad63aec6bcf8a045124","bdp_wmem","Tue Mar 14 2023 14:06:10 GMT-0400 (Eastern Daylight Time)","605287","Match,No Match","","null","","","","","","<div class='trialBorder'><div class='vertical-center'><img src='img/error.jpg'></div><div class='respDiv'><div class='respDivL'>Match<br>(e)</div><div class='respDivR'><font style='color:orange'>No Match<br>(i)</font></div></div></div>","null","FEEDBACK","","","","","","","","","","",""
"html-keyboard-response","185","440513","0.0-7.0-1.30","63614ad63aec6bcf8a045124","bdp_wmem","Tue Mar 14 2023 14:06:10 GMT-0400 (Eastern Daylight Time)","605287","Match,No Match","","null","","","","","","<div class='trialBorder'><div class='vertical-center'><img src='img/fixation2_sml.jpg'</img></div></div>","null","FIX","","","","","","","","","","",""
"html-keyboard-response","186","443514","0.0-7.0-2.30","63614ad63aec6bcf8a045124","bdp_wmem","Tue Mar 14 2023 14:06:10 GMT-0400 (Eastern Daylight Time)","605287","Match,No Match","","null","","","","","","<div class='trialBorder'><div class='vertical-center'><img style='vertical-align:center; align:center' src='img/fixation2_sml.jpg'></div><div class='arrayDiv2'><div class='tl'><img class='introPic' src='trustrating_stim/white_mw038.bmp'><br><font color='green'><strong>Share</strong></font></div><div class='tr'><img class='introPic' src='trustrating_stim/white_mw040.bmp'><br><font color='red'><strong>Keep</strong></font></div></div></div>","null","ARRAY","2","trustrating_stim/white_mw038.bmp,trustrating_stim/white_mw040.bmp","1,0","noMatchFace","i","3000","","","","",""
"html-keyboard-response","187","447515","0.0-7.0-3.30","63614ad63aec6bcf8a045124","bdp_wmem","Tue Mar 14 2023 14:06:10 GMT-0400 (Eastern Daylight Time)","605287","Match,No Match","","null","","","","","","<div class='trialBorder'><div class='vertical-center'><img src='img/fixation2_sml.jpg'</img></div></div>","null","DELAY","","","","","","","","","","",""
