"trial_type","trial_index","time_elapsed","internal_node_id","subject_id","task","startTime","totalTime","labels","view_history","rt","event","trial","time","trialtype","success","stimulus","key_press","stimType","arraySize","arrayFaces","arrayOutcomes","matchType","corrResp","arrayDur","targFace","targCol","targOutcome","trialType","corr"
"pavlovia","0","6","0.0-0.0","5cd10012174fc60016c10ffd","bdp_wmem","Sat Apr 08 2023 12:59:56 GMT-0400 (Eastern Daylight Time)","616589","Match,No Match","","","","","","","","","","","","","","","","","","","","",""
"instructions","1","4199","0.0-1.0","5cd10012174fc60016c10ffd","bdp_wmem","Sat Apr 08 2023 12:59:56 GMT-0400 (Eastern Daylight Time)","616589","Match,No Match","[{""page_index"":0,""viewing_time"":4192}]","4192","","","","","","","","","","","","","","","","","","",""
"","","","","5cd10012174fc60016c10ffd","bdp_wmem","Sat Apr 08 2023 12:59:56 GMT-0400 (Eastern Daylight Time)","616589","Match,No Match","","","fullscreenenter","2","6030","fullscreenenter","","","","","","","","","","","","","","",""
"fullscreen","2","7021","0.0-2.0","5cd10012174fc60016c10ffd","bdp_wmem","Sat Apr 08 2023 12:59:56 GMT-0400 (Eastern Daylight Time)","616589","Match,No Match","","","","","","","true","","","","","","","","","","","","","",""
"instructions","3","91484","0.0-4.0","5cd10012174fc60016c10ffd","bdp_wmem","Sat Apr 08 2023 12:59:56 GMT-0400 (Eastern Daylight Time)","616589","Match,No Match","[{""page_index"":0,""viewing_time"":22484},{""page_index"":1,""viewing_time"":28443},{""page_index"":2,""viewing_time"":23735},{""page_index"":3,""viewing_time"":5408},{""page_index"":4,""viewing_time"":4384}]","84455","","","","","","","","","","","","","","","","","","",""
"html-keyboard-response","4","91990","0.0-5.0-1.0","5cd10012174fc60016c10ffd","bdp_wmem","Sat Apr 08 2023 12:59:56 GMT-0400 (Eastern Daylight Time)","616589","Match,No Match","","null","","","","","","<div class='trialBorder'><div class='vertical-center'><img src='img/fixation2_sml.jpg'</img></div></div>","null","FIX","","","","","","","","","","",""
"html-keyboard-response","5","95037","0.0-5.0-2.0","5cd10012174fc60016c10ffd","bdp_wmem","Sat Apr 08 2023 12:59:56 GMT-0400 (Eastern Daylight Time)","616589","Match,No Match","","null","","","","","","<div class='trialBorder'><div class='vertical-center'><img style='vertical-align:center; align:center' src='img/fixation2_sml.jpg'></div><div class='arrayDiv2'><div class='tl'><img class='introPic' src='trustrating_stim/white_mw010.bmp'><br><font color='green'><strong>Share</strong></font></div><div class='tr'><img class='introPic' src='trustrating_stim/white_mw042.bmp'><br><font color='red'><strong>Keep</strong></font></div></div></div>","null","ARRAY","2","trustrating_stim/white_mw010.bmp,trustrating_stim/white_mw042.bmp","1,0","noMatchOutcome","i","3000","","","","",""
"html-keyboard-response","6","99053","0.0-5.0-3.0","5cd10012174fc60016c10ffd","bdp_wmem","Sat Apr 08 2023 12:59:56 GMT-0400 (Eastern Daylight Time)","616589","Match,No Match","","null","","","","","","<div class='trialBorder'><div class='vertical-center'><img src='img/fixation2_sml.jpg'</img></div></div>","null","DELAY","","","","","","","","","","",""
"html-keyboard-response","7","100405","0.0-5.0-4.0","5cd10012174fc60016c10ffd","bdp_wmem","Sat Apr 08 2023 12:59:56 GMT-0400 (Eastern Daylight Time)","616589","Match,No Match","","1347","","","","","","<div class='trialBorder'><div class='targDiv'><div class='tc'><img class='introPic' src='trustrating_stim/white_mw010.bmp'><br><font color='red'><strong>Keep</strong></font></div></div><div class='respDiv'><div class='respDivL'>Match<br>(e)</div><div class='respDivR'>No Match<br>(i)</div></div></div>","i","TARGET","2","trustrating_stim/white_mw010.bmp,trustrating_stim/white_mw042.bmp","1,0","noMatchOutcome","i","3000","trustrating_stim/white_mw010.bmp","red","Keep","PRACTICE","1"
"html-keyboard-response","8","100914","0.0-5.0-5.0","5cd10012174fc60016c10ffd","bdp_wmem","Sat Apr 08 2023 12:59:56 GMT-0400 (Eastern Daylight Time)","616589","Match,No Match","","null","","","","","","<div class='trialBorder'><div class='vertical-center'><img src='img/correct.jpg'></div><div class='respDiv'><div class='respDivL'>Match<br>(e)</div><div class='respDivR'><font style='color:orange'>No Match<br>(i)</font></div></div></div>","null","FEEDBACK","","","","","","","","","","",""
"html-keyboard-response","9","101429","0.0-5.0-1.1","5cd10012174fc60016c10ffd","bdp_wmem","Sat Apr 08 2023 12:59:56 GMT-0400 (Eastern Daylight Time)","616589","Match,No Match","","null","","","","","","<div class='trialBorder'><div class='vertical-center'><img src='img/fixation2_sml.jpg'</img></div></div>","null","FIX","","","","","","","","","","",""
"html-keyboard-response","10","104446","0.0-5.0-2.1","5cd10012174fc60016c10ffd","bdp_wmem","Sat Apr 08 2023 12:59:56 GMT-0400 (Eastern Daylight Time)","616589","Match,No Match","","null","","","","","","<div class='trialBorder'><div class='vertical-center'><img style='vertical-align:center; align:center' src='img/fixation2_sml.jpg'></div><div class='arrayDiv2'><div class='tl'><img class='introPic' src='trustrating_stim/white_mw091.bmp'><br><font color='red'><strong>Keep</strong></font></div><div class='tr'><img class='introPic' src='trustrating_stim/white_mw038.bmp'><br><font color='green'><strong>Share</strong></font></div></div></div>","null","ARRAY","2","trustrating_stim/white_mw091.bmp,trustrating_stim/white_mw038.bmp","0,1","Match","e","3000","","","","",""
"html-keyboard-response","11","108478","0.0-5.0-3.1","5cd10012174fc60016c10ffd","bdp_wmem","Sat Apr 08 2023 12:59:56 GMT-0400 (Eastern Daylight Time)","616589","Match,No Match","","null","","","","","","<div class='trialBorder'><div class='vertical-center'><img src='img/fixation2_sml.jpg'</img></div></div>","null","DELAY","","","","","","","","","","",""
"html-keyboard-response","12","110310","0.0-5.0-4.1","5cd10012174fc60016c10ffd","bdp_wmem","Sat Apr 08 2023 12:59:56 GMT-0400 (Eastern Daylight Time)","616589","Match,No Match","","1828","","","","","","<div class='trialBorder'><div class='targDiv'><div class='tc'><img class='introPic' src='trustrating_stim/white_mw038.bmp'><br><font color='green'><strong>Share</strong></font></div></div><div class='respDiv'><div class='respDivL'>Match<br>(e)</div><div class='respDivR'>No Match<br>(i)</div></div></div>","i","TARGET","2","trustrating_stim/white_mw091.bmp,trustrating_stim/white_mw038.bmp","0,1","Match","e","3000","trustrating_stim/white_mw038.bmp","green","Share","PRACTICE","0"
"html-keyboard-response","13","110821","0.0-5.0-5.1","5cd10012174fc60016c10ffd","bdp_wmem","Sat Apr 08 2023 12:59:56 GMT-0400 (Eastern Daylight Time)","616589","Match,No Match","","null","","","","","","<div class='trialBorder'><div class='vertical-center'><img src='img/error.jpg'></div><div class='respDiv'><div class='respDivL'>Match<br>(e)</div><div class='respDivR'><font style='color:orange'>No Match<br>(i)</font></div></div></div>","null","FEEDBACK","","","","","","","","","","",""
"html-keyboard-response","14","111337","0.0-5.0-1.2","5cd10012174fc60016c10ffd","bdp_wmem","Sat Apr 08 2023 12:59:56 GMT-0400 (Eastern Daylight Time)","616589","Match,No Match","","null","","","","","","<div class='trialBorder'><div class='vertical-center'><img src='img/fixation2_sml.jpg'</img></div></div>","null","FIX","","","","","","","","","","",""
"html-keyboard-response","15","115854","0.0-5.0-2.2","5cd10012174fc60016c10ffd","bdp_wmem","Sat Apr 08 2023 12:59:56 GMT-0400 (Eastern Daylight Time)","616589","Match,No Match","","null","","","","","","<div class='trialBorder'><div class='vertical-center'><img style='vertical-align:center; align:center' src='img/fixation2_sml.jpg'></div><div class='arrayDiv3'><div class='tl'><img class='introPic' src='trustrating_stim/white_mw042.bmp'><br><font color='red'><strong>Keep</strong></font></div><div class='tc'><img class='introPic' src='trustrating_stim/white_mw092.bmp'><br><font color='red'><strong>Keep</strong></font></div><div class='tr'><img class='introPic' src='trustrating_stim/white_mw085.bmp'><br><font color='green'><strong>Share</strong></font></div></div></div>","null","ARRAY","3","trustrating_stim/white_mw042.bmp,trustrating_stim/white_mw092.bmp,trustrating_stim/white_mw085.bmp","0,0,1","noMatchOutcome","i","4500","","","","",""
"html-keyboard-response","16","119870","0.0-5.0-3.2","5cd10012174fc60016c10ffd","bdp_wmem","Sat Apr 08 2023 12:59:56 GMT-0400 (Eastern Daylight Time)","616589","Match,No Match","","null","","","","","","<div class='trialBorder'><div class='vertical-center'><img src='img/fixation2_sml.jpg'</img></div></div>","null","DELAY","","","","","","","","","","",""
"html-keyboard-response","17","121172","0.0-5.0-4.2","5cd10012174fc60016c10ffd","bdp_wmem","Sat Apr 08 2023 12:59:56 GMT-0400 (Eastern Daylight Time)","616589","Match,No Match","","1296","","","","","","<div class='trialBorder'><div class='targDiv'><div class='tc'><img class='introPic' src='trustrating_stim/white_mw085.bmp'><br><font color='red'><strong>Keep</strong></font></div></div><div class='respDiv'><div class='respDivL'>Match<br>(e)</div><div class='respDivR'>No Match<br>(i)</div></div></div>","i","TARGET","3","trustrating_stim/white_mw042.bmp,trustrating_stim/white_mw092.bmp,trustrating_stim/white_mw085.bmp","0,0,1","noMatchOutcome","i","4500","trustrating_stim/white_mw085.bmp","red","Keep","PRACTICE","1"
"html-keyboard-response","18","121683","0.0-5.0-5.2","5cd10012174fc60016c10ffd","bdp_wmem","Sat Apr 08 2023 12:59:56 GMT-0400 (Eastern Daylight Time)","616589","Match,No Match","","null","","","","","","<div class='trialBorder'><div class='vertical-center'><img src='img/correct.jpg'></div><div class='respDiv'><div class='respDivL'>Match<br>(e)</div><div class='respDivR'><font style='color:orange'>No Match<br>(i)</font></div></div></div>","null","FEEDBACK","","","","","","","","","","",""
"html-keyboard-response","19","122199","0.0-5.0-1.3","5cd10012174fc60016c10ffd","bdp_wmem","Sat Apr 08 2023 12:59:56 GMT-0400 (Eastern Daylight Time)","616589","Match,No Match","","null","","","","","","<div class='trialBorder'><div class='vertical-center'><img src='img/fixation2_sml.jpg'</img></div></div>","null","FIX","","","","","","","","","","",""
"html-keyboard-response","20","126718","0.0-5.0-2.3","5cd10012174fc60016c10ffd","bdp_wmem","Sat Apr 08 2023 12:59:56 GMT-0400 (Eastern Daylight Time)","616589","Match,No Match","","null","","","","","","<div class='trialBorder'><div class='vertical-center'><img style='vertical-align:center; align:center' src='img/fixation2_sml.jpg'></div><div class='arrayDiv3'><div class='tl'><img class='introPic' src='trustrating_stim/white_mw078.bmp'><br><font color='red'><strong>Keep</strong></font></div><div class='tc'><img class='introPic' src='trustrating_stim/white_mw091.bmp'><br><font color='green'><strong>Share</strong></font></div><div class='tr'><img class='introPic' src='trustrating_stim/white_mw013.bmp'><br><font color='red'><strong>Keep</strong></font></div></div></div>","null","ARRAY","3","trustrating_stim/white_mw078.bmp,trustrating_stim/white_mw091.bmp,trustrating_stim/white_mw013.bmp","0,1,0","Match","e","4500","","","","",""
"html-keyboard-response","21","130734","0.0-5.0-3.3","5cd10012174fc60016c10ffd","bdp_wmem","Sat Apr 08 2023 12:59:56 GMT-0400 (Eastern Daylight Time)","616589","Match,No Match","","null","","","","","","<div class='trialBorder'><div class='vertical-center'><img src='img/fixation2_sml.jpg'</img></div></div>","null","DELAY","","","","","","","","","","",""
"html-keyboard-response","22","131881","0.0-5.0-4.3","5cd10012174fc60016c10ffd","bdp_wmem","Sat Apr 08 2023 12:59:56 GMT-0400 (Eastern Daylight Time)","616589","Match,No Match","","1141","","","","","","<div class='trialBorder'><div class='targDiv'><div class='tc'><img class='introPic' src='trustrating_stim/white_mw078.bmp'><br><font color='red'><strong>Keep</strong></font></div></div><div class='respDiv'><div class='respDivL'>Match<br>(e)</div><div class='respDivR'>No Match<br>(i)</div></div></div>","e","TARGET","3","trustrating_stim/white_mw078.bmp,trustrating_stim/white_mw091.bmp,trustrating_stim/white_mw013.bmp","0,1,0","Match","e","4500","trustrating_stim/white_mw078.bmp","red","Keep","PRACTICE","1"
"html-keyboard-response","23","132392","0.0-5.0-5.3","5cd10012174fc60016c10ffd","bdp_wmem","Sat Apr 08 2023 12:59:56 GMT-0400 (Eastern Daylight Time)","616589","Match,No Match","","null","","","","","","<div class='trialBorder'><div class='vertical-center'><img src='img/correct.jpg'></div><div class='respDiv'><div class='respDivL'><font style='color:orange'>Match<br>(e)</font></div><div class='respDivR'>No Match<br>(i)</div></div></div>","null","FEEDBACK","","","","","","","","","","",""
"html-keyboard-response","24","132907","0.0-5.0-1.4","5cd10012174fc60016c10ffd","bdp_wmem","Sat Apr 08 2023 12:59:56 GMT-0400 (Eastern Daylight Time)","616589","Match,No Match","","null","","","","","","<div class='trialBorder'><div class='vertical-center'><img src='img/fixation2_sml.jpg'</img></div></div>","null","FIX","","","","","","","","","","",""
"html-keyboard-response","25","134423","0.0-5.0-2.4","5cd10012174fc60016c10ffd","bdp_wmem","Sat Apr 08 2023 12:59:56 GMT-0400 (Eastern Daylight Time)","616589","Match,No Match","","null","","","","","","<div class='trialBorder'><div class='vertical-center'><img style='vertical-align:center; align:center' src='img/fixation2_sml.jpg'></div><div class='arrayDiv1'><div class='tc'><img class='introPic' src='trustrating_stim/white_mw091.bmp'><br><font color='red'><strong>Keep</strong></font></div></div></div>","null","ARRAY","1","trustrating_stim/white_mw091.bmp","0","noMatchFace","i","1500","","","","",""
"html-keyboard-response","26","138440","0.0-5.0-3.4","5cd10012174fc60016c10ffd","bdp_wmem","Sat Apr 08 2023 12:59:56 GMT-0400 (Eastern Daylight Time)","616589","Match,No Match","","null","","","","","","<div class='trialBorder'><div class='vertical-center'><img src='img/fixation2_sml.jpg'</img></div></div>","null","DELAY","","","","","","","","","","",""
"html-keyboard-response","27","139102","0.0-5.0-4.4","5cd10012174fc60016c10ffd","bdp_wmem","Sat Apr 08 2023 12:59:56 GMT-0400 (Eastern Daylight Time)","616589","Match,No Match","","657","","","","","","<div class='trialBorder'><div class='targDiv'><div class='tc'><img class='introPic' src='trustrating_stim/white_mw092.bmp'><br><font color='red'><strong>Keep</strong></font></div></div><div class='respDiv'><div class='respDivL'>Match<br>(e)</div><div class='respDivR'>No Match<br>(i)</div></div></div>","i","TARGET","1","trustrating_stim/white_mw091.bmp","0","noMatchFace","i","1500","trustrating_stim/white_mw092.bmp","red","Keep","PRACTICE","1"
"html-keyboard-response","28","139611","0.0-5.0-5.4","5cd10012174fc60016c10ffd","bdp_wmem","Sat Apr 08 2023 12:59:56 GMT-0400 (Eastern Daylight Time)","616589","Match,No Match","","null","","","","","","<div class='trialBorder'><div class='vertical-center'><img src='img/correct.jpg'></div><div class='respDiv'><div class='respDivL'>Match<br>(e)</div><div class='respDivR'><font style='color:orange'>No Match<br>(i)</font></div></div></div>","null","FEEDBACK","","","","","","","","","","",""
"html-keyboard-response","29","140127","0.0-5.0-1.5","5cd10012174fc60016c10ffd","bdp_wmem","Sat Apr 08 2023 12:59:56 GMT-0400 (Eastern Daylight Time)","616589","Match,No Match","","null","","","","","","<div class='trialBorder'><div class='vertical-center'><img src='img/fixation2_sml.jpg'</img></div></div>","null","FIX","","","","","","","","","","",""
"html-keyboard-response","30","141643","0.0-5.0-2.5","5cd10012174fc60016c10ffd","bdp_wmem","Sat Apr 08 2023 12:59:56 GMT-0400 (Eastern Daylight Time)","616589","Match,No Match","","null","","","","","","<div class='trialBorder'><div class='vertical-center'><img style='vertical-align:center; align:center' src='img/fixation2_sml.jpg'></div><div class='arrayDiv1'><div class='tc'><img class='introPic' src='trustrating_stim/white_mw070.bmp'><br><font color='green'><strong>Share</strong></font></div></div></div>","null","ARRAY","1","trustrating_stim/white_mw070.bmp","1","Match","e","1500","","","","",""
"html-keyboard-response","31","145675","0.0-5.0-3.5","5cd10012174fc60016c10ffd","bdp_wmem","Sat Apr 08 2023 12:59:56 GMT-0400 (Eastern Daylight Time)","616589","Match,No Match","","null","","","","","","<div class='trialBorder'><div class='vertical-center'><img src='img/fixation2_sml.jpg'</img></div></div>","null","DELAY","","","","","","","","","","",""
"html-keyboard-response","32","146588","0.0-5.0-4.5","5cd10012174fc60016c10ffd","bdp_wmem","Sat Apr 08 2023 12:59:56 GMT-0400 (Eastern Daylight Time)","616589","Match,No Match","","908","","","","","","<div class='trialBorder'><div class='targDiv'><div class='tc'><img class='introPic' src='trustrating_stim/white_mw070.bmp'><br><font color='green'><strong>Share</strong></font></div></div><div class='respDiv'><div class='respDivL'>Match<br>(e)</div><div class='respDivR'>No Match<br>(i)</div></div></div>","e","TARGET","1","trustrating_stim/white_mw070.bmp","1","Match","e","1500","trustrating_stim/white_mw070.bmp","green","Share","PRACTICE","1"
"html-keyboard-response","33","147098","0.0-5.0-5.5","5cd10012174fc60016c10ffd","bdp_wmem","Sat Apr 08 2023 12:59:56 GMT-0400 (Eastern Daylight Time)","616589","Match,No Match","","null","","","","","","<div class='trialBorder'><div class='vertical-center'><img src='img/correct.jpg'></div><div class='respDiv'><div class='respDivL'><font style='color:orange'>Match<br>(e)</font></div><div class='respDivR'>No Match<br>(i)</div></div></div>","null","FEEDBACK","","","","","","","","","","",""
"instructions","34","172525","0.0-6.0","5cd10012174fc60016c10ffd","bdp_wmem","Sat Apr 08 2023 12:59:56 GMT-0400 (Eastern Daylight Time)","616589","Match,No Match","[{""page_index"":0,""viewing_time"":25426}]","25426","","","","","","","","","","","","","","","","","","",""
"html-keyboard-response","35","173043","0.0-7.0-1.0","5cd10012174fc60016c10ffd","bdp_wmem","Sat Apr 08 2023 12:59:56 GMT-0400 (Eastern Daylight Time)","616589","Match,No Match","","null","","","","","","<div class='trialBorder'><div class='vertical-center'><img src='img/fixation2_sml.jpg'</img></div></div>","null","FIX","","","","","","","","","","",""
"html-keyboard-response","36","174561","0.0-7.0-2.0","5cd10012174fc60016c10ffd","bdp_wmem","Sat Apr 08 2023 12:59:56 GMT-0400 (Eastern Daylight Time)","616589","Match,No Match","","null","","","","","","<div class='trialBorder'><div class='vertical-center'><img style='vertical-align:center; align:center' src='img/fixation2_sml.jpg'></div><div class='arrayDiv1'><div class='tc'><img class='introPic' src='trustrating_stim/white_mw085.bmp'><br><font color='green'><strong>Share</strong></font></div></div></div>","null","ARRAY","1","trustrating_stim/white_mw085.bmp","1","Match","e","1500","","","","",""
"html-keyboard-response","37","178577","0.0-7.0-3.0","5cd10012174fc60016c10ffd","bdp_wmem","Sat Apr 08 2023 12:59:56 GMT-0400 (Eastern Daylight Time)","616589","Match,No Match","","null","","","","","","<div class='trialBorder'><div class='vertical-center'><img src='img/fixation2_sml.jpg'</img></div></div>","null","DELAY","","","","","","","","","","",""
"html-keyboard-response","38","179233","0.0-7.0-4.0","5cd10012174fc60016c10ffd","bdp_wmem","Sat Apr 08 2023 12:59:56 GMT-0400 (Eastern Daylight Time)","616589","Match,No Match","","651","","","","","","<div class='trialBorder'><div class='targDiv'><div class='tc'><img class='introPic' src='trustrating_stim/white_mw085.bmp'><br><font color='green'><strong>Share</strong></font></div></div><div class='respDiv'><div class='respDivL'>Match<br>(e)</div><div class='respDivR'>No Match<br>(i)</div></div></div>","e","TARGET","1","trustrating_stim/white_mw085.bmp","1","Match","e","1500","trustrating_stim/white_mw085.bmp","green","Share","REAL","1"
"html-keyboard-response","39","179748","0.0-7.0-5.0","5cd10012174fc60016c10ffd","bdp_wmem","Sat Apr 08 2023 12:59:56 GMT-0400 (Eastern Daylight Time)","616589","Match,No Match","","null","","","","","","<div class='trialBorder'><div class='vertical-center'><img src='img/correct.jpg'></div><div class='respDiv'><div class='respDivL'><font style='color:orange'>Match<br>(e)</font></div><div class='respDivR'>No Match<br>(i)</div></div></div>","null","FEEDBACK","","","","","","","","","","",""
"html-keyboard-response","40","180264","0.0-7.0-1.1","5cd10012174fc60016c10ffd","bdp_wmem","Sat Apr 08 2023 12:59:56 GMT-0400 (Eastern Daylight Time)","616589","Match,No Match","","null","","","","","","<div class='trialBorder'><div class='vertical-center'><img src='img/fixation2_sml.jpg'</img></div></div>","null","FIX","","","","","","","","","","",""
"html-keyboard-response","41","181781","0.0-7.0-2.1","5cd10012174fc60016c10ffd","bdp_wmem","Sat Apr 08 2023 12:59:56 GMT-0400 (Eastern Daylight Time)","616589","Match,No Match","","null","","","","","","<div class='trialBorder'><div class='vertical-center'><img style='vertical-align:center; align:center' src='img/fixation2_sml.jpg'></div><div class='arrayDiv1'><div class='tc'><img class='introPic' src='trustrating_stim/white_mw013.bmp'><br><font color='red'><strong>Keep</strong></font></div></div></div>","null","ARRAY","1","trustrating_stim/white_mw013.bmp","0","noMatchOutcome","i","1500","","","","",""
"html-keyboard-response","42","185813","0.0-7.0-3.1","5cd10012174fc60016c10ffd","bdp_wmem","Sat Apr 08 2023 12:59:56 GMT-0400 (Eastern Daylight Time)","616589","Match,No Match","","null","","","","","","<div class='trialBorder'><div class='vertical-center'><img src='img/fixation2_sml.jpg'</img></div></div>","null","DELAY","","","","","","","","","","",""
"html-keyboard-response","43","186799","0.0-7.0-4.1","5cd10012174fc60016c10ffd","bdp_wmem","Sat Apr 08 2023 12:59:56 GMT-0400 (Eastern Daylight Time)","616589","Match,No Match","","982","","","","","","<div class='trialBorder'><div class='targDiv'><div class='tc'><img class='introPic' src='trustrating_stim/white_mw013.bmp'><br><font color='green'><strong>Share</strong></font></div></div><div class='respDiv'><div class='respDivL'>Match<br>(e)</div><div class='respDivR'>No Match<br>(i)</div></div></div>","i","TARGET","1","trustrating_stim/white_mw013.bmp","0","noMatchOutcome","i","1500","trustrating_stim/white_mw013.bmp","green","Share","REAL","1"
"html-keyboard-response","44","187312","0.0-7.0-5.1","5cd10012174fc60016c10ffd","bdp_wmem","Sat Apr 08 2023 12:59:56 GMT-0400 (Eastern Daylight Time)","616589","Match,No Match","","null","","","","","","<div class='trialBorder'><div class='vertical-center'><img src='img/correct.jpg'></div><div class='respDiv'><div class='respDivL'>Match<br>(e)</div><div class='respDivR'><font style='color:orange'>No Match<br>(i)</font></div></div></div>","null","FEEDBACK","","","","","","","","","","",""
"html-keyboard-response","45","187829","0.0-7.0-1.2","5cd10012174fc60016c10ffd","bdp_wmem","Sat Apr 08 2023 12:59:56 GMT-0400 (Eastern Daylight Time)","616589","Match,No Match","","null","","","","","","<div class='trialBorder'><div class='vertical-center'><img src='img/fixation2_sml.jpg'</img></div></div>","null","FIX","","","","","","","","","","",""
"html-keyboard-response","46","190845","0.0-7.0-2.2","5cd10012174fc60016c10ffd","bdp_wmem","Sat Apr 08 2023 12:59:56 GMT-0400 (Eastern Daylight Time)","616589","Match,No Match","","null","","","","","","<div class='trialBorder'><div class='vertical-center'><img style='vertical-align:center; align:center' src='img/fixation2_sml.jpg'></div><div class='arrayDiv2'><div class='tl'><img class='introPic' src='trustrating_stim/white_mw003.bmp'><br><font color='green'><strong>Share</strong></font></div><div class='tr'><img class='introPic' src='trustrating_stim/white_mw012.bmp'><br><font color='red'><strong>Keep</strong></font></div></div></div>","null","ARRAY","2","trustrating_stim/white_mw003.bmp,trustrating_stim/white_mw012.bmp","1,0","noMatchFace","i","3000","","","","",""
"html-keyboard-response","47","194878","0.0-7.0-3.2","5cd10012174fc60016c10ffd","bdp_wmem","Sat Apr 08 2023 12:59:56 GMT-0400 (Eastern Daylight Time)","616589","Match,No Match","","null","","","","","","<div class='trialBorder'><div class='vertical-center'><img src='img/fixation2_sml.jpg'</img></div></div>","null","DELAY","","","","","","","","","","",""
"html-keyboard-response","48","196196","0.0-7.0-4.2","5cd10012174fc60016c10ffd","bdp_wmem","Sat Apr 08 2023 12:59:56 GMT-0400 (Eastern Daylight Time)","616589","Match,No Match","","1314","","","","","","<div class='trialBorder'><div class='targDiv'><div class='tc'><img class='introPic' src='trustrating_stim/white_mw010.bmp'><br><font color='green'><strong>Share</strong></font></div></div><div class='respDiv'><div class='respDivL'>Match<br>(e)</div><div class='respDivR'>No Match<br>(i)</div></div></div>","i","TARGET","2","trustrating_stim/white_mw003.bmp,trustrating_stim/white_mw012.bmp","1,0","noMatchFace","i","3000","trustrating_stim/white_mw010.bmp","green","Share","REAL","1"
"html-keyboard-response","49","196709","0.0-7.0-5.2","5cd10012174fc60016c10ffd","bdp_wmem","Sat Apr 08 2023 12:59:56 GMT-0400 (Eastern Daylight Time)","616589","Match,No Match","","null","","","","","","<div class='trialBorder'><div class='vertical-center'><img src='img/correct.jpg'></div><div class='respDiv'><div class='respDivL'>Match<br>(e)</div><div class='respDivR'><font style='color:orange'>No Match<br>(i)</font></div></div></div>","null","FEEDBACK","","","","","","","","","","",""
"html-keyboard-response","50","197223","0.0-7.0-1.3","5cd10012174fc60016c10ffd","bdp_wmem","Sat Apr 08 2023 12:59:56 GMT-0400 (Eastern Daylight Time)","616589","Match,No Match","","null","","","","","","<div class='trialBorder'><div class='vertical-center'><img src='img/fixation2_sml.jpg'</img></div></div>","null","FIX","","","","","","","","","","",""
"html-keyboard-response","51","200240","0.0-7.0-2.3","5cd10012174fc60016c10ffd","bdp_wmem","Sat Apr 08 2023 12:59:56 GMT-0400 (Eastern Daylight Time)","616589","Match,No Match","","null","","","","","","<div class='trialBorder'><div class='vertical-center'><img style='vertical-align:center; align:center' src='img/fixation2_sml.jpg'></div><div class='arrayDiv2'><div class='tl'><img class='introPic' src='trustrating_stim/white_mw085.bmp'><br><font color='red'><strong>Keep</strong></font></div><div class='tr'><img class='introPic' src='trustrating_stim/white_mw038.bmp'><br><font color='green'><strong>Share</strong></font></div></div></div>","null","ARRAY","2","trustrating_stim/white_mw085.bmp,trustrating_stim/white_mw038.bmp","0,1","noMatchFace","i","3000","","","","",""
"html-keyboard-response","52","204259","0.0-7.0-3.3","5cd10012174fc60016c10ffd","bdp_wmem","Sat Apr 08 2023 12:59:56 GMT-0400 (Eastern Daylight Time)","616589","Match,No Match","","null","","","","","","<div class='trialBorder'><div class='vertical-center'><img src='img/fixation2_sml.jpg'</img></div></div>","null","DELAY","","","","","","","","","","",""
"html-keyboard-response","53","205837","0.0-7.0-4.3","5cd10012174fc60016c10ffd","bdp_wmem","Sat Apr 08 2023 12:59:56 GMT-0400 (Eastern Daylight Time)","616589","Match,No Match","","1573","","","","","","<div class='trialBorder'><div class='targDiv'><div class='tc'><img class='introPic' src='trustrating_stim/white_mw092.bmp'><br><font color='red'><strong>Keep</strong></font></div></div><div class='respDiv'><div class='respDivL'>Match<br>(e)</div><div class='respDivR'>No Match<br>(i)</div></div></div>","i","TARGET","2","trustrating_stim/white_mw085.bmp,trustrating_stim/white_mw038.bmp","0,1","noMatchFace","i","3000","trustrating_stim/white_mw092.bmp","red","Keep","REAL","1"
"html-keyboard-response","54","206351","0.0-7.0-5.3","5cd10012174fc60016c10ffd","bdp_wmem","Sat Apr 08 2023 12:59:56 GMT-0400 (Eastern Daylight Time)","616589","Match,No Match","","null","","","","","","<div class='trialBorder'><div class='vertical-center'><img src='img/correct.jpg'></div><div class='respDiv'><div class='respDivL'>Match<br>(e)</div><div class='respDivR'><font style='color:orange'>No Match<br>(i)</font></div></div></div>","null","FEEDBACK","","","","","","","","","","",""
"html-keyboard-response","55","206868","0.0-7.0-1.4","5cd10012174fc60016c10ffd","bdp_wmem","Sat Apr 08 2023 12:59:56 GMT-0400 (Eastern Daylight Time)","616589","Match,No Match","","null","","","","","","<div class='trialBorder'><div class='vertical-center'><img src='img/fixation2_sml.jpg'</img></div></div>","null","FIX","","","","","","","","","","",""
"html-keyboard-response","56","208384","0.0-7.0-2.4","5cd10012174fc60016c10ffd","bdp_wmem","Sat Apr 08 2023 12:59:56 GMT-0400 (Eastern Daylight Time)","616589","Match,No Match","","null","","","","","","<div class='trialBorder'><div class='vertical-center'><img style='vertical-align:center; align:center' src='img/fixation2_sml.jpg'></div><div class='arrayDiv1'><div class='tc'><img class='introPic' src='trustrating_stim/white_mw070.bmp'><br><font color='red'><strong>Keep</strong></font></div></div></div>","null","ARRAY","1","trustrating_stim/white_mw070.bmp","0","Match","e","1500","","","","",""
"html-keyboard-response","57","212418","0.0-7.0-3.4","5cd10012174fc60016c10ffd","bdp_wmem","Sat Apr 08 2023 12:59:56 GMT-0400 (Eastern Daylight Time)","616589","Match,No Match","","null","","","","","","<div class='trialBorder'><div class='vertical-center'><img src='img/fixation2_sml.jpg'</img></div></div>","null","DELAY","","","","","","","","","","",""
"html-keyboard-response","58","213282","0.0-7.0-4.4","5cd10012174fc60016c10ffd","bdp_wmem","Sat Apr 08 2023 12:59:56 GMT-0400 (Eastern Daylight Time)","616589","Match,No Match","","859","","","","","","<div class='trialBorder'><div class='targDiv'><div class='tc'><img class='introPic' src='trustrating_stim/white_mw070.bmp'><br><font color='red'><strong>Keep</strong></font></div></div><div class='respDiv'><div class='respDivL'>Match<br>(e)</div><div class='respDivR'>No Match<br>(i)</div></div></div>","e","TARGET","1","trustrating_stim/white_mw070.bmp","0","Match","e","1500","trustrating_stim/white_mw070.bmp","red","Keep","REAL","1"
"html-keyboard-response","59","213793","0.0-7.0-5.4","5cd10012174fc60016c10ffd","bdp_wmem","Sat Apr 08 2023 12:59:56 GMT-0400 (Eastern Daylight Time)","616589","Match,No Match","","null","","","","","","<div class='trialBorder'><div class='vertical-center'><img src='img/correct.jpg'></div><div class='respDiv'><div class='respDivL'><font style='color:orange'>Match<br>(e)</font></div><div class='respDivR'>No Match<br>(i)</div></div></div>","null","FEEDBACK","","","","","","","","","","",""
"html-keyboard-response","60","214308","0.0-7.0-1.5","5cd10012174fc60016c10ffd","bdp_wmem","Sat Apr 08 2023 12:59:56 GMT-0400 (Eastern Daylight Time)","616589","Match,No Match","","null","","","","","","<div class='trialBorder'><div class='vertical-center'><img src='img/fixation2_sml.jpg'</img></div></div>","null","FIX","","","","","","","","","","",""
"html-keyboard-response","61","217325","0.0-7.0-2.5","5cd10012174fc60016c10ffd","bdp_wmem","Sat Apr 08 2023 12:59:56 GMT-0400 (Eastern Daylight Time)","616589","Match,No Match","","null","","","","","","<div class='trialBorder'><div class='vertical-center'><img style='vertical-align:center; align:center' src='img/fixation2_sml.jpg'></div><div class='arrayDiv2'><div class='tl'><img class='introPic' src='trustrating_stim/white_mw085.bmp'><br><font color='red'><strong>Keep</strong></font></div><div class='tr'><img class='introPic' src='trustrating_stim/white_mw042.bmp'><br><font color='green'><strong>Share</strong></font></div></div></div>","null","ARRAY","2","trustrating_stim/white_mw085.bmp,trustrating_stim/white_mw042.bmp","0,1","Match","e","3000","","","","",""
"html-keyboard-response","62","221358","0.0-7.0-3.5","5cd10012174fc60016c10ffd","bdp_wmem","Sat Apr 08 2023 12:59:56 GMT-0400 (Eastern Daylight Time)","616589","Match,No Match","","null","","","","","","<div class='trialBorder'><div class='vertical-center'><img src='img/fixation2_sml.jpg'</img></div></div>","null","DELAY","","","","","","","","","","",""
"html-keyboard-response","63","222704","0.0-7.0-4.5","5cd10012174fc60016c10ffd","bdp_wmem","Sat Apr 08 2023 12:59:56 GMT-0400 (Eastern Daylight Time)","616589","Match,No Match","","1342","","","","","","<div class='trialBorder'><div class='targDiv'><div class='tc'><img class='introPic' src='trustrating_stim/white_mw042.bmp'><br><font color='green'><strong>Share</strong></font></div></div><div class='respDiv'><div class='respDivL'>Match<br>(e)</div><div class='respDivR'>No Match<br>(i)</div></div></div>","e","TARGET","2","trustrating_stim/white_mw085.bmp,trustrating_stim/white_mw042.bmp","0,1","Match","e","3000","trustrating_stim/white_mw042.bmp","green","Share","REAL","1"
"html-keyboard-response","64","223217","0.0-7.0-5.5","5cd10012174fc60016c10ffd","bdp_wmem","Sat Apr 08 2023 12:59:56 GMT-0400 (Eastern Daylight Time)","616589","Match,No Match","","null","","","","","","<div class='trialBorder'><div class='vertical-center'><img src='img/correct.jpg'></div><div class='respDiv'><div class='respDivL'><font style='color:orange'>Match<br>(e)</font></div><div class='respDivR'>No Match<br>(i)</div></div></div>","null","FEEDBACK","","","","","","","","","","",""
"html-keyboard-response","65","223734","0.0-7.0-1.6","5cd10012174fc60016c10ffd","bdp_wmem","Sat Apr 08 2023 12:59:56 GMT-0400 (Eastern Daylight Time)","616589","Match,No Match","","null","","","","","","<div class='trialBorder'><div class='vertical-center'><img src='img/fixation2_sml.jpg'</img></div></div>","null","FIX","","","","","","","","","","",""
"html-keyboard-response","66","226751","0.0-7.0-2.6","5cd10012174fc60016c10ffd","bdp_wmem","Sat Apr 08 2023 12:59:56 GMT-0400 (Eastern Daylight Time)","616589","Match,No Match","","null","","","","","","<div class='trialBorder'><div class='vertical-center'><img style='vertical-align:center; align:center' src='img/fixation2_sml.jpg'></div><div class='arrayDiv2'><div class='tl'><img class='introPic' src='trustrating_stim/white_mw038.bmp'><br><font color='green'><strong>Share</strong></font></div><div class='tr'><img class='introPic' src='trustrating_stim/white_mw091.bmp'><br><font color='red'><strong>Keep</strong></font></div></div></div>","null","ARRAY","2","trustrating_stim/white_mw038.bmp,trustrating_stim/white_mw091.bmp","1,0","noMatchFace","i","3000","","","","",""
"html-keyboard-response","67","230786","0.0-7.0-3.6","5cd10012174fc60016c10ffd","bdp_wmem","Sat Apr 08 2023 12:59:56 GMT-0400 (Eastern Daylight Time)","616589","Match,No Match","","null","","","","","","<div class='trialBorder'><div class='vertical-center'><img src='img/fixation2_sml.jpg'</img></div></div>","null","DELAY","","","","","","","","","","",""
"html-keyboard-response","68","231577","0.0-7.0-4.6","5cd10012174fc60016c10ffd","bdp_wmem","Sat Apr 08 2023 12:59:56 GMT-0400 (Eastern Daylight Time)","616589","Match,No Match","","787","","","","","","<div class='trialBorder'><div class='targDiv'><div class='tc'><img class='introPic' src='trustrating_stim/white_mw085.bmp'><br><font color='red'><strong>Keep</strong></font></div></div><div class='respDiv'><div class='respDivL'>Match<br>(e)</div><div class='respDivR'>No Match<br>(i)</div></div></div>","i","TARGET","2","trustrating_stim/white_mw038.bmp,trustrating_stim/white_mw091.bmp","1,0","noMatchFace","i","3000","trustrating_stim/white_mw085.bmp","red","Keep","REAL","1"
"html-keyboard-response","69","232079","0.0-7.0-5.6","5cd10012174fc60016c10ffd","bdp_wmem","Sat Apr 08 2023 12:59:56 GMT-0400 (Eastern Daylight Time)","616589","Match,No Match","","null","","","","","","<div class='trialBorder'><div class='vertical-center'><img src='img/correct.jpg'></div><div class='respDiv'><div class='respDivL'>Match<br>(e)</div><div class='respDivR'><font style='color:orange'>No Match<br>(i)</font></div></div></div>","null","FEEDBACK","","","","","","","","","","",""
"html-keyboard-response","70","232597","0.0-7.0-1.7","5cd10012174fc60016c10ffd","bdp_wmem","Sat Apr 08 2023 12:59:56 GMT-0400 (Eastern Daylight Time)","616589","Match,No Match","","null","","","","","","<div class='trialBorder'><div class='vertical-center'><img src='img/fixation2_sml.jpg'</img></div></div>","null","FIX","","","","","","","","","","",""
"html-keyboard-response","71","235612","0.0-7.0-2.7","5cd10012174fc60016c10ffd","bdp_wmem","Sat Apr 08 2023 12:59:56 GMT-0400 (Eastern Daylight Time)","616589","Match,No Match","","null","","","","","","<div class='trialBorder'><div class='vertical-center'><img style='vertical-align:center; align:center' src='img/fixation2_sml.jpg'></div><div class='arrayDiv2'><div class='tl'><img class='introPic' src='trustrating_stim/white_mw003.bmp'><br><font color='green'><strong>Share</strong></font></div><div class='tr'><img class='introPic' src='trustrating_stim/white_mw012.bmp'><br><font color='red'><strong>Keep</strong></font></div></div></div>","null","ARRAY","2","trustrating_stim/white_mw003.bmp,trustrating_stim/white_mw012.bmp","1,0","noMatchOutcome","i","3000","","","","",""
"html-keyboard-response","72","239628","0.0-7.0-3.7","5cd10012174fc60016c10ffd","bdp_wmem","Sat Apr 08 2023 12:59:56 GMT-0400 (Eastern Daylight Time)","616589","Match,No Match","","null","","","","","","<div class='trialBorder'><div class='vertical-center'><img src='img/fixation2_sml.jpg'</img></div></div>","null","DELAY","","","","","","","","","","",""
"html-keyboard-response","73","241010","0.0-7.0-4.7","5cd10012174fc60016c10ffd","bdp_wmem","Sat Apr 08 2023 12:59:56 GMT-0400 (Eastern Daylight Time)","616589","Match,No Match","","1377","","","","","","<div class='trialBorder'><div class='targDiv'><div class='tc'><img class='introPic' src='trustrating_stim/white_mw012.bmp'><br><font color='green'><strong>Share</strong></font></div></div><div class='respDiv'><div class='respDivL'>Match<br>(e)</div><div class='respDivR'>No Match<br>(i)</div></div></div>","i","TARGET","2","trustrating_stim/white_mw003.bmp,trustrating_stim/white_mw012.bmp","1,0","noMatchOutcome","i","3000","trustrating_stim/white_mw012.bmp","green","Share","REAL","1"
"html-keyboard-response","74","241520","0.0-7.0-5.7","5cd10012174fc60016c10ffd","bdp_wmem","Sat Apr 08 2023 12:59:56 GMT-0400 (Eastern Daylight Time)","616589","Match,No Match","","null","","","","","","<div class='trialBorder'><div class='vertical-center'><img src='img/correct.jpg'></div><div class='respDiv'><div class='respDivL'>Match<br>(e)</div><div class='respDivR'><font style='color:orange'>No Match<br>(i)</font></div></div></div>","null","FEEDBACK","","","","","","","","","","",""
"html-keyboard-response","75","242035","0.0-7.0-1.8","5cd10012174fc60016c10ffd","bdp_wmem","Sat Apr 08 2023 12:59:56 GMT-0400 (Eastern Daylight Time)","616589","Match,No Match","","null","","","","","","<div class='trialBorder'><div class='vertical-center'><img src='img/fixation2_sml.jpg'</img></div></div>","null","FIX","","","","","","","","","","",""
"html-keyboard-response","76","243551","0.0-7.0-2.8","5cd10012174fc60016c10ffd","bdp_wmem","Sat Apr 08 2023 12:59:56 GMT-0400 (Eastern Daylight Time)","616589","Match,No Match","","null","","","","","","<div class='trialBorder'><div class='vertical-center'><img style='vertical-align:center; align:center' src='img/fixation2_sml.jpg'></div><div class='arrayDiv1'><div class='tc'><img class='introPic' src='trustrating_stim/white_mw092.bmp'><br><font color='red'><strong>Keep</strong></font></div></div></div>","null","ARRAY","1","trustrating_stim/white_mw092.bmp","0","noMatchFace","i","1500","","","","",""
"html-keyboard-response","77","247583","0.0-7.0-3.8","5cd10012174fc60016c10ffd","bdp_wmem","Sat Apr 08 2023 12:59:56 GMT-0400 (Eastern Daylight Time)","616589","Match,No Match","","null","","","","","","<div class='trialBorder'><div class='vertical-center'><img src='img/fixation2_sml.jpg'</img></div></div>","null","DELAY","","","","","","","","","","",""
"html-keyboard-response","78","248795","0.0-7.0-4.8","5cd10012174fc60016c10ffd","bdp_wmem","Sat Apr 08 2023 12:59:56 GMT-0400 (Eastern Daylight Time)","616589","Match,No Match","","1206","","","","","","<div class='trialBorder'><div class='targDiv'><div class='tc'><img class='introPic' src='trustrating_stim/white_mw078.bmp'><br><font color='red'><strong>Keep</strong></font></div></div><div class='respDiv'><div class='respDivL'>Match<br>(e)</div><div class='respDivR'>No Match<br>(i)</div></div></div>","i","TARGET","1","trustrating_stim/white_mw092.bmp","0","noMatchFace","i","1500","trustrating_stim/white_mw078.bmp","red","Keep","REAL","1"
"html-keyboard-response","79","249303","0.0-7.0-5.8","5cd10012174fc60016c10ffd","bdp_wmem","Sat Apr 08 2023 12:59:56 GMT-0400 (Eastern Daylight Time)","616589","Match,No Match","","null","","","","","","<div class='trialBorder'><div class='vertical-center'><img src='img/correct.jpg'></div><div class='respDiv'><div class='respDivL'>Match<br>(e)</div><div class='respDivR'><font style='color:orange'>No Match<br>(i)</font></div></div></div>","null","FEEDBACK","","","","","","","","","","",""
"html-keyboard-response","80","249819","0.0-7.0-1.9","5cd10012174fc60016c10ffd","bdp_wmem","Sat Apr 08 2023 12:59:56 GMT-0400 (Eastern Daylight Time)","616589","Match,No Match","","null","","","","","","<div class='trialBorder'><div class='vertical-center'><img src='img/fixation2_sml.jpg'</img></div></div>","null","FIX","","","","","","","","","","",""
"html-keyboard-response","81","254335","0.0-7.0-2.9","5cd10012174fc60016c10ffd","bdp_wmem","Sat Apr 08 2023 12:59:56 GMT-0400 (Eastern Daylight Time)","616589","Match,No Match","","null","","","","","","<div class='trialBorder'><div class='vertical-center'><img style='vertical-align:center; align:center' src='img/fixation2_sml.jpg'></div><div class='arrayDiv3'><div class='tl'><img class='introPic' src='trustrating_stim/white_mw012.bmp'><br><font color='red'><strong>Keep</strong></font></div><div class='tc'><img class='introPic' src='trustrating_stim/white_mw042.bmp'><br><font color='red'><strong>Keep</strong></font></div><div class='tr'><img class='introPic' src='trustrating_stim/white_mw040.bmp'><br><font color='green'><strong>Share</strong></font></div></div></div>","null","ARRAY","3","trustrating_stim/white_mw012.bmp,trustrating_stim/white_mw042.bmp,trustrating_stim/white_mw040.bmp","0,0,1","noMatchOutcome","i","4500","","","","",""
"html-keyboard-response","82","258352","0.0-7.0-3.9","5cd10012174fc60016c10ffd","bdp_wmem","Sat Apr 08 2023 12:59:56 GMT-0400 (Eastern Daylight Time)","616589","Match,No Match","","null","","","","","","<div class='trialBorder'><div class='vertical-center'><img src='img/fixation2_sml.jpg'</img></div></div>","null","DELAY","","","","","","","","","","",""
"html-keyboard-response","83","259574","0.0-7.0-4.9","5cd10012174fc60016c10ffd","bdp_wmem","Sat Apr 08 2023 12:59:56 GMT-0400 (Eastern Daylight Time)","616589","Match,No Match","","1217","","","","","","<div class='trialBorder'><div class='targDiv'><div class='tc'><img class='introPic' src='trustrating_stim/white_mw042.bmp'><br><font color='green'><strong>Share</strong></font></div></div><div class='respDiv'><div class='respDivL'>Match<br>(e)</div><div class='respDivR'>No Match<br>(i)</div></div></div>","i","TARGET","3","trustrating_stim/white_mw012.bmp,trustrating_stim/white_mw042.bmp,trustrating_stim/white_mw040.bmp","0,0,1","noMatchOutcome","i","4500","trustrating_stim/white_mw042.bmp","green","Share","REAL","1"
"html-keyboard-response","84","260087","0.0-7.0-5.9","5cd10012174fc60016c10ffd","bdp_wmem","Sat Apr 08 2023 12:59:56 GMT-0400 (Eastern Daylight Time)","616589","Match,No Match","","null","","","","","","<div class='trialBorder'><div class='vertical-center'><img src='img/correct.jpg'></div><div class='respDiv'><div class='respDivL'>Match<br>(e)</div><div class='respDivR'><font style='color:orange'>No Match<br>(i)</font></div></div></div>","null","FEEDBACK","","","","","","","","","","",""
"html-keyboard-response","85","260603","0.0-7.0-1.10","5cd10012174fc60016c10ffd","bdp_wmem","Sat Apr 08 2023 12:59:56 GMT-0400 (Eastern Daylight Time)","616589","Match,No Match","","null","","","","","","<div class='trialBorder'><div class='vertical-center'><img src='img/fixation2_sml.jpg'</img></div></div>","null","FIX","","","","","","","","","","",""
"html-keyboard-response","86","263620","0.0-7.0-2.10","5cd10012174fc60016c10ffd","bdp_wmem","Sat Apr 08 2023 12:59:56 GMT-0400 (Eastern Daylight Time)","616589","Match,No Match","","null","","","","","","<div class='trialBorder'><div class='vertical-center'><img style='vertical-align:center; align:center' src='img/fixation2_sml.jpg'></div><div class='arrayDiv2'><div class='tl'><img class='introPic' src='trustrating_stim/white_mw003.bmp'><br><font color='red'><strong>Keep</strong></font></div><div class='tr'><img class='introPic' src='trustrating_stim/white_mw040.bmp'><br><font color='green'><strong>Share</strong></font></div></div></div>","null","ARRAY","2","trustrating_stim/white_mw003.bmp,trustrating_stim/white_mw040.bmp","0,1","noMatchOutcome","i","3000","","","","",""
"html-keyboard-response","87","267651","0.0-7.0-3.10","5cd10012174fc60016c10ffd","bdp_wmem","Sat Apr 08 2023 12:59:56 GMT-0400 (Eastern Daylight Time)","616589","Match,No Match","","null","","","","","","<div class='trialBorder'><div class='vertical-center'><img src='img/fixation2_sml.jpg'</img></div></div>","null","DELAY","","","","","","","","","","",""
"html-keyboard-response","88","268745","0.0-7.0-4.10","5cd10012174fc60016c10ffd","bdp_wmem","Sat Apr 08 2023 12:59:56 GMT-0400 (Eastern Daylight Time)","616589","Match,No Match","","1089","","","","","","<div class='trialBorder'><div class='targDiv'><div class='tc'><img class='introPic' src='trustrating_stim/white_mw040.bmp'><br><font color='red'><strong>Keep</strong></font></div></div><div class='respDiv'><div class='respDivL'>Match<br>(e)</div><div class='respDivR'>No Match<br>(i)</div></div></div>","i","TARGET","2","trustrating_stim/white_mw003.bmp,trustrating_stim/white_mw040.bmp","0,1","noMatchOutcome","i","3000","trustrating_stim/white_mw040.bmp","red","Keep","REAL","1"
"html-keyboard-response","89","269262","0.0-7.0-5.10","5cd10012174fc60016c10ffd","bdp_wmem","Sat Apr 08 2023 12:59:56 GMT-0400 (Eastern Daylight Time)","616589","Match,No Match","","null","","","","","","<div class='trialBorder'><div class='vertical-center'><img src='img/correct.jpg'></div><div class='respDiv'><div class='respDivL'>Match<br>(e)</div><div class='respDivR'><font style='color:orange'>No Match<br>(i)</font></div></div></div>","null","FEEDBACK","","","","","","","","","","",""
"html-keyboard-response","90","269779","0.0-7.0-1.11","5cd10012174fc60016c10ffd","bdp_wmem","Sat Apr 08 2023 12:59:56 GMT-0400 (Eastern Daylight Time)","616589","Match,No Match","","null","","","","","","<div class='trialBorder'><div class='vertical-center'><img src='img/fixation2_sml.jpg'</img></div></div>","null","FIX","","","","","","","","","","",""
"html-keyboard-response","91","274310","0.0-7.0-2.11","5cd10012174fc60016c10ffd","bdp_wmem","Sat Apr 08 2023 12:59:56 GMT-0400 (Eastern Daylight Time)","616589","Match,No Match","","null","","","","","","<div class='trialBorder'><div class='vertical-center'><img style='vertical-align:center; align:center' src='img/fixation2_sml.jpg'></div><div class='arrayDiv3'><div class='tl'><img class='introPic' src='trustrating_stim/white_mw085.bmp'><br><font color='green'><strong>Share</strong></font></div><div class='tc'><img class='introPic' src='trustrating_stim/white_mw010.bmp'><br><font color='red'><strong>Keep</strong></font></div><div class='tr'><img class='introPic' src='trustrating_stim/white_mw038.bmp'><br><font color='red'><strong>Keep</strong></font></div></div></div>","null","ARRAY","3","trustrating_stim/white_mw085.bmp,trustrating_stim/white_mw010.bmp,trustrating_stim/white_mw038.bmp","1,0,0","Match","e","4500","","","","",""
"html-keyboard-response","92","278327","0.0-7.0-3.11","5cd10012174fc60016c10ffd","bdp_wmem","Sat Apr 08 2023 12:59:56 GMT-0400 (Eastern Daylight Time)","616589","Match,No Match","","null","","","","","","<div class='trialBorder'><div class='vertical-center'><img src='img/fixation2_sml.jpg'</img></div></div>","null","DELAY","","","","","","","","","","",""
"html-keyboard-response","93","280005","0.0-7.0-4.11","5cd10012174fc60016c10ffd","bdp_wmem","Sat Apr 08 2023 12:59:56 GMT-0400 (Eastern Daylight Time)","616589","Match,No Match","","1674","","","","","","<div class='trialBorder'><div class='targDiv'><div class='tc'><img class='introPic' src='trustrating_stim/white_mw038.bmp'><br><font color='red'><strong>Keep</strong></font></div></div><div class='respDiv'><div class='respDivL'>Match<br>(e)</div><div class='respDivR'>No Match<br>(i)</div></div></div>","e","TARGET","3","trustrating_stim/white_mw085.bmp,trustrating_stim/white_mw010.bmp,trustrating_stim/white_mw038.bmp","1,0,0","Match","e","4500","trustrating_stim/white_mw038.bmp","red","Keep","REAL","1"
"html-keyboard-response","94","280516","0.0-7.0-5.11","5cd10012174fc60016c10ffd","bdp_wmem","Sat Apr 08 2023 12:59:56 GMT-0400 (Eastern Daylight Time)","616589","Match,No Match","","null","","","","","","<div class='trialBorder'><div class='vertical-center'><img src='img/correct.jpg'></div><div class='respDiv'><div class='respDivL'><font style='color:orange'>Match<br>(e)</font></div><div class='respDivR'>No Match<br>(i)</div></div></div>","null","FEEDBACK","","","","","","","","","","",""
"html-keyboard-response","95","281031","0.0-7.0-1.12","5cd10012174fc60016c10ffd","bdp_wmem","Sat Apr 08 2023 12:59:56 GMT-0400 (Eastern Daylight Time)","616589","Match,No Match","","null","","","","","","<div class='trialBorder'><div class='vertical-center'><img src='img/fixation2_sml.jpg'</img></div></div>","null","FIX","","","","","","","","","","",""
"html-keyboard-response","96","285564","0.0-7.0-2.12","5cd10012174fc60016c10ffd","bdp_wmem","Sat Apr 08 2023 12:59:56 GMT-0400 (Eastern Daylight Time)","616589","Match,No Match","","null","","","","","","<div class='trialBorder'><div class='vertical-center'><img style='vertical-align:center; align:center' src='img/fixation2_sml.jpg'></div><div class='arrayDiv3'><div class='tl'><img class='introPic' src='trustrating_stim/white_mw010.bmp'><br><font color='green'><strong>Share</strong></font></div><div class='tc'><img class='introPic' src='trustrating_stim/white_mw042.bmp'><br><font color='red'><strong>Keep</strong></font></div><div class='tr'><img class='introPic' src='trustrating_stim/white_mw085.bmp'><br><font color='green'><strong>Share</strong></font></div></div></div>","null","ARRAY","3","trustrating_stim/white_mw010.bmp,trustrating_stim/white_mw042.bmp,trustrating_stim/white_mw085.bmp","1,0,1","noMatchFace","i","4500","","","","",""
"html-keyboard-response","97","289581","0.0-7.0-3.12","5cd10012174fc60016c10ffd","bdp_wmem","Sat Apr 08 2023 12:59:56 GMT-0400 (Eastern Daylight Time)","616589","Match,No Match","","null","","","","","","<div class='trialBorder'><div class='vertical-center'><img src='img/fixation2_sml.jpg'</img></div></div>","null","DELAY","","","","","","","","","","",""
"html-keyboard-response","98","290817","0.0-7.0-4.12","5cd10012174fc60016c10ffd","bdp_wmem","Sat Apr 08 2023 12:59:56 GMT-0400 (Eastern Daylight Time)","616589","Match,No Match","","1231","","","","","","<div class='trialBorder'><div class='targDiv'><div class='tc'><img class='introPic' src='trustrating_stim/white_mw038.bmp'><br><font color='green'><strong>Share</strong></font></div></div><div class='respDiv'><div class='respDivL'>Match<br>(e)</div><div class='respDivR'>No Match<br>(i)</div></div></div>","i","TARGET","3","trustrating_stim/white_mw010.bmp,trustrating_stim/white_mw042.bmp,trustrating_stim/white_mw085.bmp","1,0,1","noMatchFace","i","4500","trustrating_stim/white_mw038.bmp","green","Share","REAL","1"
"html-keyboard-response","99","291332","0.0-7.0-5.12","5cd10012174fc60016c10ffd","bdp_wmem","Sat Apr 08 2023 12:59:56 GMT-0400 (Eastern Daylight Time)","616589","Match,No Match","","null","","","","","","<div class='trialBorder'><div class='vertical-center'><img src='img/correct.jpg'></div><div class='respDiv'><div class='respDivL'>Match<br>(e)</div><div class='respDivR'><font style='color:orange'>No Match<br>(i)</font></div></div></div>","null","FEEDBACK","","","","","","","","","","",""
"html-keyboard-response","100","291847","0.0-7.0-1.13","5cd10012174fc60016c10ffd","bdp_wmem","Sat Apr 08 2023 12:59:56 GMT-0400 (Eastern Daylight Time)","616589","Match,No Match","","null","","","","","","<div class='trialBorder'><div class='vertical-center'><img src='img/fixation2_sml.jpg'</img></div></div>","null","FIX","","","","","","","","","","",""
"html-keyboard-response","101","293363","0.0-7.0-2.13","5cd10012174fc60016c10ffd","bdp_wmem","Sat Apr 08 2023 12:59:56 GMT-0400 (Eastern Daylight Time)","616589","Match,No Match","","null","","","","","","<div class='trialBorder'><div class='vertical-center'><img style='vertical-align:center; align:center' src='img/fixation2_sml.jpg'></div><div class='arrayDiv1'><div class='tc'><img class='introPic' src='trustrating_stim/white_mw010.bmp'><br><font color='red'><strong>Keep</strong></font></div></div></div>","null","ARRAY","1","trustrating_stim/white_mw010.bmp","0","Match","e","1500","","","","",""
"html-keyboard-response","102","297380","0.0-7.0-3.13","5cd10012174fc60016c10ffd","bdp_wmem","Sat Apr 08 2023 12:59:56 GMT-0400 (Eastern Daylight Time)","616589","Match,No Match","","null","","","","","","<div class='trialBorder'><div class='vertical-center'><img src='img/fixation2_sml.jpg'</img></div></div>","null","DELAY","","","","","","","","","","",""
"html-keyboard-response","103","298294","0.0-7.0-4.13","5cd10012174fc60016c10ffd","bdp_wmem","Sat Apr 08 2023 12:59:56 GMT-0400 (Eastern Daylight Time)","616589","Match,No Match","","910","","","","","","<div class='trialBorder'><div class='targDiv'><div class='tc'><img class='introPic' src='trustrating_stim/white_mw010.bmp'><br><font color='red'><strong>Keep</strong></font></div></div><div class='respDiv'><div class='respDivL'>Match<br>(e)</div><div class='respDivR'>No Match<br>(i)</div></div></div>","e","TARGET","1","trustrating_stim/white_mw010.bmp","0","Match","e","1500","trustrating_stim/white_mw010.bmp","red","Keep","REAL","1"
"html-keyboard-response","104","298802","0.0-7.0-5.13","5cd10012174fc60016c10ffd","bdp_wmem","Sat Apr 08 2023 12:59:56 GMT-0400 (Eastern Daylight Time)","616589","Match,No Match","","null","","","","","","<div class='trialBorder'><div class='vertical-center'><img src='img/correct.jpg'></div><div class='respDiv'><div class='respDivL'><font style='color:orange'>Match<br>(e)</font></div><div class='respDivR'>No Match<br>(i)</div></div></div>","null","FEEDBACK","","","","","","","","","","",""
"html-keyboard-response","105","299318","0.0-7.0-1.14","5cd10012174fc60016c10ffd","bdp_wmem","Sat Apr 08 2023 12:59:56 GMT-0400 (Eastern Daylight Time)","616589","Match,No Match","","null","","","","","","<div class='trialBorder'><div class='vertical-center'><img src='img/fixation2_sml.jpg'</img></div></div>","null","FIX","","","","","","","","","","",""
"html-keyboard-response","106","303835","0.0-7.0-2.14","5cd10012174fc60016c10ffd","bdp_wmem","Sat Apr 08 2023 12:59:56 GMT-0400 (Eastern Daylight Time)","616589","Match,No Match","","null","","","","","","<div class='trialBorder'><div class='vertical-center'><img style='vertical-align:center; align:center' src='img/fixation2_sml.jpg'></div><div class='arrayDiv3'><div class='tl'><img class='introPic' src='trustrating_stim/white_mw013.bmp'><br><font color='green'><strong>Share</strong></font></div><div class='tc'><img class='introPic' src='trustrating_stim/white_mw012.bmp'><br><font color='green'><strong>Share</strong></font></div><div class='tr'><img class='introPic' src='trustrating_stim/white_mw092.bmp'><br><font color='red'><strong>Keep</strong></font></div></div></div>","null","ARRAY","3","trustrating_stim/white_mw013.bmp,trustrating_stim/white_mw012.bmp,trustrating_stim/white_mw092.bmp","1,1,0","Match","e","4500","","","","",""
"html-keyboard-response","107","307851","0.0-7.0-3.14","5cd10012174fc60016c10ffd","bdp_wmem","Sat Apr 08 2023 12:59:56 GMT-0400 (Eastern Daylight Time)","616589","Match,No Match","","null","","","","","","<div class='trialBorder'><div class='vertical-center'><img src='img/fixation2_sml.jpg'</img></div></div>","null","DELAY","","","","","","","","","","",""
"html-keyboard-response","108","308855","0.0-7.0-4.14","5cd10012174fc60016c10ffd","bdp_wmem","Sat Apr 08 2023 12:59:56 GMT-0400 (Eastern Daylight Time)","616589","Match,No Match","","999","","","","","","<div class='trialBorder'><div class='targDiv'><div class='tc'><img class='introPic' src='trustrating_stim/white_mw013.bmp'><br><font color='green'><strong>Share</strong></font></div></div><div class='respDiv'><div class='respDivL'>Match<br>(e)</div><div class='respDivR'>No Match<br>(i)</div></div></div>","i","TARGET","3","trustrating_stim/white_mw013.bmp,trustrating_stim/white_mw012.bmp,trustrating_stim/white_mw092.bmp","1,1,0","Match","e","4500","trustrating_stim/white_mw013.bmp","green","Share","REAL","0"
"html-keyboard-response","109","309366","0.0-7.0-5.14","5cd10012174fc60016c10ffd","bdp_wmem","Sat Apr 08 2023 12:59:56 GMT-0400 (Eastern Daylight Time)","616589","Match,No Match","","null","","","","","","<div class='trialBorder'><div class='vertical-center'><img src='img/error.jpg'></div><div class='respDiv'><div class='respDivL'>Match<br>(e)</div><div class='respDivR'><font style='color:orange'>No Match<br>(i)</font></div></div></div>","null","FEEDBACK","","","","","","","","","","",""
"html-keyboard-response","110","309882","0.0-7.0-1.15","5cd10012174fc60016c10ffd","bdp_wmem","Sat Apr 08 2023 12:59:56 GMT-0400 (Eastern Daylight Time)","616589","Match,No Match","","null","","","","","","<div class='trialBorder'><div class='vertical-center'><img src='img/fixation2_sml.jpg'</img></div></div>","null","FIX","","","","","","","","","","",""
"html-keyboard-response","111","311398","0.0-7.0-2.15","5cd10012174fc60016c10ffd","bdp_wmem","Sat Apr 08 2023 12:59:56 GMT-0400 (Eastern Daylight Time)","616589","Match,No Match","","null","","","","","","<div class='trialBorder'><div class='vertical-center'><img style='vertical-align:center; align:center' src='img/fixation2_sml.jpg'></div><div class='arrayDiv1'><div class='tc'><img class='introPic' src='trustrating_stim/white_mw038.bmp'><br><font color='red'><strong>Keep</strong></font></div></div></div>","null","ARRAY","1","trustrating_stim/white_mw038.bmp","0","noMatchFace","i","1500","","","","",""
"html-keyboard-response","112","315415","0.0-7.0-3.15","5cd10012174fc60016c10ffd","bdp_wmem","Sat Apr 08 2023 12:59:56 GMT-0400 (Eastern Daylight Time)","616589","Match,No Match","","null","","","","","","<div class='trialBorder'><div class='vertical-center'><img src='img/fixation2_sml.jpg'</img></div></div>","null","DELAY","","","","","","","","","","",""
"html-keyboard-response","113","316332","0.0-7.0-4.15","5cd10012174fc60016c10ffd","bdp_wmem","Sat Apr 08 2023 12:59:56 GMT-0400 (Eastern Daylight Time)","616589","Match,No Match","","912","","","","","","<div class='trialBorder'><div class='targDiv'><div class='tc'><img class='introPic' src='trustrating_stim/white_mw070.bmp'><br><font color='red'><strong>Keep</strong></font></div></div><div class='respDiv'><div class='respDivL'>Match<br>(e)</div><div class='respDivR'>No Match<br>(i)</div></div></div>","i","TARGET","1","trustrating_stim/white_mw038.bmp","0","noMatchFace","i","1500","trustrating_stim/white_mw070.bmp","red","Keep","REAL","1"
"html-keyboard-response","114","316840","0.0-7.0-5.15","5cd10012174fc60016c10ffd","bdp_wmem","Sat Apr 08 2023 12:59:56 GMT-0400 (Eastern Daylight Time)","616589","Match,No Match","","null","","","","","","<div class='trialBorder'><div class='vertical-center'><img src='img/correct.jpg'></div><div class='respDiv'><div class='respDivL'>Match<br>(e)</div><div class='respDivR'><font style='color:orange'>No Match<br>(i)</font></div></div></div>","null","FEEDBACK","","","","","","","","","","",""
"html-keyboard-response","115","317353","0.0-7.0-1.16","5cd10012174fc60016c10ffd","bdp_wmem","Sat Apr 08 2023 12:59:56 GMT-0400 (Eastern Daylight Time)","616589","Match,No Match","","null","","","","","","<div class='trialBorder'><div class='vertical-center'><img src='img/fixation2_sml.jpg'</img></div></div>","null","FIX","","","","","","","","","","",""
"html-keyboard-response","116","321887","0.0-7.0-2.16","5cd10012174fc60016c10ffd","bdp_wmem","Sat Apr 08 2023 12:59:56 GMT-0400 (Eastern Daylight Time)","616589","Match,No Match","","null","","","","","","<div class='trialBorder'><div class='vertical-center'><img style='vertical-align:center; align:center' src='img/fixation2_sml.jpg'></div><div class='arrayDiv3'><div class='tl'><img class='introPic' src='trustrating_stim/white_mw040.bmp'><br><font color='green'><strong>Share</strong></font></div><div class='tc'><img class='introPic' src='trustrating_stim/white_mw042.bmp'><br><font color='red'><strong>Keep</strong></font></div><div class='tr'><img class='introPic' src='trustrating_stim/white_mw012.bmp'><br><font color='green'><strong>Share</strong></font></div></div></div>","null","ARRAY","3","trustrating_stim/white_mw040.bmp,trustrating_stim/white_mw042.bmp,trustrating_stim/white_mw012.bmp","1,0,1","Match","e","4500","","","","",""
"html-keyboard-response","117","325904","0.0-7.0-3.16","5cd10012174fc60016c10ffd","bdp_wmem","Sat Apr 08 2023 12:59:56 GMT-0400 (Eastern Daylight Time)","616589","Match,No Match","","null","","","","","","<div class='trialBorder'><div class='vertical-center'><img src='img/fixation2_sml.jpg'</img></div></div>","null","DELAY","","","","","","","","","","",""
"html-keyboard-response","118","326745","0.0-7.0-4.16","5cd10012174fc60016c10ffd","bdp_wmem","Sat Apr 08 2023 12:59:56 GMT-0400 (Eastern Daylight Time)","616589","Match,No Match","","836","","","","","","<div class='trialBorder'><div class='targDiv'><div class='tc'><img class='introPic' src='trustrating_stim/white_mw012.bmp'><br><font color='green'><strong>Share</strong></font></div></div><div class='respDiv'><div class='respDivL'>Match<br>(e)</div><div class='respDivR'>No Match<br>(i)</div></div></div>","i","TARGET","3","trustrating_stim/white_mw040.bmp,trustrating_stim/white_mw042.bmp,trustrating_stim/white_mw012.bmp","1,0,1","Match","e","4500","trustrating_stim/white_mw012.bmp","green","Share","REAL","0"
"html-keyboard-response","119","327250","0.0-7.0-5.16","5cd10012174fc60016c10ffd","bdp_wmem","Sat Apr 08 2023 12:59:56 GMT-0400 (Eastern Daylight Time)","616589","Match,No Match","","null","","","","","","<div class='trialBorder'><div class='vertical-center'><img src='img/error.jpg'></div><div class='respDiv'><div class='respDivL'>Match<br>(e)</div><div class='respDivR'><font style='color:orange'>No Match<br>(i)</font></div></div></div>","null","FEEDBACK","","","","","","","","","","",""
"html-keyboard-response","120","327764","0.0-7.0-1.17","5cd10012174fc60016c10ffd","bdp_wmem","Sat Apr 08 2023 12:59:56 GMT-0400 (Eastern Daylight Time)","616589","Match,No Match","","null","","","","","","<div class='trialBorder'><div class='vertical-center'><img src='img/fixation2_sml.jpg'</img></div></div>","null","FIX","","","","","","","","","","",""
"html-keyboard-response","121","329280","0.0-7.0-2.17","5cd10012174fc60016c10ffd","bdp_wmem","Sat Apr 08 2023 12:59:56 GMT-0400 (Eastern Daylight Time)","616589","Match,No Match","","null","","","","","","<div class='trialBorder'><div class='vertical-center'><img style='vertical-align:center; align:center' src='img/fixation2_sml.jpg'></div><div class='arrayDiv1'><div class='tc'><img class='introPic' src='trustrating_stim/white_mw010.bmp'><br><font color='red'><strong>Keep</strong></font></div></div></div>","null","ARRAY","1","trustrating_stim/white_mw010.bmp","0","Match","e","1500","","","","",""
"html-keyboard-response","122","333288","0.0-7.0-3.17","5cd10012174fc60016c10ffd","bdp_wmem","Sat Apr 08 2023 12:59:56 GMT-0400 (Eastern Daylight Time)","616589","Match,No Match","","null","","","","","","<div class='trialBorder'><div class='vertical-center'><img src='img/fixation2_sml.jpg'</img></div></div>","null","DELAY","","","","","","","","","","",""
"html-keyboard-response","123","333986","0.0-7.0-4.17","5cd10012174fc60016c10ffd","bdp_wmem","Sat Apr 08 2023 12:59:56 GMT-0400 (Eastern Daylight Time)","616589","Match,No Match","","694","","","","","","<div class='trialBorder'><div class='targDiv'><div class='tc'><img class='introPic' src='trustrating_stim/white_mw010.bmp'><br><font color='red'><strong>Keep</strong></font></div></div><div class='respDiv'><div class='respDivL'>Match<br>(e)</div><div class='respDivR'>No Match<br>(i)</div></div></div>","e","TARGET","1","trustrating_stim/white_mw010.bmp","0","Match","e","1500","trustrating_stim/white_mw010.bmp","red","Keep","REAL","1"
"html-keyboard-response","124","334492","0.0-7.0-5.17","5cd10012174fc60016c10ffd","bdp_wmem","Sat Apr 08 2023 12:59:56 GMT-0400 (Eastern Daylight Time)","616589","Match,No Match","","null","","","","","","<div class='trialBorder'><div class='vertical-center'><img src='img/correct.jpg'></div><div class='respDiv'><div class='respDivL'><font style='color:orange'>Match<br>(e)</font></div><div class='respDivR'>No Match<br>(i)</div></div></div>","null","FEEDBACK","","","","","","","","","","",""
"html-keyboard-response","125","335007","0.0-7.0-1.18","5cd10012174fc60016c10ffd","bdp_wmem","Sat Apr 08 2023 12:59:56 GMT-0400 (Eastern Daylight Time)","616589","Match,No Match","","null","","","","","","<div class='trialBorder'><div class='vertical-center'><img src='img/fixation2_sml.jpg'</img></div></div>","null","FIX","","","","","","","","","","",""
"html-keyboard-response","126","338023","0.0-7.0-2.18","5cd10012174fc60016c10ffd","bdp_wmem","Sat Apr 08 2023 12:59:56 GMT-0400 (Eastern Daylight Time)","616589","Match,No Match","","null","","","","","","<div class='trialBorder'><div class='vertical-center'><img style='vertical-align:center; align:center' src='img/fixation2_sml.jpg'></div><div class='arrayDiv2'><div class='tl'><img class='introPic' src='trustrating_stim/white_mw042.bmp'><br><font color='red'><strong>Keep</strong></font></div><div class='tr'><img class='introPic' src='trustrating_stim/white_mw010.bmp'><br><font color='green'><strong>Share</strong></font></div></div></div>","null","ARRAY","2","trustrating_stim/white_mw042.bmp,trustrating_stim/white_mw010.bmp","0,1","noMatchOutcome","i","3000","","","","",""
"html-keyboard-response","127","342055","0.0-7.0-3.18","5cd10012174fc60016c10ffd","bdp_wmem","Sat Apr 08 2023 12:59:56 GMT-0400 (Eastern Daylight Time)","616589","Match,No Match","","null","","","","","","<div class='trialBorder'><div class='vertical-center'><img src='img/fixation2_sml.jpg'</img></div></div>","null","DELAY","","","","","","","","","","",""
"html-keyboard-response","128","343063","0.0-7.0-4.18","5cd10012174fc60016c10ffd","bdp_wmem","Sat Apr 08 2023 12:59:56 GMT-0400 (Eastern Daylight Time)","616589","Match,No Match","","1002","","","","","","<div class='trialBorder'><div class='targDiv'><div class='tc'><img class='introPic' src='trustrating_stim/white_mw042.bmp'><br><font color='green'><strong>Share</strong></font></div></div><div class='respDiv'><div class='respDivL'>Match<br>(e)</div><div class='respDivR'>No Match<br>(i)</div></div></div>","i","TARGET","2","trustrating_stim/white_mw042.bmp,trustrating_stim/white_mw010.bmp","0,1","noMatchOutcome","i","3000","trustrating_stim/white_mw042.bmp","green","Share","REAL","1"
"html-keyboard-response","129","343572","0.0-7.0-5.18","5cd10012174fc60016c10ffd","bdp_wmem","Sat Apr 08 2023 12:59:56 GMT-0400 (Eastern Daylight Time)","616589","Match,No Match","","null","","","","","","<div class='trialBorder'><div class='vertical-center'><img src='img/correct.jpg'></div><div class='respDiv'><div class='respDivL'>Match<br>(e)</div><div class='respDivR'><font style='color:orange'>No Match<br>(i)</font></div></div></div>","null","FEEDBACK","","","","","","","","","","",""
"html-keyboard-response","130","344088","0.0-7.0-1.19","5cd10012174fc60016c10ffd","bdp_wmem","Sat Apr 08 2023 12:59:56 GMT-0400 (Eastern Daylight Time)","616589","Match,No Match","","null","","","","","","<div class='trialBorder'><div class='vertical-center'><img src='img/fixation2_sml.jpg'</img></div></div>","null","FIX","","","","","","","","","","",""
"html-keyboard-response","131","347104","0.0-7.0-2.19","5cd10012174fc60016c10ffd","bdp_wmem","Sat Apr 08 2023 12:59:56 GMT-0400 (Eastern Daylight Time)","616589","Match,No Match","","null","","","","","","<div class='trialBorder'><div class='vertical-center'><img style='vertical-align:center; align:center' src='img/fixation2_sml.jpg'></div><div class='arrayDiv2'><div class='tl'><img class='introPic' src='trustrating_stim/white_mw091.bmp'><br><font color='red'><strong>Keep</strong></font></div><div class='tr'><img class='introPic' src='trustrating_stim/white_mw003.bmp'><br><font color='green'><strong>Share</strong></font></div></div></div>","null","ARRAY","2","trustrating_stim/white_mw091.bmp,trustrating_stim/white_mw003.bmp","0,1","Match","e","3000","","","","",""
"html-keyboard-response","132","351136","0.0-7.0-3.19","5cd10012174fc60016c10ffd","bdp_wmem","Sat Apr 08 2023 12:59:56 GMT-0400 (Eastern Daylight Time)","616589","Match,No Match","","null","","","","","","<div class='trialBorder'><div class='vertical-center'><img src='img/fixation2_sml.jpg'</img></div></div>","null","DELAY","","","","","","","","","","",""
"html-keyboard-response","133","352221","0.0-7.0-4.19","5cd10012174fc60016c10ffd","bdp_wmem","Sat Apr 08 2023 12:59:56 GMT-0400 (Eastern Daylight Time)","616589","Match,No Match","","1081","","","","","","<div class='trialBorder'><div class='targDiv'><div class='tc'><img class='introPic' src='trustrating_stim/white_mw091.bmp'><br><font color='red'><strong>Keep</strong></font></div></div><div class='respDiv'><div class='respDivL'>Match<br>(e)</div><div class='respDivR'>No Match<br>(i)</div></div></div>","i","TARGET","2","trustrating_stim/white_mw091.bmp,trustrating_stim/white_mw003.bmp","0,1","Match","e","3000","trustrating_stim/white_mw091.bmp","red","Keep","REAL","0"
"html-keyboard-response","134","352731","0.0-7.0-5.19","5cd10012174fc60016c10ffd","bdp_wmem","Sat Apr 08 2023 12:59:56 GMT-0400 (Eastern Daylight Time)","616589","Match,No Match","","null","","","","","","<div class='trialBorder'><div class='vertical-center'><img src='img/error.jpg'></div><div class='respDiv'><div class='respDivL'>Match<br>(e)</div><div class='respDivR'><font style='color:orange'>No Match<br>(i)</font></div></div></div>","null","FEEDBACK","","","","","","","","","","",""
"html-keyboard-response","135","353246","0.0-7.0-1.20","5cd10012174fc60016c10ffd","bdp_wmem","Sat Apr 08 2023 12:59:56 GMT-0400 (Eastern Daylight Time)","616589","Match,No Match","","null","","","","","","<div class='trialBorder'><div class='vertical-center'><img src='img/fixation2_sml.jpg'</img></div></div>","null","FIX","","","","","","","","","","",""
"html-keyboard-response","136","354762","0.0-7.0-2.20","5cd10012174fc60016c10ffd","bdp_wmem","Sat Apr 08 2023 12:59:56 GMT-0400 (Eastern Daylight Time)","616589","Match,No Match","","null","","","","","","<div class='trialBorder'><div class='vertical-center'><img style='vertical-align:center; align:center' src='img/fixation2_sml.jpg'></div><div class='arrayDiv1'><div class='tc'><img class='introPic' src='trustrating_stim/white_mw010.bmp'><br><font color='red'><strong>Keep</strong></font></div></div></div>","null","ARRAY","1","trustrating_stim/white_mw010.bmp","0","noMatchFace","i","1500","","","","",""
"html-keyboard-response","137","358795","0.0-7.0-3.20","5cd10012174fc60016c10ffd","bdp_wmem","Sat Apr 08 2023 12:59:56 GMT-0400 (Eastern Daylight Time)","616589","Match,No Match","","null","","","","","","<div class='trialBorder'><div class='vertical-center'><img src='img/fixation2_sml.jpg'</img></div></div>","null","DELAY","","","","","","","","","","",""
"html-keyboard-response","138","359871","0.0-7.0-4.20","5cd10012174fc60016c10ffd","bdp_wmem","Sat Apr 08 2023 12:59:56 GMT-0400 (Eastern Daylight Time)","616589","Match,No Match","","1072","","","","","","<div class='trialBorder'><div class='targDiv'><div class='tc'><img class='introPic' src='trustrating_stim/white_mw040.bmp'><br><font color='red'><strong>Keep</strong></font></div></div><div class='respDiv'><div class='respDivL'>Match<br>(e)</div><div class='respDivR'>No Match<br>(i)</div></div></div>","i","TARGET","1","trustrating_stim/white_mw010.bmp","0","noMatchFace","i","1500","trustrating_stim/white_mw040.bmp","red","Keep","REAL","1"
"html-keyboard-response","139","360374","0.0-7.0-5.20","5cd10012174fc60016c10ffd","bdp_wmem","Sat Apr 08 2023 12:59:56 GMT-0400 (Eastern Daylight Time)","616589","Match,No Match","","null","","","","","","<div class='trialBorder'><div class='vertical-center'><img src='img/correct.jpg'></div><div class='respDiv'><div class='respDivL'>Match<br>(e)</div><div class='respDivR'><font style='color:orange'>No Match<br>(i)</font></div></div></div>","null","FEEDBACK","","","","","","","","","","",""
"html-keyboard-response","140","360890","0.0-7.0-1.21","5cd10012174fc60016c10ffd","bdp_wmem","Sat Apr 08 2023 12:59:56 GMT-0400 (Eastern Daylight Time)","616589","Match,No Match","","null","","","","","","<div class='trialBorder'><div class='vertical-center'><img src='img/fixation2_sml.jpg'</img></div></div>","null","FIX","","","","","","","","","","",""
"html-keyboard-response","141","363907","0.0-7.0-2.21","5cd10012174fc60016c10ffd","bdp_wmem","Sat Apr 08 2023 12:59:56 GMT-0400 (Eastern Daylight Time)","616589","Match,No Match","","null","","","","","","<div class='trialBorder'><div class='vertical-center'><img style='vertical-align:center; align:center' src='img/fixation2_sml.jpg'></div><div class='arrayDiv2'><div class='tl'><img class='introPic' src='trustrating_stim/white_mw040.bmp'><br><font color='red'><strong>Keep</strong></font></div><div class='tr'><img class='introPic' src='trustrating_stim/white_mw091.bmp'><br><font color='green'><strong>Share</strong></font></div></div></div>","null","ARRAY","2","trustrating_stim/white_mw040.bmp,trustrating_stim/white_mw091.bmp","0,1","Match","e","3000","","","","",""
"html-keyboard-response","142","367938","0.0-7.0-3.21","5cd10012174fc60016c10ffd","bdp_wmem","Sat Apr 08 2023 12:59:56 GMT-0400 (Eastern Daylight Time)","616589","Match,No Match","","null","","","","","","<div class='trialBorder'><div class='vertical-center'><img src='img/fixation2_sml.jpg'</img></div></div>","null","DELAY","","","","","","","","","","",""
"html-keyboard-response","143","369046","0.0-7.0-4.21","5cd10012174fc60016c10ffd","bdp_wmem","Sat Apr 08 2023 12:59:56 GMT-0400 (Eastern Daylight Time)","616589","Match,No Match","","1102","","","","","","<div class='trialBorder'><div class='targDiv'><div class='tc'><img class='introPic' src='trustrating_stim/white_mw040.bmp'><br><font color='red'><strong>Keep</strong></font></div></div><div class='respDiv'><div class='respDivL'>Match<br>(e)</div><div class='respDivR'>No Match<br>(i)</div></div></div>","i","TARGET","2","trustrating_stim/white_mw040.bmp,trustrating_stim/white_mw091.bmp","0,1","Match","e","3000","trustrating_stim/white_mw040.bmp","red","Keep","REAL","0"
"html-keyboard-response","144","369551","0.0-7.0-5.21","5cd10012174fc60016c10ffd","bdp_wmem","Sat Apr 08 2023 12:59:56 GMT-0400 (Eastern Daylight Time)","616589","Match,No Match","","null","","","","","","<div class='trialBorder'><div class='vertical-center'><img src='img/error.jpg'></div><div class='respDiv'><div class='respDivL'>Match<br>(e)</div><div class='respDivR'><font style='color:orange'>No Match<br>(i)</font></div></div></div>","null","FEEDBACK","","","","","","","","","","",""
"html-keyboard-response","145","370068","0.0-7.0-1.22","5cd10012174fc60016c10ffd","bdp_wmem","Sat Apr 08 2023 12:59:56 GMT-0400 (Eastern Daylight Time)","616589","Match,No Match","","null","","","","","","<div class='trialBorder'><div class='vertical-center'><img src='img/fixation2_sml.jpg'</img></div></div>","null","FIX","","","","","","","","","","",""
"html-keyboard-response","146","373086","0.0-7.0-2.22","5cd10012174fc60016c10ffd","bdp_wmem","Sat Apr 08 2023 12:59:56 GMT-0400 (Eastern Daylight Time)","616589","Match,No Match","","null","","","","","","<div class='trialBorder'><div class='vertical-center'><img style='vertical-align:center; align:center' src='img/fixation2_sml.jpg'></div><div class='arrayDiv2'><div class='tl'><img class='introPic' src='trustrating_stim/white_mw070.bmp'><br><font color='red'><strong>Keep</strong></font></div><div class='tr'><img class='introPic' src='trustrating_stim/white_mw040.bmp'><br><font color='green'><strong>Share</strong></font></div></div></div>","null","ARRAY","2","trustrating_stim/white_mw070.bmp,trustrating_stim/white_mw040.bmp","0,1","Match","e","3000","","","","",""
"html-keyboard-response","147","377117","0.0-7.0-3.22","5cd10012174fc60016c10ffd","bdp_wmem","Sat Apr 08 2023 12:59:56 GMT-0400 (Eastern Daylight Time)","616589","Match,No Match","","null","","","","","","<div class='trialBorder'><div class='vertical-center'><img src='img/fixation2_sml.jpg'</img></div></div>","null","DELAY","","","","","","","","","","",""
"html-keyboard-response","148","378433","0.0-7.0-4.22","5cd10012174fc60016c10ffd","bdp_wmem","Sat Apr 08 2023 12:59:56 GMT-0400 (Eastern Daylight Time)","616589","Match,No Match","","1311","","","","","","<div class='trialBorder'><div class='targDiv'><div class='tc'><img class='introPic' src='trustrating_stim/white_mw070.bmp'><br><font color='red'><strong>Keep</strong></font></div></div><div class='respDiv'><div class='respDivL'>Match<br>(e)</div><div class='respDivR'>No Match<br>(i)</div></div></div>","i","TARGET","2","trustrating_stim/white_mw070.bmp,trustrating_stim/white_mw040.bmp","0,1","Match","e","3000","trustrating_stim/white_mw070.bmp","red","Keep","REAL","0"
"html-keyboard-response","149","378946","0.0-7.0-5.22","5cd10012174fc60016c10ffd","bdp_wmem","Sat Apr 08 2023 12:59:56 GMT-0400 (Eastern Daylight Time)","616589","Match,No Match","","null","","","","","","<div class='trialBorder'><div class='vertical-center'><img src='img/error.jpg'></div><div class='respDiv'><div class='respDivL'>Match<br>(e)</div><div class='respDivR'><font style='color:orange'>No Match<br>(i)</font></div></div></div>","null","FEEDBACK","","","","","","","","","","",""
"html-keyboard-response","150","379461","0.0-7.0-1.23","5cd10012174fc60016c10ffd","bdp_wmem","Sat Apr 08 2023 12:59:56 GMT-0400 (Eastern Daylight Time)","616589","Match,No Match","","null","","","","","","<div class='trialBorder'><div class='vertical-center'><img src='img/fixation2_sml.jpg'</img></div></div>","null","FIX","","","","","","","","","","",""
"html-keyboard-response","151","382480","0.0-7.0-2.23","5cd10012174fc60016c10ffd","bdp_wmem","Sat Apr 08 2023 12:59:56 GMT-0400 (Eastern Daylight Time)","616589","Match,No Match","","null","","","","","","<div class='trialBorder'><div class='vertical-center'><img style='vertical-align:center; align:center' src='img/fixation2_sml.jpg'></div><div class='arrayDiv2'><div class='tl'><img class='introPic' src='trustrating_stim/white_mw010.bmp'><br><font color='green'><strong>Share</strong></font></div><div class='tr'><img class='introPic' src='trustrating_stim/white_mw085.bmp'><br><font color='red'><strong>Keep</strong></font></div></div></div>","null","ARRAY","2","trustrating_stim/white_mw010.bmp,trustrating_stim/white_mw085.bmp","1,0","Match","e","3000","","","","",""
"html-keyboard-response","152","386511","0.0-7.0-3.23","5cd10012174fc60016c10ffd","bdp_wmem","Sat Apr 08 2023 12:59:56 GMT-0400 (Eastern Daylight Time)","616589","Match,No Match","","null","","","","","","<div class='trialBorder'><div class='vertical-center'><img src='img/fixation2_sml.jpg'</img></div></div>","null","DELAY","","","","","","","","","","",""
"html-keyboard-response","153","387636","0.0-7.0-4.23","5cd10012174fc60016c10ffd","bdp_wmem","Sat Apr 08 2023 12:59:56 GMT-0400 (Eastern Daylight Time)","616589","Match,No Match","","1122","","","","","","<div class='trialBorder'><div class='targDiv'><div class='tc'><img class='introPic' src='trustrating_stim/white_mw010.bmp'><br><font color='green'><strong>Share</strong></font></div></div><div class='respDiv'><div class='respDivL'>Match<br>(e)</div><div class='respDivR'>No Match<br>(i)</div></div></div>","e","TARGET","2","trustrating_stim/white_mw010.bmp,trustrating_stim/white_mw085.bmp","1,0","Match","e","3000","trustrating_stim/white_mw010.bmp","green","Share","REAL","1"
"html-keyboard-response","154","388153","0.0-7.0-5.23","5cd10012174fc60016c10ffd","bdp_wmem","Sat Apr 08 2023 12:59:56 GMT-0400 (Eastern Daylight Time)","616589","Match,No Match","","null","","","","","","<div class='trialBorder'><div class='vertical-center'><img src='img/correct.jpg'></div><div class='respDiv'><div class='respDivL'><font style='color:orange'>Match<br>(e)</font></div><div class='respDivR'>No Match<br>(i)</div></div></div>","null","FEEDBACK","","","","","","","","","","",""
"html-keyboard-response","155","388668","0.0-7.0-1.24","5cd10012174fc60016c10ffd","bdp_wmem","Sat Apr 08 2023 12:59:56 GMT-0400 (Eastern Daylight Time)","616589","Match,No Match","","null","","","","","","<div class='trialBorder'><div class='vertical-center'><img src='img/fixation2_sml.jpg'</img></div></div>","null","FIX","","","","","","","","","","",""
"html-keyboard-response","156","393201","0.0-7.0-2.24","5cd10012174fc60016c10ffd","bdp_wmem","Sat Apr 08 2023 12:59:56 GMT-0400 (Eastern Daylight Time)","616589","Match,No Match","","null","","","","","","<div class='trialBorder'><div class='vertical-center'><img style='vertical-align:center; align:center' src='img/fixation2_sml.jpg'></div><div class='arrayDiv3'><div class='tl'><img class='introPic' src='trustrating_stim/white_mw040.bmp'><br><font color='red'><strong>Keep</strong></font></div><div class='tc'><img class='introPic' src='trustrating_stim/white_mw078.bmp'><br><font color='red'><strong>Keep</strong></font></div><div class='tr'><img class='introPic' src='trustrating_stim/white_mw042.bmp'><br><font color='green'><strong>Share</strong></font></div></div></div>","null","ARRAY","3","trustrating_stim/white_mw040.bmp,trustrating_stim/white_mw078.bmp,trustrating_stim/white_mw042.bmp","0,0,1","Match","e","4500","","","","",""
"html-keyboard-response","157","397217","0.0-7.0-3.24","5cd10012174fc60016c10ffd","bdp_wmem","Sat Apr 08 2023 12:59:56 GMT-0400 (Eastern Daylight Time)","616589","Match,No Match","","null","","","","","","<div class='trialBorder'><div class='vertical-center'><img src='img/fixation2_sml.jpg'</img></div></div>","null","DELAY","","","","","","","","","","",""
"html-keyboard-response","158","398410","0.0-7.0-4.24","5cd10012174fc60016c10ffd","bdp_wmem","Sat Apr 08 2023 12:59:56 GMT-0400 (Eastern Daylight Time)","616589","Match,No Match","","1188","","","","","","<div class='trialBorder'><div class='targDiv'><div class='tc'><img class='introPic' src='trustrating_stim/white_mw042.bmp'><br><font color='green'><strong>Share</strong></font></div></div><div class='respDiv'><div class='respDivL'>Match<br>(e)</div><div class='respDivR'>No Match<br>(i)</div></div></div>","e","TARGET","3","trustrating_stim/white_mw040.bmp,trustrating_stim/white_mw078.bmp,trustrating_stim/white_mw042.bmp","0,0,1","Match","e","4500","trustrating_stim/white_mw042.bmp","green","Share","REAL","1"
"html-keyboard-response","159","398921","0.0-7.0-5.24","5cd10012174fc60016c10ffd","bdp_wmem","Sat Apr 08 2023 12:59:56 GMT-0400 (Eastern Daylight Time)","616589","Match,No Match","","null","","","","","","<div class='trialBorder'><div class='vertical-center'><img src='img/correct.jpg'></div><div class='respDiv'><div class='respDivL'><font style='color:orange'>Match<br>(e)</font></div><div class='respDivR'>No Match<br>(i)</div></div></div>","null","FEEDBACK","","","","","","","","","","",""
"html-keyboard-response","160","399437","0.0-7.0-1.25","5cd10012174fc60016c10ffd","bdp_wmem","Sat Apr 08 2023 12:59:56 GMT-0400 (Eastern Daylight Time)","616589","Match,No Match","","null","","","","","","<div class='trialBorder'><div class='vertical-center'><img src='img/fixation2_sml.jpg'</img></div></div>","null","FIX","","","","","","","","","","",""
"html-keyboard-response","161","403970","0.0-7.0-2.25","5cd10012174fc60016c10ffd","bdp_wmem","Sat Apr 08 2023 12:59:56 GMT-0400 (Eastern Daylight Time)","616589","Match,No Match","","null","","","","","","<div class='trialBorder'><div class='vertical-center'><img style='vertical-align:center; align:center' src='img/fixation2_sml.jpg'></div><div class='arrayDiv3'><div class='tl'><img class='introPic' src='trustrating_stim/white_mw040.bmp'><br><font color='red'><strong>Keep</strong></font></div><div class='tc'><img class='introPic' src='trustrating_stim/white_mw092.bmp'><br><font color='green'><strong>Share</strong></font></div><div class='tr'><img class='introPic' src='trustrating_stim/white_mw085.bmp'><br><font color='red'><strong>Keep</strong></font></div></div></div>","null","ARRAY","3","trustrating_stim/white_mw040.bmp,trustrating_stim/white_mw092.bmp,trustrating_stim/white_mw085.bmp","0,1,0","noMatchOutcome","i","4500","","","","",""
"html-keyboard-response","162","407987","0.0-7.0-3.25","5cd10012174fc60016c10ffd","bdp_wmem","Sat Apr 08 2023 12:59:56 GMT-0400 (Eastern Daylight Time)","616589","Match,No Match","","null","","","","","","<div class='trialBorder'><div class='vertical-center'><img src='img/fixation2_sml.jpg'</img></div></div>","null","DELAY","","","","","","","","","","",""
"html-keyboard-response","163","409341","0.0-7.0-4.25","5cd10012174fc60016c10ffd","bdp_wmem","Sat Apr 08 2023 12:59:56 GMT-0400 (Eastern Daylight Time)","616589","Match,No Match","","1350","","","","","","<div class='trialBorder'><div class='targDiv'><div class='tc'><img class='introPic' src='trustrating_stim/white_mw040.bmp'><br><font color='green'><strong>Share</strong></font></div></div><div class='respDiv'><div class='respDivL'>Match<br>(e)</div><div class='respDivR'>No Match<br>(i)</div></div></div>","i","TARGET","3","trustrating_stim/white_mw040.bmp,trustrating_stim/white_mw092.bmp,trustrating_stim/white_mw085.bmp","0,1,0","noMatchOutcome","i","4500","trustrating_stim/white_mw040.bmp","green","Share","REAL","1"
"html-keyboard-response","164","409847","0.0-7.0-5.25","5cd10012174fc60016c10ffd","bdp_wmem","Sat Apr 08 2023 12:59:56 GMT-0400 (Eastern Daylight Time)","616589","Match,No Match","","null","","","","","","<div class='trialBorder'><div class='vertical-center'><img src='img/correct.jpg'></div><div class='respDiv'><div class='respDivL'>Match<br>(e)</div><div class='respDivR'><font style='color:orange'>No Match<br>(i)</font></div></div></div>","null","FEEDBACK","","","","","","","","","","",""
"html-keyboard-response","165","410362","0.0-7.0-1.26","5cd10012174fc60016c10ffd","bdp_wmem","Sat Apr 08 2023 12:59:56 GMT-0400 (Eastern Daylight Time)","616589","Match,No Match","","null","","","","","","<div class='trialBorder'><div class='vertical-center'><img src='img/fixation2_sml.jpg'</img></div></div>","null","FIX","","","","","","","","","","",""
"html-keyboard-response","166","413379","0.0-7.0-2.26","5cd10012174fc60016c10ffd","bdp_wmem","Sat Apr 08 2023 12:59:56 GMT-0400 (Eastern Daylight Time)","616589","Match,No Match","","null","","","","","","<div class='trialBorder'><div class='vertical-center'><img style='vertical-align:center; align:center' src='img/fixation2_sml.jpg'></div><div class='arrayDiv2'><div class='tl'><img class='introPic' src='trustrating_stim/white_mw003.bmp'><br><font color='green'><strong>Share</strong></font></div><div class='tr'><img class='introPic' src='trustrating_stim/white_mw078.bmp'><br><font color='red'><strong>Keep</strong></font></div></div></div>","null","ARRAY","2","trustrating_stim/white_mw003.bmp,trustrating_stim/white_mw078.bmp","1,0","noMatchOutcome","i","3000","","","","",""
"html-keyboard-response","167","417411","0.0-7.0-3.26","5cd10012174fc60016c10ffd","bdp_wmem","Sat Apr 08 2023 12:59:56 GMT-0400 (Eastern Daylight Time)","616589","Match,No Match","","null","","","","","","<div class='trialBorder'><div class='vertical-center'><img src='img/fixation2_sml.jpg'</img></div></div>","null","DELAY","","","","","","","","","","",""
"html-keyboard-response","168","418355","0.0-7.0-4.26","5cd10012174fc60016c10ffd","bdp_wmem","Sat Apr 08 2023 12:59:56 GMT-0400 (Eastern Daylight Time)","616589","Match,No Match","","939","","","","","","<div class='trialBorder'><div class='targDiv'><div class='tc'><img class='introPic' src='trustrating_stim/white_mw078.bmp'><br><font color='green'><strong>Share</strong></font></div></div><div class='respDiv'><div class='respDivL'>Match<br>(e)</div><div class='respDivR'>No Match<br>(i)</div></div></div>","i","TARGET","2","trustrating_stim/white_mw003.bmp,trustrating_stim/white_mw078.bmp","1,0","noMatchOutcome","i","3000","trustrating_stim/white_mw078.bmp","green","Share","REAL","1"
"html-keyboard-response","169","418865","0.0-7.0-5.26","5cd10012174fc60016c10ffd","bdp_wmem","Sat Apr 08 2023 12:59:56 GMT-0400 (Eastern Daylight Time)","616589","Match,No Match","","null","","","","","","<div class='trialBorder'><div class='vertical-center'><img src='img/correct.jpg'></div><div class='respDiv'><div class='respDivL'>Match<br>(e)</div><div class='respDivR'><font style='color:orange'>No Match<br>(i)</font></div></div></div>","null","FEEDBACK","","","","","","","","","","",""
"html-keyboard-response","170","419380","0.0-7.0-1.27","5cd10012174fc60016c10ffd","bdp_wmem","Sat Apr 08 2023 12:59:56 GMT-0400 (Eastern Daylight Time)","616589","Match,No Match","","null","","","","","","<div class='trialBorder'><div class='vertical-center'><img src='img/fixation2_sml.jpg'</img></div></div>","null","FIX","","","","","","","","","","",""
"html-keyboard-response","171","420897","0.0-7.0-2.27","5cd10012174fc60016c10ffd","bdp_wmem","Sat Apr 08 2023 12:59:56 GMT-0400 (Eastern Daylight Time)","616589","Match,No Match","","null","","","","","","<div class='trialBorder'><div class='vertical-center'><img style='vertical-align:center; align:center' src='img/fixation2_sml.jpg'></div><div class='arrayDiv1'><div class='tc'><img class='introPic' src='trustrating_stim/white_mw042.bmp'><br><font color='red'><strong>Keep</strong></font></div></div></div>","null","ARRAY","1","trustrating_stim/white_mw042.bmp","0","Match","e","1500","","","","",""
"html-keyboard-response","172","424915","0.0-7.0-3.27","5cd10012174fc60016c10ffd","bdp_wmem","Sat Apr 08 2023 12:59:56 GMT-0400 (Eastern Daylight Time)","616589","Match,No Match","","null","","","","","","<div class='trialBorder'><div class='vertical-center'><img src='img/fixation2_sml.jpg'</img></div></div>","null","DELAY","","","","","","","","","","",""
"html-keyboard-response","173","426210","0.0-7.0-4.27","5cd10012174fc60016c10ffd","bdp_wmem","Sat Apr 08 2023 12:59:56 GMT-0400 (Eastern Daylight Time)","616589","Match,No Match","","1291","","","","","","<div class='trialBorder'><div class='targDiv'><div class='tc'><img class='introPic' src='trustrating_stim/white_mw042.bmp'><br><font color='red'><strong>Keep</strong></font></div></div><div class='respDiv'><div class='respDivL'>Match<br>(e)</div><div class='respDivR'>No Match<br>(i)</div></div></div>","e","TARGET","1","trustrating_stim/white_mw042.bmp","0","Match","e","1500","trustrating_stim/white_mw042.bmp","red","Keep","REAL","1"
"html-keyboard-response","174","426727","0.0-7.0-5.27","5cd10012174fc60016c10ffd","bdp_wmem","Sat Apr 08 2023 12:59:56 GMT-0400 (Eastern Daylight Time)","616589","Match,No Match","","null","","","","","","<div class='trialBorder'><div class='vertical-center'><img src='img/correct.jpg'></div><div class='respDiv'><div class='respDivL'><font style='color:orange'>Match<br>(e)</font></div><div class='respDivR'>No Match<br>(i)</div></div></div>","null","FEEDBACK","","","","","","","","","","",""
"html-keyboard-response","175","427242","0.0-7.0-1.28","5cd10012174fc60016c10ffd","bdp_wmem","Sat Apr 08 2023 12:59:56 GMT-0400 (Eastern Daylight Time)","616589","Match,No Match","","null","","","","","","<div class='trialBorder'><div class='vertical-center'><img src='img/fixation2_sml.jpg'</img></div></div>","null","FIX","","","","","","","","","","",""
"html-keyboard-response","176","428758","0.0-7.0-2.28","5cd10012174fc60016c10ffd","bdp_wmem","Sat Apr 08 2023 12:59:56 GMT-0400 (Eastern Daylight Time)","616589","Match,No Match","","null","","","","","","<div class='trialBorder'><div class='vertical-center'><img style='vertical-align:center; align:center' src='img/fixation2_sml.jpg'></div><div class='arrayDiv1'><div class='tc'><img class='introPic' src='trustrating_stim/white_mw012.bmp'><br><font color='red'><strong>Keep</strong></font></div></div></div>","null","ARRAY","1","trustrating_stim/white_mw012.bmp","0","noMatchOutcome","i","1500","","","","",""
"html-keyboard-response","177","432774","0.0-7.0-3.28","5cd10012174fc60016c10ffd","bdp_wmem","Sat Apr 08 2023 12:59:56 GMT-0400 (Eastern Daylight Time)","616589","Match,No Match","","null","","","","","","<div class='trialBorder'><div class='vertical-center'><img src='img/fixation2_sml.jpg'</img></div></div>","null","DELAY","","","","","","","","","","",""
"html-keyboard-response","178","433760","0.0-7.0-4.28","5cd10012174fc60016c10ffd","bdp_wmem","Sat Apr 08 2023 12:59:56 GMT-0400 (Eastern Daylight Time)","616589","Match,No Match","","983","","","","","","<div class='trialBorder'><div class='targDiv'><div class='tc'><img class='introPic' src='trustrating_stim/white_mw012.bmp'><br><font color='green'><strong>Share</strong></font></div></div><div class='respDiv'><div class='respDivL'>Match<br>(e)</div><div class='respDivR'>No Match<br>(i)</div></div></div>","i","TARGET","1","trustrating_stim/white_mw012.bmp","0","noMatchOutcome","i","1500","trustrating_stim/white_mw012.bmp","green","Share","REAL","1"
"html-keyboard-response","179","434275","0.0-7.0-5.28","5cd10012174fc60016c10ffd","bdp_wmem","Sat Apr 08 2023 12:59:56 GMT-0400 (Eastern Daylight Time)","616589","Match,No Match","","null","","","","","","<div class='trialBorder'><div class='vertical-center'><img src='img/correct.jpg'></div><div class='respDiv'><div class='respDivL'>Match<br>(e)</div><div class='respDivR'><font style='color:orange'>No Match<br>(i)</font></div></div></div>","null","FEEDBACK","","","","","","","","","","",""
"html-keyboard-response","180","434791","0.0-7.0-1.29","5cd10012174fc60016c10ffd","bdp_wmem","Sat Apr 08 2023 12:59:56 GMT-0400 (Eastern Daylight Time)","616589","Match,No Match","","null","","","","","","<div class='trialBorder'><div class='vertical-center'><img src='img/fixation2_sml.jpg'</img></div></div>","null","FIX","","","","","","","","","","",""
"html-keyboard-response","181","439308","0.0-7.0-2.29","5cd10012174fc60016c10ffd","bdp_wmem","Sat Apr 08 2023 12:59:56 GMT-0400 (Eastern Daylight Time)","616589","Match,No Match","","null","","","","","","<div class='trialBorder'><div class='vertical-center'><img style='vertical-align:center; align:center' src='img/fixation2_sml.jpg'></div><div class='arrayDiv3'><div class='tl'><img class='introPic' src='trustrating_stim/white_mw013.bmp'><br><font color='red'><strong>Keep</strong></font></div><div class='tc'><img class='introPic' src='trustrating_stim/white_mw003.bmp'><br><font color='red'><strong>Keep</strong></font></div><div class='tr'><img class='introPic' src='trustrating_stim/white_mw092.bmp'><br><font color='green'><strong>Share</strong></font></div></div></div>","null","ARRAY","3","trustrating_stim/white_mw013.bmp,trustrating_stim/white_mw003.bmp,trustrating_stim/white_mw092.bmp","0,0,1","noMatchFace","i","4500","","","","",""
"html-keyboard-response","182","443325","0.0-7.0-3.29","5cd10012174fc60016c10ffd","bdp_wmem","Sat Apr 08 2023 12:59:56 GMT-0400 (Eastern Daylight Time)","616589","Match,No Match","","null","","","","","","<div class='trialBorder'><div class='vertical-center'><img src='img/fixation2_sml.jpg'</img></div></div>","null","DELAY","","","","","","","","","","",""
"html-keyboard-response","183","444502","0.0-7.0-4.29","5cd10012174fc60016c10ffd","bdp_wmem","Sat Apr 08 2023 12:59:56 GMT-0400 (Eastern Daylight Time)","616589","Match,No Match","","1172","","","","","","<div class='trialBorder'><div class='targDiv'><div class='tc'><img class='introPic' src='trustrating_stim/white_mw038.bmp'><br><font color='red'><strong>Keep</strong></font></div></div><div class='respDiv'><div class='respDivL'>Match<br>(e)</div><div class='respDivR'>No Match<br>(i)</div></div></div>","i","TARGET","3","trustrating_stim/white_mw013.bmp,trustrating_stim/white_mw003.bmp,trustrating_stim/white_mw092.bmp","0,0,1","noMatchFace","i","4500","trustrating_stim/white_mw038.bmp","red","Keep","REAL","1"
"html-keyboard-response","184","445013","0.0-7.0-5.29","5cd10012174fc60016c10ffd","bdp_wmem","Sat Apr 08 2023 12:59:56 GMT-0400 (Eastern Daylight Time)","616589","Match,No Match","","null","","","","","","<div class='trialBorder'><div class='vertical-center'><img src='img/correct.jpg'></div><div class='respDiv'><div class='respDivL'>Match<br>(e)</div><div class='respDivR'><font style='color:orange'>No Match<br>(i)</font></div></div></div>","null","FEEDBACK","","","","","","","","","","",""
"html-keyboard-response","185","445529","0.0-7.0-1.30","5cd10012174fc60016c10ffd","bdp_wmem","Sat Apr 08 2023 12:59:56 GMT-0400 (Eastern Daylight Time)","616589","Match,No Match","","null","","","","","","<div class='trialBorder'><div class='vertical-center'><img src='img/fixation2_sml.jpg'</img></div></div>","null","FIX","","","","","","","","","","",""
"html-keyboard-response","186","448546","0.0-7.0-2.30","5cd10012174fc60016c10ffd","bdp_wmem","Sat Apr 08 2023 12:59:56 GMT-0400 (Eastern Daylight Time)","616589","Match,No Match","","null","","","","","","<div class='trialBorder'><div class='vertical-center'><img style='vertical-align:center; align:center' src='img/fixation2_sml.jpg'></div><div class='arrayDiv2'><div class='tl'><img class='introPic' src='trustrating_stim/white_mw092.bmp'><br><font color='red'><strong>Keep</strong></font></div><div class='tr'><img class='introPic' src='trustrating_stim/white_mw038.bmp'><br><font color='green'><strong>Share</strong></font></div></div></div>","null","ARRAY","2","trustrating_stim/white_mw092.bmp,trustrating_stim/white_mw038.bmp","0,1","Match","e","3000","","","","",""
"html-keyboard-response","187","452579","0.0-7.0-3.30","5cd10012174fc60016c10ffd","bdp_wmem","Sat Apr 08 2023 12:59:56 GMT-0400 (Eastern Daylight Time)","616589","Match,No Match","","null","","","","","","<div class='trialBorder'><div class='vertical-center'><img src='img/fixation2_sml.jpg'</img></div></div>","null","DELAY","","","","","","","","","","",""
"html-keyboard-response","188","453779","0.0-7.0-4.30","5cd10012174fc60016c10ffd","bdp_wmem","Sat Apr 08 2023 12:59:56 GMT-0400 (Eastern Daylight Time)","616589","Match,No Match","","1196","","","","","","<div class='trialBorder'><div class='targDiv'><div class='tc'><img class='introPic' src='trustrating_stim/white_mw092.bmp'><br><font color='red'><strong>Keep</strong></font></div></div><div class='respDiv'><div class='respDivL'>Match<br>(e)</div><div class='respDivR'>No Match<br>(i)</div></div></div>","e","TARGET","2","trustrating_stim/white_mw092.bmp,trustrating_stim/white_mw038.bmp","0,1","Match","e","3000","trustrating_stim/white_mw092.bmp","red","Keep","REAL","1"
