"trial_type","trial_index","time_elapsed","internal_node_id","subject_id","task","startTime","totalTime","labels","view_history","rt","event","trial","time","trialtype","success","stimulus","key_press","stimType","arraySize","arrayFaces","arrayOutcomes","matchType","corrResp","arrayDur","targFace","targCol","targOutcome","trialType","corr"
"pavlovia","0","4","0.0-0.0","63d89eb9781fd5479e5c175a","bdp_wmem","Wed Mar 15 2023 21:54:39 GMT-0600 (Mountain Daylight Time)","679067","Match,No Match","","","","","","","","","","","","","","","","","","","","",""
"instructions","1","3079","0.0-1.0","63d89eb9781fd5479e5c175a","bdp_wmem","Wed Mar 15 2023 21:54:39 GMT-0600 (Mountain Daylight Time)","679067","Match,No Match","[{""page_index"":0,""viewing_time"":3074}]","3074","","","","","","","","","","","","","","","","","","",""
"","","","","63d89eb9781fd5479e5c175a","bdp_wmem","Wed Mar 15 2023 21:54:39 GMT-0600 (Mountain Daylight Time)","679067","Match,No Match","","","fullscreenenter","2","4236","fullscreenenter","","","","","","","","","","","","","","",""
"fullscreen","2","5187","0.0-2.0","63d89eb9781fd5479e5c175a","bdp_wmem","Wed Mar 15 2023 21:54:39 GMT-0600 (Mountain Daylight Time)","679067","Match,No Match","","","","","","","true","","","","","","","","","","","","","",""
"instructions","3","124030","0.0-4.0","63d89eb9781fd5479e5c175a","bdp_wmem","Wed Mar 15 2023 21:54:39 GMT-0600 (Mountain Daylight Time)","679067","Match,No Match","[{""page_index"":0,""viewing_time"":29203},{""page_index"":1,""viewing_time"":45882},{""page_index"":2,""viewing_time"":31541},{""page_index"":3,""viewing_time"":5725},{""page_index"":4,""viewing_time"":6490}]","118841","","","","","","","","","","","","","","","","","","",""
"html-keyboard-response","4","124534","0.0-5.0-1.0","63d89eb9781fd5479e5c175a","bdp_wmem","Wed Mar 15 2023 21:54:39 GMT-0600 (Mountain Daylight Time)","679067","Match,No Match","","null","","","","","","<div class='trialBorder'><div class='vertical-center'><img src='img/fixation2_sml.jpg'</img></div></div>","null","FIX","","","","","","","","","","",""
"html-keyboard-response","5","126038","0.0-5.0-2.0","63d89eb9781fd5479e5c175a","bdp_wmem","Wed Mar 15 2023 21:54:39 GMT-0600 (Mountain Daylight Time)","679067","Match,No Match","","null","","","","","","<div class='trialBorder'><div class='vertical-center'><img style='vertical-align:center; align:center' src='img/fixation2_sml.jpg'></div><div class='arrayDiv1'><div class='tc'><img class='introPic' src='trustrating_stim/white_mw078.bmp'><br><font color='green'><strong>Share</strong></font></div></div></div>","null","ARRAY","1","trustrating_stim/white_mw078.bmp","1","Match","e","1500","","","","",""
"html-keyboard-response","6","130040","0.0-5.0-3.0","63d89eb9781fd5479e5c175a","bdp_wmem","Wed Mar 15 2023 21:54:39 GMT-0600 (Mountain Daylight Time)","679067","Match,No Match","","null","","","","","","<div class='trialBorder'><div class='vertical-center'><img src='img/fixation2_sml.jpg'</img></div></div>","null","DELAY","","","","","","","","","","",""
"html-keyboard-response","7","132364","0.0-5.0-4.0","63d89eb9781fd5479e5c175a","bdp_wmem","Wed Mar 15 2023 21:54:39 GMT-0600 (Mountain Daylight Time)","679067","Match,No Match","","2322","","","","","","<div class='trialBorder'><div class='targDiv'><div class='tc'><img class='introPic' src='trustrating_stim/white_mw078.bmp'><br><font color='green'><strong>Share</strong></font></div></div><div class='respDiv'><div class='respDivL'>Match<br>(e)</div><div class='respDivR'>No Match<br>(i)</div></div></div>","e","TARGET","1","trustrating_stim/white_mw078.bmp","1","Match","e","1500","trustrating_stim/white_mw078.bmp","green","Share","PRACTICE","1"
"html-keyboard-response","8","132867","0.0-5.0-5.0","63d89eb9781fd5479e5c175a","bdp_wmem","Wed Mar 15 2023 21:54:39 GMT-0600 (Mountain Daylight Time)","679067","Match,No Match","","null","","","","","","<div class='trialBorder'><div class='vertical-center'><img src='img/correct.jpg'></div><div class='respDiv'><div class='respDivL'><font style='color:orange'>Match<br>(e)</font></div><div class='respDivR'>No Match<br>(i)</div></div></div>","null","FEEDBACK","","","","","","","","","","",""
"html-keyboard-response","9","133371","0.0-5.0-1.1","63d89eb9781fd5479e5c175a","bdp_wmem","Wed Mar 15 2023 21:54:39 GMT-0600 (Mountain Daylight Time)","679067","Match,No Match","","null","","","","","","<div class='trialBorder'><div class='vertical-center'><img src='img/fixation2_sml.jpg'</img></div></div>","null","FIX","","","","","","","","","","",""
"html-keyboard-response","10","134872","0.0-5.0-2.1","63d89eb9781fd5479e5c175a","bdp_wmem","Wed Mar 15 2023 21:54:39 GMT-0600 (Mountain Daylight Time)","679067","Match,No Match","","null","","","","","","<div class='trialBorder'><div class='vertical-center'><img style='vertical-align:center; align:center' src='img/fixation2_sml.jpg'></div><div class='arrayDiv1'><div class='tc'><img class='introPic' src='trustrating_stim/white_mw078.bmp'><br><font color='red'><strong>Keep</strong></font></div></div></div>","null","ARRAY","1","trustrating_stim/white_mw078.bmp","0","noMatchFace","i","1500","","","","",""
"html-keyboard-response","11","138874","0.0-5.0-3.1","63d89eb9781fd5479e5c175a","bdp_wmem","Wed Mar 15 2023 21:54:39 GMT-0600 (Mountain Daylight Time)","679067","Match,No Match","","null","","","","","","<div class='trialBorder'><div class='vertical-center'><img src='img/fixation2_sml.jpg'</img></div></div>","null","DELAY","","","","","","","","","","",""
"html-keyboard-response","12","140907","0.0-5.0-4.1","63d89eb9781fd5479e5c175a","bdp_wmem","Wed Mar 15 2023 21:54:39 GMT-0600 (Mountain Daylight Time)","679067","Match,No Match","","2031","","","","","","<div class='trialBorder'><div class='targDiv'><div class='tc'><img class='introPic' src='trustrating_stim/white_mw092.bmp'><br><font color='red'><strong>Keep</strong></font></div></div><div class='respDiv'><div class='respDivL'>Match<br>(e)</div><div class='respDivR'>No Match<br>(i)</div></div></div>","i","TARGET","1","trustrating_stim/white_mw078.bmp","0","noMatchFace","i","1500","trustrating_stim/white_mw092.bmp","red","Keep","PRACTICE","1"
"html-keyboard-response","13","141409","0.0-5.0-5.1","63d89eb9781fd5479e5c175a","bdp_wmem","Wed Mar 15 2023 21:54:39 GMT-0600 (Mountain Daylight Time)","679067","Match,No Match","","null","","","","","","<div class='trialBorder'><div class='vertical-center'><img src='img/correct.jpg'></div><div class='respDiv'><div class='respDivL'>Match<br>(e)</div><div class='respDivR'><font style='color:orange'>No Match<br>(i)</font></div></div></div>","null","FEEDBACK","","","","","","","","","","",""
"html-keyboard-response","14","141912","0.0-5.0-1.2","63d89eb9781fd5479e5c175a","bdp_wmem","Wed Mar 15 2023 21:54:39 GMT-0600 (Mountain Daylight Time)","679067","Match,No Match","","null","","","","","","<div class='trialBorder'><div class='vertical-center'><img src='img/fixation2_sml.jpg'</img></div></div>","null","FIX","","","","","","","","","","",""
"html-keyboard-response","15","144916","0.0-5.0-2.2","63d89eb9781fd5479e5c175a","bdp_wmem","Wed Mar 15 2023 21:54:39 GMT-0600 (Mountain Daylight Time)","679067","Match,No Match","","null","","","","","","<div class='trialBorder'><div class='vertical-center'><img style='vertical-align:center; align:center' src='img/fixation2_sml.jpg'></div><div class='arrayDiv2'><div class='tl'><img class='introPic' src='trustrating_stim/white_mw085.bmp'><br><font color='red'><strong>Keep</strong></font></div><div class='tr'><img class='introPic' src='trustrating_stim/white_mw013.bmp'><br><font color='green'><strong>Share</strong></font></div></div></div>","null","ARRAY","2","trustrating_stim/white_mw085.bmp,trustrating_stim/white_mw013.bmp","0,1","Match","e","3000","","","","",""
"html-keyboard-response","16","148918","0.0-5.0-3.2","63d89eb9781fd5479e5c175a","bdp_wmem","Wed Mar 15 2023 21:54:39 GMT-0600 (Mountain Daylight Time)","679067","Match,No Match","","null","","","","","","<div class='trialBorder'><div class='vertical-center'><img src='img/fixation2_sml.jpg'</img></div></div>","null","DELAY","","","","","","","","","","",""
"html-keyboard-response","17","152277","0.0-5.0-4.2","63d89eb9781fd5479e5c175a","bdp_wmem","Wed Mar 15 2023 21:54:39 GMT-0600 (Mountain Daylight Time)","679067","Match,No Match","","3357","","","","","","<div class='trialBorder'><div class='targDiv'><div class='tc'><img class='introPic' src='trustrating_stim/white_mw085.bmp'><br><font color='red'><strong>Keep</strong></font></div></div><div class='respDiv'><div class='respDivL'>Match<br>(e)</div><div class='respDivR'>No Match<br>(i)</div></div></div>","e","TARGET","2","trustrating_stim/white_mw085.bmp,trustrating_stim/white_mw013.bmp","0,1","Match","e","3000","trustrating_stim/white_mw085.bmp","red","Keep","PRACTICE","1"
"html-keyboard-response","18","152780","0.0-5.0-5.2","63d89eb9781fd5479e5c175a","bdp_wmem","Wed Mar 15 2023 21:54:39 GMT-0600 (Mountain Daylight Time)","679067","Match,No Match","","null","","","","","","<div class='trialBorder'><div class='vertical-center'><img src='img/correct.jpg'></div><div class='respDiv'><div class='respDivL'><font style='color:orange'>Match<br>(e)</font></div><div class='respDivR'>No Match<br>(i)</div></div></div>","null","FEEDBACK","","","","","","","","","","",""
"html-keyboard-response","19","153281","0.0-5.0-1.3","63d89eb9781fd5479e5c175a","bdp_wmem","Wed Mar 15 2023 21:54:39 GMT-0600 (Mountain Daylight Time)","679067","Match,No Match","","null","","","","","","<div class='trialBorder'><div class='vertical-center'><img src='img/fixation2_sml.jpg'</img></div></div>","null","FIX","","","","","","","","","","",""
"html-keyboard-response","20","157785","0.0-5.0-2.3","63d89eb9781fd5479e5c175a","bdp_wmem","Wed Mar 15 2023 21:54:39 GMT-0600 (Mountain Daylight Time)","679067","Match,No Match","","null","","","","","","<div class='trialBorder'><div class='vertical-center'><img style='vertical-align:center; align:center' src='img/fixation2_sml.jpg'></div><div class='arrayDiv3'><div class='tl'><img class='introPic' src='trustrating_stim/white_mw092.bmp'><br><font color='red'><strong>Keep</strong></font></div><div class='tc'><img class='introPic' src='trustrating_stim/white_mw085.bmp'><br><font color='green'><strong>Share</strong></font></div><div class='tr'><img class='introPic' src='trustrating_stim/white_mw078.bmp'><br><font color='red'><strong>Keep</strong></font></div></div></div>","null","ARRAY","3","trustrating_stim/white_mw092.bmp,trustrating_stim/white_mw085.bmp,trustrating_stim/white_mw078.bmp","0,1,0","Match","e","4500","","","","",""
"html-keyboard-response","21","161787","0.0-5.0-3.3","63d89eb9781fd5479e5c175a","bdp_wmem","Wed Mar 15 2023 21:54:39 GMT-0600 (Mountain Daylight Time)","679067","Match,No Match","","null","","","","","","<div class='trialBorder'><div class='vertical-center'><img src='img/fixation2_sml.jpg'</img></div></div>","null","DELAY","","","","","","","","","","",""
"html-keyboard-response","22","163395","0.0-5.0-4.3","63d89eb9781fd5479e5c175a","bdp_wmem","Wed Mar 15 2023 21:54:39 GMT-0600 (Mountain Daylight Time)","679067","Match,No Match","","1605","","","","","","<div class='trialBorder'><div class='targDiv'><div class='tc'><img class='introPic' src='trustrating_stim/white_mw085.bmp'><br><font color='green'><strong>Share</strong></font></div></div><div class='respDiv'><div class='respDivL'>Match<br>(e)</div><div class='respDivR'>No Match<br>(i)</div></div></div>","e","TARGET","3","trustrating_stim/white_mw092.bmp,trustrating_stim/white_mw085.bmp,trustrating_stim/white_mw078.bmp","0,1,0","Match","e","4500","trustrating_stim/white_mw085.bmp","green","Share","PRACTICE","1"
"html-keyboard-response","23","163898","0.0-5.0-5.3","63d89eb9781fd5479e5c175a","bdp_wmem","Wed Mar 15 2023 21:54:39 GMT-0600 (Mountain Daylight Time)","679067","Match,No Match","","null","","","","","","<div class='trialBorder'><div class='vertical-center'><img src='img/correct.jpg'></div><div class='respDiv'><div class='respDivL'><font style='color:orange'>Match<br>(e)</font></div><div class='respDivR'>No Match<br>(i)</div></div></div>","null","FEEDBACK","","","","","","","","","","",""
"html-keyboard-response","24","164399","0.0-5.0-1.4","63d89eb9781fd5479e5c175a","bdp_wmem","Wed Mar 15 2023 21:54:39 GMT-0600 (Mountain Daylight Time)","679067","Match,No Match","","null","","","","","","<div class='trialBorder'><div class='vertical-center'><img src='img/fixation2_sml.jpg'</img></div></div>","null","FIX","","","","","","","","","","",""
"html-keyboard-response","25","168902","0.0-5.0-2.4","63d89eb9781fd5479e5c175a","bdp_wmem","Wed Mar 15 2023 21:54:39 GMT-0600 (Mountain Daylight Time)","679067","Match,No Match","","null","","","","","","<div class='trialBorder'><div class='vertical-center'><img style='vertical-align:center; align:center' src='img/fixation2_sml.jpg'></div><div class='arrayDiv3'><div class='tl'><img class='introPic' src='trustrating_stim/white_mw038.bmp'><br><font color='green'><strong>Share</strong></font></div><div class='tc'><img class='introPic' src='trustrating_stim/white_mw010.bmp'><br><font color='red'><strong>Keep</strong></font></div><div class='tr'><img class='introPic' src='trustrating_stim/white_mw040.bmp'><br><font color='red'><strong>Keep</strong></font></div></div></div>","null","ARRAY","3","trustrating_stim/white_mw038.bmp,trustrating_stim/white_mw010.bmp,trustrating_stim/white_mw040.bmp","1,0,0","noMatchOutcome","i","4500","","","","",""
"html-keyboard-response","26","172904","0.0-5.0-3.4","63d89eb9781fd5479e5c175a","bdp_wmem","Wed Mar 15 2023 21:54:39 GMT-0600 (Mountain Daylight Time)","679067","Match,No Match","","null","","","","","","<div class='trialBorder'><div class='vertical-center'><img src='img/fixation2_sml.jpg'</img></div></div>","null","DELAY","","","","","","","","","","",""
"html-keyboard-response","27","176144","0.0-5.0-4.4","63d89eb9781fd5479e5c175a","bdp_wmem","Wed Mar 15 2023 21:54:39 GMT-0600 (Mountain Daylight Time)","679067","Match,No Match","","3238","","","","","","<div class='trialBorder'><div class='targDiv'><div class='tc'><img class='introPic' src='trustrating_stim/white_mw040.bmp'><br><font color='green'><strong>Share</strong></font></div></div><div class='respDiv'><div class='respDivL'>Match<br>(e)</div><div class='respDivR'>No Match<br>(i)</div></div></div>","i","TARGET","3","trustrating_stim/white_mw038.bmp,trustrating_stim/white_mw010.bmp,trustrating_stim/white_mw040.bmp","1,0,0","noMatchOutcome","i","4500","trustrating_stim/white_mw040.bmp","green","Share","PRACTICE","1"
"html-keyboard-response","28","176647","0.0-5.0-5.4","63d89eb9781fd5479e5c175a","bdp_wmem","Wed Mar 15 2023 21:54:39 GMT-0600 (Mountain Daylight Time)","679067","Match,No Match","","null","","","","","","<div class='trialBorder'><div class='vertical-center'><img src='img/correct.jpg'></div><div class='respDiv'><div class='respDivL'>Match<br>(e)</div><div class='respDivR'><font style='color:orange'>No Match<br>(i)</font></div></div></div>","null","FEEDBACK","","","","","","","","","","",""
"html-keyboard-response","29","177148","0.0-5.0-1.5","63d89eb9781fd5479e5c175a","bdp_wmem","Wed Mar 15 2023 21:54:39 GMT-0600 (Mountain Daylight Time)","679067","Match,No Match","","null","","","","","","<div class='trialBorder'><div class='vertical-center'><img src='img/fixation2_sml.jpg'</img></div></div>","null","FIX","","","","","","","","","","",""
"html-keyboard-response","30","180151","0.0-5.0-2.5","63d89eb9781fd5479e5c175a","bdp_wmem","Wed Mar 15 2023 21:54:39 GMT-0600 (Mountain Daylight Time)","679067","Match,No Match","","null","","","","","","<div class='trialBorder'><div class='vertical-center'><img style='vertical-align:center; align:center' src='img/fixation2_sml.jpg'></div><div class='arrayDiv2'><div class='tl'><img class='introPic' src='trustrating_stim/white_mw091.bmp'><br><font color='green'><strong>Share</strong></font></div><div class='tr'><img class='introPic' src='trustrating_stim/white_mw040.bmp'><br><font color='red'><strong>Keep</strong></font></div></div></div>","null","ARRAY","2","trustrating_stim/white_mw091.bmp,trustrating_stim/white_mw040.bmp","1,0","noMatchFace","i","3000","","","","",""
"html-keyboard-response","31","184153","0.0-5.0-3.5","63d89eb9781fd5479e5c175a","bdp_wmem","Wed Mar 15 2023 21:54:39 GMT-0600 (Mountain Daylight Time)","679067","Match,No Match","","null","","","","","","<div class='trialBorder'><div class='vertical-center'><img src='img/fixation2_sml.jpg'</img></div></div>","null","DELAY","","","","","","","","","","",""
"html-keyboard-response","32","185872","0.0-5.0-4.5","63d89eb9781fd5479e5c175a","bdp_wmem","Wed Mar 15 2023 21:54:39 GMT-0600 (Mountain Daylight Time)","679067","Match,No Match","","1717","","","","","","<div class='trialBorder'><div class='targDiv'><div class='tc'><img class='introPic' src='trustrating_stim/white_mw085.bmp'><br><font color='red'><strong>Keep</strong></font></div></div><div class='respDiv'><div class='respDivL'>Match<br>(e)</div><div class='respDivR'>No Match<br>(i)</div></div></div>","i","TARGET","2","trustrating_stim/white_mw091.bmp,trustrating_stim/white_mw040.bmp","1,0","noMatchFace","i","3000","trustrating_stim/white_mw085.bmp","red","Keep","PRACTICE","1"
"html-keyboard-response","33","186375","0.0-5.0-5.5","63d89eb9781fd5479e5c175a","bdp_wmem","Wed Mar 15 2023 21:54:39 GMT-0600 (Mountain Daylight Time)","679067","Match,No Match","","null","","","","","","<div class='trialBorder'><div class='vertical-center'><img src='img/correct.jpg'></div><div class='respDiv'><div class='respDivL'>Match<br>(e)</div><div class='respDivR'><font style='color:orange'>No Match<br>(i)</font></div></div></div>","null","FEEDBACK","","","","","","","","","","",""
"instructions","34","208562","0.0-6.0","63d89eb9781fd5479e5c175a","bdp_wmem","Wed Mar 15 2023 21:54:39 GMT-0600 (Mountain Daylight Time)","679067","Match,No Match","[{""page_index"":0,""viewing_time"":22187}]","22187","","","","","","","","","","","","","","","","","","",""
"html-keyboard-response","35","209064","0.0-7.0-1.0","63d89eb9781fd5479e5c175a","bdp_wmem","Wed Mar 15 2023 21:54:39 GMT-0600 (Mountain Daylight Time)","679067","Match,No Match","","null","","","","","","<div class='trialBorder'><div class='vertical-center'><img src='img/fixation2_sml.jpg'</img></div></div>","null","FIX","","","","","","","","","","",""
"html-keyboard-response","36","213569","0.0-7.0-2.0","63d89eb9781fd5479e5c175a","bdp_wmem","Wed Mar 15 2023 21:54:39 GMT-0600 (Mountain Daylight Time)","679067","Match,No Match","","null","","","","","","<div class='trialBorder'><div class='vertical-center'><img style='vertical-align:center; align:center' src='img/fixation2_sml.jpg'></div><div class='arrayDiv3'><div class='tl'><img class='introPic' src='trustrating_stim/white_mw010.bmp'><br><font color='green'><strong>Share</strong></font></div><div class='tc'><img class='introPic' src='trustrating_stim/white_mw091.bmp'><br><font color='red'><strong>Keep</strong></font></div><div class='tr'><img class='introPic' src='trustrating_stim/white_mw092.bmp'><br><font color='green'><strong>Share</strong></font></div></div></div>","null","ARRAY","3","trustrating_stim/white_mw010.bmp,trustrating_stim/white_mw091.bmp,trustrating_stim/white_mw092.bmp","1,0,1","noMatchOutcome","i","4500","","","","",""
"html-keyboard-response","37","217571","0.0-7.0-3.0","63d89eb9781fd5479e5c175a","bdp_wmem","Wed Mar 15 2023 21:54:39 GMT-0600 (Mountain Daylight Time)","679067","Match,No Match","","null","","","","","","<div class='trialBorder'><div class='vertical-center'><img src='img/fixation2_sml.jpg'</img></div></div>","null","DELAY","","","","","","","","","","",""
"html-keyboard-response","38","221682","0.0-7.0-4.0","63d89eb9781fd5479e5c175a","bdp_wmem","Wed Mar 15 2023 21:54:39 GMT-0600 (Mountain Daylight Time)","679067","Match,No Match","","4109","","","","","","<div class='trialBorder'><div class='targDiv'><div class='tc'><img class='introPic' src='trustrating_stim/white_mw091.bmp'><br><font color='green'><strong>Share</strong></font></div></div><div class='respDiv'><div class='respDivL'>Match<br>(e)</div><div class='respDivR'>No Match<br>(i)</div></div></div>","i","TARGET","3","trustrating_stim/white_mw010.bmp,trustrating_stim/white_mw091.bmp,trustrating_stim/white_mw092.bmp","1,0,1","noMatchOutcome","i","4500","trustrating_stim/white_mw091.bmp","green","Share","REAL","1"
"html-keyboard-response","39","222185","0.0-7.0-5.0","63d89eb9781fd5479e5c175a","bdp_wmem","Wed Mar 15 2023 21:54:39 GMT-0600 (Mountain Daylight Time)","679067","Match,No Match","","null","","","","","","<div class='trialBorder'><div class='vertical-center'><img src='img/correct.jpg'></div><div class='respDiv'><div class='respDivL'>Match<br>(e)</div><div class='respDivR'><font style='color:orange'>No Match<br>(i)</font></div></div></div>","null","FEEDBACK","","","","","","","","","","",""
"html-keyboard-response","40","222687","0.0-7.0-1.1","63d89eb9781fd5479e5c175a","bdp_wmem","Wed Mar 15 2023 21:54:39 GMT-0600 (Mountain Daylight Time)","679067","Match,No Match","","null","","","","","","<div class='trialBorder'><div class='vertical-center'><img src='img/fixation2_sml.jpg'</img></div></div>","null","FIX","","","","","","","","","","",""
"html-keyboard-response","41","227191","0.0-7.0-2.1","63d89eb9781fd5479e5c175a","bdp_wmem","Wed Mar 15 2023 21:54:39 GMT-0600 (Mountain Daylight Time)","679067","Match,No Match","","null","","","","","","<div class='trialBorder'><div class='vertical-center'><img style='vertical-align:center; align:center' src='img/fixation2_sml.jpg'></div><div class='arrayDiv3'><div class='tl'><img class='introPic' src='trustrating_stim/white_mw010.bmp'><br><font color='red'><strong>Keep</strong></font></div><div class='tc'><img class='introPic' src='trustrating_stim/white_mw078.bmp'><br><font color='green'><strong>Share</strong></font></div><div class='tr'><img class='introPic' src='trustrating_stim/white_mw092.bmp'><br><font color='red'><strong>Keep</strong></font></div></div></div>","null","ARRAY","3","trustrating_stim/white_mw010.bmp,trustrating_stim/white_mw078.bmp,trustrating_stim/white_mw092.bmp","0,1,0","noMatchFace","i","4500","","","","",""
"html-keyboard-response","42","231192","0.0-7.0-3.1","63d89eb9781fd5479e5c175a","bdp_wmem","Wed Mar 15 2023 21:54:39 GMT-0600 (Mountain Daylight Time)","679067","Match,No Match","","null","","","","","","<div class='trialBorder'><div class='vertical-center'><img src='img/fixation2_sml.jpg'</img></div></div>","null","DELAY","","","","","","","","","","",""
"html-keyboard-response","43","232607","0.0-7.0-4.1","63d89eb9781fd5479e5c175a","bdp_wmem","Wed Mar 15 2023 21:54:39 GMT-0600 (Mountain Daylight Time)","679067","Match,No Match","","1413","","","","","","<div class='trialBorder'><div class='targDiv'><div class='tc'><img class='introPic' src='trustrating_stim/white_mw003.bmp'><br><font color='red'><strong>Keep</strong></font></div></div><div class='respDiv'><div class='respDivL'>Match<br>(e)</div><div class='respDivR'>No Match<br>(i)</div></div></div>","i","TARGET","3","trustrating_stim/white_mw010.bmp,trustrating_stim/white_mw078.bmp,trustrating_stim/white_mw092.bmp","0,1,0","noMatchFace","i","4500","trustrating_stim/white_mw003.bmp","red","Keep","REAL","1"
"html-keyboard-response","44","233108","0.0-7.0-5.1","63d89eb9781fd5479e5c175a","bdp_wmem","Wed Mar 15 2023 21:54:39 GMT-0600 (Mountain Daylight Time)","679067","Match,No Match","","null","","","","","","<div class='trialBorder'><div class='vertical-center'><img src='img/correct.jpg'></div><div class='respDiv'><div class='respDivL'>Match<br>(e)</div><div class='respDivR'><font style='color:orange'>No Match<br>(i)</font></div></div></div>","null","FEEDBACK","","","","","","","","","","",""
"html-keyboard-response","45","233610","0.0-7.0-1.2","63d89eb9781fd5479e5c175a","bdp_wmem","Wed Mar 15 2023 21:54:39 GMT-0600 (Mountain Daylight Time)","679067","Match,No Match","","null","","","","","","<div class='trialBorder'><div class='vertical-center'><img src='img/fixation2_sml.jpg'</img></div></div>","null","FIX","","","","","","","","","","",""
"html-keyboard-response","46","235112","0.0-7.0-2.2","63d89eb9781fd5479e5c175a","bdp_wmem","Wed Mar 15 2023 21:54:39 GMT-0600 (Mountain Daylight Time)","679067","Match,No Match","","null","","","","","","<div class='trialBorder'><div class='vertical-center'><img style='vertical-align:center; align:center' src='img/fixation2_sml.jpg'></div><div class='arrayDiv1'><div class='tc'><img class='introPic' src='trustrating_stim/white_mw038.bmp'><br><font color='green'><strong>Share</strong></font></div></div></div>","null","ARRAY","1","trustrating_stim/white_mw038.bmp","1","noMatchFace","i","1500","","","","",""
"html-keyboard-response","47","239113","0.0-7.0-3.2","63d89eb9781fd5479e5c175a","bdp_wmem","Wed Mar 15 2023 21:54:39 GMT-0600 (Mountain Daylight Time)","679067","Match,No Match","","null","","","","","","<div class='trialBorder'><div class='vertical-center'><img src='img/fixation2_sml.jpg'</img></div></div>","null","DELAY","","","","","","","","","","",""
"html-keyboard-response","48","240349","0.0-7.0-4.2","63d89eb9781fd5479e5c175a","bdp_wmem","Wed Mar 15 2023 21:54:39 GMT-0600 (Mountain Daylight Time)","679067","Match,No Match","","1234","","","","","","<div class='trialBorder'><div class='targDiv'><div class='tc'><img class='introPic' src='trustrating_stim/white_mw003.bmp'><br><font color='green'><strong>Share</strong></font></div></div><div class='respDiv'><div class='respDivL'>Match<br>(e)</div><div class='respDivR'>No Match<br>(i)</div></div></div>","i","TARGET","1","trustrating_stim/white_mw038.bmp","1","noMatchFace","i","1500","trustrating_stim/white_mw003.bmp","green","Share","REAL","1"
"html-keyboard-response","49","240850","0.0-7.0-5.2","63d89eb9781fd5479e5c175a","bdp_wmem","Wed Mar 15 2023 21:54:39 GMT-0600 (Mountain Daylight Time)","679067","Match,No Match","","null","","","","","","<div class='trialBorder'><div class='vertical-center'><img src='img/correct.jpg'></div><div class='respDiv'><div class='respDivL'>Match<br>(e)</div><div class='respDivR'><font style='color:orange'>No Match<br>(i)</font></div></div></div>","null","FEEDBACK","","","","","","","","","","",""
"html-keyboard-response","50","241352","0.0-7.0-1.3","63d89eb9781fd5479e5c175a","bdp_wmem","Wed Mar 15 2023 21:54:39 GMT-0600 (Mountain Daylight Time)","679067","Match,No Match","","null","","","","","","<div class='trialBorder'><div class='vertical-center'><img src='img/fixation2_sml.jpg'</img></div></div>","null","FIX","","","","","","","","","","",""
"html-keyboard-response","51","242856","0.0-7.0-2.3","63d89eb9781fd5479e5c175a","bdp_wmem","Wed Mar 15 2023 21:54:39 GMT-0600 (Mountain Daylight Time)","679067","Match,No Match","","null","","","","","","<div class='trialBorder'><div class='vertical-center'><img style='vertical-align:center; align:center' src='img/fixation2_sml.jpg'></div><div class='arrayDiv1'><div class='tc'><img class='introPic' src='trustrating_stim/white_mw078.bmp'><br><font color='green'><strong>Share</strong></font></div></div></div>","null","ARRAY","1","trustrating_stim/white_mw078.bmp","1","noMatchOutcome","i","1500","","","","",""
"html-keyboard-response","52","246859","0.0-7.0-3.3","63d89eb9781fd5479e5c175a","bdp_wmem","Wed Mar 15 2023 21:54:39 GMT-0600 (Mountain Daylight Time)","679067","Match,No Match","","null","","","","","","<div class='trialBorder'><div class='vertical-center'><img src='img/fixation2_sml.jpg'</img></div></div>","null","DELAY","","","","","","","","","","",""
"html-keyboard-response","53","248183","0.0-7.0-4.3","63d89eb9781fd5479e5c175a","bdp_wmem","Wed Mar 15 2023 21:54:39 GMT-0600 (Mountain Daylight Time)","679067","Match,No Match","","1323","","","","","","<div class='trialBorder'><div class='targDiv'><div class='tc'><img class='introPic' src='trustrating_stim/white_mw078.bmp'><br><font color='red'><strong>Keep</strong></font></div></div><div class='respDiv'><div class='respDivL'>Match<br>(e)</div><div class='respDivR'>No Match<br>(i)</div></div></div>","i","TARGET","1","trustrating_stim/white_mw078.bmp","1","noMatchOutcome","i","1500","trustrating_stim/white_mw078.bmp","red","Keep","REAL","1"
"html-keyboard-response","54","248685","0.0-7.0-5.3","63d89eb9781fd5479e5c175a","bdp_wmem","Wed Mar 15 2023 21:54:39 GMT-0600 (Mountain Daylight Time)","679067","Match,No Match","","null","","","","","","<div class='trialBorder'><div class='vertical-center'><img src='img/correct.jpg'></div><div class='respDiv'><div class='respDivL'>Match<br>(e)</div><div class='respDivR'><font style='color:orange'>No Match<br>(i)</font></div></div></div>","null","FEEDBACK","","","","","","","","","","",""
"html-keyboard-response","55","249187","0.0-7.0-1.4","63d89eb9781fd5479e5c175a","bdp_wmem","Wed Mar 15 2023 21:54:39 GMT-0600 (Mountain Daylight Time)","679067","Match,No Match","","null","","","","","","<div class='trialBorder'><div class='vertical-center'><img src='img/fixation2_sml.jpg'</img></div></div>","null","FIX","","","","","","","","","","",""
"html-keyboard-response","56","250690","0.0-7.0-2.4","63d89eb9781fd5479e5c175a","bdp_wmem","Wed Mar 15 2023 21:54:39 GMT-0600 (Mountain Daylight Time)","679067","Match,No Match","","null","","","","","","<div class='trialBorder'><div class='vertical-center'><img style='vertical-align:center; align:center' src='img/fixation2_sml.jpg'></div><div class='arrayDiv1'><div class='tc'><img class='introPic' src='trustrating_stim/white_mw012.bmp'><br><font color='red'><strong>Keep</strong></font></div></div></div>","null","ARRAY","1","trustrating_stim/white_mw012.bmp","0","noMatchFace","i","1500","","","","",""
"html-keyboard-response","57","254693","0.0-7.0-3.4","63d89eb9781fd5479e5c175a","bdp_wmem","Wed Mar 15 2023 21:54:39 GMT-0600 (Mountain Daylight Time)","679067","Match,No Match","","null","","","","","","<div class='trialBorder'><div class='vertical-center'><img src='img/fixation2_sml.jpg'</img></div></div>","null","DELAY","","","","","","","","","","",""
"html-keyboard-response","58","256021","0.0-7.0-4.4","63d89eb9781fd5479e5c175a","bdp_wmem","Wed Mar 15 2023 21:54:39 GMT-0600 (Mountain Daylight Time)","679067","Match,No Match","","1325","","","","","","<div class='trialBorder'><div class='targDiv'><div class='tc'><img class='introPic' src='trustrating_stim/white_mw042.bmp'><br><font color='red'><strong>Keep</strong></font></div></div><div class='respDiv'><div class='respDivL'>Match<br>(e)</div><div class='respDivR'>No Match<br>(i)</div></div></div>","i","TARGET","1","trustrating_stim/white_mw012.bmp","0","noMatchFace","i","1500","trustrating_stim/white_mw042.bmp","red","Keep","REAL","1"
"html-keyboard-response","59","256522","0.0-7.0-5.4","63d89eb9781fd5479e5c175a","bdp_wmem","Wed Mar 15 2023 21:54:39 GMT-0600 (Mountain Daylight Time)","679067","Match,No Match","","null","","","","","","<div class='trialBorder'><div class='vertical-center'><img src='img/correct.jpg'></div><div class='respDiv'><div class='respDivL'>Match<br>(e)</div><div class='respDivR'><font style='color:orange'>No Match<br>(i)</font></div></div></div>","null","FEEDBACK","","","","","","","","","","",""
"html-keyboard-response","60","257025","0.0-7.0-1.5","63d89eb9781fd5479e5c175a","bdp_wmem","Wed Mar 15 2023 21:54:39 GMT-0600 (Mountain Daylight Time)","679067","Match,No Match","","null","","","","","","<div class='trialBorder'><div class='vertical-center'><img src='img/fixation2_sml.jpg'</img></div></div>","null","FIX","","","","","","","","","","",""
"html-keyboard-response","61","260027","0.0-7.0-2.5","63d89eb9781fd5479e5c175a","bdp_wmem","Wed Mar 15 2023 21:54:39 GMT-0600 (Mountain Daylight Time)","679067","Match,No Match","","null","","","","","","<div class='trialBorder'><div class='vertical-center'><img style='vertical-align:center; align:center' src='img/fixation2_sml.jpg'></div><div class='arrayDiv2'><div class='tl'><img class='introPic' src='trustrating_stim/white_mw042.bmp'><br><font color='green'><strong>Share</strong></font></div><div class='tr'><img class='introPic' src='trustrating_stim/white_mw085.bmp'><br><font color='red'><strong>Keep</strong></font></div></div></div>","null","ARRAY","2","trustrating_stim/white_mw042.bmp,trustrating_stim/white_mw085.bmp","1,0","noMatchFace","i","3000","","","","",""
"html-keyboard-response","62","264028","0.0-7.0-3.5","63d89eb9781fd5479e5c175a","bdp_wmem","Wed Mar 15 2023 21:54:39 GMT-0600 (Mountain Daylight Time)","679067","Match,No Match","","null","","","","","","<div class='trialBorder'><div class='vertical-center'><img src='img/fixation2_sml.jpg'</img></div></div>","null","DELAY","","","","","","","","","","",""
"html-keyboard-response","63","265459","0.0-7.0-4.5","63d89eb9781fd5479e5c175a","bdp_wmem","Wed Mar 15 2023 21:54:39 GMT-0600 (Mountain Daylight Time)","679067","Match,No Match","","1430","","","","","","<div class='trialBorder'><div class='targDiv'><div class='tc'><img class='introPic' src='trustrating_stim/white_mw040.bmp'><br><font color='green'><strong>Share</strong></font></div></div><div class='respDiv'><div class='respDivL'>Match<br>(e)</div><div class='respDivR'>No Match<br>(i)</div></div></div>","i","TARGET","2","trustrating_stim/white_mw042.bmp,trustrating_stim/white_mw085.bmp","1,0","noMatchFace","i","3000","trustrating_stim/white_mw040.bmp","green","Share","REAL","1"
"html-keyboard-response","64","265960","0.0-7.0-5.5","63d89eb9781fd5479e5c175a","bdp_wmem","Wed Mar 15 2023 21:54:39 GMT-0600 (Mountain Daylight Time)","679067","Match,No Match","","null","","","","","","<div class='trialBorder'><div class='vertical-center'><img src='img/correct.jpg'></div><div class='respDiv'><div class='respDivL'>Match<br>(e)</div><div class='respDivR'><font style='color:orange'>No Match<br>(i)</font></div></div></div>","null","FEEDBACK","","","","","","","","","","",""
"html-keyboard-response","65","266462","0.0-7.0-1.6","63d89eb9781fd5479e5c175a","bdp_wmem","Wed Mar 15 2023 21:54:39 GMT-0600 (Mountain Daylight Time)","679067","Match,No Match","","null","","","","","","<div class='trialBorder'><div class='vertical-center'><img src='img/fixation2_sml.jpg'</img></div></div>","null","FIX","","","","","","","","","","",""
"html-keyboard-response","66","269466","0.0-7.0-2.6","63d89eb9781fd5479e5c175a","bdp_wmem","Wed Mar 15 2023 21:54:39 GMT-0600 (Mountain Daylight Time)","679067","Match,No Match","","null","","","","","","<div class='trialBorder'><div class='vertical-center'><img style='vertical-align:center; align:center' src='img/fixation2_sml.jpg'></div><div class='arrayDiv2'><div class='tl'><img class='introPic' src='trustrating_stim/white_mw042.bmp'><br><font color='green'><strong>Share</strong></font></div><div class='tr'><img class='introPic' src='trustrating_stim/white_mw012.bmp'><br><font color='red'><strong>Keep</strong></font></div></div></div>","null","ARRAY","2","trustrating_stim/white_mw042.bmp,trustrating_stim/white_mw012.bmp","1,0","Match","e","3000","","","","",""
"html-keyboard-response","67","273468","0.0-7.0-3.6","63d89eb9781fd5479e5c175a","bdp_wmem","Wed Mar 15 2023 21:54:39 GMT-0600 (Mountain Daylight Time)","679067","Match,No Match","","null","","","","","","<div class='trialBorder'><div class='vertical-center'><img src='img/fixation2_sml.jpg'</img></div></div>","null","DELAY","","","","","","","","","","",""
"html-keyboard-response","68","274935","0.0-7.0-4.6","63d89eb9781fd5479e5c175a","bdp_wmem","Wed Mar 15 2023 21:54:39 GMT-0600 (Mountain Daylight Time)","679067","Match,No Match","","1465","","","","","","<div class='trialBorder'><div class='targDiv'><div class='tc'><img class='introPic' src='trustrating_stim/white_mw042.bmp'><br><font color='green'><strong>Share</strong></font></div></div><div class='respDiv'><div class='respDivL'>Match<br>(e)</div><div class='respDivR'>No Match<br>(i)</div></div></div>","e","TARGET","2","trustrating_stim/white_mw042.bmp,trustrating_stim/white_mw012.bmp","1,0","Match","e","3000","trustrating_stim/white_mw042.bmp","green","Share","REAL","1"
"html-keyboard-response","69","275437","0.0-7.0-5.6","63d89eb9781fd5479e5c175a","bdp_wmem","Wed Mar 15 2023 21:54:39 GMT-0600 (Mountain Daylight Time)","679067","Match,No Match","","null","","","","","","<div class='trialBorder'><div class='vertical-center'><img src='img/correct.jpg'></div><div class='respDiv'><div class='respDivL'><font style='color:orange'>Match<br>(e)</font></div><div class='respDivR'>No Match<br>(i)</div></div></div>","null","FEEDBACK","","","","","","","","","","",""
"html-keyboard-response","70","275938","0.0-7.0-1.7","63d89eb9781fd5479e5c175a","bdp_wmem","Wed Mar 15 2023 21:54:39 GMT-0600 (Mountain Daylight Time)","679067","Match,No Match","","null","","","","","","<div class='trialBorder'><div class='vertical-center'><img src='img/fixation2_sml.jpg'</img></div></div>","null","FIX","","","","","","","","","","",""
"html-keyboard-response","71","277441","0.0-7.0-2.7","63d89eb9781fd5479e5c175a","bdp_wmem","Wed Mar 15 2023 21:54:39 GMT-0600 (Mountain Daylight Time)","679067","Match,No Match","","null","","","","","","<div class='trialBorder'><div class='vertical-center'><img style='vertical-align:center; align:center' src='img/fixation2_sml.jpg'></div><div class='arrayDiv1'><div class='tc'><img class='introPic' src='trustrating_stim/white_mw040.bmp'><br><font color='red'><strong>Keep</strong></font></div></div></div>","null","ARRAY","1","trustrating_stim/white_mw040.bmp","0","Match","e","1500","","","","",""
"html-keyboard-response","72","281443","0.0-7.0-3.7","63d89eb9781fd5479e5c175a","bdp_wmem","Wed Mar 15 2023 21:54:39 GMT-0600 (Mountain Daylight Time)","679067","Match,No Match","","null","","","","","","<div class='trialBorder'><div class='vertical-center'><img src='img/fixation2_sml.jpg'</img></div></div>","null","DELAY","","","","","","","","","","",""
"html-keyboard-response","73","284141","0.0-7.0-4.7","63d89eb9781fd5479e5c175a","bdp_wmem","Wed Mar 15 2023 21:54:39 GMT-0600 (Mountain Daylight Time)","679067","Match,No Match","","2696","","","","","","<div class='trialBorder'><div class='targDiv'><div class='tc'><img class='introPic' src='trustrating_stim/white_mw040.bmp'><br><font color='red'><strong>Keep</strong></font></div></div><div class='respDiv'><div class='respDivL'>Match<br>(e)</div><div class='respDivR'>No Match<br>(i)</div></div></div>","e","TARGET","1","trustrating_stim/white_mw040.bmp","0","Match","e","1500","trustrating_stim/white_mw040.bmp","red","Keep","REAL","1"
"html-keyboard-response","74","284644","0.0-7.0-5.7","63d89eb9781fd5479e5c175a","bdp_wmem","Wed Mar 15 2023 21:54:39 GMT-0600 (Mountain Daylight Time)","679067","Match,No Match","","null","","","","","","<div class='trialBorder'><div class='vertical-center'><img src='img/correct.jpg'></div><div class='respDiv'><div class='respDivL'><font style='color:orange'>Match<br>(e)</font></div><div class='respDivR'>No Match<br>(i)</div></div></div>","null","FEEDBACK","","","","","","","","","","",""
"html-keyboard-response","75","285146","0.0-7.0-1.8","63d89eb9781fd5479e5c175a","bdp_wmem","Wed Mar 15 2023 21:54:39 GMT-0600 (Mountain Daylight Time)","679067","Match,No Match","","null","","","","","","<div class='trialBorder'><div class='vertical-center'><img src='img/fixation2_sml.jpg'</img></div></div>","null","FIX","","","","","","","","","","",""
"html-keyboard-response","76","288148","0.0-7.0-2.8","63d89eb9781fd5479e5c175a","bdp_wmem","Wed Mar 15 2023 21:54:39 GMT-0600 (Mountain Daylight Time)","679067","Match,No Match","","null","","","","","","<div class='trialBorder'><div class='vertical-center'><img style='vertical-align:center; align:center' src='img/fixation2_sml.jpg'></div><div class='arrayDiv2'><div class='tl'><img class='introPic' src='trustrating_stim/white_mw003.bmp'><br><font color='red'><strong>Keep</strong></font></div><div class='tr'><img class='introPic' src='trustrating_stim/white_mw092.bmp'><br><font color='green'><strong>Share</strong></font></div></div></div>","null","ARRAY","2","trustrating_stim/white_mw003.bmp,trustrating_stim/white_mw092.bmp","0,1","noMatchFace","i","3000","","","","",""
"html-keyboard-response","77","292150","0.0-7.0-3.8","63d89eb9781fd5479e5c175a","bdp_wmem","Wed Mar 15 2023 21:54:39 GMT-0600 (Mountain Daylight Time)","679067","Match,No Match","","null","","","","","","<div class='trialBorder'><div class='vertical-center'><img src='img/fixation2_sml.jpg'</img></div></div>","null","DELAY","","","","","","","","","","",""
"html-keyboard-response","78","293601","0.0-7.0-4.8","63d89eb9781fd5479e5c175a","bdp_wmem","Wed Mar 15 2023 21:54:39 GMT-0600 (Mountain Daylight Time)","679067","Match,No Match","","1450","","","","","","<div class='trialBorder'><div class='targDiv'><div class='tc'><img class='introPic' src='trustrating_stim/white_mw012.bmp'><br><font color='green'><strong>Share</strong></font></div></div><div class='respDiv'><div class='respDivL'>Match<br>(e)</div><div class='respDivR'>No Match<br>(i)</div></div></div>","i","TARGET","2","trustrating_stim/white_mw003.bmp,trustrating_stim/white_mw092.bmp","0,1","noMatchFace","i","3000","trustrating_stim/white_mw012.bmp","green","Share","REAL","1"
"html-keyboard-response","79","294102","0.0-7.0-5.8","63d89eb9781fd5479e5c175a","bdp_wmem","Wed Mar 15 2023 21:54:39 GMT-0600 (Mountain Daylight Time)","679067","Match,No Match","","null","","","","","","<div class='trialBorder'><div class='vertical-center'><img src='img/correct.jpg'></div><div class='respDiv'><div class='respDivL'>Match<br>(e)</div><div class='respDivR'><font style='color:orange'>No Match<br>(i)</font></div></div></div>","null","FEEDBACK","","","","","","","","","","",""
"html-keyboard-response","80","294604","0.0-7.0-1.9","63d89eb9781fd5479e5c175a","bdp_wmem","Wed Mar 15 2023 21:54:39 GMT-0600 (Mountain Daylight Time)","679067","Match,No Match","","null","","","","","","<div class='trialBorder'><div class='vertical-center'><img src='img/fixation2_sml.jpg'</img></div></div>","null","FIX","","","","","","","","","","",""
"html-keyboard-response","81","296107","0.0-7.0-2.9","63d89eb9781fd5479e5c175a","bdp_wmem","Wed Mar 15 2023 21:54:39 GMT-0600 (Mountain Daylight Time)","679067","Match,No Match","","null","","","","","","<div class='trialBorder'><div class='vertical-center'><img style='vertical-align:center; align:center' src='img/fixation2_sml.jpg'></div><div class='arrayDiv1'><div class='tc'><img class='introPic' src='trustrating_stim/white_mw012.bmp'><br><font color='green'><strong>Share</strong></font></div></div></div>","null","ARRAY","1","trustrating_stim/white_mw012.bmp","1","noMatchOutcome","i","1500","","","","",""
"html-keyboard-response","82","300108","0.0-7.0-3.9","63d89eb9781fd5479e5c175a","bdp_wmem","Wed Mar 15 2023 21:54:39 GMT-0600 (Mountain Daylight Time)","679067","Match,No Match","","null","","","","","","<div class='trialBorder'><div class='vertical-center'><img src='img/fixation2_sml.jpg'</img></div></div>","null","DELAY","","","","","","","","","","",""
"html-keyboard-response","83","301882","0.0-7.0-4.9","63d89eb9781fd5479e5c175a","bdp_wmem","Wed Mar 15 2023 21:54:39 GMT-0600 (Mountain Daylight Time)","679067","Match,No Match","","1772","","","","","","<div class='trialBorder'><div class='targDiv'><div class='tc'><img class='introPic' src='trustrating_stim/white_mw012.bmp'><br><font color='red'><strong>Keep</strong></font></div></div><div class='respDiv'><div class='respDivL'>Match<br>(e)</div><div class='respDivR'>No Match<br>(i)</div></div></div>","i","TARGET","1","trustrating_stim/white_mw012.bmp","1","noMatchOutcome","i","1500","trustrating_stim/white_mw012.bmp","red","Keep","REAL","1"
"html-keyboard-response","84","302383","0.0-7.0-5.9","63d89eb9781fd5479e5c175a","bdp_wmem","Wed Mar 15 2023 21:54:39 GMT-0600 (Mountain Daylight Time)","679067","Match,No Match","","null","","","","","","<div class='trialBorder'><div class='vertical-center'><img src='img/correct.jpg'></div><div class='respDiv'><div class='respDivL'>Match<br>(e)</div><div class='respDivR'><font style='color:orange'>No Match<br>(i)</font></div></div></div>","null","FEEDBACK","","","","","","","","","","",""
"html-keyboard-response","85","302885","0.0-7.0-1.10","63d89eb9781fd5479e5c175a","bdp_wmem","Wed Mar 15 2023 21:54:39 GMT-0600 (Mountain Daylight Time)","679067","Match,No Match","","null","","","","","","<div class='trialBorder'><div class='vertical-center'><img src='img/fixation2_sml.jpg'</img></div></div>","null","FIX","","","","","","","","","","",""
"html-keyboard-response","86","307388","0.0-7.0-2.10","63d89eb9781fd5479e5c175a","bdp_wmem","Wed Mar 15 2023 21:54:39 GMT-0600 (Mountain Daylight Time)","679067","Match,No Match","","null","","","","","","<div class='trialBorder'><div class='vertical-center'><img style='vertical-align:center; align:center' src='img/fixation2_sml.jpg'></div><div class='arrayDiv3'><div class='tl'><img class='introPic' src='trustrating_stim/white_mw042.bmp'><br><font color='red'><strong>Keep</strong></font></div><div class='tc'><img class='introPic' src='trustrating_stim/white_mw038.bmp'><br><font color='green'><strong>Share</strong></font></div><div class='tr'><img class='introPic' src='trustrating_stim/white_mw003.bmp'><br><font color='green'><strong>Share</strong></font></div></div></div>","null","ARRAY","3","trustrating_stim/white_mw042.bmp,trustrating_stim/white_mw038.bmp,trustrating_stim/white_mw003.bmp","0,1,1","noMatchFace","i","4500","","","","",""
"html-keyboard-response","87","311389","0.0-7.0-3.10","63d89eb9781fd5479e5c175a","bdp_wmem","Wed Mar 15 2023 21:54:39 GMT-0600 (Mountain Daylight Time)","679067","Match,No Match","","null","","","","","","<div class='trialBorder'><div class='vertical-center'><img src='img/fixation2_sml.jpg'</img></div></div>","null","DELAY","","","","","","","","","","",""
"html-keyboard-response","88","312614","0.0-7.0-4.10","63d89eb9781fd5479e5c175a","bdp_wmem","Wed Mar 15 2023 21:54:39 GMT-0600 (Mountain Daylight Time)","679067","Match,No Match","","1222","","","","","","<div class='trialBorder'><div class='targDiv'><div class='tc'><img class='introPic' src='trustrating_stim/white_mw085.bmp'><br><font color='green'><strong>Share</strong></font></div></div><div class='respDiv'><div class='respDivL'>Match<br>(e)</div><div class='respDivR'>No Match<br>(i)</div></div></div>","i","TARGET","3","trustrating_stim/white_mw042.bmp,trustrating_stim/white_mw038.bmp,trustrating_stim/white_mw003.bmp","0,1,1","noMatchFace","i","4500","trustrating_stim/white_mw085.bmp","green","Share","REAL","1"
"html-keyboard-response","89","313115","0.0-7.0-5.10","63d89eb9781fd5479e5c175a","bdp_wmem","Wed Mar 15 2023 21:54:39 GMT-0600 (Mountain Daylight Time)","679067","Match,No Match","","null","","","","","","<div class='trialBorder'><div class='vertical-center'><img src='img/correct.jpg'></div><div class='respDiv'><div class='respDivL'>Match<br>(e)</div><div class='respDivR'><font style='color:orange'>No Match<br>(i)</font></div></div></div>","null","FEEDBACK","","","","","","","","","","",""
"html-keyboard-response","90","313618","0.0-7.0-1.11","63d89eb9781fd5479e5c175a","bdp_wmem","Wed Mar 15 2023 21:54:39 GMT-0600 (Mountain Daylight Time)","679067","Match,No Match","","null","","","","","","<div class='trialBorder'><div class='vertical-center'><img src='img/fixation2_sml.jpg'</img></div></div>","null","FIX","","","","","","","","","","",""
"html-keyboard-response","91","315119","0.0-7.0-2.11","63d89eb9781fd5479e5c175a","bdp_wmem","Wed Mar 15 2023 21:54:39 GMT-0600 (Mountain Daylight Time)","679067","Match,No Match","","null","","","","","","<div class='trialBorder'><div class='vertical-center'><img style='vertical-align:center; align:center' src='img/fixation2_sml.jpg'></div><div class='arrayDiv1'><div class='tc'><img class='introPic' src='trustrating_stim/white_mw091.bmp'><br><font color='green'><strong>Share</strong></font></div></div></div>","null","ARRAY","1","trustrating_stim/white_mw091.bmp","1","noMatchOutcome","i","1500","","","","",""
"html-keyboard-response","92","319120","0.0-7.0-3.11","63d89eb9781fd5479e5c175a","bdp_wmem","Wed Mar 15 2023 21:54:39 GMT-0600 (Mountain Daylight Time)","679067","Match,No Match","","null","","","","","","<div class='trialBorder'><div class='vertical-center'><img src='img/fixation2_sml.jpg'</img></div></div>","null","DELAY","","","","","","","","","","",""
"html-keyboard-response","93","320772","0.0-7.0-4.11","63d89eb9781fd5479e5c175a","bdp_wmem","Wed Mar 15 2023 21:54:39 GMT-0600 (Mountain Daylight Time)","679067","Match,No Match","","1649","","","","","","<div class='trialBorder'><div class='targDiv'><div class='tc'><img class='introPic' src='trustrating_stim/white_mw091.bmp'><br><font color='red'><strong>Keep</strong></font></div></div><div class='respDiv'><div class='respDivL'>Match<br>(e)</div><div class='respDivR'>No Match<br>(i)</div></div></div>","i","TARGET","1","trustrating_stim/white_mw091.bmp","1","noMatchOutcome","i","1500","trustrating_stim/white_mw091.bmp","red","Keep","REAL","1"
"html-keyboard-response","94","321273","0.0-7.0-5.11","63d89eb9781fd5479e5c175a","bdp_wmem","Wed Mar 15 2023 21:54:39 GMT-0600 (Mountain Daylight Time)","679067","Match,No Match","","null","","","","","","<div class='trialBorder'><div class='vertical-center'><img src='img/correct.jpg'></div><div class='respDiv'><div class='respDivL'>Match<br>(e)</div><div class='respDivR'><font style='color:orange'>No Match<br>(i)</font></div></div></div>","null","FEEDBACK","","","","","","","","","","",""
"html-keyboard-response","95","321775","0.0-7.0-1.12","63d89eb9781fd5479e5c175a","bdp_wmem","Wed Mar 15 2023 21:54:39 GMT-0600 (Mountain Daylight Time)","679067","Match,No Match","","null","","","","","","<div class='trialBorder'><div class='vertical-center'><img src='img/fixation2_sml.jpg'</img></div></div>","null","FIX","","","","","","","","","","",""
"html-keyboard-response","96","323279","0.0-7.0-2.12","63d89eb9781fd5479e5c175a","bdp_wmem","Wed Mar 15 2023 21:54:39 GMT-0600 (Mountain Daylight Time)","679067","Match,No Match","","null","","","","","","<div class='trialBorder'><div class='vertical-center'><img style='vertical-align:center; align:center' src='img/fixation2_sml.jpg'></div><div class='arrayDiv1'><div class='tc'><img class='introPic' src='trustrating_stim/white_mw078.bmp'><br><font color='green'><strong>Share</strong></font></div></div></div>","null","ARRAY","1","trustrating_stim/white_mw078.bmp","1","Match","e","1500","","","","",""
"html-keyboard-response","97","327282","0.0-7.0-3.12","63d89eb9781fd5479e5c175a","bdp_wmem","Wed Mar 15 2023 21:54:39 GMT-0600 (Mountain Daylight Time)","679067","Match,No Match","","null","","","","","","<div class='trialBorder'><div class='vertical-center'><img src='img/fixation2_sml.jpg'</img></div></div>","null","DELAY","","","","","","","","","","",""
"html-keyboard-response","98","328334","0.0-7.0-4.12","63d89eb9781fd5479e5c175a","bdp_wmem","Wed Mar 15 2023 21:54:39 GMT-0600 (Mountain Daylight Time)","679067","Match,No Match","","1048","","","","","","<div class='trialBorder'><div class='targDiv'><div class='tc'><img class='introPic' src='trustrating_stim/white_mw078.bmp'><br><font color='green'><strong>Share</strong></font></div></div><div class='respDiv'><div class='respDivL'>Match<br>(e)</div><div class='respDivR'>No Match<br>(i)</div></div></div>","e","TARGET","1","trustrating_stim/white_mw078.bmp","1","Match","e","1500","trustrating_stim/white_mw078.bmp","green","Share","REAL","1"
"html-keyboard-response","99","328836","0.0-7.0-5.12","63d89eb9781fd5479e5c175a","bdp_wmem","Wed Mar 15 2023 21:54:39 GMT-0600 (Mountain Daylight Time)","679067","Match,No Match","","null","","","","","","<div class='trialBorder'><div class='vertical-center'><img src='img/correct.jpg'></div><div class='respDiv'><div class='respDivL'><font style='color:orange'>Match<br>(e)</font></div><div class='respDivR'>No Match<br>(i)</div></div></div>","null","FEEDBACK","","","","","","","","","","",""
"html-keyboard-response","100","329338","0.0-7.0-1.13","63d89eb9781fd5479e5c175a","bdp_wmem","Wed Mar 15 2023 21:54:39 GMT-0600 (Mountain Daylight Time)","679067","Match,No Match","","null","","","","","","<div class='trialBorder'><div class='vertical-center'><img src='img/fixation2_sml.jpg'</img></div></div>","null","FIX","","","","","","","","","","",""
"html-keyboard-response","101","330839","0.0-7.0-2.13","63d89eb9781fd5479e5c175a","bdp_wmem","Wed Mar 15 2023 21:54:39 GMT-0600 (Mountain Daylight Time)","679067","Match,No Match","","null","","","","","","<div class='trialBorder'><div class='vertical-center'><img style='vertical-align:center; align:center' src='img/fixation2_sml.jpg'></div><div class='arrayDiv1'><div class='tc'><img class='introPic' src='trustrating_stim/white_mw038.bmp'><br><font color='red'><strong>Keep</strong></font></div></div></div>","null","ARRAY","1","trustrating_stim/white_mw038.bmp","0","Match","e","1500","","","","",""
"html-keyboard-response","102","334841","0.0-7.0-3.13","63d89eb9781fd5479e5c175a","bdp_wmem","Wed Mar 15 2023 21:54:39 GMT-0600 (Mountain Daylight Time)","679067","Match,No Match","","null","","","","","","<div class='trialBorder'><div class='vertical-center'><img src='img/fixation2_sml.jpg'</img></div></div>","null","DELAY","","","","","","","","","","",""
"html-keyboard-response","103","336700","0.0-7.0-4.13","63d89eb9781fd5479e5c175a","bdp_wmem","Wed Mar 15 2023 21:54:39 GMT-0600 (Mountain Daylight Time)","679067","Match,No Match","","1858","","","","","","<div class='trialBorder'><div class='targDiv'><div class='tc'><img class='introPic' src='trustrating_stim/white_mw038.bmp'><br><font color='red'><strong>Keep</strong></font></div></div><div class='respDiv'><div class='respDivL'>Match<br>(e)</div><div class='respDivR'>No Match<br>(i)</div></div></div>","e","TARGET","1","trustrating_stim/white_mw038.bmp","0","Match","e","1500","trustrating_stim/white_mw038.bmp","red","Keep","REAL","1"
"html-keyboard-response","104","337202","0.0-7.0-5.13","63d89eb9781fd5479e5c175a","bdp_wmem","Wed Mar 15 2023 21:54:39 GMT-0600 (Mountain Daylight Time)","679067","Match,No Match","","null","","","","","","<div class='trialBorder'><div class='vertical-center'><img src='img/correct.jpg'></div><div class='respDiv'><div class='respDivL'><font style='color:orange'>Match<br>(e)</font></div><div class='respDivR'>No Match<br>(i)</div></div></div>","null","FEEDBACK","","","","","","","","","","",""
"html-keyboard-response","105","337705","0.0-7.0-1.14","63d89eb9781fd5479e5c175a","bdp_wmem","Wed Mar 15 2023 21:54:39 GMT-0600 (Mountain Daylight Time)","679067","Match,No Match","","null","","","","","","<div class='trialBorder'><div class='vertical-center'><img src='img/fixation2_sml.jpg'</img></div></div>","null","FIX","","","","","","","","","","",""
"html-keyboard-response","106","339206","0.0-7.0-2.14","63d89eb9781fd5479e5c175a","bdp_wmem","Wed Mar 15 2023 21:54:39 GMT-0600 (Mountain Daylight Time)","679067","Match,No Match","","null","","","","","","<div class='trialBorder'><div class='vertical-center'><img style='vertical-align:center; align:center' src='img/fixation2_sml.jpg'></div><div class='arrayDiv1'><div class='tc'><img class='introPic' src='trustrating_stim/white_mw092.bmp'><br><font color='red'><strong>Keep</strong></font></div></div></div>","null","ARRAY","1","trustrating_stim/white_mw092.bmp","0","Match","e","1500","","","","",""
"html-keyboard-response","107","343208","0.0-7.0-3.14","63d89eb9781fd5479e5c175a","bdp_wmem","Wed Mar 15 2023 21:54:39 GMT-0600 (Mountain Daylight Time)","679067","Match,No Match","","null","","","","","","<div class='trialBorder'><div class='vertical-center'><img src='img/fixation2_sml.jpg'</img></div></div>","null","DELAY","","","","","","","","","","",""
"html-keyboard-response","108","344526","0.0-7.0-4.14","63d89eb9781fd5479e5c175a","bdp_wmem","Wed Mar 15 2023 21:54:39 GMT-0600 (Mountain Daylight Time)","679067","Match,No Match","","1315","","","","","","<div class='trialBorder'><div class='targDiv'><div class='tc'><img class='introPic' src='trustrating_stim/white_mw092.bmp'><br><font color='red'><strong>Keep</strong></font></div></div><div class='respDiv'><div class='respDivL'>Match<br>(e)</div><div class='respDivR'>No Match<br>(i)</div></div></div>","e","TARGET","1","trustrating_stim/white_mw092.bmp","0","Match","e","1500","trustrating_stim/white_mw092.bmp","red","Keep","REAL","1"
"html-keyboard-response","109","345028","0.0-7.0-5.14","63d89eb9781fd5479e5c175a","bdp_wmem","Wed Mar 15 2023 21:54:39 GMT-0600 (Mountain Daylight Time)","679067","Match,No Match","","null","","","","","","<div class='trialBorder'><div class='vertical-center'><img src='img/correct.jpg'></div><div class='respDiv'><div class='respDivL'><font style='color:orange'>Match<br>(e)</font></div><div class='respDivR'>No Match<br>(i)</div></div></div>","null","FEEDBACK","","","","","","","","","","",""
"html-keyboard-response","110","345529","0.0-7.0-1.15","63d89eb9781fd5479e5c175a","bdp_wmem","Wed Mar 15 2023 21:54:39 GMT-0600 (Mountain Daylight Time)","679067","Match,No Match","","null","","","","","","<div class='trialBorder'><div class='vertical-center'><img src='img/fixation2_sml.jpg'</img></div></div>","null","FIX","","","","","","","","","","",""
"html-keyboard-response","111","350033","0.0-7.0-2.15","63d89eb9781fd5479e5c175a","bdp_wmem","Wed Mar 15 2023 21:54:39 GMT-0600 (Mountain Daylight Time)","679067","Match,No Match","","null","","","","","","<div class='trialBorder'><div class='vertical-center'><img style='vertical-align:center; align:center' src='img/fixation2_sml.jpg'></div><div class='arrayDiv3'><div class='tl'><img class='introPic' src='trustrating_stim/white_mw013.bmp'><br><font color='red'><strong>Keep</strong></font></div><div class='tc'><img class='introPic' src='trustrating_stim/white_mw070.bmp'><br><font color='red'><strong>Keep</strong></font></div><div class='tr'><img class='introPic' src='trustrating_stim/white_mw092.bmp'><br><font color='green'><strong>Share</strong></font></div></div></div>","null","ARRAY","3","trustrating_stim/white_mw013.bmp,trustrating_stim/white_mw070.bmp,trustrating_stim/white_mw092.bmp","0,0,1","Match","e","4500","","","","",""
"html-keyboard-response","112","354035","0.0-7.0-3.15","63d89eb9781fd5479e5c175a","bdp_wmem","Wed Mar 15 2023 21:54:39 GMT-0600 (Mountain Daylight Time)","679067","Match,No Match","","null","","","","","","<div class='trialBorder'><div class='vertical-center'><img src='img/fixation2_sml.jpg'</img></div></div>","null","DELAY","","","","","","","","","","",""
"html-keyboard-response","113","355910","0.0-7.0-4.15","63d89eb9781fd5479e5c175a","bdp_wmem","Wed Mar 15 2023 21:54:39 GMT-0600 (Mountain Daylight Time)","679067","Match,No Match","","1873","","","","","","<div class='trialBorder'><div class='targDiv'><div class='tc'><img class='introPic' src='trustrating_stim/white_mw070.bmp'><br><font color='red'><strong>Keep</strong></font></div></div><div class='respDiv'><div class='respDivL'>Match<br>(e)</div><div class='respDivR'>No Match<br>(i)</div></div></div>","e","TARGET","3","trustrating_stim/white_mw013.bmp,trustrating_stim/white_mw070.bmp,trustrating_stim/white_mw092.bmp","0,0,1","Match","e","4500","trustrating_stim/white_mw070.bmp","red","Keep","REAL","1"
"html-keyboard-response","114","356412","0.0-7.0-5.15","63d89eb9781fd5479e5c175a","bdp_wmem","Wed Mar 15 2023 21:54:39 GMT-0600 (Mountain Daylight Time)","679067","Match,No Match","","null","","","","","","<div class='trialBorder'><div class='vertical-center'><img src='img/correct.jpg'></div><div class='respDiv'><div class='respDivL'><font style='color:orange'>Match<br>(e)</font></div><div class='respDivR'>No Match<br>(i)</div></div></div>","null","FEEDBACK","","","","","","","","","","",""
"html-keyboard-response","115","356915","0.0-7.0-1.16","63d89eb9781fd5479e5c175a","bdp_wmem","Wed Mar 15 2023 21:54:39 GMT-0600 (Mountain Daylight Time)","679067","Match,No Match","","null","","","","","","<div class='trialBorder'><div class='vertical-center'><img src='img/fixation2_sml.jpg'</img></div></div>","null","FIX","","","","","","","","","","",""
"html-keyboard-response","116","361418","0.0-7.0-2.16","63d89eb9781fd5479e5c175a","bdp_wmem","Wed Mar 15 2023 21:54:39 GMT-0600 (Mountain Daylight Time)","679067","Match,No Match","","null","","","","","","<div class='trialBorder'><div class='vertical-center'><img style='vertical-align:center; align:center' src='img/fixation2_sml.jpg'></div><div class='arrayDiv3'><div class='tl'><img class='introPic' src='trustrating_stim/white_mw078.bmp'><br><font color='red'><strong>Keep</strong></font></div><div class='tc'><img class='introPic' src='trustrating_stim/white_mw003.bmp'><br><font color='red'><strong>Keep</strong></font></div><div class='tr'><img class='introPic' src='trustrating_stim/white_mw040.bmp'><br><font color='green'><strong>Share</strong></font></div></div></div>","null","ARRAY","3","trustrating_stim/white_mw078.bmp,trustrating_stim/white_mw003.bmp,trustrating_stim/white_mw040.bmp","0,0,1","noMatchFace","i","4500","","","","",""
"html-keyboard-response","117","365419","0.0-7.0-3.16","63d89eb9781fd5479e5c175a","bdp_wmem","Wed Mar 15 2023 21:54:39 GMT-0600 (Mountain Daylight Time)","679067","Match,No Match","","null","","","","","","<div class='trialBorder'><div class='vertical-center'><img src='img/fixation2_sml.jpg'</img></div></div>","null","DELAY","","","","","","","","","","",""
"html-keyboard-response","118","366652","0.0-7.0-4.16","63d89eb9781fd5479e5c175a","bdp_wmem","Wed Mar 15 2023 21:54:39 GMT-0600 (Mountain Daylight Time)","679067","Match,No Match","","1230","","","","","","<div class='trialBorder'><div class='targDiv'><div class='tc'><img class='introPic' src='trustrating_stim/white_mw012.bmp'><br><font color='green'><strong>Share</strong></font></div></div><div class='respDiv'><div class='respDivL'>Match<br>(e)</div><div class='respDivR'>No Match<br>(i)</div></div></div>","i","TARGET","3","trustrating_stim/white_mw078.bmp,trustrating_stim/white_mw003.bmp,trustrating_stim/white_mw040.bmp","0,0,1","noMatchFace","i","4500","trustrating_stim/white_mw012.bmp","green","Share","REAL","1"
"html-keyboard-response","119","367154","0.0-7.0-5.16","63d89eb9781fd5479e5c175a","bdp_wmem","Wed Mar 15 2023 21:54:39 GMT-0600 (Mountain Daylight Time)","679067","Match,No Match","","null","","","","","","<div class='trialBorder'><div class='vertical-center'><img src='img/correct.jpg'></div><div class='respDiv'><div class='respDivL'>Match<br>(e)</div><div class='respDivR'><font style='color:orange'>No Match<br>(i)</font></div></div></div>","null","FEEDBACK","","","","","","","","","","",""
"html-keyboard-response","120","367655","0.0-7.0-1.17","63d89eb9781fd5479e5c175a","bdp_wmem","Wed Mar 15 2023 21:54:39 GMT-0600 (Mountain Daylight Time)","679067","Match,No Match","","null","","","","","","<div class='trialBorder'><div class='vertical-center'><img src='img/fixation2_sml.jpg'</img></div></div>","null","FIX","","","","","","","","","","",""
"html-keyboard-response","121","372158","0.0-7.0-2.17","63d89eb9781fd5479e5c175a","bdp_wmem","Wed Mar 15 2023 21:54:39 GMT-0600 (Mountain Daylight Time)","679067","Match,No Match","","null","","","","","","<div class='trialBorder'><div class='vertical-center'><img style='vertical-align:center; align:center' src='img/fixation2_sml.jpg'></div><div class='arrayDiv3'><div class='tl'><img class='introPic' src='trustrating_stim/white_mw070.bmp'><br><font color='green'><strong>Share</strong></font></div><div class='tc'><img class='introPic' src='trustrating_stim/white_mw013.bmp'><br><font color='red'><strong>Keep</strong></font></div><div class='tr'><img class='introPic' src='trustrating_stim/white_mw040.bmp'><br><font color='green'><strong>Share</strong></font></div></div></div>","null","ARRAY","3","trustrating_stim/white_mw070.bmp,trustrating_stim/white_mw013.bmp,trustrating_stim/white_mw040.bmp","1,0,1","Match","e","4500","","","","",""
"html-keyboard-response","122","376160","0.0-7.0-3.17","63d89eb9781fd5479e5c175a","bdp_wmem","Wed Mar 15 2023 21:54:39 GMT-0600 (Mountain Daylight Time)","679067","Match,No Match","","null","","","","","","<div class='trialBorder'><div class='vertical-center'><img src='img/fixation2_sml.jpg'</img></div></div>","null","DELAY","","","","","","","","","","",""
"html-keyboard-response","123","378292","0.0-7.0-4.17","63d89eb9781fd5479e5c175a","bdp_wmem","Wed Mar 15 2023 21:54:39 GMT-0600 (Mountain Daylight Time)","679067","Match,No Match","","2130","","","","","","<div class='trialBorder'><div class='targDiv'><div class='tc'><img class='introPic' src='trustrating_stim/white_mw013.bmp'><br><font color='red'><strong>Keep</strong></font></div></div><div class='respDiv'><div class='respDivL'>Match<br>(e)</div><div class='respDivR'>No Match<br>(i)</div></div></div>","e","TARGET","3","trustrating_stim/white_mw070.bmp,trustrating_stim/white_mw013.bmp,trustrating_stim/white_mw040.bmp","1,0,1","Match","e","4500","trustrating_stim/white_mw013.bmp","red","Keep","REAL","1"
"html-keyboard-response","124","378795","0.0-7.0-5.17","63d89eb9781fd5479e5c175a","bdp_wmem","Wed Mar 15 2023 21:54:39 GMT-0600 (Mountain Daylight Time)","679067","Match,No Match","","null","","","","","","<div class='trialBorder'><div class='vertical-center'><img src='img/correct.jpg'></div><div class='respDiv'><div class='respDivL'><font style='color:orange'>Match<br>(e)</font></div><div class='respDivR'>No Match<br>(i)</div></div></div>","null","FEEDBACK","","","","","","","","","","",""
"html-keyboard-response","125","379296","0.0-7.0-1.18","63d89eb9781fd5479e5c175a","bdp_wmem","Wed Mar 15 2023 21:54:39 GMT-0600 (Mountain Daylight Time)","679067","Match,No Match","","null","","","","","","<div class='trialBorder'><div class='vertical-center'><img src='img/fixation2_sml.jpg'</img></div></div>","null","FIX","","","","","","","","","","",""
"html-keyboard-response","126","383799","0.0-7.0-2.18","63d89eb9781fd5479e5c175a","bdp_wmem","Wed Mar 15 2023 21:54:39 GMT-0600 (Mountain Daylight Time)","679067","Match,No Match","","null","","","","","","<div class='trialBorder'><div class='vertical-center'><img style='vertical-align:center; align:center' src='img/fixation2_sml.jpg'></div><div class='arrayDiv3'><div class='tl'><img class='introPic' src='trustrating_stim/white_mw070.bmp'><br><font color='green'><strong>Share</strong></font></div><div class='tc'><img class='introPic' src='trustrating_stim/white_mw042.bmp'><br><font color='green'><strong>Share</strong></font></div><div class='tr'><img class='introPic' src='trustrating_stim/white_mw012.bmp'><br><font color='red'><strong>Keep</strong></font></div></div></div>","null","ARRAY","3","trustrating_stim/white_mw070.bmp,trustrating_stim/white_mw042.bmp,trustrating_stim/white_mw012.bmp","1,1,0","Match","e","4500","","","","",""
"html-keyboard-response","127","387800","0.0-7.0-3.18","63d89eb9781fd5479e5c175a","bdp_wmem","Wed Mar 15 2023 21:54:39 GMT-0600 (Mountain Daylight Time)","679067","Match,No Match","","null","","","","","","<div class='trialBorder'><div class='vertical-center'><img src='img/fixation2_sml.jpg'</img></div></div>","null","DELAY","","","","","","","","","","",""
"html-keyboard-response","128","389806","0.0-7.0-4.18","63d89eb9781fd5479e5c175a","bdp_wmem","Wed Mar 15 2023 21:54:39 GMT-0600 (Mountain Daylight Time)","679067","Match,No Match","","2004","","","","","","<div class='trialBorder'><div class='targDiv'><div class='tc'><img class='introPic' src='trustrating_stim/white_mw012.bmp'><br><font color='red'><strong>Keep</strong></font></div></div><div class='respDiv'><div class='respDivL'>Match<br>(e)</div><div class='respDivR'>No Match<br>(i)</div></div></div>","e","TARGET","3","trustrating_stim/white_mw070.bmp,trustrating_stim/white_mw042.bmp,trustrating_stim/white_mw012.bmp","1,1,0","Match","e","4500","trustrating_stim/white_mw012.bmp","red","Keep","REAL","1"
"html-keyboard-response","129","390308","0.0-7.0-5.18","63d89eb9781fd5479e5c175a","bdp_wmem","Wed Mar 15 2023 21:54:39 GMT-0600 (Mountain Daylight Time)","679067","Match,No Match","","null","","","","","","<div class='trialBorder'><div class='vertical-center'><img src='img/correct.jpg'></div><div class='respDiv'><div class='respDivL'><font style='color:orange'>Match<br>(e)</font></div><div class='respDivR'>No Match<br>(i)</div></div></div>","null","FEEDBACK","","","","","","","","","","",""
"html-keyboard-response","130","390810","0.0-7.0-1.19","63d89eb9781fd5479e5c175a","bdp_wmem","Wed Mar 15 2023 21:54:39 GMT-0600 (Mountain Daylight Time)","679067","Match,No Match","","null","","","","","","<div class='trialBorder'><div class='vertical-center'><img src='img/fixation2_sml.jpg'</img></div></div>","null","FIX","","","","","","","","","","",""
"html-keyboard-response","131","393811","0.0-7.0-2.19","63d89eb9781fd5479e5c175a","bdp_wmem","Wed Mar 15 2023 21:54:39 GMT-0600 (Mountain Daylight Time)","679067","Match,No Match","","null","","","","","","<div class='trialBorder'><div class='vertical-center'><img style='vertical-align:center; align:center' src='img/fixation2_sml.jpg'></div><div class='arrayDiv2'><div class='tl'><img class='introPic' src='trustrating_stim/white_mw092.bmp'><br><font color='red'><strong>Keep</strong></font></div><div class='tr'><img class='introPic' src='trustrating_stim/white_mw013.bmp'><br><font color='green'><strong>Share</strong></font></div></div></div>","null","ARRAY","2","trustrating_stim/white_mw092.bmp,trustrating_stim/white_mw013.bmp","0,1","noMatchOutcome","i","3000","","","","",""
"html-keyboard-response","132","397813","0.0-7.0-3.19","63d89eb9781fd5479e5c175a","bdp_wmem","Wed Mar 15 2023 21:54:39 GMT-0600 (Mountain Daylight Time)","679067","Match,No Match","","null","","","","","","<div class='trialBorder'><div class='vertical-center'><img src='img/fixation2_sml.jpg'</img></div></div>","null","DELAY","","","","","","","","","","",""
"html-keyboard-response","133","400209","0.0-7.0-4.19","63d89eb9781fd5479e5c175a","bdp_wmem","Wed Mar 15 2023 21:54:39 GMT-0600 (Mountain Daylight Time)","679067","Match,No Match","","2394","","","","","","<div class='trialBorder'><div class='targDiv'><div class='tc'><img class='introPic' src='trustrating_stim/white_mw013.bmp'><br><font color='red'><strong>Keep</strong></font></div></div><div class='respDiv'><div class='respDivL'>Match<br>(e)</div><div class='respDivR'>No Match<br>(i)</div></div></div>","i","TARGET","2","trustrating_stim/white_mw092.bmp,trustrating_stim/white_mw013.bmp","0,1","noMatchOutcome","i","3000","trustrating_stim/white_mw013.bmp","red","Keep","REAL","1"
"html-keyboard-response","134","400711","0.0-7.0-5.19","63d89eb9781fd5479e5c175a","bdp_wmem","Wed Mar 15 2023 21:54:39 GMT-0600 (Mountain Daylight Time)","679067","Match,No Match","","null","","","","","","<div class='trialBorder'><div class='vertical-center'><img src='img/correct.jpg'></div><div class='respDiv'><div class='respDivL'>Match<br>(e)</div><div class='respDivR'><font style='color:orange'>No Match<br>(i)</font></div></div></div>","null","FEEDBACK","","","","","","","","","","",""
"html-keyboard-response","135","401214","0.0-7.0-1.20","63d89eb9781fd5479e5c175a","bdp_wmem","Wed Mar 15 2023 21:54:39 GMT-0600 (Mountain Daylight Time)","679067","Match,No Match","","null","","","","","","<div class='trialBorder'><div class='vertical-center'><img src='img/fixation2_sml.jpg'</img></div></div>","null","FIX","","","","","","","","","","",""
"html-keyboard-response","136","402716","0.0-7.0-2.20","63d89eb9781fd5479e5c175a","bdp_wmem","Wed Mar 15 2023 21:54:39 GMT-0600 (Mountain Daylight Time)","679067","Match,No Match","","null","","","","","","<div class='trialBorder'><div class='vertical-center'><img style='vertical-align:center; align:center' src='img/fixation2_sml.jpg'></div><div class='arrayDiv1'><div class='tc'><img class='introPic' src='trustrating_stim/white_mw010.bmp'><br><font color='red'><strong>Keep</strong></font></div></div></div>","null","ARRAY","1","trustrating_stim/white_mw010.bmp","0","noMatchOutcome","i","1500","","","","",""
"html-keyboard-response","137","406718","0.0-7.0-3.20","63d89eb9781fd5479e5c175a","bdp_wmem","Wed Mar 15 2023 21:54:39 GMT-0600 (Mountain Daylight Time)","679067","Match,No Match","","null","","","","","","<div class='trialBorder'><div class='vertical-center'><img src='img/fixation2_sml.jpg'</img></div></div>","null","DELAY","","","","","","","","","","",""
"html-keyboard-response","138","408786","0.0-7.0-4.20","63d89eb9781fd5479e5c175a","bdp_wmem","Wed Mar 15 2023 21:54:39 GMT-0600 (Mountain Daylight Time)","679067","Match,No Match","","2066","","","","","","<div class='trialBorder'><div class='targDiv'><div class='tc'><img class='introPic' src='trustrating_stim/white_mw010.bmp'><br><font color='green'><strong>Share</strong></font></div></div><div class='respDiv'><div class='respDivL'>Match<br>(e)</div><div class='respDivR'>No Match<br>(i)</div></div></div>","i","TARGET","1","trustrating_stim/white_mw010.bmp","0","noMatchOutcome","i","1500","trustrating_stim/white_mw010.bmp","green","Share","REAL","1"
"html-keyboard-response","139","409287","0.0-7.0-5.20","63d89eb9781fd5479e5c175a","bdp_wmem","Wed Mar 15 2023 21:54:39 GMT-0600 (Mountain Daylight Time)","679067","Match,No Match","","null","","","","","","<div class='trialBorder'><div class='vertical-center'><img src='img/correct.jpg'></div><div class='respDiv'><div class='respDivL'>Match<br>(e)</div><div class='respDivR'><font style='color:orange'>No Match<br>(i)</font></div></div></div>","null","FEEDBACK","","","","","","","","","","",""
"html-keyboard-response","140","409790","0.0-7.0-1.21","63d89eb9781fd5479e5c175a","bdp_wmem","Wed Mar 15 2023 21:54:39 GMT-0600 (Mountain Daylight Time)","679067","Match,No Match","","null","","","","","","<div class='trialBorder'><div class='vertical-center'><img src='img/fixation2_sml.jpg'</img></div></div>","null","FIX","","","","","","","","","","",""
"html-keyboard-response","141","411292","0.0-7.0-2.21","63d89eb9781fd5479e5c175a","bdp_wmem","Wed Mar 15 2023 21:54:39 GMT-0600 (Mountain Daylight Time)","679067","Match,No Match","","null","","","","","","<div class='trialBorder'><div class='vertical-center'><img style='vertical-align:center; align:center' src='img/fixation2_sml.jpg'></div><div class='arrayDiv1'><div class='tc'><img class='introPic' src='trustrating_stim/white_mw085.bmp'><br><font color='green'><strong>Share</strong></font></div></div></div>","null","ARRAY","1","trustrating_stim/white_mw085.bmp","1","noMatchFace","i","1500","","","","",""
"html-keyboard-response","142","415294","0.0-7.0-3.21","63d89eb9781fd5479e5c175a","bdp_wmem","Wed Mar 15 2023 21:54:39 GMT-0600 (Mountain Daylight Time)","679067","Match,No Match","","null","","","","","","<div class='trialBorder'><div class='vertical-center'><img src='img/fixation2_sml.jpg'</img></div></div>","null","DELAY","","","","","","","","","","",""
"html-keyboard-response","143","416415","0.0-7.0-4.21","63d89eb9781fd5479e5c175a","bdp_wmem","Wed Mar 15 2023 21:54:39 GMT-0600 (Mountain Daylight Time)","679067","Match,No Match","","1118","","","","","","<div class='trialBorder'><div class='targDiv'><div class='tc'><img class='introPic' src='trustrating_stim/white_mw091.bmp'><br><font color='green'><strong>Share</strong></font></div></div><div class='respDiv'><div class='respDivL'>Match<br>(e)</div><div class='respDivR'>No Match<br>(i)</div></div></div>","i","TARGET","1","trustrating_stim/white_mw085.bmp","1","noMatchFace","i","1500","trustrating_stim/white_mw091.bmp","green","Share","REAL","1"
"html-keyboard-response","144","416918","0.0-7.0-5.21","63d89eb9781fd5479e5c175a","bdp_wmem","Wed Mar 15 2023 21:54:39 GMT-0600 (Mountain Daylight Time)","679067","Match,No Match","","null","","","","","","<div class='trialBorder'><div class='vertical-center'><img src='img/correct.jpg'></div><div class='respDiv'><div class='respDivL'>Match<br>(e)</div><div class='respDivR'><font style='color:orange'>No Match<br>(i)</font></div></div></div>","null","FEEDBACK","","","","","","","","","","",""
"html-keyboard-response","145","417419","0.0-7.0-1.22","63d89eb9781fd5479e5c175a","bdp_wmem","Wed Mar 15 2023 21:54:39 GMT-0600 (Mountain Daylight Time)","679067","Match,No Match","","null","","","","","","<div class='trialBorder'><div class='vertical-center'><img src='img/fixation2_sml.jpg'</img></div></div>","null","FIX","","","","","","","","","","",""
"html-keyboard-response","146","421923","0.0-7.0-2.22","63d89eb9781fd5479e5c175a","bdp_wmem","Wed Mar 15 2023 21:54:39 GMT-0600 (Mountain Daylight Time)","679067","Match,No Match","","null","","","","","","<div class='trialBorder'><div class='vertical-center'><img style='vertical-align:center; align:center' src='img/fixation2_sml.jpg'></div><div class='arrayDiv3'><div class='tl'><img class='introPic' src='trustrating_stim/white_mw042.bmp'><br><font color='red'><strong>Keep</strong></font></div><div class='tc'><img class='introPic' src='trustrating_stim/white_mw070.bmp'><br><font color='red'><strong>Keep</strong></font></div><div class='tr'><img class='introPic' src='trustrating_stim/white_mw038.bmp'><br><font color='green'><strong>Share</strong></font></div></div></div>","null","ARRAY","3","trustrating_stim/white_mw042.bmp,trustrating_stim/white_mw070.bmp,trustrating_stim/white_mw038.bmp","0,0,1","noMatchOutcome","i","4500","","","","",""
"html-keyboard-response","147","425927","0.0-7.0-3.22","63d89eb9781fd5479e5c175a","bdp_wmem","Wed Mar 15 2023 21:54:39 GMT-0600 (Mountain Daylight Time)","679067","Match,No Match","","null","","","","","","<div class='trialBorder'><div class='vertical-center'><img src='img/fixation2_sml.jpg'</img></div></div>","null","DELAY","","","","","","","","","","",""
"html-keyboard-response","148","428300","0.0-7.0-4.22","63d89eb9781fd5479e5c175a","bdp_wmem","Wed Mar 15 2023 21:54:39 GMT-0600 (Mountain Daylight Time)","679067","Match,No Match","","2371","","","","","","<div class='trialBorder'><div class='targDiv'><div class='tc'><img class='introPic' src='trustrating_stim/white_mw042.bmp'><br><font color='green'><strong>Share</strong></font></div></div><div class='respDiv'><div class='respDivL'>Match<br>(e)</div><div class='respDivR'>No Match<br>(i)</div></div></div>","i","TARGET","3","trustrating_stim/white_mw042.bmp,trustrating_stim/white_mw070.bmp,trustrating_stim/white_mw038.bmp","0,0,1","noMatchOutcome","i","4500","trustrating_stim/white_mw042.bmp","green","Share","REAL","1"
"html-keyboard-response","149","428803","0.0-7.0-5.22","63d89eb9781fd5479e5c175a","bdp_wmem","Wed Mar 15 2023 21:54:39 GMT-0600 (Mountain Daylight Time)","679067","Match,No Match","","null","","","","","","<div class='trialBorder'><div class='vertical-center'><img src='img/correct.jpg'></div><div class='respDiv'><div class='respDivL'>Match<br>(e)</div><div class='respDivR'><font style='color:orange'>No Match<br>(i)</font></div></div></div>","null","FEEDBACK","","","","","","","","","","",""
"html-keyboard-response","150","429305","0.0-7.0-1.23","63d89eb9781fd5479e5c175a","bdp_wmem","Wed Mar 15 2023 21:54:39 GMT-0600 (Mountain Daylight Time)","679067","Match,No Match","","null","","","","","","<div class='trialBorder'><div class='vertical-center'><img src='img/fixation2_sml.jpg'</img></div></div>","null","FIX","","","","","","","","","","",""
"html-keyboard-response","151","432306","0.0-7.0-2.23","63d89eb9781fd5479e5c175a","bdp_wmem","Wed Mar 15 2023 21:54:39 GMT-0600 (Mountain Daylight Time)","679067","Match,No Match","","null","","","","","","<div class='trialBorder'><div class='vertical-center'><img style='vertical-align:center; align:center' src='img/fixation2_sml.jpg'></div><div class='arrayDiv2'><div class='tl'><img class='introPic' src='trustrating_stim/white_mw092.bmp'><br><font color='green'><strong>Share</strong></font></div><div class='tr'><img class='introPic' src='trustrating_stim/white_mw012.bmp'><br><font color='red'><strong>Keep</strong></font></div></div></div>","null","ARRAY","2","trustrating_stim/white_mw092.bmp,trustrating_stim/white_mw012.bmp","1,0","Match","e","3000","","","","",""
"html-keyboard-response","152","436308","0.0-7.0-3.23","63d89eb9781fd5479e5c175a","bdp_wmem","Wed Mar 15 2023 21:54:39 GMT-0600 (Mountain Daylight Time)","679067","Match,No Match","","null","","","","","","<div class='trialBorder'><div class='vertical-center'><img src='img/fixation2_sml.jpg'</img></div></div>","null","DELAY","","","","","","","","","","",""
"html-keyboard-response","153","438367","0.0-7.0-4.23","63d89eb9781fd5479e5c175a","bdp_wmem","Wed Mar 15 2023 21:54:39 GMT-0600 (Mountain Daylight Time)","679067","Match,No Match","","2057","","","","","","<div class='trialBorder'><div class='targDiv'><div class='tc'><img class='introPic' src='trustrating_stim/white_mw012.bmp'><br><font color='red'><strong>Keep</strong></font></div></div><div class='respDiv'><div class='respDivL'>Match<br>(e)</div><div class='respDivR'>No Match<br>(i)</div></div></div>","e","TARGET","2","trustrating_stim/white_mw092.bmp,trustrating_stim/white_mw012.bmp","1,0","Match","e","3000","trustrating_stim/white_mw012.bmp","red","Keep","REAL","1"
"html-keyboard-response","154","438869","0.0-7.0-5.23","63d89eb9781fd5479e5c175a","bdp_wmem","Wed Mar 15 2023 21:54:39 GMT-0600 (Mountain Daylight Time)","679067","Match,No Match","","null","","","","","","<div class='trialBorder'><div class='vertical-center'><img src='img/correct.jpg'></div><div class='respDiv'><div class='respDivL'><font style='color:orange'>Match<br>(e)</font></div><div class='respDivR'>No Match<br>(i)</div></div></div>","null","FEEDBACK","","","","","","","","","","",""
"html-keyboard-response","155","439370","0.0-7.0-1.24","63d89eb9781fd5479e5c175a","bdp_wmem","Wed Mar 15 2023 21:54:39 GMT-0600 (Mountain Daylight Time)","679067","Match,No Match","","null","","","","","","<div class='trialBorder'><div class='vertical-center'><img src='img/fixation2_sml.jpg'</img></div></div>","null","FIX","","","","","","","","","","",""
"html-keyboard-response","156","440873","0.0-7.0-2.24","63d89eb9781fd5479e5c175a","bdp_wmem","Wed Mar 15 2023 21:54:39 GMT-0600 (Mountain Daylight Time)","679067","Match,No Match","","null","","","","","","<div class='trialBorder'><div class='vertical-center'><img style='vertical-align:center; align:center' src='img/fixation2_sml.jpg'></div><div class='arrayDiv1'><div class='tc'><img class='introPic' src='trustrating_stim/white_mw040.bmp'><br><font color='green'><strong>Share</strong></font></div></div></div>","null","ARRAY","1","trustrating_stim/white_mw040.bmp","1","Match","e","1500","","","","",""
"html-keyboard-response","157","444875","0.0-7.0-3.24","63d89eb9781fd5479e5c175a","bdp_wmem","Wed Mar 15 2023 21:54:39 GMT-0600 (Mountain Daylight Time)","679067","Match,No Match","","null","","","","","","<div class='trialBorder'><div class='vertical-center'><img src='img/fixation2_sml.jpg'</img></div></div>","null","DELAY","","","","","","","","","","",""
"html-keyboard-response","158","445969","0.0-7.0-4.24","63d89eb9781fd5479e5c175a","bdp_wmem","Wed Mar 15 2023 21:54:39 GMT-0600 (Mountain Daylight Time)","679067","Match,No Match","","1093","","","","","","<div class='trialBorder'><div class='targDiv'><div class='tc'><img class='introPic' src='trustrating_stim/white_mw040.bmp'><br><font color='green'><strong>Share</strong></font></div></div><div class='respDiv'><div class='respDivL'>Match<br>(e)</div><div class='respDivR'>No Match<br>(i)</div></div></div>","e","TARGET","1","trustrating_stim/white_mw040.bmp","1","Match","e","1500","trustrating_stim/white_mw040.bmp","green","Share","REAL","1"
"html-keyboard-response","159","446470","0.0-7.0-5.24","63d89eb9781fd5479e5c175a","bdp_wmem","Wed Mar 15 2023 21:54:39 GMT-0600 (Mountain Daylight Time)","679067","Match,No Match","","null","","","","","","<div class='trialBorder'><div class='vertical-center'><img src='img/correct.jpg'></div><div class='respDiv'><div class='respDivL'><font style='color:orange'>Match<br>(e)</font></div><div class='respDivR'>No Match<br>(i)</div></div></div>","null","FEEDBACK","","","","","","","","","","",""
"html-keyboard-response","160","446973","0.0-7.0-1.25","63d89eb9781fd5479e5c175a","bdp_wmem","Wed Mar 15 2023 21:54:39 GMT-0600 (Mountain Daylight Time)","679067","Match,No Match","","null","","","","","","<div class='trialBorder'><div class='vertical-center'><img src='img/fixation2_sml.jpg'</img></div></div>","null","FIX","","","","","","","","","","",""
"html-keyboard-response","161","449975","0.0-7.0-2.25","63d89eb9781fd5479e5c175a","bdp_wmem","Wed Mar 15 2023 21:54:39 GMT-0600 (Mountain Daylight Time)","679067","Match,No Match","","null","","","","","","<div class='trialBorder'><div class='vertical-center'><img style='vertical-align:center; align:center' src='img/fixation2_sml.jpg'></div><div class='arrayDiv2'><div class='tl'><img class='introPic' src='trustrating_stim/white_mw013.bmp'><br><font color='green'><strong>Share</strong></font></div><div class='tr'><img class='introPic' src='trustrating_stim/white_mw070.bmp'><br><font color='red'><strong>Keep</strong></font></div></div></div>","null","ARRAY","2","trustrating_stim/white_mw013.bmp,trustrating_stim/white_mw070.bmp","1,0","Match","e","3000","","","","",""
"html-keyboard-response","162","453977","0.0-7.0-3.25","63d89eb9781fd5479e5c175a","bdp_wmem","Wed Mar 15 2023 21:54:39 GMT-0600 (Mountain Daylight Time)","679067","Match,No Match","","null","","","","","","<div class='trialBorder'><div class='vertical-center'><img src='img/fixation2_sml.jpg'</img></div></div>","null","DELAY","","","","","","","","","","",""
"html-keyboard-response","163","455198","0.0-7.0-4.25","63d89eb9781fd5479e5c175a","bdp_wmem","Wed Mar 15 2023 21:54:39 GMT-0600 (Mountain Daylight Time)","679067","Match,No Match","","1218","","","","","","<div class='trialBorder'><div class='targDiv'><div class='tc'><img class='introPic' src='trustrating_stim/white_mw013.bmp'><br><font color='green'><strong>Share</strong></font></div></div><div class='respDiv'><div class='respDivL'>Match<br>(e)</div><div class='respDivR'>No Match<br>(i)</div></div></div>","e","TARGET","2","trustrating_stim/white_mw013.bmp,trustrating_stim/white_mw070.bmp","1,0","Match","e","3000","trustrating_stim/white_mw013.bmp","green","Share","REAL","1"
"html-keyboard-response","164","455700","0.0-7.0-5.25","63d89eb9781fd5479e5c175a","bdp_wmem","Wed Mar 15 2023 21:54:39 GMT-0600 (Mountain Daylight Time)","679067","Match,No Match","","null","","","","","","<div class='trialBorder'><div class='vertical-center'><img src='img/correct.jpg'></div><div class='respDiv'><div class='respDivL'><font style='color:orange'>Match<br>(e)</font></div><div class='respDivR'>No Match<br>(i)</div></div></div>","null","FEEDBACK","","","","","","","","","","",""
"html-keyboard-response","165","456202","0.0-7.0-1.26","63d89eb9781fd5479e5c175a","bdp_wmem","Wed Mar 15 2023 21:54:39 GMT-0600 (Mountain Daylight Time)","679067","Match,No Match","","null","","","","","","<div class='trialBorder'><div class='vertical-center'><img src='img/fixation2_sml.jpg'</img></div></div>","null","FIX","","","","","","","","","","",""
"html-keyboard-response","166","459204","0.0-7.0-2.26","63d89eb9781fd5479e5c175a","bdp_wmem","Wed Mar 15 2023 21:54:39 GMT-0600 (Mountain Daylight Time)","679067","Match,No Match","","null","","","","","","<div class='trialBorder'><div class='vertical-center'><img style='vertical-align:center; align:center' src='img/fixation2_sml.jpg'></div><div class='arrayDiv2'><div class='tl'><img class='introPic' src='trustrating_stim/white_mw078.bmp'><br><font color='red'><strong>Keep</strong></font></div><div class='tr'><img class='introPic' src='trustrating_stim/white_mw070.bmp'><br><font color='green'><strong>Share</strong></font></div></div></div>","null","ARRAY","2","trustrating_stim/white_mw078.bmp,trustrating_stim/white_mw070.bmp","0,1","Match","e","3000","","","","",""
"html-keyboard-response","167","463207","0.0-7.0-3.26","63d89eb9781fd5479e5c175a","bdp_wmem","Wed Mar 15 2023 21:54:39 GMT-0600 (Mountain Daylight Time)","679067","Match,No Match","","null","","","","","","<div class='trialBorder'><div class='vertical-center'><img src='img/fixation2_sml.jpg'</img></div></div>","null","DELAY","","","","","","","","","","",""
"html-keyboard-response","168","465982","0.0-7.0-4.26","63d89eb9781fd5479e5c175a","bdp_wmem","Wed Mar 15 2023 21:54:39 GMT-0600 (Mountain Daylight Time)","679067","Match,No Match","","2773","","","","","","<div class='trialBorder'><div class='targDiv'><div class='tc'><img class='introPic' src='trustrating_stim/white_mw078.bmp'><br><font color='red'><strong>Keep</strong></font></div></div><div class='respDiv'><div class='respDivL'>Match<br>(e)</div><div class='respDivR'>No Match<br>(i)</div></div></div>","e","TARGET","2","trustrating_stim/white_mw078.bmp,trustrating_stim/white_mw070.bmp","0,1","Match","e","3000","trustrating_stim/white_mw078.bmp","red","Keep","REAL","1"
"html-keyboard-response","169","466484","0.0-7.0-5.26","63d89eb9781fd5479e5c175a","bdp_wmem","Wed Mar 15 2023 21:54:39 GMT-0600 (Mountain Daylight Time)","679067","Match,No Match","","null","","","","","","<div class='trialBorder'><div class='vertical-center'><img src='img/correct.jpg'></div><div class='respDiv'><div class='respDivL'><font style='color:orange'>Match<br>(e)</font></div><div class='respDivR'>No Match<br>(i)</div></div></div>","null","FEEDBACK","","","","","","","","","","",""
"html-keyboard-response","170","466985","0.0-7.0-1.27","63d89eb9781fd5479e5c175a","bdp_wmem","Wed Mar 15 2023 21:54:39 GMT-0600 (Mountain Daylight Time)","679067","Match,No Match","","null","","","","","","<div class='trialBorder'><div class='vertical-center'><img src='img/fixation2_sml.jpg'</img></div></div>","null","FIX","","","","","","","","","","",""
"html-keyboard-response","171","471487","0.0-7.0-2.27","63d89eb9781fd5479e5c175a","bdp_wmem","Wed Mar 15 2023 21:54:39 GMT-0600 (Mountain Daylight Time)","679067","Match,No Match","","null","","","","","","<div class='trialBorder'><div class='vertical-center'><img style='vertical-align:center; align:center' src='img/fixation2_sml.jpg'></div><div class='arrayDiv3'><div class='tl'><img class='introPic' src='trustrating_stim/white_mw003.bmp'><br><font color='red'><strong>Keep</strong></font></div><div class='tc'><img class='introPic' src='trustrating_stim/white_mw085.bmp'><br><font color='red'><strong>Keep</strong></font></div><div class='tr'><img class='introPic' src='trustrating_stim/white_mw078.bmp'><br><font color='green'><strong>Share</strong></font></div></div></div>","null","ARRAY","3","trustrating_stim/white_mw003.bmp,trustrating_stim/white_mw085.bmp,trustrating_stim/white_mw078.bmp","0,0,1","noMatchFace","i","4500","","","","",""
"html-keyboard-response","172","475490","0.0-7.0-3.27","63d89eb9781fd5479e5c175a","bdp_wmem","Wed Mar 15 2023 21:54:39 GMT-0600 (Mountain Daylight Time)","679067","Match,No Match","","null","","","","","","<div class='trialBorder'><div class='vertical-center'><img src='img/fixation2_sml.jpg'</img></div></div>","null","DELAY","","","","","","","","","","",""
"html-keyboard-response","173","478713","0.0-7.0-4.27","63d89eb9781fd5479e5c175a","bdp_wmem","Wed Mar 15 2023 21:54:39 GMT-0600 (Mountain Daylight Time)","679067","Match,No Match","","3221","","","","","","<div class='trialBorder'><div class='targDiv'><div class='tc'><img class='introPic' src='trustrating_stim/white_mw040.bmp'><br><font color='green'><strong>Share</strong></font></div></div><div class='respDiv'><div class='respDivL'>Match<br>(e)</div><div class='respDivR'>No Match<br>(i)</div></div></div>","e","TARGET","3","trustrating_stim/white_mw003.bmp,trustrating_stim/white_mw085.bmp,trustrating_stim/white_mw078.bmp","0,0,1","noMatchFace","i","4500","trustrating_stim/white_mw040.bmp","green","Share","REAL","0"
"html-keyboard-response","174","479216","0.0-7.0-5.27","63d89eb9781fd5479e5c175a","bdp_wmem","Wed Mar 15 2023 21:54:39 GMT-0600 (Mountain Daylight Time)","679067","Match,No Match","","null","","","","","","<div class='trialBorder'><div class='vertical-center'><img src='img/error.jpg'></div><div class='respDiv'><div class='respDivL'><font style='color:orange'>Match<br>(e)</font></div><div class='respDivR'>No Match<br>(i)</div></div></div>","null","FEEDBACK","","","","","","","","","","",""
"html-keyboard-response","175","479717","0.0-7.0-1.28","63d89eb9781fd5479e5c175a","bdp_wmem","Wed Mar 15 2023 21:54:39 GMT-0600 (Mountain Daylight Time)","679067","Match,No Match","","null","","","","","","<div class='trialBorder'><div class='vertical-center'><img src='img/fixation2_sml.jpg'</img></div></div>","null","FIX","","","","","","","","","","",""
"html-keyboard-response","176","482720","0.0-7.0-2.28","63d89eb9781fd5479e5c175a","bdp_wmem","Wed Mar 15 2023 21:54:39 GMT-0600 (Mountain Daylight Time)","679067","Match,No Match","","null","","","","","","<div class='trialBorder'><div class='vertical-center'><img style='vertical-align:center; align:center' src='img/fixation2_sml.jpg'></div><div class='arrayDiv2'><div class='tl'><img class='introPic' src='trustrating_stim/white_mw078.bmp'><br><font color='green'><strong>Share</strong></font></div><div class='tr'><img class='introPic' src='trustrating_stim/white_mw042.bmp'><br><font color='red'><strong>Keep</strong></font></div></div></div>","null","ARRAY","2","trustrating_stim/white_mw078.bmp,trustrating_stim/white_mw042.bmp","1,0","Match","e","3000","","","","",""
"html-keyboard-response","177","486722","0.0-7.0-3.28","63d89eb9781fd5479e5c175a","bdp_wmem","Wed Mar 15 2023 21:54:39 GMT-0600 (Mountain Daylight Time)","679067","Match,No Match","","null","","","","","","<div class='trialBorder'><div class='vertical-center'><img src='img/fixation2_sml.jpg'</img></div></div>","null","DELAY","","","","","","","","","","",""
"html-keyboard-response","178","487965","0.0-7.0-4.28","63d89eb9781fd5479e5c175a","bdp_wmem","Wed Mar 15 2023 21:54:39 GMT-0600 (Mountain Daylight Time)","679067","Match,No Match","","1240","","","","","","<div class='trialBorder'><div class='targDiv'><div class='tc'><img class='introPic' src='trustrating_stim/white_mw078.bmp'><br><font color='green'><strong>Share</strong></font></div></div><div class='respDiv'><div class='respDivL'>Match<br>(e)</div><div class='respDivR'>No Match<br>(i)</div></div></div>","e","TARGET","2","trustrating_stim/white_mw078.bmp,trustrating_stim/white_mw042.bmp","1,0","Match","e","3000","trustrating_stim/white_mw078.bmp","green","Share","REAL","1"
"html-keyboard-response","179","488468","0.0-7.0-5.28","63d89eb9781fd5479e5c175a","bdp_wmem","Wed Mar 15 2023 21:54:39 GMT-0600 (Mountain Daylight Time)","679067","Match,No Match","","null","","","","","","<div class='trialBorder'><div class='vertical-center'><img src='img/correct.jpg'></div><div class='respDiv'><div class='respDivL'><font style='color:orange'>Match<br>(e)</font></div><div class='respDivR'>No Match<br>(i)</div></div></div>","null","FEEDBACK","","","","","","","","","","",""
"html-keyboard-response","180","488970","0.0-7.0-1.29","63d89eb9781fd5479e5c175a","bdp_wmem","Wed Mar 15 2023 21:54:39 GMT-0600 (Mountain Daylight Time)","679067","Match,No Match","","null","","","","","","<div class='trialBorder'><div class='vertical-center'><img src='img/fixation2_sml.jpg'</img></div></div>","null","FIX","","","","","","","","","","",""
"html-keyboard-response","181","491971","0.0-7.0-2.29","63d89eb9781fd5479e5c175a","bdp_wmem","Wed Mar 15 2023 21:54:39 GMT-0600 (Mountain Daylight Time)","679067","Match,No Match","","null","","","","","","<div class='trialBorder'><div class='vertical-center'><img style='vertical-align:center; align:center' src='img/fixation2_sml.jpg'></div><div class='arrayDiv2'><div class='tl'><img class='introPic' src='trustrating_stim/white_mw070.bmp'><br><font color='red'><strong>Keep</strong></font></div><div class='tr'><img class='introPic' src='trustrating_stim/white_mw042.bmp'><br><font color='green'><strong>Share</strong></font></div></div></div>","null","ARRAY","2","trustrating_stim/white_mw070.bmp,trustrating_stim/white_mw042.bmp","0,1","noMatchFace","i","3000","","","","",""
"html-keyboard-response","182","495973","0.0-7.0-3.29","63d89eb9781fd5479e5c175a","bdp_wmem","Wed Mar 15 2023 21:54:39 GMT-0600 (Mountain Daylight Time)","679067","Match,No Match","","null","","","","","","<div class='trialBorder'><div class='vertical-center'><img src='img/fixation2_sml.jpg'</img></div></div>","null","DELAY","","","","","","","","","","",""
"html-keyboard-response","183","497306","0.0-7.0-4.29","63d89eb9781fd5479e5c175a","bdp_wmem","Wed Mar 15 2023 21:54:39 GMT-0600 (Mountain Daylight Time)","679067","Match,No Match","","1332","","","","","","<div class='trialBorder'><div class='targDiv'><div class='tc'><img class='introPic' src='trustrating_stim/white_mw091.bmp'><br><font color='green'><strong>Share</strong></font></div></div><div class='respDiv'><div class='respDivL'>Match<br>(e)</div><div class='respDivR'>No Match<br>(i)</div></div></div>","i","TARGET","2","trustrating_stim/white_mw070.bmp,trustrating_stim/white_mw042.bmp","0,1","noMatchFace","i","3000","trustrating_stim/white_mw091.bmp","green","Share","REAL","1"
"html-keyboard-response","184","497807","0.0-7.0-5.29","63d89eb9781fd5479e5c175a","bdp_wmem","Wed Mar 15 2023 21:54:39 GMT-0600 (Mountain Daylight Time)","679067","Match,No Match","","null","","","","","","<div class='trialBorder'><div class='vertical-center'><img src='img/correct.jpg'></div><div class='respDiv'><div class='respDivL'>Match<br>(e)</div><div class='respDivR'><font style='color:orange'>No Match<br>(i)</font></div></div></div>","null","FEEDBACK","","","","","","","","","","",""
"html-keyboard-response","185","498310","0.0-7.0-1.30","63d89eb9781fd5479e5c175a","bdp_wmem","Wed Mar 15 2023 21:54:39 GMT-0600 (Mountain Daylight Time)","679067","Match,No Match","","null","","","","","","<div class='trialBorder'><div class='vertical-center'><img src='img/fixation2_sml.jpg'</img></div></div>","null","FIX","","","","","","","","","","",""
"html-keyboard-response","186","502812","0.0-7.0-2.30","63d89eb9781fd5479e5c175a","bdp_wmem","Wed Mar 15 2023 21:54:39 GMT-0600 (Mountain Daylight Time)","679067","Match,No Match","","null","","","","","","<div class='trialBorder'><div class='vertical-center'><img style='vertical-align:center; align:center' src='img/fixation2_sml.jpg'></div><div class='arrayDiv3'><div class='tl'><img class='introPic' src='trustrating_stim/white_mw092.bmp'><br><font color='red'><strong>Keep</strong></font></div><div class='tc'><img class='introPic' src='trustrating_stim/white_mw042.bmp'><br><font color='green'><strong>Share</strong></font></div><div class='tr'><img class='introPic' src='trustrating_stim/white_mw010.bmp'><br><font color='green'><strong>Share</strong></font></div></div></div>","null","ARRAY","3","trustrating_stim/white_mw092.bmp,trustrating_stim/white_mw042.bmp,trustrating_stim/white_mw010.bmp","0,1,1","Match","e","4500","","","","",""
"html-keyboard-response","187","506814","0.0-7.0-3.30","63d89eb9781fd5479e5c175a","bdp_wmem","Wed Mar 15 2023 21:54:39 GMT-0600 (Mountain Daylight Time)","679067","Match,No Match","","null","","","","","","<div class='trialBorder'><div class='vertical-center'><img src='img/fixation2_sml.jpg'</img></div></div>","null","DELAY","","","","","","","","","","",""
