"trial_type","trial_index","time_elapsed","internal_node_id","subject_id","task","startTime","totalTime","labels","view_history","rt","event","trial","time","trialtype","success","stimulus","key_press","stimType","arraySize","arrayFaces","arrayOutcomes","matchType","corrResp","arrayDur","targFace","targCol","targOutcome","trialType","corr"
"pavlovia","0","6","0.0-0.0","58016c9f551314000145af58","bdp_wmem","Fri Mar 10 2023 15:19:18 GMT-0500 (Eastern Standard Time)","679978","Match,No Match","","","","","","","","","","","","","","","","","","","","",""
"instructions","1","2515","0.0-1.0","58016c9f551314000145af58","bdp_wmem","Fri Mar 10 2023 15:19:18 GMT-0500 (Eastern Standard Time)","679978","Match,No Match","[{""page_index"":0,""viewing_time"":2508}]","2508","","","","","","","","","","","","","","","","","","",""
"","","","","58016c9f551314000145af58","bdp_wmem","Fri Mar 10 2023 15:19:18 GMT-0500 (Eastern Standard Time)","679978","Match,No Match","","","fullscreenenter","2","5131","fullscreenenter","","","","","","","","","","","","","","",""
"fullscreen","2","6121","0.0-2.0","58016c9f551314000145af58","bdp_wmem","Fri Mar 10 2023 15:19:18 GMT-0500 (Eastern Standard Time)","679978","Match,No Match","","","","","","","true","","","","","","","","","","","","","",""
"instructions","3","133614","0.0-4.0","58016c9f551314000145af58","bdp_wmem","Fri Mar 10 2023 15:19:18 GMT-0500 (Eastern Standard Time)","679978","Match,No Match","[{""page_index"":0,""viewing_time"":19453},{""page_index"":1,""viewing_time"":64299},{""page_index"":2,""viewing_time"":25119},{""page_index"":3,""viewing_time"":12607},{""page_index"":4,""viewing_time"":6014}]","127492","","","","","","","","","","","","","","","","","","",""
"html-keyboard-response","4","134124","0.0-5.0-1.0","58016c9f551314000145af58","bdp_wmem","Fri Mar 10 2023 15:19:18 GMT-0500 (Eastern Standard Time)","679978","Match,No Match","","null","","","","","","<div class='trialBorder'><div class='vertical-center'><img src='img/fixation2_sml.jpg'</img></div></div>","null","FIX","","","","","","","","","","",""
"html-keyboard-response","5","138629","0.0-5.0-2.0","58016c9f551314000145af58","bdp_wmem","Fri Mar 10 2023 15:19:18 GMT-0500 (Eastern Standard Time)","679978","Match,No Match","","null","","","","","","<div class='trialBorder'><div class='vertical-center'><img style='vertical-align:center; align:center' src='img/fixation2_sml.jpg'></div><div class='arrayDiv3'><div class='tl'><img class='introPic' src='trustrating_stim/white_mw091.bmp'><br><font color='green'><strong>Share</strong></font></div><div class='tc'><img class='introPic' src='trustrating_stim/white_mw038.bmp'><br><font color='green'><strong>Share</strong></font></div><div class='tr'><img class='introPic' src='trustrating_stim/white_mw092.bmp'><br><font color='red'><strong>Keep</strong></font></div></div></div>","null","ARRAY","3","trustrating_stim/white_mw091.bmp,trustrating_stim/white_mw038.bmp,trustrating_stim/white_mw092.bmp","1,1,0","noMatchOutcome","i","4500","","","","",""
"html-keyboard-response","6","142637","0.0-5.0-3.0","58016c9f551314000145af58","bdp_wmem","Fri Mar 10 2023 15:19:18 GMT-0500 (Eastern Standard Time)","679978","Match,No Match","","null","","","","","","<div class='trialBorder'><div class='vertical-center'><img src='img/fixation2_sml.jpg'</img></div></div>","null","DELAY","","","","","","","","","","",""
"html-keyboard-response","7","146922","0.0-5.0-4.0","58016c9f551314000145af58","bdp_wmem","Fri Mar 10 2023 15:19:18 GMT-0500 (Eastern Standard Time)","679978","Match,No Match","","4284","","","","","","<div class='trialBorder'><div class='targDiv'><div class='tc'><img class='introPic' src='trustrating_stim/white_mw038.bmp'><br><font color='red'><strong>Keep</strong></font></div></div><div class='respDiv'><div class='respDivL'>Match<br>(e)</div><div class='respDivR'>No Match<br>(i)</div></div></div>","i","TARGET","3","trustrating_stim/white_mw091.bmp,trustrating_stim/white_mw038.bmp,trustrating_stim/white_mw092.bmp","1,1,0","noMatchOutcome","i","4500","trustrating_stim/white_mw038.bmp","red","Keep","PRACTICE","1"
"html-keyboard-response","8","147429","0.0-5.0-5.0","58016c9f551314000145af58","bdp_wmem","Fri Mar 10 2023 15:19:18 GMT-0500 (Eastern Standard Time)","679978","Match,No Match","","null","","","","","","<div class='trialBorder'><div class='vertical-center'><img src='img/correct.jpg'></div><div class='respDiv'><div class='respDivL'>Match<br>(e)</div><div class='respDivR'><font style='color:orange'>No Match<br>(i)</font></div></div></div>","null","FEEDBACK","","","","","","","","","","",""
"html-keyboard-response","9","147933","0.0-5.0-1.1","58016c9f551314000145af58","bdp_wmem","Fri Mar 10 2023 15:19:18 GMT-0500 (Eastern Standard Time)","679978","Match,No Match","","null","","","","","","<div class='trialBorder'><div class='vertical-center'><img src='img/fixation2_sml.jpg'</img></div></div>","null","FIX","","","","","","","","","","",""
"html-keyboard-response","10","150941","0.0-5.0-2.1","58016c9f551314000145af58","bdp_wmem","Fri Mar 10 2023 15:19:18 GMT-0500 (Eastern Standard Time)","679978","Match,No Match","","null","","","","","","<div class='trialBorder'><div class='vertical-center'><img style='vertical-align:center; align:center' src='img/fixation2_sml.jpg'></div><div class='arrayDiv2'><div class='tl'><img class='introPic' src='trustrating_stim/white_mw078.bmp'><br><font color='red'><strong>Keep</strong></font></div><div class='tr'><img class='introPic' src='trustrating_stim/white_mw042.bmp'><br><font color='green'><strong>Share</strong></font></div></div></div>","null","ARRAY","2","trustrating_stim/white_mw078.bmp,trustrating_stim/white_mw042.bmp","0,1","noMatchFace","i","3000","","","","",""
"html-keyboard-response","11","154949","0.0-5.0-3.1","58016c9f551314000145af58","bdp_wmem","Fri Mar 10 2023 15:19:18 GMT-0500 (Eastern Standard Time)","679978","Match,No Match","","null","","","","","","<div class='trialBorder'><div class='vertical-center'><img src='img/fixation2_sml.jpg'</img></div></div>","null","DELAY","","","","","","","","","","",""
"html-keyboard-response","12","156855","0.0-5.0-4.1","58016c9f551314000145af58","bdp_wmem","Fri Mar 10 2023 15:19:18 GMT-0500 (Eastern Standard Time)","679978","Match,No Match","","1905","","","","","","<div class='trialBorder'><div class='targDiv'><div class='tc'><img class='introPic' src='trustrating_stim/white_mw012.bmp'><br><font color='red'><strong>Keep</strong></font></div></div><div class='respDiv'><div class='respDivL'>Match<br>(e)</div><div class='respDivR'>No Match<br>(i)</div></div></div>","i","TARGET","2","trustrating_stim/white_mw078.bmp,trustrating_stim/white_mw042.bmp","0,1","noMatchFace","i","3000","trustrating_stim/white_mw012.bmp","red","Keep","PRACTICE","1"
"html-keyboard-response","13","157356","0.0-5.0-5.1","58016c9f551314000145af58","bdp_wmem","Fri Mar 10 2023 15:19:18 GMT-0500 (Eastern Standard Time)","679978","Match,No Match","","null","","","","","","<div class='trialBorder'><div class='vertical-center'><img src='img/correct.jpg'></div><div class='respDiv'><div class='respDivL'>Match<br>(e)</div><div class='respDivR'><font style='color:orange'>No Match<br>(i)</font></div></div></div>","null","FEEDBACK","","","","","","","","","","",""
"html-keyboard-response","14","157861","0.0-5.0-1.2","58016c9f551314000145af58","bdp_wmem","Fri Mar 10 2023 15:19:18 GMT-0500 (Eastern Standard Time)","679978","Match,No Match","","null","","","","","","<div class='trialBorder'><div class='vertical-center'><img src='img/fixation2_sml.jpg'</img></div></div>","null","FIX","","","","","","","","","","",""
"html-keyboard-response","15","159364","0.0-5.0-2.2","58016c9f551314000145af58","bdp_wmem","Fri Mar 10 2023 15:19:18 GMT-0500 (Eastern Standard Time)","679978","Match,No Match","","null","","","","","","<div class='trialBorder'><div class='vertical-center'><img style='vertical-align:center; align:center' src='img/fixation2_sml.jpg'></div><div class='arrayDiv1'><div class='tc'><img class='introPic' src='trustrating_stim/white_mw078.bmp'><br><font color='red'><strong>Keep</strong></font></div></div></div>","null","ARRAY","1","trustrating_stim/white_mw078.bmp","0","Match","e","1500","","","","",""
"html-keyboard-response","16","163372","0.0-5.0-3.2","58016c9f551314000145af58","bdp_wmem","Fri Mar 10 2023 15:19:18 GMT-0500 (Eastern Standard Time)","679978","Match,No Match","","null","","","","","","<div class='trialBorder'><div class='vertical-center'><img src='img/fixation2_sml.jpg'</img></div></div>","null","DELAY","","","","","","","","","","",""
"html-keyboard-response","17","165873","0.0-5.0-4.2","58016c9f551314000145af58","bdp_wmem","Fri Mar 10 2023 15:19:18 GMT-0500 (Eastern Standard Time)","679978","Match,No Match","","2499","","","","","","<div class='trialBorder'><div class='targDiv'><div class='tc'><img class='introPic' src='trustrating_stim/white_mw078.bmp'><br><font color='red'><strong>Keep</strong></font></div></div><div class='respDiv'><div class='respDivL'>Match<br>(e)</div><div class='respDivR'>No Match<br>(i)</div></div></div>","e","TARGET","1","trustrating_stim/white_mw078.bmp","0","Match","e","1500","trustrating_stim/white_mw078.bmp","red","Keep","PRACTICE","1"
"html-keyboard-response","18","166380","0.0-5.0-5.2","58016c9f551314000145af58","bdp_wmem","Fri Mar 10 2023 15:19:18 GMT-0500 (Eastern Standard Time)","679978","Match,No Match","","null","","","","","","<div class='trialBorder'><div class='vertical-center'><img src='img/correct.jpg'></div><div class='respDiv'><div class='respDivL'><font style='color:orange'>Match<br>(e)</font></div><div class='respDivR'>No Match<br>(i)</div></div></div>","null","FEEDBACK","","","","","","","","","","",""
"html-keyboard-response","19","166885","0.0-5.0-1.3","58016c9f551314000145af58","bdp_wmem","Fri Mar 10 2023 15:19:18 GMT-0500 (Eastern Standard Time)","679978","Match,No Match","","null","","","","","","<div class='trialBorder'><div class='vertical-center'><img src='img/fixation2_sml.jpg'</img></div></div>","null","FIX","","","","","","","","","","",""
"html-keyboard-response","20","169894","0.0-5.0-2.3","58016c9f551314000145af58","bdp_wmem","Fri Mar 10 2023 15:19:18 GMT-0500 (Eastern Standard Time)","679978","Match,No Match","","null","","","","","","<div class='trialBorder'><div class='vertical-center'><img style='vertical-align:center; align:center' src='img/fixation2_sml.jpg'></div><div class='arrayDiv2'><div class='tl'><img class='introPic' src='trustrating_stim/white_mw012.bmp'><br><font color='red'><strong>Keep</strong></font></div><div class='tr'><img class='introPic' src='trustrating_stim/white_mw038.bmp'><br><font color='green'><strong>Share</strong></font></div></div></div>","null","ARRAY","2","trustrating_stim/white_mw012.bmp,trustrating_stim/white_mw038.bmp","0,1","Match","e","3000","","","","",""
"html-keyboard-response","21","173959","0.0-5.0-3.3","58016c9f551314000145af58","bdp_wmem","Fri Mar 10 2023 15:19:18 GMT-0500 (Eastern Standard Time)","679978","Match,No Match","","null","","","","","","<div class='trialBorder'><div class='vertical-center'><img src='img/fixation2_sml.jpg'</img></div></div>","null","DELAY","","","","","","","","","","",""
"html-keyboard-response","22","176009","0.0-5.0-4.3","58016c9f551314000145af58","bdp_wmem","Fri Mar 10 2023 15:19:18 GMT-0500 (Eastern Standard Time)","679978","Match,No Match","","2048","","","","","","<div class='trialBorder'><div class='targDiv'><div class='tc'><img class='introPic' src='trustrating_stim/white_mw038.bmp'><br><font color='green'><strong>Share</strong></font></div></div><div class='respDiv'><div class='respDivL'>Match<br>(e)</div><div class='respDivR'>No Match<br>(i)</div></div></div>","i","TARGET","2","trustrating_stim/white_mw012.bmp,trustrating_stim/white_mw038.bmp","0,1","Match","e","3000","trustrating_stim/white_mw038.bmp","green","Share","PRACTICE","0"
"html-keyboard-response","23","176517","0.0-5.0-5.3","58016c9f551314000145af58","bdp_wmem","Fri Mar 10 2023 15:19:18 GMT-0500 (Eastern Standard Time)","679978","Match,No Match","","null","","","","","","<div class='trialBorder'><div class='vertical-center'><img src='img/error.jpg'></div><div class='respDiv'><div class='respDivL'>Match<br>(e)</div><div class='respDivR'><font style='color:orange'>No Match<br>(i)</font></div></div></div>","null","FEEDBACK","","","","","","","","","","",""
"html-keyboard-response","24","177021","0.0-5.0-1.4","58016c9f551314000145af58","bdp_wmem","Fri Mar 10 2023 15:19:18 GMT-0500 (Eastern Standard Time)","679978","Match,No Match","","null","","","","","","<div class='trialBorder'><div class='vertical-center'><img src='img/fixation2_sml.jpg'</img></div></div>","null","FIX","","","","","","","","","","",""
"html-keyboard-response","25","178525","0.0-5.0-2.4","58016c9f551314000145af58","bdp_wmem","Fri Mar 10 2023 15:19:18 GMT-0500 (Eastern Standard Time)","679978","Match,No Match","","null","","","","","","<div class='trialBorder'><div class='vertical-center'><img style='vertical-align:center; align:center' src='img/fixation2_sml.jpg'></div><div class='arrayDiv1'><div class='tc'><img class='introPic' src='trustrating_stim/white_mw010.bmp'><br><font color='green'><strong>Share</strong></font></div></div></div>","null","ARRAY","1","trustrating_stim/white_mw010.bmp","1","noMatchFace","i","1500","","","","",""
"html-keyboard-response","26","182533","0.0-5.0-3.4","58016c9f551314000145af58","bdp_wmem","Fri Mar 10 2023 15:19:18 GMT-0500 (Eastern Standard Time)","679978","Match,No Match","","null","","","","","","<div class='trialBorder'><div class='vertical-center'><img src='img/fixation2_sml.jpg'</img></div></div>","null","DELAY","","","","","","","","","","",""
"html-keyboard-response","27","183974","0.0-5.0-4.4","58016c9f551314000145af58","bdp_wmem","Fri Mar 10 2023 15:19:18 GMT-0500 (Eastern Standard Time)","679978","Match,No Match","","1440","","","","","","<div class='trialBorder'><div class='targDiv'><div class='tc'><img class='introPic' src='trustrating_stim/white_mw091.bmp'><br><font color='green'><strong>Share</strong></font></div></div><div class='respDiv'><div class='respDivL'>Match<br>(e)</div><div class='respDivR'>No Match<br>(i)</div></div></div>","i","TARGET","1","trustrating_stim/white_mw010.bmp","1","noMatchFace","i","1500","trustrating_stim/white_mw091.bmp","green","Share","PRACTICE","1"
"html-keyboard-response","28","184477","0.0-5.0-5.4","58016c9f551314000145af58","bdp_wmem","Fri Mar 10 2023 15:19:18 GMT-0500 (Eastern Standard Time)","679978","Match,No Match","","null","","","","","","<div class='trialBorder'><div class='vertical-center'><img src='img/correct.jpg'></div><div class='respDiv'><div class='respDivL'>Match<br>(e)</div><div class='respDivR'><font style='color:orange'>No Match<br>(i)</font></div></div></div>","null","FEEDBACK","","","","","","","","","","",""
"html-keyboard-response","29","184981","0.0-5.0-1.5","58016c9f551314000145af58","bdp_wmem","Fri Mar 10 2023 15:19:18 GMT-0500 (Eastern Standard Time)","679978","Match,No Match","","null","","","","","","<div class='trialBorder'><div class='vertical-center'><img src='img/fixation2_sml.jpg'</img></div></div>","null","FIX","","","","","","","","","","",""
"html-keyboard-response","30","189485","0.0-5.0-2.5","58016c9f551314000145af58","bdp_wmem","Fri Mar 10 2023 15:19:18 GMT-0500 (Eastern Standard Time)","679978","Match,No Match","","null","","","","","","<div class='trialBorder'><div class='vertical-center'><img style='vertical-align:center; align:center' src='img/fixation2_sml.jpg'></div><div class='arrayDiv3'><div class='tl'><img class='introPic' src='trustrating_stim/white_mw003.bmp'><br><font color='green'><strong>Share</strong></font></div><div class='tc'><img class='introPic' src='trustrating_stim/white_mw070.bmp'><br><font color='red'><strong>Keep</strong></font></div><div class='tr'><img class='introPic' src='trustrating_stim/white_mw012.bmp'><br><font color='green'><strong>Share</strong></font></div></div></div>","null","ARRAY","3","trustrating_stim/white_mw003.bmp,trustrating_stim/white_mw070.bmp,trustrating_stim/white_mw012.bmp","1,0,1","Match","e","4500","","","","",""
"html-keyboard-response","31","193493","0.0-5.0-3.5","58016c9f551314000145af58","bdp_wmem","Fri Mar 10 2023 15:19:18 GMT-0500 (Eastern Standard Time)","679978","Match,No Match","","null","","","","","","<div class='trialBorder'><div class='vertical-center'><img src='img/fixation2_sml.jpg'</img></div></div>","null","DELAY","","","","","","","","","","",""
"html-keyboard-response","32","196930","0.0-5.0-4.5","58016c9f551314000145af58","bdp_wmem","Fri Mar 10 2023 15:19:18 GMT-0500 (Eastern Standard Time)","679978","Match,No Match","","3435","","","","","","<div class='trialBorder'><div class='targDiv'><div class='tc'><img class='introPic' src='trustrating_stim/white_mw070.bmp'><br><font color='red'><strong>Keep</strong></font></div></div><div class='respDiv'><div class='respDivL'>Match<br>(e)</div><div class='respDivR'>No Match<br>(i)</div></div></div>","i","TARGET","3","trustrating_stim/white_mw003.bmp,trustrating_stim/white_mw070.bmp,trustrating_stim/white_mw012.bmp","1,0,1","Match","e","4500","trustrating_stim/white_mw070.bmp","red","Keep","PRACTICE","0"
"html-keyboard-response","33","197438","0.0-5.0-5.5","58016c9f551314000145af58","bdp_wmem","Fri Mar 10 2023 15:19:18 GMT-0500 (Eastern Standard Time)","679978","Match,No Match","","null","","","","","","<div class='trialBorder'><div class='vertical-center'><img src='img/error.jpg'></div><div class='respDiv'><div class='respDivL'>Match<br>(e)</div><div class='respDivR'><font style='color:orange'>No Match<br>(i)</font></div></div></div>","null","FEEDBACK","","","","","","","","","","",""
"instructions","34","201759","0.0-6.0","58016c9f551314000145af58","bdp_wmem","Fri Mar 10 2023 15:19:18 GMT-0500 (Eastern Standard Time)","679978","Match,No Match","[{""page_index"":0,""viewing_time"":4321}]","4321","","","","","","","","","","","","","","","","","","",""
"html-keyboard-response","35","202262","0.0-7.0-1.0","58016c9f551314000145af58","bdp_wmem","Fri Mar 10 2023 15:19:18 GMT-0500 (Eastern Standard Time)","679978","Match,No Match","","null","","","","","","<div class='trialBorder'><div class='vertical-center'><img src='img/fixation2_sml.jpg'</img></div></div>","null","FIX","","","","","","","","","","",""
"html-keyboard-response","36","205270","0.0-7.0-2.0","58016c9f551314000145af58","bdp_wmem","Fri Mar 10 2023 15:19:18 GMT-0500 (Eastern Standard Time)","679978","Match,No Match","","null","","","","","","<div class='trialBorder'><div class='vertical-center'><img style='vertical-align:center; align:center' src='img/fixation2_sml.jpg'></div><div class='arrayDiv2'><div class='tl'><img class='introPic' src='trustrating_stim/white_mw013.bmp'><br><font color='red'><strong>Keep</strong></font></div><div class='tr'><img class='introPic' src='trustrating_stim/white_mw078.bmp'><br><font color='green'><strong>Share</strong></font></div></div></div>","null","ARRAY","2","trustrating_stim/white_mw013.bmp,trustrating_stim/white_mw078.bmp","0,1","Match","e","3000","","","","",""
"html-keyboard-response","37","209278","0.0-7.0-3.0","58016c9f551314000145af58","bdp_wmem","Fri Mar 10 2023 15:19:18 GMT-0500 (Eastern Standard Time)","679978","Match,No Match","","null","","","","","","<div class='trialBorder'><div class='vertical-center'><img src='img/fixation2_sml.jpg'</img></div></div>","null","DELAY","","","","","","","","","","",""
"html-keyboard-response","38","211410","0.0-7.0-4.0","58016c9f551314000145af58","bdp_wmem","Fri Mar 10 2023 15:19:18 GMT-0500 (Eastern Standard Time)","679978","Match,No Match","","2130","","","","","","<div class='trialBorder'><div class='targDiv'><div class='tc'><img class='introPic' src='trustrating_stim/white_mw013.bmp'><br><font color='red'><strong>Keep</strong></font></div></div><div class='respDiv'><div class='respDivL'>Match<br>(e)</div><div class='respDivR'>No Match<br>(i)</div></div></div>","i","TARGET","2","trustrating_stim/white_mw013.bmp,trustrating_stim/white_mw078.bmp","0,1","Match","e","3000","trustrating_stim/white_mw013.bmp","red","Keep","REAL","0"
"html-keyboard-response","39","211917","0.0-7.0-5.0","58016c9f551314000145af58","bdp_wmem","Fri Mar 10 2023 15:19:18 GMT-0500 (Eastern Standard Time)","679978","Match,No Match","","null","","","","","","<div class='trialBorder'><div class='vertical-center'><img src='img/error.jpg'></div><div class='respDiv'><div class='respDivL'>Match<br>(e)</div><div class='respDivR'><font style='color:orange'>No Match<br>(i)</font></div></div></div>","null","FEEDBACK","","","","","","","","","","",""
"html-keyboard-response","40","212421","0.0-7.0-1.1","58016c9f551314000145af58","bdp_wmem","Fri Mar 10 2023 15:19:18 GMT-0500 (Eastern Standard Time)","679978","Match,No Match","","null","","","","","","<div class='trialBorder'><div class='vertical-center'><img src='img/fixation2_sml.jpg'</img></div></div>","null","FIX","","","","","","","","","","",""
"html-keyboard-response","41","216926","0.0-7.0-2.1","58016c9f551314000145af58","bdp_wmem","Fri Mar 10 2023 15:19:18 GMT-0500 (Eastern Standard Time)","679978","Match,No Match","","null","","","","","","<div class='trialBorder'><div class='vertical-center'><img style='vertical-align:center; align:center' src='img/fixation2_sml.jpg'></div><div class='arrayDiv3'><div class='tl'><img class='introPic' src='trustrating_stim/white_mw010.bmp'><br><font color='green'><strong>Share</strong></font></div><div class='tc'><img class='introPic' src='trustrating_stim/white_mw038.bmp'><br><font color='red'><strong>Keep</strong></font></div><div class='tr'><img class='introPic' src='trustrating_stim/white_mw013.bmp'><br><font color='red'><strong>Keep</strong></font></div></div></div>","null","ARRAY","3","trustrating_stim/white_mw010.bmp,trustrating_stim/white_mw038.bmp,trustrating_stim/white_mw013.bmp","1,0,0","noMatchFace","i","4500","","","","",""
"html-keyboard-response","42","220934","0.0-7.0-3.1","58016c9f551314000145af58","bdp_wmem","Fri Mar 10 2023 15:19:18 GMT-0500 (Eastern Standard Time)","679978","Match,No Match","","null","","","","","","<div class='trialBorder'><div class='vertical-center'><img src='img/fixation2_sml.jpg'</img></div></div>","null","DELAY","","","","","","","","","","",""
"html-keyboard-response","43","222401","0.0-7.0-4.1","58016c9f551314000145af58","bdp_wmem","Fri Mar 10 2023 15:19:18 GMT-0500 (Eastern Standard Time)","679978","Match,No Match","","1465","","","","","","<div class='trialBorder'><div class='targDiv'><div class='tc'><img class='introPic' src='trustrating_stim/white_mw040.bmp'><br><font color='green'><strong>Share</strong></font></div></div><div class='respDiv'><div class='respDivL'>Match<br>(e)</div><div class='respDivR'>No Match<br>(i)</div></div></div>","i","TARGET","3","trustrating_stim/white_mw010.bmp,trustrating_stim/white_mw038.bmp,trustrating_stim/white_mw013.bmp","1,0,0","noMatchFace","i","4500","trustrating_stim/white_mw040.bmp","green","Share","REAL","1"
"html-keyboard-response","44","222902","0.0-7.0-5.1","58016c9f551314000145af58","bdp_wmem","Fri Mar 10 2023 15:19:18 GMT-0500 (Eastern Standard Time)","679978","Match,No Match","","null","","","","","","<div class='trialBorder'><div class='vertical-center'><img src='img/correct.jpg'></div><div class='respDiv'><div class='respDivL'>Match<br>(e)</div><div class='respDivR'><font style='color:orange'>No Match<br>(i)</font></div></div></div>","null","FEEDBACK","","","","","","","","","","",""
"html-keyboard-response","45","223406","0.0-7.0-1.2","58016c9f551314000145af58","bdp_wmem","Fri Mar 10 2023 15:19:18 GMT-0500 (Eastern Standard Time)","679978","Match,No Match","","null","","","","","","<div class='trialBorder'><div class='vertical-center'><img src='img/fixation2_sml.jpg'</img></div></div>","null","FIX","","","","","","","","","","",""
"html-keyboard-response","46","226499","0.0-7.0-2.2","58016c9f551314000145af58","bdp_wmem","Fri Mar 10 2023 15:19:18 GMT-0500 (Eastern Standard Time)","679978","Match,No Match","","null","","","","","","<div class='trialBorder'><div class='vertical-center'><img style='vertical-align:center; align:center' src='img/fixation2_sml.jpg'></div><div class='arrayDiv2'><div class='tl'><img class='introPic' src='trustrating_stim/white_mw012.bmp'><br><font color='red'><strong>Keep</strong></font></div><div class='tr'><img class='introPic' src='trustrating_stim/white_mw092.bmp'><br><font color='green'><strong>Share</strong></font></div></div></div>","null","ARRAY","2","trustrating_stim/white_mw012.bmp,trustrating_stim/white_mw092.bmp","0,1","Match","e","3000","","","","",""
"html-keyboard-response","47","230502","0.0-7.0-3.2","58016c9f551314000145af58","bdp_wmem","Fri Mar 10 2023 15:19:18 GMT-0500 (Eastern Standard Time)","679978","Match,No Match","","null","","","","","","<div class='trialBorder'><div class='vertical-center'><img src='img/fixation2_sml.jpg'</img></div></div>","null","DELAY","","","","","","","","","","",""
"html-keyboard-response","48","232272","0.0-7.0-4.2","58016c9f551314000145af58","bdp_wmem","Fri Mar 10 2023 15:19:18 GMT-0500 (Eastern Standard Time)","679978","Match,No Match","","1768","","","","","","<div class='trialBorder'><div class='targDiv'><div class='tc'><img class='introPic' src='trustrating_stim/white_mw092.bmp'><br><font color='green'><strong>Share</strong></font></div></div><div class='respDiv'><div class='respDivL'>Match<br>(e)</div><div class='respDivR'>No Match<br>(i)</div></div></div>","i","TARGET","2","trustrating_stim/white_mw012.bmp,trustrating_stim/white_mw092.bmp","0,1","Match","e","3000","trustrating_stim/white_mw092.bmp","green","Share","REAL","0"
"html-keyboard-response","49","232774","0.0-7.0-5.2","58016c9f551314000145af58","bdp_wmem","Fri Mar 10 2023 15:19:18 GMT-0500 (Eastern Standard Time)","679978","Match,No Match","","null","","","","","","<div class='trialBorder'><div class='vertical-center'><img src='img/error.jpg'></div><div class='respDiv'><div class='respDivL'>Match<br>(e)</div><div class='respDivR'><font style='color:orange'>No Match<br>(i)</font></div></div></div>","null","FEEDBACK","","","","","","","","","","",""
"html-keyboard-response","50","233278","0.0-7.0-1.3","58016c9f551314000145af58","bdp_wmem","Fri Mar 10 2023 15:19:18 GMT-0500 (Eastern Standard Time)","679978","Match,No Match","","null","","","","","","<div class='trialBorder'><div class='vertical-center'><img src='img/fixation2_sml.jpg'</img></div></div>","null","FIX","","","","","","","","","","",""
"html-keyboard-response","51","237782","0.0-7.0-2.3","58016c9f551314000145af58","bdp_wmem","Fri Mar 10 2023 15:19:18 GMT-0500 (Eastern Standard Time)","679978","Match,No Match","","null","","","","","","<div class='trialBorder'><div class='vertical-center'><img style='vertical-align:center; align:center' src='img/fixation2_sml.jpg'></div><div class='arrayDiv3'><div class='tl'><img class='introPic' src='trustrating_stim/white_mw003.bmp'><br><font color='red'><strong>Keep</strong></font></div><div class='tc'><img class='introPic' src='trustrating_stim/white_mw085.bmp'><br><font color='green'><strong>Share</strong></font></div><div class='tr'><img class='introPic' src='trustrating_stim/white_mw070.bmp'><br><font color='red'><strong>Keep</strong></font></div></div></div>","null","ARRAY","3","trustrating_stim/white_mw003.bmp,trustrating_stim/white_mw085.bmp,trustrating_stim/white_mw070.bmp","0,1,0","noMatchFace","i","4500","","","","",""
"html-keyboard-response","52","241790","0.0-7.0-3.3","58016c9f551314000145af58","bdp_wmem","Fri Mar 10 2023 15:19:18 GMT-0500 (Eastern Standard Time)","679978","Match,No Match","","null","","","","","","<div class='trialBorder'><div class='vertical-center'><img src='img/fixation2_sml.jpg'</img></div></div>","null","DELAY","","","","","","","","","","",""
"html-keyboard-response","53","242953","0.0-7.0-4.3","58016c9f551314000145af58","bdp_wmem","Fri Mar 10 2023 15:19:18 GMT-0500 (Eastern Standard Time)","679978","Match,No Match","","1161","","","","","","<div class='trialBorder'><div class='targDiv'><div class='tc'><img class='introPic' src='trustrating_stim/white_mw012.bmp'><br><font color='green'><strong>Share</strong></font></div></div><div class='respDiv'><div class='respDivL'>Match<br>(e)</div><div class='respDivR'>No Match<br>(i)</div></div></div>","i","TARGET","3","trustrating_stim/white_mw003.bmp,trustrating_stim/white_mw085.bmp,trustrating_stim/white_mw070.bmp","0,1,0","noMatchFace","i","4500","trustrating_stim/white_mw012.bmp","green","Share","REAL","1"
"html-keyboard-response","54","243454","0.0-7.0-5.3","58016c9f551314000145af58","bdp_wmem","Fri Mar 10 2023 15:19:18 GMT-0500 (Eastern Standard Time)","679978","Match,No Match","","null","","","","","","<div class='trialBorder'><div class='vertical-center'><img src='img/correct.jpg'></div><div class='respDiv'><div class='respDivL'>Match<br>(e)</div><div class='respDivR'><font style='color:orange'>No Match<br>(i)</font></div></div></div>","null","FEEDBACK","","","","","","","","","","",""
"html-keyboard-response","55","243958","0.0-7.0-1.4","58016c9f551314000145af58","bdp_wmem","Fri Mar 10 2023 15:19:18 GMT-0500 (Eastern Standard Time)","679978","Match,No Match","","null","","","","","","<div class='trialBorder'><div class='vertical-center'><img src='img/fixation2_sml.jpg'</img></div></div>","null","FIX","","","","","","","","","","",""
"html-keyboard-response","56","248462","0.0-7.0-2.4","58016c9f551314000145af58","bdp_wmem","Fri Mar 10 2023 15:19:18 GMT-0500 (Eastern Standard Time)","679978","Match,No Match","","null","","","","","","<div class='trialBorder'><div class='vertical-center'><img style='vertical-align:center; align:center' src='img/fixation2_sml.jpg'></div><div class='arrayDiv3'><div class='tl'><img class='introPic' src='trustrating_stim/white_mw091.bmp'><br><font color='red'><strong>Keep</strong></font></div><div class='tc'><img class='introPic' src='trustrating_stim/white_mw070.bmp'><br><font color='red'><strong>Keep</strong></font></div><div class='tr'><img class='introPic' src='trustrating_stim/white_mw092.bmp'><br><font color='green'><strong>Share</strong></font></div></div></div>","null","ARRAY","3","trustrating_stim/white_mw091.bmp,trustrating_stim/white_mw070.bmp,trustrating_stim/white_mw092.bmp","0,0,1","noMatchFace","i","4500","","","","",""
"html-keyboard-response","57","252470","0.0-7.0-3.4","58016c9f551314000145af58","bdp_wmem","Fri Mar 10 2023 15:19:18 GMT-0500 (Eastern Standard Time)","679978","Match,No Match","","null","","","","","","<div class='trialBorder'><div class='vertical-center'><img src='img/fixation2_sml.jpg'</img></div></div>","null","DELAY","","","","","","","","","","",""
"html-keyboard-response","58","254341","0.0-7.0-4.4","58016c9f551314000145af58","bdp_wmem","Fri Mar 10 2023 15:19:18 GMT-0500 (Eastern Standard Time)","679978","Match,No Match","","1870","","","","","","<div class='trialBorder'><div class='targDiv'><div class='tc'><img class='introPic' src='trustrating_stim/white_mw013.bmp'><br><font color='red'><strong>Keep</strong></font></div></div><div class='respDiv'><div class='respDivL'>Match<br>(e)</div><div class='respDivR'>No Match<br>(i)</div></div></div>","i","TARGET","3","trustrating_stim/white_mw091.bmp,trustrating_stim/white_mw070.bmp,trustrating_stim/white_mw092.bmp","0,0,1","noMatchFace","i","4500","trustrating_stim/white_mw013.bmp","red","Keep","REAL","1"
"html-keyboard-response","59","254845","0.0-7.0-5.4","58016c9f551314000145af58","bdp_wmem","Fri Mar 10 2023 15:19:18 GMT-0500 (Eastern Standard Time)","679978","Match,No Match","","null","","","","","","<div class='trialBorder'><div class='vertical-center'><img src='img/correct.jpg'></div><div class='respDiv'><div class='respDivL'>Match<br>(e)</div><div class='respDivR'><font style='color:orange'>No Match<br>(i)</font></div></div></div>","null","FEEDBACK","","","","","","","","","","",""
"html-keyboard-response","60","255350","0.0-7.0-1.5","58016c9f551314000145af58","bdp_wmem","Fri Mar 10 2023 15:19:18 GMT-0500 (Eastern Standard Time)","679978","Match,No Match","","null","","","","","","<div class='trialBorder'><div class='vertical-center'><img src='img/fixation2_sml.jpg'</img></div></div>","null","FIX","","","","","","","","","","",""
"html-keyboard-response","61","256855","0.0-7.0-2.5","58016c9f551314000145af58","bdp_wmem","Fri Mar 10 2023 15:19:18 GMT-0500 (Eastern Standard Time)","679978","Match,No Match","","null","","","","","","<div class='trialBorder'><div class='vertical-center'><img style='vertical-align:center; align:center' src='img/fixation2_sml.jpg'></div><div class='arrayDiv1'><div class='tc'><img class='introPic' src='trustrating_stim/white_mw013.bmp'><br><font color='green'><strong>Share</strong></font></div></div></div>","null","ARRAY","1","trustrating_stim/white_mw013.bmp","1","noMatchFace","i","1500","","","","",""
"html-keyboard-response","62","260864","0.0-7.0-3.5","58016c9f551314000145af58","bdp_wmem","Fri Mar 10 2023 15:19:18 GMT-0500 (Eastern Standard Time)","679978","Match,No Match","","null","","","","","","<div class='trialBorder'><div class='vertical-center'><img src='img/fixation2_sml.jpg'</img></div></div>","null","DELAY","","","","","","","","","","",""
"html-keyboard-response","63","262192","0.0-7.0-4.5","58016c9f551314000145af58","bdp_wmem","Fri Mar 10 2023 15:19:18 GMT-0500 (Eastern Standard Time)","679978","Match,No Match","","1327","","","","","","<div class='trialBorder'><div class='targDiv'><div class='tc'><img class='introPic' src='trustrating_stim/white_mw078.bmp'><br><font color='green'><strong>Share</strong></font></div></div><div class='respDiv'><div class='respDivL'>Match<br>(e)</div><div class='respDivR'>No Match<br>(i)</div></div></div>","i","TARGET","1","trustrating_stim/white_mw013.bmp","1","noMatchFace","i","1500","trustrating_stim/white_mw078.bmp","green","Share","REAL","1"
"html-keyboard-response","64","262696","0.0-7.0-5.5","58016c9f551314000145af58","bdp_wmem","Fri Mar 10 2023 15:19:18 GMT-0500 (Eastern Standard Time)","679978","Match,No Match","","null","","","","","","<div class='trialBorder'><div class='vertical-center'><img src='img/correct.jpg'></div><div class='respDiv'><div class='respDivL'>Match<br>(e)</div><div class='respDivR'><font style='color:orange'>No Match<br>(i)</font></div></div></div>","null","FEEDBACK","","","","","","","","","","",""
"html-keyboard-response","65","263200","0.0-7.0-1.6","58016c9f551314000145af58","bdp_wmem","Fri Mar 10 2023 15:19:18 GMT-0500 (Eastern Standard Time)","679978","Match,No Match","","null","","","","","","<div class='trialBorder'><div class='vertical-center'><img src='img/fixation2_sml.jpg'</img></div></div>","null","FIX","","","","","","","","","","",""
"html-keyboard-response","66","266208","0.0-7.0-2.6","58016c9f551314000145af58","bdp_wmem","Fri Mar 10 2023 15:19:18 GMT-0500 (Eastern Standard Time)","679978","Match,No Match","","null","","","","","","<div class='trialBorder'><div class='vertical-center'><img style='vertical-align:center; align:center' src='img/fixation2_sml.jpg'></div><div class='arrayDiv2'><div class='tl'><img class='introPic' src='trustrating_stim/white_mw012.bmp'><br><font color='green'><strong>Share</strong></font></div><div class='tr'><img class='introPic' src='trustrating_stim/white_mw085.bmp'><br><font color='red'><strong>Keep</strong></font></div></div></div>","null","ARRAY","2","trustrating_stim/white_mw012.bmp,trustrating_stim/white_mw085.bmp","1,0","Match","e","3000","","","","",""
"html-keyboard-response","67","270216","0.0-7.0-3.6","58016c9f551314000145af58","bdp_wmem","Fri Mar 10 2023 15:19:18 GMT-0500 (Eastern Standard Time)","679978","Match,No Match","","null","","","","","","<div class='trialBorder'><div class='vertical-center'><img src='img/fixation2_sml.jpg'</img></div></div>","null","DELAY","","","","","","","","","","",""
"html-keyboard-response","68","272777","0.0-7.0-4.6","58016c9f551314000145af58","bdp_wmem","Fri Mar 10 2023 15:19:18 GMT-0500 (Eastern Standard Time)","679978","Match,No Match","","2560","","","","","","<div class='trialBorder'><div class='targDiv'><div class='tc'><img class='introPic' src='trustrating_stim/white_mw012.bmp'><br><font color='green'><strong>Share</strong></font></div></div><div class='respDiv'><div class='respDivL'>Match<br>(e)</div><div class='respDivR'>No Match<br>(i)</div></div></div>","i","TARGET","2","trustrating_stim/white_mw012.bmp,trustrating_stim/white_mw085.bmp","1,0","Match","e","3000","trustrating_stim/white_mw012.bmp","green","Share","REAL","0"
"html-keyboard-response","69","273285","0.0-7.0-5.6","58016c9f551314000145af58","bdp_wmem","Fri Mar 10 2023 15:19:18 GMT-0500 (Eastern Standard Time)","679978","Match,No Match","","null","","","","","","<div class='trialBorder'><div class='vertical-center'><img src='img/error.jpg'></div><div class='respDiv'><div class='respDivL'>Match<br>(e)</div><div class='respDivR'><font style='color:orange'>No Match<br>(i)</font></div></div></div>","null","FEEDBACK","","","","","","","","","","",""
"html-keyboard-response","70","273791","0.0-7.0-1.7","58016c9f551314000145af58","bdp_wmem","Fri Mar 10 2023 15:19:18 GMT-0500 (Eastern Standard Time)","679978","Match,No Match","","null","","","","","","<div class='trialBorder'><div class='vertical-center'><img src='img/fixation2_sml.jpg'</img></div></div>","null","FIX","","","","","","","","","","",""
"html-keyboard-response","71","275296","0.0-7.0-2.7","58016c9f551314000145af58","bdp_wmem","Fri Mar 10 2023 15:19:18 GMT-0500 (Eastern Standard Time)","679978","Match,No Match","","null","","","","","","<div class='trialBorder'><div class='vertical-center'><img style='vertical-align:center; align:center' src='img/fixation2_sml.jpg'></div><div class='arrayDiv1'><div class='tc'><img class='introPic' src='trustrating_stim/white_mw091.bmp'><br><font color='red'><strong>Keep</strong></font></div></div></div>","null","ARRAY","1","trustrating_stim/white_mw091.bmp","0","Match","e","1500","","","","",""
"html-keyboard-response","72","279304","0.0-7.0-3.7","58016c9f551314000145af58","bdp_wmem","Fri Mar 10 2023 15:19:18 GMT-0500 (Eastern Standard Time)","679978","Match,No Match","","null","","","","","","<div class='trialBorder'><div class='vertical-center'><img src='img/fixation2_sml.jpg'</img></div></div>","null","DELAY","","","","","","","","","","",""
"html-keyboard-response","73","282135","0.0-7.0-4.7","58016c9f551314000145af58","bdp_wmem","Fri Mar 10 2023 15:19:18 GMT-0500 (Eastern Standard Time)","679978","Match,No Match","","2830","","","","","","<div class='trialBorder'><div class='targDiv'><div class='tc'><img class='introPic' src='trustrating_stim/white_mw091.bmp'><br><font color='red'><strong>Keep</strong></font></div></div><div class='respDiv'><div class='respDivL'>Match<br>(e)</div><div class='respDivR'>No Match<br>(i)</div></div></div>","e","TARGET","1","trustrating_stim/white_mw091.bmp","0","Match","e","1500","trustrating_stim/white_mw091.bmp","red","Keep","REAL","1"
"html-keyboard-response","74","282639","0.0-7.0-5.7","58016c9f551314000145af58","bdp_wmem","Fri Mar 10 2023 15:19:18 GMT-0500 (Eastern Standard Time)","679978","Match,No Match","","null","","","","","","<div class='trialBorder'><div class='vertical-center'><img src='img/correct.jpg'></div><div class='respDiv'><div class='respDivL'><font style='color:orange'>Match<br>(e)</font></div><div class='respDivR'>No Match<br>(i)</div></div></div>","null","FEEDBACK","","","","","","","","","","",""
"html-keyboard-response","75","283143","0.0-7.0-1.8","58016c9f551314000145af58","bdp_wmem","Fri Mar 10 2023 15:19:18 GMT-0500 (Eastern Standard Time)","679978","Match,No Match","","null","","","","","","<div class='trialBorder'><div class='vertical-center'><img src='img/fixation2_sml.jpg'</img></div></div>","null","FIX","","","","","","","","","","",""
"html-keyboard-response","76","287647","0.0-7.0-2.8","58016c9f551314000145af58","bdp_wmem","Fri Mar 10 2023 15:19:18 GMT-0500 (Eastern Standard Time)","679978","Match,No Match","","null","","","","","","<div class='trialBorder'><div class='vertical-center'><img style='vertical-align:center; align:center' src='img/fixation2_sml.jpg'></div><div class='arrayDiv3'><div class='tl'><img class='introPic' src='trustrating_stim/white_mw042.bmp'><br><font color='red'><strong>Keep</strong></font></div><div class='tc'><img class='introPic' src='trustrating_stim/white_mw013.bmp'><br><font color='red'><strong>Keep</strong></font></div><div class='tr'><img class='introPic' src='trustrating_stim/white_mw012.bmp'><br><font color='green'><strong>Share</strong></font></div></div></div>","null","ARRAY","3","trustrating_stim/white_mw042.bmp,trustrating_stim/white_mw013.bmp,trustrating_stim/white_mw012.bmp","0,0,1","Match","e","4500","","","","",""
"html-keyboard-response","77","291655","0.0-7.0-3.8","58016c9f551314000145af58","bdp_wmem","Fri Mar 10 2023 15:19:18 GMT-0500 (Eastern Standard Time)","679978","Match,No Match","","null","","","","","","<div class='trialBorder'><div class='vertical-center'><img src='img/fixation2_sml.jpg'</img></div></div>","null","DELAY","","","","","","","","","","",""
"html-keyboard-response","78","293425","0.0-7.0-4.8","58016c9f551314000145af58","bdp_wmem","Fri Mar 10 2023 15:19:18 GMT-0500 (Eastern Standard Time)","679978","Match,No Match","","1769","","","","","","<div class='trialBorder'><div class='targDiv'><div class='tc'><img class='introPic' src='trustrating_stim/white_mw012.bmp'><br><font color='green'><strong>Share</strong></font></div></div><div class='respDiv'><div class='respDivL'>Match<br>(e)</div><div class='respDivR'>No Match<br>(i)</div></div></div>","i","TARGET","3","trustrating_stim/white_mw042.bmp,trustrating_stim/white_mw013.bmp,trustrating_stim/white_mw012.bmp","0,0,1","Match","e","4500","trustrating_stim/white_mw012.bmp","green","Share","REAL","0"
"html-keyboard-response","79","293927","0.0-7.0-5.8","58016c9f551314000145af58","bdp_wmem","Fri Mar 10 2023 15:19:18 GMT-0500 (Eastern Standard Time)","679978","Match,No Match","","null","","","","","","<div class='trialBorder'><div class='vertical-center'><img src='img/error.jpg'></div><div class='respDiv'><div class='respDivL'>Match<br>(e)</div><div class='respDivR'><font style='color:orange'>No Match<br>(i)</font></div></div></div>","null","FEEDBACK","","","","","","","","","","",""
"html-keyboard-response","80","294431","0.0-7.0-1.9","58016c9f551314000145af58","bdp_wmem","Fri Mar 10 2023 15:19:18 GMT-0500 (Eastern Standard Time)","679978","Match,No Match","","null","","","","","","<div class='trialBorder'><div class='vertical-center'><img src='img/fixation2_sml.jpg'</img></div></div>","null","FIX","","","","","","","","","","",""
"html-keyboard-response","81","297439","0.0-7.0-2.9","58016c9f551314000145af58","bdp_wmem","Fri Mar 10 2023 15:19:18 GMT-0500 (Eastern Standard Time)","679978","Match,No Match","","null","","","","","","<div class='trialBorder'><div class='vertical-center'><img style='vertical-align:center; align:center' src='img/fixation2_sml.jpg'></div><div class='arrayDiv2'><div class='tl'><img class='introPic' src='trustrating_stim/white_mw012.bmp'><br><font color='red'><strong>Keep</strong></font></div><div class='tr'><img class='introPic' src='trustrating_stim/white_mw070.bmp'><br><font color='green'><strong>Share</strong></font></div></div></div>","null","ARRAY","2","trustrating_stim/white_mw012.bmp,trustrating_stim/white_mw070.bmp","0,1","Match","e","3000","","","","",""
"html-keyboard-response","82","301448","0.0-7.0-3.9","58016c9f551314000145af58","bdp_wmem","Fri Mar 10 2023 15:19:18 GMT-0500 (Eastern Standard Time)","679978","Match,No Match","","null","","","","","","<div class='trialBorder'><div class='vertical-center'><img src='img/fixation2_sml.jpg'</img></div></div>","null","DELAY","","","","","","","","","","",""
"html-keyboard-response","83","304177","0.0-7.0-4.9","58016c9f551314000145af58","bdp_wmem","Fri Mar 10 2023 15:19:18 GMT-0500 (Eastern Standard Time)","679978","Match,No Match","","2727","","","","","","<div class='trialBorder'><div class='targDiv'><div class='tc'><img class='introPic' src='trustrating_stim/white_mw012.bmp'><br><font color='red'><strong>Keep</strong></font></div></div><div class='respDiv'><div class='respDivL'>Match<br>(e)</div><div class='respDivR'>No Match<br>(i)</div></div></div>","i","TARGET","2","trustrating_stim/white_mw012.bmp,trustrating_stim/white_mw070.bmp","0,1","Match","e","3000","trustrating_stim/white_mw012.bmp","red","Keep","REAL","0"
"html-keyboard-response","84","304680","0.0-7.0-5.9","58016c9f551314000145af58","bdp_wmem","Fri Mar 10 2023 15:19:18 GMT-0500 (Eastern Standard Time)","679978","Match,No Match","","null","","","","","","<div class='trialBorder'><div class='vertical-center'><img src='img/error.jpg'></div><div class='respDiv'><div class='respDivL'>Match<br>(e)</div><div class='respDivR'><font style='color:orange'>No Match<br>(i)</font></div></div></div>","null","FEEDBACK","","","","","","","","","","",""
"html-keyboard-response","85","305184","0.0-7.0-1.10","58016c9f551314000145af58","bdp_wmem","Fri Mar 10 2023 15:19:18 GMT-0500 (Eastern Standard Time)","679978","Match,No Match","","null","","","","","","<div class='trialBorder'><div class='vertical-center'><img src='img/fixation2_sml.jpg'</img></div></div>","null","FIX","","","","","","","","","","",""
"html-keyboard-response","86","309688","0.0-7.0-2.10","58016c9f551314000145af58","bdp_wmem","Fri Mar 10 2023 15:19:18 GMT-0500 (Eastern Standard Time)","679978","Match,No Match","","null","","","","","","<div class='trialBorder'><div class='vertical-center'><img style='vertical-align:center; align:center' src='img/fixation2_sml.jpg'></div><div class='arrayDiv3'><div class='tl'><img class='introPic' src='trustrating_stim/white_mw040.bmp'><br><font color='red'><strong>Keep</strong></font></div><div class='tc'><img class='introPic' src='trustrating_stim/white_mw078.bmp'><br><font color='green'><strong>Share</strong></font></div><div class='tr'><img class='introPic' src='trustrating_stim/white_mw085.bmp'><br><font color='green'><strong>Share</strong></font></div></div></div>","null","ARRAY","3","trustrating_stim/white_mw040.bmp,trustrating_stim/white_mw078.bmp,trustrating_stim/white_mw085.bmp","0,1,1","Match","e","4500","","","","",""
"html-keyboard-response","87","313695","0.0-7.0-3.10","58016c9f551314000145af58","bdp_wmem","Fri Mar 10 2023 15:19:18 GMT-0500 (Eastern Standard Time)","679978","Match,No Match","","null","","","","","","<div class='trialBorder'><div class='vertical-center'><img src='img/fixation2_sml.jpg'</img></div></div>","null","DELAY","","","","","","","","","","",""
"html-keyboard-response","88","315706","0.0-7.0-4.10","58016c9f551314000145af58","bdp_wmem","Fri Mar 10 2023 15:19:18 GMT-0500 (Eastern Standard Time)","679978","Match,No Match","","2009","","","","","","<div class='trialBorder'><div class='targDiv'><div class='tc'><img class='introPic' src='trustrating_stim/white_mw040.bmp'><br><font color='red'><strong>Keep</strong></font></div></div><div class='respDiv'><div class='respDivL'>Match<br>(e)</div><div class='respDivR'>No Match<br>(i)</div></div></div>","e","TARGET","3","trustrating_stim/white_mw040.bmp,trustrating_stim/white_mw078.bmp,trustrating_stim/white_mw085.bmp","0,1,1","Match","e","4500","trustrating_stim/white_mw040.bmp","red","Keep","REAL","1"
"html-keyboard-response","89","316209","0.0-7.0-5.10","58016c9f551314000145af58","bdp_wmem","Fri Mar 10 2023 15:19:18 GMT-0500 (Eastern Standard Time)","679978","Match,No Match","","null","","","","","","<div class='trialBorder'><div class='vertical-center'><img src='img/correct.jpg'></div><div class='respDiv'><div class='respDivL'><font style='color:orange'>Match<br>(e)</font></div><div class='respDivR'>No Match<br>(i)</div></div></div>","null","FEEDBACK","","","","","","","","","","",""
"html-keyboard-response","90","316713","0.0-7.0-1.11","58016c9f551314000145af58","bdp_wmem","Fri Mar 10 2023 15:19:18 GMT-0500 (Eastern Standard Time)","679978","Match,No Match","","null","","","","","","<div class='trialBorder'><div class='vertical-center'><img src='img/fixation2_sml.jpg'</img></div></div>","null","FIX","","","","","","","","","","",""
"html-keyboard-response","91","319721","0.0-7.0-2.11","58016c9f551314000145af58","bdp_wmem","Fri Mar 10 2023 15:19:18 GMT-0500 (Eastern Standard Time)","679978","Match,No Match","","null","","","","","","<div class='trialBorder'><div class='vertical-center'><img style='vertical-align:center; align:center' src='img/fixation2_sml.jpg'></div><div class='arrayDiv2'><div class='tl'><img class='introPic' src='trustrating_stim/white_mw013.bmp'><br><font color='green'><strong>Share</strong></font></div><div class='tr'><img class='introPic' src='trustrating_stim/white_mw085.bmp'><br><font color='red'><strong>Keep</strong></font></div></div></div>","null","ARRAY","2","trustrating_stim/white_mw013.bmp,trustrating_stim/white_mw085.bmp","1,0","noMatchOutcome","i","3000","","","","",""
"html-keyboard-response","92","323745","0.0-7.0-3.11","58016c9f551314000145af58","bdp_wmem","Fri Mar 10 2023 15:19:18 GMT-0500 (Eastern Standard Time)","679978","Match,No Match","","null","","","","","","<div class='trialBorder'><div class='vertical-center'><img src='img/fixation2_sml.jpg'</img></div></div>","null","DELAY","","","","","","","","","","",""
"html-keyboard-response","93","325543","0.0-7.0-4.11","58016c9f551314000145af58","bdp_wmem","Fri Mar 10 2023 15:19:18 GMT-0500 (Eastern Standard Time)","679978","Match,No Match","","1795","","","","","","<div class='trialBorder'><div class='targDiv'><div class='tc'><img class='introPic' src='trustrating_stim/white_mw013.bmp'><br><font color='red'><strong>Keep</strong></font></div></div><div class='respDiv'><div class='respDivL'>Match<br>(e)</div><div class='respDivR'>No Match<br>(i)</div></div></div>","i","TARGET","2","trustrating_stim/white_mw013.bmp,trustrating_stim/white_mw085.bmp","1,0","noMatchOutcome","i","3000","trustrating_stim/white_mw013.bmp","red","Keep","REAL","1"
"html-keyboard-response","94","326049","0.0-7.0-5.11","58016c9f551314000145af58","bdp_wmem","Fri Mar 10 2023 15:19:18 GMT-0500 (Eastern Standard Time)","679978","Match,No Match","","null","","","","","","<div class='trialBorder'><div class='vertical-center'><img src='img/correct.jpg'></div><div class='respDiv'><div class='respDivL'>Match<br>(e)</div><div class='respDivR'><font style='color:orange'>No Match<br>(i)</font></div></div></div>","null","FEEDBACK","","","","","","","","","","",""
"html-keyboard-response","95","326553","0.0-7.0-1.12","58016c9f551314000145af58","bdp_wmem","Fri Mar 10 2023 15:19:18 GMT-0500 (Eastern Standard Time)","679978","Match,No Match","","null","","","","","","<div class='trialBorder'><div class='vertical-center'><img src='img/fixation2_sml.jpg'</img></div></div>","null","FIX","","","","","","","","","","",""
"html-keyboard-response","96","331057","0.0-7.0-2.12","58016c9f551314000145af58","bdp_wmem","Fri Mar 10 2023 15:19:18 GMT-0500 (Eastern Standard Time)","679978","Match,No Match","","null","","","","","","<div class='trialBorder'><div class='vertical-center'><img style='vertical-align:center; align:center' src='img/fixation2_sml.jpg'></div><div class='arrayDiv3'><div class='tl'><img class='introPic' src='trustrating_stim/white_mw078.bmp'><br><font color='green'><strong>Share</strong></font></div><div class='tc'><img class='introPic' src='trustrating_stim/white_mw092.bmp'><br><font color='red'><strong>Keep</strong></font></div><div class='tr'><img class='introPic' src='trustrating_stim/white_mw091.bmp'><br><font color='green'><strong>Share</strong></font></div></div></div>","null","ARRAY","3","trustrating_stim/white_mw078.bmp,trustrating_stim/white_mw092.bmp,trustrating_stim/white_mw091.bmp","1,0,1","Match","e","4500","","","","",""
"html-keyboard-response","97","335064","0.0-7.0-3.12","58016c9f551314000145af58","bdp_wmem","Fri Mar 10 2023 15:19:18 GMT-0500 (Eastern Standard Time)","679978","Match,No Match","","null","","","","","","<div class='trialBorder'><div class='vertical-center'><img src='img/fixation2_sml.jpg'</img></div></div>","null","DELAY","","","","","","","","","","",""
"html-keyboard-response","98","337769","0.0-7.0-4.12","58016c9f551314000145af58","bdp_wmem","Fri Mar 10 2023 15:19:18 GMT-0500 (Eastern Standard Time)","679978","Match,No Match","","2703","","","","","","<div class='trialBorder'><div class='targDiv'><div class='tc'><img class='introPic' src='trustrating_stim/white_mw092.bmp'><br><font color='red'><strong>Keep</strong></font></div></div><div class='respDiv'><div class='respDivL'>Match<br>(e)</div><div class='respDivR'>No Match<br>(i)</div></div></div>","e","TARGET","3","trustrating_stim/white_mw078.bmp,trustrating_stim/white_mw092.bmp,trustrating_stim/white_mw091.bmp","1,0,1","Match","e","4500","trustrating_stim/white_mw092.bmp","red","Keep","REAL","1"
"html-keyboard-response","99","338272","0.0-7.0-5.12","58016c9f551314000145af58","bdp_wmem","Fri Mar 10 2023 15:19:18 GMT-0500 (Eastern Standard Time)","679978","Match,No Match","","null","","","","","","<div class='trialBorder'><div class='vertical-center'><img src='img/correct.jpg'></div><div class='respDiv'><div class='respDivL'><font style='color:orange'>Match<br>(e)</font></div><div class='respDivR'>No Match<br>(i)</div></div></div>","null","FEEDBACK","","","","","","","","","","",""
"html-keyboard-response","100","338776","0.0-7.0-1.13","58016c9f551314000145af58","bdp_wmem","Fri Mar 10 2023 15:19:18 GMT-0500 (Eastern Standard Time)","679978","Match,No Match","","null","","","","","","<div class='trialBorder'><div class='vertical-center'><img src='img/fixation2_sml.jpg'</img></div></div>","null","FIX","","","","","","","","","","",""
"html-keyboard-response","101","340280","0.0-7.0-2.13","58016c9f551314000145af58","bdp_wmem","Fri Mar 10 2023 15:19:18 GMT-0500 (Eastern Standard Time)","679978","Match,No Match","","null","","","","","","<div class='trialBorder'><div class='vertical-center'><img style='vertical-align:center; align:center' src='img/fixation2_sml.jpg'></div><div class='arrayDiv1'><div class='tc'><img class='introPic' src='trustrating_stim/white_mw070.bmp'><br><font color='green'><strong>Share</strong></font></div></div></div>","null","ARRAY","1","trustrating_stim/white_mw070.bmp","1","noMatchOutcome","i","1500","","","","",""
"html-keyboard-response","102","344289","0.0-7.0-3.13","58016c9f551314000145af58","bdp_wmem","Fri Mar 10 2023 15:19:18 GMT-0500 (Eastern Standard Time)","679978","Match,No Match","","null","","","","","","<div class='trialBorder'><div class='vertical-center'><img src='img/fixation2_sml.jpg'</img></div></div>","null","DELAY","","","","","","","","","","",""
"html-keyboard-response","103","346055","0.0-7.0-4.13","58016c9f551314000145af58","bdp_wmem","Fri Mar 10 2023 15:19:18 GMT-0500 (Eastern Standard Time)","679978","Match,No Match","","1763","","","","","","<div class='trialBorder'><div class='targDiv'><div class='tc'><img class='introPic' src='trustrating_stim/white_mw070.bmp'><br><font color='red'><strong>Keep</strong></font></div></div><div class='respDiv'><div class='respDivL'>Match<br>(e)</div><div class='respDivR'>No Match<br>(i)</div></div></div>","e","TARGET","1","trustrating_stim/white_mw070.bmp","1","noMatchOutcome","i","1500","trustrating_stim/white_mw070.bmp","red","Keep","REAL","0"
"html-keyboard-response","104","346561","0.0-7.0-5.13","58016c9f551314000145af58","bdp_wmem","Fri Mar 10 2023 15:19:18 GMT-0500 (Eastern Standard Time)","679978","Match,No Match","","null","","","","","","<div class='trialBorder'><div class='vertical-center'><img src='img/error.jpg'></div><div class='respDiv'><div class='respDivL'><font style='color:orange'>Match<br>(e)</font></div><div class='respDivR'>No Match<br>(i)</div></div></div>","null","FEEDBACK","","","","","","","","","","",""
"html-keyboard-response","105","347065","0.0-7.0-1.14","58016c9f551314000145af58","bdp_wmem","Fri Mar 10 2023 15:19:18 GMT-0500 (Eastern Standard Time)","679978","Match,No Match","","null","","","","","","<div class='trialBorder'><div class='vertical-center'><img src='img/fixation2_sml.jpg'</img></div></div>","null","FIX","","","","","","","","","","",""
"html-keyboard-response","106","350073","0.0-7.0-2.14","58016c9f551314000145af58","bdp_wmem","Fri Mar 10 2023 15:19:18 GMT-0500 (Eastern Standard Time)","679978","Match,No Match","","null","","","","","","<div class='trialBorder'><div class='vertical-center'><img style='vertical-align:center; align:center' src='img/fixation2_sml.jpg'></div><div class='arrayDiv2'><div class='tl'><img class='introPic' src='trustrating_stim/white_mw012.bmp'><br><font color='red'><strong>Keep</strong></font></div><div class='tr'><img class='introPic' src='trustrating_stim/white_mw070.bmp'><br><font color='green'><strong>Share</strong></font></div></div></div>","null","ARRAY","2","trustrating_stim/white_mw012.bmp,trustrating_stim/white_mw070.bmp","0,1","noMatchFace","i","3000","","","","",""
"html-keyboard-response","107","354081","0.0-7.0-3.14","58016c9f551314000145af58","bdp_wmem","Fri Mar 10 2023 15:19:18 GMT-0500 (Eastern Standard Time)","679978","Match,No Match","","null","","","","","","<div class='trialBorder'><div class='vertical-center'><img src='img/fixation2_sml.jpg'</img></div></div>","null","DELAY","","","","","","","","","","",""
"html-keyboard-response","108","355401","0.0-7.0-4.14","58016c9f551314000145af58","bdp_wmem","Fri Mar 10 2023 15:19:18 GMT-0500 (Eastern Standard Time)","679978","Match,No Match","","1319","","","","","","<div class='trialBorder'><div class='targDiv'><div class='tc'><img class='introPic' src='trustrating_stim/white_mw013.bmp'><br><font color='red'><strong>Keep</strong></font></div></div><div class='respDiv'><div class='respDivL'>Match<br>(e)</div><div class='respDivR'>No Match<br>(i)</div></div></div>","i","TARGET","2","trustrating_stim/white_mw012.bmp,trustrating_stim/white_mw070.bmp","0,1","noMatchFace","i","3000","trustrating_stim/white_mw013.bmp","red","Keep","REAL","1"
"html-keyboard-response","109","355905","0.0-7.0-5.14","58016c9f551314000145af58","bdp_wmem","Fri Mar 10 2023 15:19:18 GMT-0500 (Eastern Standard Time)","679978","Match,No Match","","null","","","","","","<div class='trialBorder'><div class='vertical-center'><img src='img/correct.jpg'></div><div class='respDiv'><div class='respDivL'>Match<br>(e)</div><div class='respDivR'><font style='color:orange'>No Match<br>(i)</font></div></div></div>","null","FEEDBACK","","","","","","","","","","",""
"html-keyboard-response","110","356409","0.0-7.0-1.15","58016c9f551314000145af58","bdp_wmem","Fri Mar 10 2023 15:19:18 GMT-0500 (Eastern Standard Time)","679978","Match,No Match","","null","","","","","","<div class='trialBorder'><div class='vertical-center'><img src='img/fixation2_sml.jpg'</img></div></div>","null","FIX","","","","","","","","","","",""
"html-keyboard-response","111","357913","0.0-7.0-2.15","58016c9f551314000145af58","bdp_wmem","Fri Mar 10 2023 15:19:18 GMT-0500 (Eastern Standard Time)","679978","Match,No Match","","null","","","","","","<div class='trialBorder'><div class='vertical-center'><img style='vertical-align:center; align:center' src='img/fixation2_sml.jpg'></div><div class='arrayDiv1'><div class='tc'><img class='introPic' src='trustrating_stim/white_mw091.bmp'><br><font color='red'><strong>Keep</strong></font></div></div></div>","null","ARRAY","1","trustrating_stim/white_mw091.bmp","0","Match","e","1500","","","","",""
"html-keyboard-response","112","361921","0.0-7.0-3.15","58016c9f551314000145af58","bdp_wmem","Fri Mar 10 2023 15:19:18 GMT-0500 (Eastern Standard Time)","679978","Match,No Match","","null","","","","","","<div class='trialBorder'><div class='vertical-center'><img src='img/fixation2_sml.jpg'</img></div></div>","null","DELAY","","","","","","","","","","",""
"html-keyboard-response","113","363438","0.0-7.0-4.15","58016c9f551314000145af58","bdp_wmem","Fri Mar 10 2023 15:19:18 GMT-0500 (Eastern Standard Time)","679978","Match,No Match","","1516","","","","","","<div class='trialBorder'><div class='targDiv'><div class='tc'><img class='introPic' src='trustrating_stim/white_mw091.bmp'><br><font color='red'><strong>Keep</strong></font></div></div><div class='respDiv'><div class='respDivL'>Match<br>(e)</div><div class='respDivR'>No Match<br>(i)</div></div></div>","i","TARGET","1","trustrating_stim/white_mw091.bmp","0","Match","e","1500","trustrating_stim/white_mw091.bmp","red","Keep","REAL","0"
"html-keyboard-response","114","363945","0.0-7.0-5.15","58016c9f551314000145af58","bdp_wmem","Fri Mar 10 2023 15:19:18 GMT-0500 (Eastern Standard Time)","679978","Match,No Match","","null","","","","","","<div class='trialBorder'><div class='vertical-center'><img src='img/error.jpg'></div><div class='respDiv'><div class='respDivL'>Match<br>(e)</div><div class='respDivR'><font style='color:orange'>No Match<br>(i)</font></div></div></div>","null","FEEDBACK","","","","","","","","","","",""
"html-keyboard-response","115","364449","0.0-7.0-1.16","58016c9f551314000145af58","bdp_wmem","Fri Mar 10 2023 15:19:18 GMT-0500 (Eastern Standard Time)","679978","Match,No Match","","null","","","","","","<div class='trialBorder'><div class='vertical-center'><img src='img/fixation2_sml.jpg'</img></div></div>","null","FIX","","","","","","","","","","",""
"html-keyboard-response","116","367457","0.0-7.0-2.16","58016c9f551314000145af58","bdp_wmem","Fri Mar 10 2023 15:19:18 GMT-0500 (Eastern Standard Time)","679978","Match,No Match","","null","","","","","","<div class='trialBorder'><div class='vertical-center'><img style='vertical-align:center; align:center' src='img/fixation2_sml.jpg'></div><div class='arrayDiv2'><div class='tl'><img class='introPic' src='trustrating_stim/white_mw012.bmp'><br><font color='red'><strong>Keep</strong></font></div><div class='tr'><img class='introPic' src='trustrating_stim/white_mw040.bmp'><br><font color='green'><strong>Share</strong></font></div></div></div>","null","ARRAY","2","trustrating_stim/white_mw012.bmp,trustrating_stim/white_mw040.bmp","0,1","noMatchOutcome","i","3000","","","","",""
"html-keyboard-response","117","371515","0.0-7.0-3.16","58016c9f551314000145af58","bdp_wmem","Fri Mar 10 2023 15:19:18 GMT-0500 (Eastern Standard Time)","679978","Match,No Match","","null","","","","","","<div class='trialBorder'><div class='vertical-center'><img src='img/fixation2_sml.jpg'</img></div></div>","null","DELAY","","","","","","","","","","",""
"html-keyboard-response","118","373001","0.0-7.0-4.16","58016c9f551314000145af58","bdp_wmem","Fri Mar 10 2023 15:19:18 GMT-0500 (Eastern Standard Time)","679978","Match,No Match","","1484","","","","","","<div class='trialBorder'><div class='targDiv'><div class='tc'><img class='introPic' src='trustrating_stim/white_mw012.bmp'><br><font color='green'><strong>Share</strong></font></div></div><div class='respDiv'><div class='respDivL'>Match<br>(e)</div><div class='respDivR'>No Match<br>(i)</div></div></div>","i","TARGET","2","trustrating_stim/white_mw012.bmp,trustrating_stim/white_mw040.bmp","0,1","noMatchOutcome","i","3000","trustrating_stim/white_mw012.bmp","green","Share","REAL","1"
"html-keyboard-response","119","373505","0.0-7.0-5.16","58016c9f551314000145af58","bdp_wmem","Fri Mar 10 2023 15:19:18 GMT-0500 (Eastern Standard Time)","679978","Match,No Match","","null","","","","","","<div class='trialBorder'><div class='vertical-center'><img src='img/correct.jpg'></div><div class='respDiv'><div class='respDivL'>Match<br>(e)</div><div class='respDivR'><font style='color:orange'>No Match<br>(i)</font></div></div></div>","null","FEEDBACK","","","","","","","","","","",""
"html-keyboard-response","120","374008","0.0-7.0-1.17","58016c9f551314000145af58","bdp_wmem","Fri Mar 10 2023 15:19:18 GMT-0500 (Eastern Standard Time)","679978","Match,No Match","","null","","","","","","<div class='trialBorder'><div class='vertical-center'><img src='img/fixation2_sml.jpg'</img></div></div>","null","FIX","","","","","","","","","","",""
"html-keyboard-response","121","378514","0.0-7.0-2.17","58016c9f551314000145af58","bdp_wmem","Fri Mar 10 2023 15:19:18 GMT-0500 (Eastern Standard Time)","679978","Match,No Match","","null","","","","","","<div class='trialBorder'><div class='vertical-center'><img style='vertical-align:center; align:center' src='img/fixation2_sml.jpg'></div><div class='arrayDiv3'><div class='tl'><img class='introPic' src='trustrating_stim/white_mw038.bmp'><br><font color='red'><strong>Keep</strong></font></div><div class='tc'><img class='introPic' src='trustrating_stim/white_mw070.bmp'><br><font color='green'><strong>Share</strong></font></div><div class='tr'><img class='introPic' src='trustrating_stim/white_mw013.bmp'><br><font color='green'><strong>Share</strong></font></div></div></div>","null","ARRAY","3","trustrating_stim/white_mw038.bmp,trustrating_stim/white_mw070.bmp,trustrating_stim/white_mw013.bmp","0,1,1","Match","e","4500","","","","",""
"html-keyboard-response","122","382522","0.0-7.0-3.17","58016c9f551314000145af58","bdp_wmem","Fri Mar 10 2023 15:19:18 GMT-0500 (Eastern Standard Time)","679978","Match,No Match","","null","","","","","","<div class='trialBorder'><div class='vertical-center'><img src='img/fixation2_sml.jpg'</img></div></div>","null","DELAY","","","","","","","","","","",""
"html-keyboard-response","123","384730","0.0-7.0-4.17","58016c9f551314000145af58","bdp_wmem","Fri Mar 10 2023 15:19:18 GMT-0500 (Eastern Standard Time)","679978","Match,No Match","","2206","","","","","","<div class='trialBorder'><div class='targDiv'><div class='tc'><img class='introPic' src='trustrating_stim/white_mw070.bmp'><br><font color='green'><strong>Share</strong></font></div></div><div class='respDiv'><div class='respDivL'>Match<br>(e)</div><div class='respDivR'>No Match<br>(i)</div></div></div>","e","TARGET","3","trustrating_stim/white_mw038.bmp,trustrating_stim/white_mw070.bmp,trustrating_stim/white_mw013.bmp","0,1,1","Match","e","4500","trustrating_stim/white_mw070.bmp","green","Share","REAL","1"
"html-keyboard-response","124","385235","0.0-7.0-5.17","58016c9f551314000145af58","bdp_wmem","Fri Mar 10 2023 15:19:18 GMT-0500 (Eastern Standard Time)","679978","Match,No Match","","null","","","","","","<div class='trialBorder'><div class='vertical-center'><img src='img/correct.jpg'></div><div class='respDiv'><div class='respDivL'><font style='color:orange'>Match<br>(e)</font></div><div class='respDivR'>No Match<br>(i)</div></div></div>","null","FEEDBACK","","","","","","","","","","",""
"html-keyboard-response","125","385739","0.0-7.0-1.18","58016c9f551314000145af58","bdp_wmem","Fri Mar 10 2023 15:19:18 GMT-0500 (Eastern Standard Time)","679978","Match,No Match","","null","","","","","","<div class='trialBorder'><div class='vertical-center'><img src='img/fixation2_sml.jpg'</img></div></div>","null","FIX","","","","","","","","","","",""
"html-keyboard-response","126","387243","0.0-7.0-2.18","58016c9f551314000145af58","bdp_wmem","Fri Mar 10 2023 15:19:18 GMT-0500 (Eastern Standard Time)","679978","Match,No Match","","null","","","","","","<div class='trialBorder'><div class='vertical-center'><img style='vertical-align:center; align:center' src='img/fixation2_sml.jpg'></div><div class='arrayDiv1'><div class='tc'><img class='introPic' src='trustrating_stim/white_mw092.bmp'><br><font color='green'><strong>Share</strong></font></div></div></div>","null","ARRAY","1","trustrating_stim/white_mw092.bmp","1","Match","e","1500","","","","",""
"html-keyboard-response","127","391250","0.0-7.0-3.18","58016c9f551314000145af58","bdp_wmem","Fri Mar 10 2023 15:19:18 GMT-0500 (Eastern Standard Time)","679978","Match,No Match","","null","","","","","","<div class='trialBorder'><div class='vertical-center'><img src='img/fixation2_sml.jpg'</img></div></div>","null","DELAY","","","","","","","","","","",""
"html-keyboard-response","128","393159","0.0-7.0-4.18","58016c9f551314000145af58","bdp_wmem","Fri Mar 10 2023 15:19:18 GMT-0500 (Eastern Standard Time)","679978","Match,No Match","","1907","","","","","","<div class='trialBorder'><div class='targDiv'><div class='tc'><img class='introPic' src='trustrating_stim/white_mw092.bmp'><br><font color='green'><strong>Share</strong></font></div></div><div class='respDiv'><div class='respDivL'>Match<br>(e)</div><div class='respDivR'>No Match<br>(i)</div></div></div>","i","TARGET","1","trustrating_stim/white_mw092.bmp","1","Match","e","1500","trustrating_stim/white_mw092.bmp","green","Share","REAL","0"
"html-keyboard-response","129","393666","0.0-7.0-5.18","58016c9f551314000145af58","bdp_wmem","Fri Mar 10 2023 15:19:18 GMT-0500 (Eastern Standard Time)","679978","Match,No Match","","null","","","","","","<div class='trialBorder'><div class='vertical-center'><img src='img/error.jpg'></div><div class='respDiv'><div class='respDivL'>Match<br>(e)</div><div class='respDivR'><font style='color:orange'>No Match<br>(i)</font></div></div></div>","null","FEEDBACK","","","","","","","","","","",""
"html-keyboard-response","130","394170","0.0-7.0-1.19","58016c9f551314000145af58","bdp_wmem","Fri Mar 10 2023 15:19:18 GMT-0500 (Eastern Standard Time)","679978","Match,No Match","","null","","","","","","<div class='trialBorder'><div class='vertical-center'><img src='img/fixation2_sml.jpg'</img></div></div>","null","FIX","","","","","","","","","","",""
"html-keyboard-response","131","398674","0.0-7.0-2.19","58016c9f551314000145af58","bdp_wmem","Fri Mar 10 2023 15:19:18 GMT-0500 (Eastern Standard Time)","679978","Match,No Match","","null","","","","","","<div class='trialBorder'><div class='vertical-center'><img style='vertical-align:center; align:center' src='img/fixation2_sml.jpg'></div><div class='arrayDiv3'><div class='tl'><img class='introPic' src='trustrating_stim/white_mw010.bmp'><br><font color='red'><strong>Keep</strong></font></div><div class='tc'><img class='introPic' src='trustrating_stim/white_mw092.bmp'><br><font color='green'><strong>Share</strong></font></div><div class='tr'><img class='introPic' src='trustrating_stim/white_mw012.bmp'><br><font color='red'><strong>Keep</strong></font></div></div></div>","null","ARRAY","3","trustrating_stim/white_mw010.bmp,trustrating_stim/white_mw092.bmp,trustrating_stim/white_mw012.bmp","0,1,0","Match","e","4500","","","","",""
"html-keyboard-response","132","402682","0.0-7.0-3.19","58016c9f551314000145af58","bdp_wmem","Fri Mar 10 2023 15:19:18 GMT-0500 (Eastern Standard Time)","679978","Match,No Match","","null","","","","","","<div class='trialBorder'><div class='vertical-center'><img src='img/fixation2_sml.jpg'</img></div></div>","null","DELAY","","","","","","","","","","",""
"html-keyboard-response","133","405257","0.0-7.0-4.19","58016c9f551314000145af58","bdp_wmem","Fri Mar 10 2023 15:19:18 GMT-0500 (Eastern Standard Time)","679978","Match,No Match","","2573","","","","","","<div class='trialBorder'><div class='targDiv'><div class='tc'><img class='introPic' src='trustrating_stim/white_mw010.bmp'><br><font color='red'><strong>Keep</strong></font></div></div><div class='respDiv'><div class='respDivL'>Match<br>(e)</div><div class='respDivR'>No Match<br>(i)</div></div></div>","e","TARGET","3","trustrating_stim/white_mw010.bmp,trustrating_stim/white_mw092.bmp,trustrating_stim/white_mw012.bmp","0,1,0","Match","e","4500","trustrating_stim/white_mw010.bmp","red","Keep","REAL","1"
"html-keyboard-response","134","405762","0.0-7.0-5.19","58016c9f551314000145af58","bdp_wmem","Fri Mar 10 2023 15:19:18 GMT-0500 (Eastern Standard Time)","679978","Match,No Match","","null","","","","","","<div class='trialBorder'><div class='vertical-center'><img src='img/correct.jpg'></div><div class='respDiv'><div class='respDivL'><font style='color:orange'>Match<br>(e)</font></div><div class='respDivR'>No Match<br>(i)</div></div></div>","null","FEEDBACK","","","","","","","","","","",""
"html-keyboard-response","135","406266","0.0-7.0-1.20","58016c9f551314000145af58","bdp_wmem","Fri Mar 10 2023 15:19:18 GMT-0500 (Eastern Standard Time)","679978","Match,No Match","","null","","","","","","<div class='trialBorder'><div class='vertical-center'><img src='img/fixation2_sml.jpg'</img></div></div>","null","FIX","","","","","","","","","","",""
"html-keyboard-response","136","407770","0.0-7.0-2.20","58016c9f551314000145af58","bdp_wmem","Fri Mar 10 2023 15:19:18 GMT-0500 (Eastern Standard Time)","679978","Match,No Match","","null","","","","","","<div class='trialBorder'><div class='vertical-center'><img style='vertical-align:center; align:center' src='img/fixation2_sml.jpg'></div><div class='arrayDiv1'><div class='tc'><img class='introPic' src='trustrating_stim/white_mw042.bmp'><br><font color='green'><strong>Share</strong></font></div></div></div>","null","ARRAY","1","trustrating_stim/white_mw042.bmp","1","Match","e","1500","","","","",""
"html-keyboard-response","137","411778","0.0-7.0-3.20","58016c9f551314000145af58","bdp_wmem","Fri Mar 10 2023 15:19:18 GMT-0500 (Eastern Standard Time)","679978","Match,No Match","","null","","","","","","<div class='trialBorder'><div class='vertical-center'><img src='img/fixation2_sml.jpg'</img></div></div>","null","DELAY","","","","","","","","","","",""
"html-keyboard-response","138","414175","0.0-7.0-4.20","58016c9f551314000145af58","bdp_wmem","Fri Mar 10 2023 15:19:18 GMT-0500 (Eastern Standard Time)","679978","Match,No Match","","2394","","","","","","<div class='trialBorder'><div class='targDiv'><div class='tc'><img class='introPic' src='trustrating_stim/white_mw042.bmp'><br><font color='green'><strong>Share</strong></font></div></div><div class='respDiv'><div class='respDivL'>Match<br>(e)</div><div class='respDivR'>No Match<br>(i)</div></div></div>","e","TARGET","1","trustrating_stim/white_mw042.bmp","1","Match","e","1500","trustrating_stim/white_mw042.bmp","green","Share","REAL","1"
"html-keyboard-response","139","414682","0.0-7.0-5.20","58016c9f551314000145af58","bdp_wmem","Fri Mar 10 2023 15:19:18 GMT-0500 (Eastern Standard Time)","679978","Match,No Match","","null","","","","","","<div class='trialBorder'><div class='vertical-center'><img src='img/correct.jpg'></div><div class='respDiv'><div class='respDivL'><font style='color:orange'>Match<br>(e)</font></div><div class='respDivR'>No Match<br>(i)</div></div></div>","null","FEEDBACK","","","","","","","","","","",""
"html-keyboard-response","140","415239","0.0-7.0-1.21","58016c9f551314000145af58","bdp_wmem","Fri Mar 10 2023 15:19:18 GMT-0500 (Eastern Standard Time)","679978","Match,No Match","","null","","","","","","<div class='trialBorder'><div class='vertical-center'><img src='img/fixation2_sml.jpg'</img></div></div>","null","FIX","","","","","","","","","","",""
"html-keyboard-response","141","416746","0.0-7.0-2.21","58016c9f551314000145af58","bdp_wmem","Fri Mar 10 2023 15:19:18 GMT-0500 (Eastern Standard Time)","679978","Match,No Match","","null","","","","","","<div class='trialBorder'><div class='vertical-center'><img style='vertical-align:center; align:center' src='img/fixation2_sml.jpg'></div><div class='arrayDiv1'><div class='tc'><img class='introPic' src='trustrating_stim/white_mw070.bmp'><br><font color='red'><strong>Keep</strong></font></div></div></div>","null","ARRAY","1","trustrating_stim/white_mw070.bmp","0","noMatchFace","i","1500","","","","",""
"html-keyboard-response","142","420754","0.0-7.0-3.21","58016c9f551314000145af58","bdp_wmem","Fri Mar 10 2023 15:19:18 GMT-0500 (Eastern Standard Time)","679978","Match,No Match","","null","","","","","","<div class='trialBorder'><div class='vertical-center'><img src='img/fixation2_sml.jpg'</img></div></div>","null","DELAY","","","","","","","","","","",""
"html-keyboard-response","143","421961","0.0-7.0-4.21","58016c9f551314000145af58","bdp_wmem","Fri Mar 10 2023 15:19:18 GMT-0500 (Eastern Standard Time)","679978","Match,No Match","","1205","","","","","","<div class='trialBorder'><div class='targDiv'><div class='tc'><img class='introPic' src='trustrating_stim/white_mw010.bmp'><br><font color='red'><strong>Keep</strong></font></div></div><div class='respDiv'><div class='respDivL'>Match<br>(e)</div><div class='respDivR'>No Match<br>(i)</div></div></div>","i","TARGET","1","trustrating_stim/white_mw070.bmp","0","noMatchFace","i","1500","trustrating_stim/white_mw010.bmp","red","Keep","REAL","1"
"html-keyboard-response","144","422466","0.0-7.0-5.21","58016c9f551314000145af58","bdp_wmem","Fri Mar 10 2023 15:19:18 GMT-0500 (Eastern Standard Time)","679978","Match,No Match","","null","","","","","","<div class='trialBorder'><div class='vertical-center'><img src='img/correct.jpg'></div><div class='respDiv'><div class='respDivL'>Match<br>(e)</div><div class='respDivR'><font style='color:orange'>No Match<br>(i)</font></div></div></div>","null","FEEDBACK","","","","","","","","","","",""
"html-keyboard-response","145","422970","0.0-7.0-1.22","58016c9f551314000145af58","bdp_wmem","Fri Mar 10 2023 15:19:18 GMT-0500 (Eastern Standard Time)","679978","Match,No Match","","null","","","","","","<div class='trialBorder'><div class='vertical-center'><img src='img/fixation2_sml.jpg'</img></div></div>","null","FIX","","","","","","","","","","",""
"html-keyboard-response","146","427475","0.0-7.0-2.22","58016c9f551314000145af58","bdp_wmem","Fri Mar 10 2023 15:19:18 GMT-0500 (Eastern Standard Time)","679978","Match,No Match","","null","","","","","","<div class='trialBorder'><div class='vertical-center'><img style='vertical-align:center; align:center' src='img/fixation2_sml.jpg'></div><div class='arrayDiv3'><div class='tl'><img class='introPic' src='trustrating_stim/white_mw010.bmp'><br><font color='red'><strong>Keep</strong></font></div><div class='tc'><img class='introPic' src='trustrating_stim/white_mw003.bmp'><br><font color='red'><strong>Keep</strong></font></div><div class='tr'><img class='introPic' src='trustrating_stim/white_mw042.bmp'><br><font color='green'><strong>Share</strong></font></div></div></div>","null","ARRAY","3","trustrating_stim/white_mw010.bmp,trustrating_stim/white_mw003.bmp,trustrating_stim/white_mw042.bmp","0,0,1","noMatchOutcome","i","4500","","","","",""
"html-keyboard-response","147","431482","0.0-7.0-3.22","58016c9f551314000145af58","bdp_wmem","Fri Mar 10 2023 15:19:18 GMT-0500 (Eastern Standard Time)","679978","Match,No Match","","null","","","","","","<div class='trialBorder'><div class='vertical-center'><img src='img/fixation2_sml.jpg'</img></div></div>","null","DELAY","","","","","","","","","","",""
"html-keyboard-response","148","433601","0.0-7.0-4.22","58016c9f551314000145af58","bdp_wmem","Fri Mar 10 2023 15:19:18 GMT-0500 (Eastern Standard Time)","679978","Match,No Match","","2116","","","","","","<div class='trialBorder'><div class='targDiv'><div class='tc'><img class='introPic' src='trustrating_stim/white_mw003.bmp'><br><font color='green'><strong>Share</strong></font></div></div><div class='respDiv'><div class='respDivL'>Match<br>(e)</div><div class='respDivR'>No Match<br>(i)</div></div></div>","e","TARGET","3","trustrating_stim/white_mw010.bmp,trustrating_stim/white_mw003.bmp,trustrating_stim/white_mw042.bmp","0,0,1","noMatchOutcome","i","4500","trustrating_stim/white_mw003.bmp","green","Share","REAL","0"
"html-keyboard-response","149","434107","0.0-7.0-5.22","58016c9f551314000145af58","bdp_wmem","Fri Mar 10 2023 15:19:18 GMT-0500 (Eastern Standard Time)","679978","Match,No Match","","null","","","","","","<div class='trialBorder'><div class='vertical-center'><img src='img/error.jpg'></div><div class='respDiv'><div class='respDivL'><font style='color:orange'>Match<br>(e)</font></div><div class='respDivR'>No Match<br>(i)</div></div></div>","null","FEEDBACK","","","","","","","","","","",""
"html-keyboard-response","150","434610","0.0-7.0-1.23","58016c9f551314000145af58","bdp_wmem","Fri Mar 10 2023 15:19:18 GMT-0500 (Eastern Standard Time)","679978","Match,No Match","","null","","","","","","<div class='trialBorder'><div class='vertical-center'><img src='img/fixation2_sml.jpg'</img></div></div>","null","FIX","","","","","","","","","","",""
"html-keyboard-response","151","439116","0.0-7.0-2.23","58016c9f551314000145af58","bdp_wmem","Fri Mar 10 2023 15:19:18 GMT-0500 (Eastern Standard Time)","679978","Match,No Match","","null","","","","","","<div class='trialBorder'><div class='vertical-center'><img style='vertical-align:center; align:center' src='img/fixation2_sml.jpg'></div><div class='arrayDiv3'><div class='tl'><img class='introPic' src='trustrating_stim/white_mw085.bmp'><br><font color='red'><strong>Keep</strong></font></div><div class='tc'><img class='introPic' src='trustrating_stim/white_mw012.bmp'><br><font color='green'><strong>Share</strong></font></div><div class='tr'><img class='introPic' src='trustrating_stim/white_mw010.bmp'><br><font color='red'><strong>Keep</strong></font></div></div></div>","null","ARRAY","3","trustrating_stim/white_mw085.bmp,trustrating_stim/white_mw012.bmp,trustrating_stim/white_mw010.bmp","0,1,0","noMatchOutcome","i","4500","","","","",""
"html-keyboard-response","152","443124","0.0-7.0-3.23","58016c9f551314000145af58","bdp_wmem","Fri Mar 10 2023 15:19:18 GMT-0500 (Eastern Standard Time)","679978","Match,No Match","","null","","","","","","<div class='trialBorder'><div class='vertical-center'><img src='img/fixation2_sml.jpg'</img></div></div>","null","DELAY","","","","","","","","","","",""
"html-keyboard-response","153","445338","0.0-7.0-4.23","58016c9f551314000145af58","bdp_wmem","Fri Mar 10 2023 15:19:18 GMT-0500 (Eastern Standard Time)","679978","Match,No Match","","2211","","","","","","<div class='trialBorder'><div class='targDiv'><div class='tc'><img class='introPic' src='trustrating_stim/white_mw010.bmp'><br><font color='green'><strong>Share</strong></font></div></div><div class='respDiv'><div class='respDivL'>Match<br>(e)</div><div class='respDivR'>No Match<br>(i)</div></div></div>","i","TARGET","3","trustrating_stim/white_mw085.bmp,trustrating_stim/white_mw012.bmp,trustrating_stim/white_mw010.bmp","0,1,0","noMatchOutcome","i","4500","trustrating_stim/white_mw010.bmp","green","Share","REAL","1"
"html-keyboard-response","154","445844","0.0-7.0-5.23","58016c9f551314000145af58","bdp_wmem","Fri Mar 10 2023 15:19:18 GMT-0500 (Eastern Standard Time)","679978","Match,No Match","","null","","","","","","<div class='trialBorder'><div class='vertical-center'><img src='img/correct.jpg'></div><div class='respDiv'><div class='respDivL'>Match<br>(e)</div><div class='respDivR'><font style='color:orange'>No Match<br>(i)</font></div></div></div>","null","FEEDBACK","","","","","","","","","","",""
"html-keyboard-response","155","446348","0.0-7.0-1.24","58016c9f551314000145af58","bdp_wmem","Fri Mar 10 2023 15:19:18 GMT-0500 (Eastern Standard Time)","679978","Match,No Match","","null","","","","","","<div class='trialBorder'><div class='vertical-center'><img src='img/fixation2_sml.jpg'</img></div></div>","null","FIX","","","","","","","","","","",""
"html-keyboard-response","156","449356","0.0-7.0-2.24","58016c9f551314000145af58","bdp_wmem","Fri Mar 10 2023 15:19:18 GMT-0500 (Eastern Standard Time)","679978","Match,No Match","","null","","","","","","<div class='trialBorder'><div class='vertical-center'><img style='vertical-align:center; align:center' src='img/fixation2_sml.jpg'></div><div class='arrayDiv2'><div class='tl'><img class='introPic' src='trustrating_stim/white_mw012.bmp'><br><font color='green'><strong>Share</strong></font></div><div class='tr'><img class='introPic' src='trustrating_stim/white_mw070.bmp'><br><font color='red'><strong>Keep</strong></font></div></div></div>","null","ARRAY","2","trustrating_stim/white_mw012.bmp,trustrating_stim/white_mw070.bmp","1,0","Match","e","3000","","","","",""
"html-keyboard-response","157","453363","0.0-7.0-3.24","58016c9f551314000145af58","bdp_wmem","Fri Mar 10 2023 15:19:18 GMT-0500 (Eastern Standard Time)","679978","Match,No Match","","null","","","","","","<div class='trialBorder'><div class='vertical-center'><img src='img/fixation2_sml.jpg'</img></div></div>","null","DELAY","","","","","","","","","","",""
"html-keyboard-response","158","456705","0.0-7.0-4.24","58016c9f551314000145af58","bdp_wmem","Fri Mar 10 2023 15:19:18 GMT-0500 (Eastern Standard Time)","679978","Match,No Match","","3340","","","","","","<div class='trialBorder'><div class='targDiv'><div class='tc'><img class='introPic' src='trustrating_stim/white_mw012.bmp'><br><font color='green'><strong>Share</strong></font></div></div><div class='respDiv'><div class='respDivL'>Match<br>(e)</div><div class='respDivR'>No Match<br>(i)</div></div></div>","e","TARGET","2","trustrating_stim/white_mw012.bmp,trustrating_stim/white_mw070.bmp","1,0","Match","e","3000","trustrating_stim/white_mw012.bmp","green","Share","REAL","1"
"html-keyboard-response","159","457212","0.0-7.0-5.24","58016c9f551314000145af58","bdp_wmem","Fri Mar 10 2023 15:19:18 GMT-0500 (Eastern Standard Time)","679978","Match,No Match","","null","","","","","","<div class='trialBorder'><div class='vertical-center'><img src='img/correct.jpg'></div><div class='respDiv'><div class='respDivL'><font style='color:orange'>Match<br>(e)</font></div><div class='respDivR'>No Match<br>(i)</div></div></div>","null","FEEDBACK","","","","","","","","","","",""
"html-keyboard-response","160","457716","0.0-7.0-1.25","58016c9f551314000145af58","bdp_wmem","Fri Mar 10 2023 15:19:18 GMT-0500 (Eastern Standard Time)","679978","Match,No Match","","null","","","","","","<div class='trialBorder'><div class='vertical-center'><img src='img/fixation2_sml.jpg'</img></div></div>","null","FIX","","","","","","","","","","",""
"html-keyboard-response","161","460723","0.0-7.0-2.25","58016c9f551314000145af58","bdp_wmem","Fri Mar 10 2023 15:19:18 GMT-0500 (Eastern Standard Time)","679978","Match,No Match","","null","","","","","","<div class='trialBorder'><div class='vertical-center'><img style='vertical-align:center; align:center' src='img/fixation2_sml.jpg'></div><div class='arrayDiv2'><div class='tl'><img class='introPic' src='trustrating_stim/white_mw003.bmp'><br><font color='green'><strong>Share</strong></font></div><div class='tr'><img class='introPic' src='trustrating_stim/white_mw078.bmp'><br><font color='red'><strong>Keep</strong></font></div></div></div>","null","ARRAY","2","trustrating_stim/white_mw003.bmp,trustrating_stim/white_mw078.bmp","1,0","noMatchOutcome","i","3000","","","","",""
"html-keyboard-response","162","464731","0.0-7.0-3.25","58016c9f551314000145af58","bdp_wmem","Fri Mar 10 2023 15:19:18 GMT-0500 (Eastern Standard Time)","679978","Match,No Match","","null","","","","","","<div class='trialBorder'><div class='vertical-center'><img src='img/fixation2_sml.jpg'</img></div></div>","null","DELAY","","","","","","","","","","",""
"html-keyboard-response","163","467001","0.0-7.0-4.25","58016c9f551314000145af58","bdp_wmem","Fri Mar 10 2023 15:19:18 GMT-0500 (Eastern Standard Time)","679978","Match,No Match","","2268","","","","","","<div class='trialBorder'><div class='targDiv'><div class='tc'><img class='introPic' src='trustrating_stim/white_mw078.bmp'><br><font color='green'><strong>Share</strong></font></div></div><div class='respDiv'><div class='respDivL'>Match<br>(e)</div><div class='respDivR'>No Match<br>(i)</div></div></div>","e","TARGET","2","trustrating_stim/white_mw003.bmp,trustrating_stim/white_mw078.bmp","1,0","noMatchOutcome","i","3000","trustrating_stim/white_mw078.bmp","green","Share","REAL","0"
"html-keyboard-response","164","467508","0.0-7.0-5.25","58016c9f551314000145af58","bdp_wmem","Fri Mar 10 2023 15:19:18 GMT-0500 (Eastern Standard Time)","679978","Match,No Match","","null","","","","","","<div class='trialBorder'><div class='vertical-center'><img src='img/error.jpg'></div><div class='respDiv'><div class='respDivL'><font style='color:orange'>Match<br>(e)</font></div><div class='respDivR'>No Match<br>(i)</div></div></div>","null","FEEDBACK","","","","","","","","","","",""
"html-keyboard-response","165","468012","0.0-7.0-1.26","58016c9f551314000145af58","bdp_wmem","Fri Mar 10 2023 15:19:18 GMT-0500 (Eastern Standard Time)","679978","Match,No Match","","null","","","","","","<div class='trialBorder'><div class='vertical-center'><img src='img/fixation2_sml.jpg'</img></div></div>","null","FIX","","","","","","","","","","",""
"html-keyboard-response","166","472516","0.0-7.0-2.26","58016c9f551314000145af58","bdp_wmem","Fri Mar 10 2023 15:19:18 GMT-0500 (Eastern Standard Time)","679978","Match,No Match","","null","","","","","","<div class='trialBorder'><div class='vertical-center'><img style='vertical-align:center; align:center' src='img/fixation2_sml.jpg'></div><div class='arrayDiv3'><div class='tl'><img class='introPic' src='trustrating_stim/white_mw085.bmp'><br><font color='green'><strong>Share</strong></font></div><div class='tc'><img class='introPic' src='trustrating_stim/white_mw013.bmp'><br><font color='red'><strong>Keep</strong></font></div><div class='tr'><img class='introPic' src='trustrating_stim/white_mw040.bmp'><br><font color='green'><strong>Share</strong></font></div></div></div>","null","ARRAY","3","trustrating_stim/white_mw085.bmp,trustrating_stim/white_mw013.bmp,trustrating_stim/white_mw040.bmp","1,0,1","noMatchOutcome","i","4500","","","","",""
"html-keyboard-response","167","476524","0.0-7.0-3.26","58016c9f551314000145af58","bdp_wmem","Fri Mar 10 2023 15:19:18 GMT-0500 (Eastern Standard Time)","679978","Match,No Match","","null","","","","","","<div class='trialBorder'><div class='vertical-center'><img src='img/fixation2_sml.jpg'</img></div></div>","null","DELAY","","","","","","","","","","",""
"html-keyboard-response","168","479857","0.0-7.0-4.26","58016c9f551314000145af58","bdp_wmem","Fri Mar 10 2023 15:19:18 GMT-0500 (Eastern Standard Time)","679978","Match,No Match","","3332","","","","","","<div class='trialBorder'><div class='targDiv'><div class='tc'><img class='introPic' src='trustrating_stim/white_mw040.bmp'><br><font color='red'><strong>Keep</strong></font></div></div><div class='respDiv'><div class='respDivL'>Match<br>(e)</div><div class='respDivR'>No Match<br>(i)</div></div></div>","i","TARGET","3","trustrating_stim/white_mw085.bmp,trustrating_stim/white_mw013.bmp,trustrating_stim/white_mw040.bmp","1,0,1","noMatchOutcome","i","4500","trustrating_stim/white_mw040.bmp","red","Keep","REAL","1"
"html-keyboard-response","169","480399","0.0-7.0-5.26","58016c9f551314000145af58","bdp_wmem","Fri Mar 10 2023 15:19:18 GMT-0500 (Eastern Standard Time)","679978","Match,No Match","","null","","","","","","<div class='trialBorder'><div class='vertical-center'><img src='img/correct.jpg'></div><div class='respDiv'><div class='respDivL'>Match<br>(e)</div><div class='respDivR'><font style='color:orange'>No Match<br>(i)</font></div></div></div>","null","FEEDBACK","","","","","","","","","","",""
"html-keyboard-response","170","480992","0.0-7.0-1.27","58016c9f551314000145af58","bdp_wmem","Fri Mar 10 2023 15:19:18 GMT-0500 (Eastern Standard Time)","679978","Match,No Match","","null","","","","","","<div class='trialBorder'><div class='vertical-center'><img src='img/fixation2_sml.jpg'</img></div></div>","null","FIX","","","","","","","","","","",""
"html-keyboard-response","171","485500","0.0-7.0-2.27","58016c9f551314000145af58","bdp_wmem","Fri Mar 10 2023 15:19:18 GMT-0500 (Eastern Standard Time)","679978","Match,No Match","","null","","","","","","<div class='trialBorder'><div class='vertical-center'><img style='vertical-align:center; align:center' src='img/fixation2_sml.jpg'></div><div class='arrayDiv3'><div class='tl'><img class='introPic' src='trustrating_stim/white_mw078.bmp'><br><font color='green'><strong>Share</strong></font></div><div class='tc'><img class='introPic' src='trustrating_stim/white_mw042.bmp'><br><font color='red'><strong>Keep</strong></font></div><div class='tr'><img class='introPic' src='trustrating_stim/white_mw003.bmp'><br><font color='green'><strong>Share</strong></font></div></div></div>","null","ARRAY","3","trustrating_stim/white_mw078.bmp,trustrating_stim/white_mw042.bmp,trustrating_stim/white_mw003.bmp","1,0,1","Match","e","4500","","","","",""
"html-keyboard-response","172","489508","0.0-7.0-3.27","58016c9f551314000145af58","bdp_wmem","Fri Mar 10 2023 15:19:18 GMT-0500 (Eastern Standard Time)","679978","Match,No Match","","null","","","","","","<div class='trialBorder'><div class='vertical-center'><img src='img/fixation2_sml.jpg'</img></div></div>","null","DELAY","","","","","","","","","","",""
"html-keyboard-response","173","491384","0.0-7.0-4.27","58016c9f551314000145af58","bdp_wmem","Fri Mar 10 2023 15:19:18 GMT-0500 (Eastern Standard Time)","679978","Match,No Match","","1875","","","","","","<div class='trialBorder'><div class='targDiv'><div class='tc'><img class='introPic' src='trustrating_stim/white_mw078.bmp'><br><font color='green'><strong>Share</strong></font></div></div><div class='respDiv'><div class='respDivL'>Match<br>(e)</div><div class='respDivR'>No Match<br>(i)</div></div></div>","e","TARGET","3","trustrating_stim/white_mw078.bmp,trustrating_stim/white_mw042.bmp,trustrating_stim/white_mw003.bmp","1,0,1","Match","e","4500","trustrating_stim/white_mw078.bmp","green","Share","REAL","1"
"html-keyboard-response","174","491892","0.0-7.0-5.27","58016c9f551314000145af58","bdp_wmem","Fri Mar 10 2023 15:19:18 GMT-0500 (Eastern Standard Time)","679978","Match,No Match","","null","","","","","","<div class='trialBorder'><div class='vertical-center'><img src='img/correct.jpg'></div><div class='respDiv'><div class='respDivL'><font style='color:orange'>Match<br>(e)</font></div><div class='respDivR'>No Match<br>(i)</div></div></div>","null","FEEDBACK","","","","","","","","","","",""
"html-keyboard-response","175","492396","0.0-7.0-1.28","58016c9f551314000145af58","bdp_wmem","Fri Mar 10 2023 15:19:18 GMT-0500 (Eastern Standard Time)","679978","Match,No Match","","null","","","","","","<div class='trialBorder'><div class='vertical-center'><img src='img/fixation2_sml.jpg'</img></div></div>","null","FIX","","","","","","","","","","",""
"html-keyboard-response","176","496901","0.0-7.0-2.28","58016c9f551314000145af58","bdp_wmem","Fri Mar 10 2023 15:19:18 GMT-0500 (Eastern Standard Time)","679978","Match,No Match","","null","","","","","","<div class='trialBorder'><div class='vertical-center'><img style='vertical-align:center; align:center' src='img/fixation2_sml.jpg'></div><div class='arrayDiv3'><div class='tl'><img class='introPic' src='trustrating_stim/white_mw085.bmp'><br><font color='red'><strong>Keep</strong></font></div><div class='tc'><img class='introPic' src='trustrating_stim/white_mw013.bmp'><br><font color='red'><strong>Keep</strong></font></div><div class='tr'><img class='introPic' src='trustrating_stim/white_mw091.bmp'><br><font color='green'><strong>Share</strong></font></div></div></div>","null","ARRAY","3","trustrating_stim/white_mw085.bmp,trustrating_stim/white_mw013.bmp,trustrating_stim/white_mw091.bmp","0,0,1","noMatchOutcome","i","4500","","","","",""
"html-keyboard-response","177","500909","0.0-7.0-3.28","58016c9f551314000145af58","bdp_wmem","Fri Mar 10 2023 15:19:18 GMT-0500 (Eastern Standard Time)","679978","Match,No Match","","null","","","","","","<div class='trialBorder'><div class='vertical-center'><img src='img/fixation2_sml.jpg'</img></div></div>","null","DELAY","","","","","","","","","","",""
"html-keyboard-response","178","503116","0.0-7.0-4.28","58016c9f551314000145af58","bdp_wmem","Fri Mar 10 2023 15:19:18 GMT-0500 (Eastern Standard Time)","679978","Match,No Match","","2205","","","","","","<div class='trialBorder'><div class='targDiv'><div class='tc'><img class='introPic' src='trustrating_stim/white_mw013.bmp'><br><font color='green'><strong>Share</strong></font></div></div><div class='respDiv'><div class='respDivL'>Match<br>(e)</div><div class='respDivR'>No Match<br>(i)</div></div></div>","e","TARGET","3","trustrating_stim/white_mw085.bmp,trustrating_stim/white_mw013.bmp,trustrating_stim/white_mw091.bmp","0,0,1","noMatchOutcome","i","4500","trustrating_stim/white_mw013.bmp","green","Share","REAL","0"
"html-keyboard-response","179","503621","0.0-7.0-5.28","58016c9f551314000145af58","bdp_wmem","Fri Mar 10 2023 15:19:18 GMT-0500 (Eastern Standard Time)","679978","Match,No Match","","null","","","","","","<div class='trialBorder'><div class='vertical-center'><img src='img/error.jpg'></div><div class='respDiv'><div class='respDivL'><font style='color:orange'>Match<br>(e)</font></div><div class='respDivR'>No Match<br>(i)</div></div></div>","null","FEEDBACK","","","","","","","","","","",""
"html-keyboard-response","180","504127","0.0-7.0-1.29","58016c9f551314000145af58","bdp_wmem","Fri Mar 10 2023 15:19:18 GMT-0500 (Eastern Standard Time)","679978","Match,No Match","","null","","","","","","<div class='trialBorder'><div class='vertical-center'><img src='img/fixation2_sml.jpg'</img></div></div>","null","FIX","","","","","","","","","","",""
"html-keyboard-response","181","505637","0.0-7.0-2.29","58016c9f551314000145af58","bdp_wmem","Fri Mar 10 2023 15:19:18 GMT-0500 (Eastern Standard Time)","679978","Match,No Match","","null","","","","","","<div class='trialBorder'><div class='vertical-center'><img style='vertical-align:center; align:center' src='img/fixation2_sml.jpg'></div><div class='arrayDiv1'><div class='tc'><img class='introPic' src='trustrating_stim/white_mw010.bmp'><br><font color='red'><strong>Keep</strong></font></div></div></div>","null","ARRAY","1","trustrating_stim/white_mw010.bmp","0","Match","e","1500","","","","",""
"html-keyboard-response","182","509646","0.0-7.0-3.29","58016c9f551314000145af58","bdp_wmem","Fri Mar 10 2023 15:19:18 GMT-0500 (Eastern Standard Time)","679978","Match,No Match","","null","","","","","","<div class='trialBorder'><div class='vertical-center'><img src='img/fixation2_sml.jpg'</img></div></div>","null","DELAY","","","","","","","","","","",""
"html-keyboard-response","183","511287","0.0-7.0-4.29","58016c9f551314000145af58","bdp_wmem","Fri Mar 10 2023 15:19:18 GMT-0500 (Eastern Standard Time)","679978","Match,No Match","","1640","","","","","","<div class='trialBorder'><div class='targDiv'><div class='tc'><img class='introPic' src='trustrating_stim/white_mw010.bmp'><br><font color='red'><strong>Keep</strong></font></div></div><div class='respDiv'><div class='respDivL'>Match<br>(e)</div><div class='respDivR'>No Match<br>(i)</div></div></div>","e","TARGET","1","trustrating_stim/white_mw010.bmp","0","Match","e","1500","trustrating_stim/white_mw010.bmp","red","Keep","REAL","1"
"html-keyboard-response","184","511790","0.0-7.0-5.29","58016c9f551314000145af58","bdp_wmem","Fri Mar 10 2023 15:19:18 GMT-0500 (Eastern Standard Time)","679978","Match,No Match","","null","","","","","","<div class='trialBorder'><div class='vertical-center'><img src='img/correct.jpg'></div><div class='respDiv'><div class='respDivL'><font style='color:orange'>Match<br>(e)</font></div><div class='respDivR'>No Match<br>(i)</div></div></div>","null","FEEDBACK","","","","","","","","","","",""
"html-keyboard-response","185","512293","0.0-7.0-1.30","58016c9f551314000145af58","bdp_wmem","Fri Mar 10 2023 15:19:18 GMT-0500 (Eastern Standard Time)","679978","Match,No Match","","null","","","","","","<div class='trialBorder'><div class='vertical-center'><img src='img/fixation2_sml.jpg'</img></div></div>","null","FIX","","","","","","","","","","",""
