"trial_type","trial_index","time_elapsed","internal_node_id","subject_id","task","startTime","totalTime","labels","view_history","rt","event","trial","time","trialtype","success","stimulus","key_press","stimType","arraySize","arrayFaces","arrayOutcomes","matchType","corrResp","arrayDur","targFace","targCol","targOutcome","trialType","corr"
"pavlovia","0","6","0.0-0.0","63b6e5e23b31a38790ff1ce2","bdp_wmem","Thu Mar 16 2023 00:21:11 GMT-0400 (Eastern Daylight Time)","613572","Match,No Match","","","","","","","","","","","","","","","","","","","","",""
"instructions","1","36421","0.0-1.0","63b6e5e23b31a38790ff1ce2","bdp_wmem","Thu Mar 16 2023 00:21:11 GMT-0400 (Eastern Daylight Time)","613572","Match,No Match","[{""page_index"":0,""viewing_time"":36414}]","36414","","","","","","","","","","","","","","","","","","",""
"","","","","63b6e5e23b31a38790ff1ce2","bdp_wmem","Thu Mar 16 2023 00:21:11 GMT-0400 (Eastern Daylight Time)","613572","Match,No Match","","","fullscreenenter","2","40668","fullscreenenter","","","","","","","","","","","","","","",""
"fullscreen","2","41650","0.0-2.0","63b6e5e23b31a38790ff1ce2","bdp_wmem","Thu Mar 16 2023 00:21:11 GMT-0400 (Eastern Daylight Time)","613572","Match,No Match","","","","","","","true","","","","","","","","","","","","","",""
"instructions","3","110764","0.0-4.0","63b6e5e23b31a38790ff1ce2","bdp_wmem","Thu Mar 16 2023 00:21:11 GMT-0400 (Eastern Daylight Time)","613572","Match,No Match","[{""page_index"":0,""viewing_time"":24335},{""page_index"":1,""viewing_time"":24056},{""page_index"":2,""viewing_time"":9168},{""page_index"":3,""viewing_time"":7448},{""page_index"":4,""viewing_time"":4104}]","69112","","","","","","","","","","","","","","","","","","",""
"html-keyboard-response","4","111269","0.0-5.0-1.0","63b6e5e23b31a38790ff1ce2","bdp_wmem","Thu Mar 16 2023 00:21:11 GMT-0400 (Eastern Daylight Time)","613572","Match,No Match","","null","","","","","","<div class='trialBorder'><div class='vertical-center'><img src='img/fixation2_sml.jpg'</img></div></div>","null","FIX","","","","","","","","","","",""
"html-keyboard-response","5","112771","0.0-5.0-2.0","63b6e5e23b31a38790ff1ce2","bdp_wmem","Thu Mar 16 2023 00:21:11 GMT-0400 (Eastern Daylight Time)","613572","Match,No Match","","null","","","","","","<div class='trialBorder'><div class='vertical-center'><img style='vertical-align:center; align:center' src='img/fixation2_sml.jpg'></div><div class='arrayDiv1'><div class='tc'><img class='introPic' src='trustrating_stim/white_mw012.bmp'><br><font color='green'><strong>Share</strong></font></div></div></div>","null","ARRAY","1","trustrating_stim/white_mw012.bmp","1","Match","e","1500","","","","",""
"html-keyboard-response","6","116774","0.0-5.0-3.0","63b6e5e23b31a38790ff1ce2","bdp_wmem","Thu Mar 16 2023 00:21:11 GMT-0400 (Eastern Daylight Time)","613572","Match,No Match","","null","","","","","","<div class='trialBorder'><div class='vertical-center'><img src='img/fixation2_sml.jpg'</img></div></div>","null","DELAY","","","","","","","","","","",""
"html-keyboard-response","7","119132","0.0-5.0-4.0","63b6e5e23b31a38790ff1ce2","bdp_wmem","Thu Mar 16 2023 00:21:11 GMT-0400 (Eastern Daylight Time)","613572","Match,No Match","","2356","","","","","","<div class='trialBorder'><div class='targDiv'><div class='tc'><img class='introPic' src='trustrating_stim/white_mw012.bmp'><br><font color='green'><strong>Share</strong></font></div></div><div class='respDiv'><div class='respDivL'>Match<br>(e)</div><div class='respDivR'>No Match<br>(i)</div></div></div>","e","TARGET","1","trustrating_stim/white_mw012.bmp","1","Match","e","1500","trustrating_stim/white_mw012.bmp","green","Share","PRACTICE","1"
"html-keyboard-response","8","119634","0.0-5.0-5.0","63b6e5e23b31a38790ff1ce2","bdp_wmem","Thu Mar 16 2023 00:21:11 GMT-0400 (Eastern Daylight Time)","613572","Match,No Match","","null","","","","","","<div class='trialBorder'><div class='vertical-center'><img src='img/correct.jpg'></div><div class='respDiv'><div class='respDivL'><font style='color:orange'>Match<br>(e)</font></div><div class='respDivR'>No Match<br>(i)</div></div></div>","null","FEEDBACK","","","","","","","","","","",""
"html-keyboard-response","9","120138","0.0-5.0-1.1","63b6e5e23b31a38790ff1ce2","bdp_wmem","Thu Mar 16 2023 00:21:11 GMT-0400 (Eastern Daylight Time)","613572","Match,No Match","","null","","","","","","<div class='trialBorder'><div class='vertical-center'><img src='img/fixation2_sml.jpg'</img></div></div>","null","FIX","","","","","","","","","","",""
"html-keyboard-response","10","124640","0.0-5.0-2.1","63b6e5e23b31a38790ff1ce2","bdp_wmem","Thu Mar 16 2023 00:21:11 GMT-0400 (Eastern Daylight Time)","613572","Match,No Match","","null","","","","","","<div class='trialBorder'><div class='vertical-center'><img style='vertical-align:center; align:center' src='img/fixation2_sml.jpg'></div><div class='arrayDiv3'><div class='tl'><img class='introPic' src='trustrating_stim/white_mw003.bmp'><br><font color='green'><strong>Share</strong></font></div><div class='tc'><img class='introPic' src='trustrating_stim/white_mw078.bmp'><br><font color='green'><strong>Share</strong></font></div><div class='tr'><img class='introPic' src='trustrating_stim/white_mw092.bmp'><br><font color='red'><strong>Keep</strong></font></div></div></div>","null","ARRAY","3","trustrating_stim/white_mw003.bmp,trustrating_stim/white_mw078.bmp,trustrating_stim/white_mw092.bmp","1,1,0","Match","e","4500","","","","",""
"html-keyboard-response","11","128645","0.0-5.0-3.1","63b6e5e23b31a38790ff1ce2","bdp_wmem","Thu Mar 16 2023 00:21:11 GMT-0400 (Eastern Daylight Time)","613572","Match,No Match","","null","","","","","","<div class='trialBorder'><div class='vertical-center'><img src='img/fixation2_sml.jpg'</img></div></div>","null","DELAY","","","","","","","","","","",""
"html-keyboard-response","12","129836","0.0-5.0-4.1","63b6e5e23b31a38790ff1ce2","bdp_wmem","Thu Mar 16 2023 00:21:11 GMT-0400 (Eastern Daylight Time)","613572","Match,No Match","","1189","","","","","","<div class='trialBorder'><div class='targDiv'><div class='tc'><img class='introPic' src='trustrating_stim/white_mw003.bmp'><br><font color='green'><strong>Share</strong></font></div></div><div class='respDiv'><div class='respDivL'>Match<br>(e)</div><div class='respDivR'>No Match<br>(i)</div></div></div>","e","TARGET","3","trustrating_stim/white_mw003.bmp,trustrating_stim/white_mw078.bmp,trustrating_stim/white_mw092.bmp","1,1,0","Match","e","4500","trustrating_stim/white_mw003.bmp","green","Share","PRACTICE","1"
"html-keyboard-response","13","130339","0.0-5.0-5.1","63b6e5e23b31a38790ff1ce2","bdp_wmem","Thu Mar 16 2023 00:21:11 GMT-0400 (Eastern Daylight Time)","613572","Match,No Match","","null","","","","","","<div class='trialBorder'><div class='vertical-center'><img src='img/correct.jpg'></div><div class='respDiv'><div class='respDivL'><font style='color:orange'>Match<br>(e)</font></div><div class='respDivR'>No Match<br>(i)</div></div></div>","null","FEEDBACK","","","","","","","","","","",""
"html-keyboard-response","14","130842","0.0-5.0-1.2","63b6e5e23b31a38790ff1ce2","bdp_wmem","Thu Mar 16 2023 00:21:11 GMT-0400 (Eastern Daylight Time)","613572","Match,No Match","","null","","","","","","<div class='trialBorder'><div class='vertical-center'><img src='img/fixation2_sml.jpg'</img></div></div>","null","FIX","","","","","","","","","","",""
"html-keyboard-response","15","135344","0.0-5.0-2.2","63b6e5e23b31a38790ff1ce2","bdp_wmem","Thu Mar 16 2023 00:21:11 GMT-0400 (Eastern Daylight Time)","613572","Match,No Match","","null","","","","","","<div class='trialBorder'><div class='vertical-center'><img style='vertical-align:center; align:center' src='img/fixation2_sml.jpg'></div><div class='arrayDiv3'><div class='tl'><img class='introPic' src='trustrating_stim/white_mw040.bmp'><br><font color='red'><strong>Keep</strong></font></div><div class='tc'><img class='introPic' src='trustrating_stim/white_mw085.bmp'><br><font color='red'><strong>Keep</strong></font></div><div class='tr'><img class='introPic' src='trustrating_stim/white_mw078.bmp'><br><font color='green'><strong>Share</strong></font></div></div></div>","null","ARRAY","3","trustrating_stim/white_mw040.bmp,trustrating_stim/white_mw085.bmp,trustrating_stim/white_mw078.bmp","0,0,1","noMatchOutcome","i","4500","","","","",""
"html-keyboard-response","16","139347","0.0-5.0-3.2","63b6e5e23b31a38790ff1ce2","bdp_wmem","Thu Mar 16 2023 00:21:11 GMT-0400 (Eastern Daylight Time)","613572","Match,No Match","","null","","","","","","<div class='trialBorder'><div class='vertical-center'><img src='img/fixation2_sml.jpg'</img></div></div>","null","DELAY","","","","","","","","","","",""
"html-keyboard-response","17","140932","0.0-5.0-4.2","63b6e5e23b31a38790ff1ce2","bdp_wmem","Thu Mar 16 2023 00:21:11 GMT-0400 (Eastern Daylight Time)","613572","Match,No Match","","1583","","","","","","<div class='trialBorder'><div class='targDiv'><div class='tc'><img class='introPic' src='trustrating_stim/white_mw085.bmp'><br><font color='green'><strong>Share</strong></font></div></div><div class='respDiv'><div class='respDivL'>Match<br>(e)</div><div class='respDivR'>No Match<br>(i)</div></div></div>","i","TARGET","3","trustrating_stim/white_mw040.bmp,trustrating_stim/white_mw085.bmp,trustrating_stim/white_mw078.bmp","0,0,1","noMatchOutcome","i","4500","trustrating_stim/white_mw085.bmp","green","Share","PRACTICE","1"
"html-keyboard-response","18","141434","0.0-5.0-5.2","63b6e5e23b31a38790ff1ce2","bdp_wmem","Thu Mar 16 2023 00:21:11 GMT-0400 (Eastern Daylight Time)","613572","Match,No Match","","null","","","","","","<div class='trialBorder'><div class='vertical-center'><img src='img/correct.jpg'></div><div class='respDiv'><div class='respDivL'>Match<br>(e)</div><div class='respDivR'><font style='color:orange'>No Match<br>(i)</font></div></div></div>","null","FEEDBACK","","","","","","","","","","",""
"html-keyboard-response","19","141936","0.0-5.0-1.3","63b6e5e23b31a38790ff1ce2","bdp_wmem","Thu Mar 16 2023 00:21:11 GMT-0400 (Eastern Daylight Time)","613572","Match,No Match","","null","","","","","","<div class='trialBorder'><div class='vertical-center'><img src='img/fixation2_sml.jpg'</img></div></div>","null","FIX","","","","","","","","","","",""
"html-keyboard-response","20","144938","0.0-5.0-2.3","63b6e5e23b31a38790ff1ce2","bdp_wmem","Thu Mar 16 2023 00:21:11 GMT-0400 (Eastern Daylight Time)","613572","Match,No Match","","null","","","","","","<div class='trialBorder'><div class='vertical-center'><img style='vertical-align:center; align:center' src='img/fixation2_sml.jpg'></div><div class='arrayDiv2'><div class='tl'><img class='introPic' src='trustrating_stim/white_mw003.bmp'><br><font color='green'><strong>Share</strong></font></div><div class='tr'><img class='introPic' src='trustrating_stim/white_mw042.bmp'><br><font color='red'><strong>Keep</strong></font></div></div></div>","null","ARRAY","2","trustrating_stim/white_mw003.bmp,trustrating_stim/white_mw042.bmp","1,0","noMatchFace","i","3000","","","","",""
"html-keyboard-response","21","148940","0.0-5.0-3.3","63b6e5e23b31a38790ff1ce2","bdp_wmem","Thu Mar 16 2023 00:21:11 GMT-0400 (Eastern Daylight Time)","613572","Match,No Match","","null","","","","","","<div class='trialBorder'><div class='vertical-center'><img src='img/fixation2_sml.jpg'</img></div></div>","null","DELAY","","","","","","","","","","",""
"html-keyboard-response","22","150212","0.0-5.0-4.3","63b6e5e23b31a38790ff1ce2","bdp_wmem","Thu Mar 16 2023 00:21:11 GMT-0400 (Eastern Daylight Time)","613572","Match,No Match","","1270","","","","","","<div class='trialBorder'><div class='targDiv'><div class='tc'><img class='introPic' src='trustrating_stim/white_mw040.bmp'><br><font color='red'><strong>Keep</strong></font></div></div><div class='respDiv'><div class='respDivL'>Match<br>(e)</div><div class='respDivR'>No Match<br>(i)</div></div></div>","i","TARGET","2","trustrating_stim/white_mw003.bmp,trustrating_stim/white_mw042.bmp","1,0","noMatchFace","i","3000","trustrating_stim/white_mw040.bmp","red","Keep","PRACTICE","1"
"html-keyboard-response","23","150714","0.0-5.0-5.3","63b6e5e23b31a38790ff1ce2","bdp_wmem","Thu Mar 16 2023 00:21:11 GMT-0400 (Eastern Daylight Time)","613572","Match,No Match","","null","","","","","","<div class='trialBorder'><div class='vertical-center'><img src='img/correct.jpg'></div><div class='respDiv'><div class='respDivL'>Match<br>(e)</div><div class='respDivR'><font style='color:orange'>No Match<br>(i)</font></div></div></div>","null","FEEDBACK","","","","","","","","","","",""
"html-keyboard-response","24","151217","0.0-5.0-1.4","63b6e5e23b31a38790ff1ce2","bdp_wmem","Thu Mar 16 2023 00:21:11 GMT-0400 (Eastern Daylight Time)","613572","Match,No Match","","null","","","","","","<div class='trialBorder'><div class='vertical-center'><img src='img/fixation2_sml.jpg'</img></div></div>","null","FIX","","","","","","","","","","",""
"html-keyboard-response","25","154218","0.0-5.0-2.4","63b6e5e23b31a38790ff1ce2","bdp_wmem","Thu Mar 16 2023 00:21:11 GMT-0400 (Eastern Daylight Time)","613572","Match,No Match","","null","","","","","","<div class='trialBorder'><div class='vertical-center'><img style='vertical-align:center; align:center' src='img/fixation2_sml.jpg'></div><div class='arrayDiv2'><div class='tl'><img class='introPic' src='trustrating_stim/white_mw078.bmp'><br><font color='red'><strong>Keep</strong></font></div><div class='tr'><img class='introPic' src='trustrating_stim/white_mw010.bmp'><br><font color='green'><strong>Share</strong></font></div></div></div>","null","ARRAY","2","trustrating_stim/white_mw078.bmp,trustrating_stim/white_mw010.bmp","0,1","Match","e","3000","","","","",""
"html-keyboard-response","26","158220","0.0-5.0-3.4","63b6e5e23b31a38790ff1ce2","bdp_wmem","Thu Mar 16 2023 00:21:11 GMT-0400 (Eastern Daylight Time)","613572","Match,No Match","","null","","","","","","<div class='trialBorder'><div class='vertical-center'><img src='img/fixation2_sml.jpg'</img></div></div>","null","DELAY","","","","","","","","","","",""
"html-keyboard-response","27","159964","0.0-5.0-4.4","63b6e5e23b31a38790ff1ce2","bdp_wmem","Thu Mar 16 2023 00:21:11 GMT-0400 (Eastern Daylight Time)","613572","Match,No Match","","1742","","","","","","<div class='trialBorder'><div class='targDiv'><div class='tc'><img class='introPic' src='trustrating_stim/white_mw010.bmp'><br><font color='green'><strong>Share</strong></font></div></div><div class='respDiv'><div class='respDivL'>Match<br>(e)</div><div class='respDivR'>No Match<br>(i)</div></div></div>","i","TARGET","2","trustrating_stim/white_mw078.bmp,trustrating_stim/white_mw010.bmp","0,1","Match","e","3000","trustrating_stim/white_mw010.bmp","green","Share","PRACTICE","0"
"html-keyboard-response","28","160467","0.0-5.0-5.4","63b6e5e23b31a38790ff1ce2","bdp_wmem","Thu Mar 16 2023 00:21:11 GMT-0400 (Eastern Daylight Time)","613572","Match,No Match","","null","","","","","","<div class='trialBorder'><div class='vertical-center'><img src='img/error.jpg'></div><div class='respDiv'><div class='respDivL'>Match<br>(e)</div><div class='respDivR'><font style='color:orange'>No Match<br>(i)</font></div></div></div>","null","FEEDBACK","","","","","","","","","","",""
"html-keyboard-response","29","160969","0.0-5.0-1.5","63b6e5e23b31a38790ff1ce2","bdp_wmem","Thu Mar 16 2023 00:21:11 GMT-0400 (Eastern Daylight Time)","613572","Match,No Match","","null","","","","","","<div class='trialBorder'><div class='vertical-center'><img src='img/fixation2_sml.jpg'</img></div></div>","null","FIX","","","","","","","","","","",""
"html-keyboard-response","30","162471","0.0-5.0-2.5","63b6e5e23b31a38790ff1ce2","bdp_wmem","Thu Mar 16 2023 00:21:11 GMT-0400 (Eastern Daylight Time)","613572","Match,No Match","","null","","","","","","<div class='trialBorder'><div class='vertical-center'><img style='vertical-align:center; align:center' src='img/fixation2_sml.jpg'></div><div class='arrayDiv1'><div class='tc'><img class='introPic' src='trustrating_stim/white_mw070.bmp'><br><font color='green'><strong>Share</strong></font></div></div></div>","null","ARRAY","1","trustrating_stim/white_mw070.bmp","1","noMatchFace","i","1500","","","","",""
"html-keyboard-response","31","166474","0.0-5.0-3.5","63b6e5e23b31a38790ff1ce2","bdp_wmem","Thu Mar 16 2023 00:21:11 GMT-0400 (Eastern Daylight Time)","613572","Match,No Match","","null","","","","","","<div class='trialBorder'><div class='vertical-center'><img src='img/fixation2_sml.jpg'</img></div></div>","null","DELAY","","","","","","","","","","",""
"html-keyboard-response","32","167892","0.0-5.0-4.5","63b6e5e23b31a38790ff1ce2","bdp_wmem","Thu Mar 16 2023 00:21:11 GMT-0400 (Eastern Daylight Time)","613572","Match,No Match","","1415","","","","","","<div class='trialBorder'><div class='targDiv'><div class='tc'><img class='introPic' src='trustrating_stim/white_mw040.bmp'><br><font color='green'><strong>Share</strong></font></div></div><div class='respDiv'><div class='respDivL'>Match<br>(e)</div><div class='respDivR'>No Match<br>(i)</div></div></div>","i","TARGET","1","trustrating_stim/white_mw070.bmp","1","noMatchFace","i","1500","trustrating_stim/white_mw040.bmp","green","Share","PRACTICE","1"
"html-keyboard-response","33","168394","0.0-5.0-5.5","63b6e5e23b31a38790ff1ce2","bdp_wmem","Thu Mar 16 2023 00:21:11 GMT-0400 (Eastern Daylight Time)","613572","Match,No Match","","null","","","","","","<div class='trialBorder'><div class='vertical-center'><img src='img/correct.jpg'></div><div class='respDiv'><div class='respDivL'>Match<br>(e)</div><div class='respDivR'><font style='color:orange'>No Match<br>(i)</font></div></div></div>","null","FEEDBACK","","","","","","","","","","",""
"instructions","34","172700","0.0-6.0","63b6e5e23b31a38790ff1ce2","bdp_wmem","Thu Mar 16 2023 00:21:11 GMT-0400 (Eastern Daylight Time)","613572","Match,No Match","[{""page_index"":0,""viewing_time"":4306}]","4306","","","","","","","","","","","","","","","","","","",""
"html-keyboard-response","35","173204","0.0-7.0-1.0","63b6e5e23b31a38790ff1ce2","bdp_wmem","Thu Mar 16 2023 00:21:11 GMT-0400 (Eastern Daylight Time)","613572","Match,No Match","","null","","","","","","<div class='trialBorder'><div class='vertical-center'><img src='img/fixation2_sml.jpg'</img></div></div>","null","FIX","","","","","","","","","","",""
"html-keyboard-response","36","177707","0.0-7.0-2.0","63b6e5e23b31a38790ff1ce2","bdp_wmem","Thu Mar 16 2023 00:21:11 GMT-0400 (Eastern Daylight Time)","613572","Match,No Match","","null","","","","","","<div class='trialBorder'><div class='vertical-center'><img style='vertical-align:center; align:center' src='img/fixation2_sml.jpg'></div><div class='arrayDiv3'><div class='tl'><img class='introPic' src='trustrating_stim/white_mw078.bmp'><br><font color='green'><strong>Share</strong></font></div><div class='tc'><img class='introPic' src='trustrating_stim/white_mw091.bmp'><br><font color='green'><strong>Share</strong></font></div><div class='tr'><img class='introPic' src='trustrating_stim/white_mw092.bmp'><br><font color='red'><strong>Keep</strong></font></div></div></div>","null","ARRAY","3","trustrating_stim/white_mw078.bmp,trustrating_stim/white_mw091.bmp,trustrating_stim/white_mw092.bmp","1,1,0","Match","e","4500","","","","",""
"html-keyboard-response","37","181709","0.0-7.0-3.0","63b6e5e23b31a38790ff1ce2","bdp_wmem","Thu Mar 16 2023 00:21:11 GMT-0400 (Eastern Daylight Time)","613572","Match,No Match","","null","","","","","","<div class='trialBorder'><div class='vertical-center'><img src='img/fixation2_sml.jpg'</img></div></div>","null","DELAY","","","","","","","","","","",""
"html-keyboard-response","38","183012","0.0-7.0-4.0","63b6e5e23b31a38790ff1ce2","bdp_wmem","Thu Mar 16 2023 00:21:11 GMT-0400 (Eastern Daylight Time)","613572","Match,No Match","","1300","","","","","","<div class='trialBorder'><div class='targDiv'><div class='tc'><img class='introPic' src='trustrating_stim/white_mw091.bmp'><br><font color='green'><strong>Share</strong></font></div></div><div class='respDiv'><div class='respDivL'>Match<br>(e)</div><div class='respDivR'>No Match<br>(i)</div></div></div>","e","TARGET","3","trustrating_stim/white_mw078.bmp,trustrating_stim/white_mw091.bmp,trustrating_stim/white_mw092.bmp","1,1,0","Match","e","4500","trustrating_stim/white_mw091.bmp","green","Share","REAL","1"
"html-keyboard-response","39","183514","0.0-7.0-5.0","63b6e5e23b31a38790ff1ce2","bdp_wmem","Thu Mar 16 2023 00:21:11 GMT-0400 (Eastern Daylight Time)","613572","Match,No Match","","null","","","","","","<div class='trialBorder'><div class='vertical-center'><img src='img/correct.jpg'></div><div class='respDiv'><div class='respDivL'><font style='color:orange'>Match<br>(e)</font></div><div class='respDivR'>No Match<br>(i)</div></div></div>","null","FEEDBACK","","","","","","","","","","",""
"html-keyboard-response","40","184017","0.0-7.0-1.1","63b6e5e23b31a38790ff1ce2","bdp_wmem","Thu Mar 16 2023 00:21:11 GMT-0400 (Eastern Daylight Time)","613572","Match,No Match","","null","","","","","","<div class='trialBorder'><div class='vertical-center'><img src='img/fixation2_sml.jpg'</img></div></div>","null","FIX","","","","","","","","","","",""
"html-keyboard-response","41","185519","0.0-7.0-2.1","63b6e5e23b31a38790ff1ce2","bdp_wmem","Thu Mar 16 2023 00:21:11 GMT-0400 (Eastern Daylight Time)","613572","Match,No Match","","null","","","","","","<div class='trialBorder'><div class='vertical-center'><img style='vertical-align:center; align:center' src='img/fixation2_sml.jpg'></div><div class='arrayDiv1'><div class='tc'><img class='introPic' src='trustrating_stim/white_mw085.bmp'><br><font color='red'><strong>Keep</strong></font></div></div></div>","null","ARRAY","1","trustrating_stim/white_mw085.bmp","0","Match","e","1500","","","","",""
"html-keyboard-response","42","189520","0.0-7.0-3.1","63b6e5e23b31a38790ff1ce2","bdp_wmem","Thu Mar 16 2023 00:21:11 GMT-0400 (Eastern Daylight Time)","613572","Match,No Match","","null","","","","","","<div class='trialBorder'><div class='vertical-center'><img src='img/fixation2_sml.jpg'</img></div></div>","null","DELAY","","","","","","","","","","",""
"html-keyboard-response","43","192252","0.0-7.0-4.1","63b6e5e23b31a38790ff1ce2","bdp_wmem","Thu Mar 16 2023 00:21:11 GMT-0400 (Eastern Daylight Time)","613572","Match,No Match","","2730","","","","","","<div class='trialBorder'><div class='targDiv'><div class='tc'><img class='introPic' src='trustrating_stim/white_mw085.bmp'><br><font color='red'><strong>Keep</strong></font></div></div><div class='respDiv'><div class='respDivL'>Match<br>(e)</div><div class='respDivR'>No Match<br>(i)</div></div></div>","e","TARGET","1","trustrating_stim/white_mw085.bmp","0","Match","e","1500","trustrating_stim/white_mw085.bmp","red","Keep","REAL","1"
"html-keyboard-response","44","192754","0.0-7.0-5.1","63b6e5e23b31a38790ff1ce2","bdp_wmem","Thu Mar 16 2023 00:21:11 GMT-0400 (Eastern Daylight Time)","613572","Match,No Match","","null","","","","","","<div class='trialBorder'><div class='vertical-center'><img src='img/correct.jpg'></div><div class='respDiv'><div class='respDivL'><font style='color:orange'>Match<br>(e)</font></div><div class='respDivR'>No Match<br>(i)</div></div></div>","null","FEEDBACK","","","","","","","","","","",""
"html-keyboard-response","45","193256","0.0-7.0-1.2","63b6e5e23b31a38790ff1ce2","bdp_wmem","Thu Mar 16 2023 00:21:11 GMT-0400 (Eastern Daylight Time)","613572","Match,No Match","","null","","","","","","<div class='trialBorder'><div class='vertical-center'><img src='img/fixation2_sml.jpg'</img></div></div>","null","FIX","","","","","","","","","","",""
"html-keyboard-response","46","194758","0.0-7.0-2.2","63b6e5e23b31a38790ff1ce2","bdp_wmem","Thu Mar 16 2023 00:21:11 GMT-0400 (Eastern Daylight Time)","613572","Match,No Match","","null","","","","","","<div class='trialBorder'><div class='vertical-center'><img style='vertical-align:center; align:center' src='img/fixation2_sml.jpg'></div><div class='arrayDiv1'><div class='tc'><img class='introPic' src='trustrating_stim/white_mw091.bmp'><br><font color='red'><strong>Keep</strong></font></div></div></div>","null","ARRAY","1","trustrating_stim/white_mw091.bmp","0","noMatchFace","i","1500","","","","",""
"html-keyboard-response","47","198760","0.0-7.0-3.2","63b6e5e23b31a38790ff1ce2","bdp_wmem","Thu Mar 16 2023 00:21:11 GMT-0400 (Eastern Daylight Time)","613572","Match,No Match","","null","","","","","","<div class='trialBorder'><div class='vertical-center'><img src='img/fixation2_sml.jpg'</img></div></div>","null","DELAY","","","","","","","","","","",""
"html-keyboard-response","48","199612","0.0-7.0-4.2","63b6e5e23b31a38790ff1ce2","bdp_wmem","Thu Mar 16 2023 00:21:11 GMT-0400 (Eastern Daylight Time)","613572","Match,No Match","","850","","","","","","<div class='trialBorder'><div class='targDiv'><div class='tc'><img class='introPic' src='trustrating_stim/white_mw078.bmp'><br><font color='red'><strong>Keep</strong></font></div></div><div class='respDiv'><div class='respDivL'>Match<br>(e)</div><div class='respDivR'>No Match<br>(i)</div></div></div>","i","TARGET","1","trustrating_stim/white_mw091.bmp","0","noMatchFace","i","1500","trustrating_stim/white_mw078.bmp","red","Keep","REAL","1"
"html-keyboard-response","49","200113","0.0-7.0-5.2","63b6e5e23b31a38790ff1ce2","bdp_wmem","Thu Mar 16 2023 00:21:11 GMT-0400 (Eastern Daylight Time)","613572","Match,No Match","","null","","","","","","<div class='trialBorder'><div class='vertical-center'><img src='img/correct.jpg'></div><div class='respDiv'><div class='respDivL'>Match<br>(e)</div><div class='respDivR'><font style='color:orange'>No Match<br>(i)</font></div></div></div>","null","FEEDBACK","","","","","","","","","","",""
"html-keyboard-response","50","200616","0.0-7.0-1.3","63b6e5e23b31a38790ff1ce2","bdp_wmem","Thu Mar 16 2023 00:21:11 GMT-0400 (Eastern Daylight Time)","613572","Match,No Match","","null","","","","","","<div class='trialBorder'><div class='vertical-center'><img src='img/fixation2_sml.jpg'</img></div></div>","null","FIX","","","","","","","","","","",""
"html-keyboard-response","51","203619","0.0-7.0-2.3","63b6e5e23b31a38790ff1ce2","bdp_wmem","Thu Mar 16 2023 00:21:11 GMT-0400 (Eastern Daylight Time)","613572","Match,No Match","","null","","","","","","<div class='trialBorder'><div class='vertical-center'><img style='vertical-align:center; align:center' src='img/fixation2_sml.jpg'></div><div class='arrayDiv2'><div class='tl'><img class='introPic' src='trustrating_stim/white_mw042.bmp'><br><font color='red'><strong>Keep</strong></font></div><div class='tr'><img class='introPic' src='trustrating_stim/white_mw038.bmp'><br><font color='green'><strong>Share</strong></font></div></div></div>","null","ARRAY","2","trustrating_stim/white_mw042.bmp,trustrating_stim/white_mw038.bmp","0,1","noMatchOutcome","i","3000","","","","",""
"html-keyboard-response","52","207620","0.0-7.0-3.3","63b6e5e23b31a38790ff1ce2","bdp_wmem","Thu Mar 16 2023 00:21:11 GMT-0400 (Eastern Daylight Time)","613572","Match,No Match","","null","","","","","","<div class='trialBorder'><div class='vertical-center'><img src='img/fixation2_sml.jpg'</img></div></div>","null","DELAY","","","","","","","","","","",""
"html-keyboard-response","53","209524","0.0-7.0-4.3","63b6e5e23b31a38790ff1ce2","bdp_wmem","Thu Mar 16 2023 00:21:11 GMT-0400 (Eastern Daylight Time)","613572","Match,No Match","","1900","","","","","","<div class='trialBorder'><div class='targDiv'><div class='tc'><img class='introPic' src='trustrating_stim/white_mw042.bmp'><br><font color='green'><strong>Share</strong></font></div></div><div class='respDiv'><div class='respDivL'>Match<br>(e)</div><div class='respDivR'>No Match<br>(i)</div></div></div>","i","TARGET","2","trustrating_stim/white_mw042.bmp,trustrating_stim/white_mw038.bmp","0,1","noMatchOutcome","i","3000","trustrating_stim/white_mw042.bmp","green","Share","REAL","1"
"html-keyboard-response","54","210026","0.0-7.0-5.3","63b6e5e23b31a38790ff1ce2","bdp_wmem","Thu Mar 16 2023 00:21:11 GMT-0400 (Eastern Daylight Time)","613572","Match,No Match","","null","","","","","","<div class='trialBorder'><div class='vertical-center'><img src='img/correct.jpg'></div><div class='respDiv'><div class='respDivL'>Match<br>(e)</div><div class='respDivR'><font style='color:orange'>No Match<br>(i)</font></div></div></div>","null","FEEDBACK","","","","","","","","","","",""
"html-keyboard-response","55","210528","0.0-7.0-1.4","63b6e5e23b31a38790ff1ce2","bdp_wmem","Thu Mar 16 2023 00:21:11 GMT-0400 (Eastern Daylight Time)","613572","Match,No Match","","null","","","","","","<div class='trialBorder'><div class='vertical-center'><img src='img/fixation2_sml.jpg'</img></div></div>","null","FIX","","","","","","","","","","",""
"html-keyboard-response","56","212030","0.0-7.0-2.4","63b6e5e23b31a38790ff1ce2","bdp_wmem","Thu Mar 16 2023 00:21:11 GMT-0400 (Eastern Daylight Time)","613572","Match,No Match","","null","","","","","","<div class='trialBorder'><div class='vertical-center'><img style='vertical-align:center; align:center' src='img/fixation2_sml.jpg'></div><div class='arrayDiv1'><div class='tc'><img class='introPic' src='trustrating_stim/white_mw078.bmp'><br><font color='green'><strong>Share</strong></font></div></div></div>","null","ARRAY","1","trustrating_stim/white_mw078.bmp","1","noMatchOutcome","i","1500","","","","",""
"html-keyboard-response","57","216032","0.0-7.0-3.4","63b6e5e23b31a38790ff1ce2","bdp_wmem","Thu Mar 16 2023 00:21:11 GMT-0400 (Eastern Daylight Time)","613572","Match,No Match","","null","","","","","","<div class='trialBorder'><div class='vertical-center'><img src='img/fixation2_sml.jpg'</img></div></div>","null","DELAY","","","","","","","","","","",""
"html-keyboard-response","58","216940","0.0-7.0-4.4","63b6e5e23b31a38790ff1ce2","bdp_wmem","Thu Mar 16 2023 00:21:11 GMT-0400 (Eastern Daylight Time)","613572","Match,No Match","","905","","","","","","<div class='trialBorder'><div class='targDiv'><div class='tc'><img class='introPic' src='trustrating_stim/white_mw078.bmp'><br><font color='red'><strong>Keep</strong></font></div></div><div class='respDiv'><div class='respDivL'>Match<br>(e)</div><div class='respDivR'>No Match<br>(i)</div></div></div>","i","TARGET","1","trustrating_stim/white_mw078.bmp","1","noMatchOutcome","i","1500","trustrating_stim/white_mw078.bmp","red","Keep","REAL","1"
"html-keyboard-response","59","217441","0.0-7.0-5.4","63b6e5e23b31a38790ff1ce2","bdp_wmem","Thu Mar 16 2023 00:21:11 GMT-0400 (Eastern Daylight Time)","613572","Match,No Match","","null","","","","","","<div class='trialBorder'><div class='vertical-center'><img src='img/correct.jpg'></div><div class='respDiv'><div class='respDivL'>Match<br>(e)</div><div class='respDivR'><font style='color:orange'>No Match<br>(i)</font></div></div></div>","null","FEEDBACK","","","","","","","","","","",""
"html-keyboard-response","60","217944","0.0-7.0-1.5","63b6e5e23b31a38790ff1ce2","bdp_wmem","Thu Mar 16 2023 00:21:11 GMT-0400 (Eastern Daylight Time)","613572","Match,No Match","","null","","","","","","<div class='trialBorder'><div class='vertical-center'><img src='img/fixation2_sml.jpg'</img></div></div>","null","FIX","","","","","","","","","","",""
"html-keyboard-response","61","222446","0.0-7.0-2.5","63b6e5e23b31a38790ff1ce2","bdp_wmem","Thu Mar 16 2023 00:21:11 GMT-0400 (Eastern Daylight Time)","613572","Match,No Match","","null","","","","","","<div class='trialBorder'><div class='vertical-center'><img style='vertical-align:center; align:center' src='img/fixation2_sml.jpg'></div><div class='arrayDiv3'><div class='tl'><img class='introPic' src='trustrating_stim/white_mw042.bmp'><br><font color='green'><strong>Share</strong></font></div><div class='tc'><img class='introPic' src='trustrating_stim/white_mw040.bmp'><br><font color='red'><strong>Keep</strong></font></div><div class='tr'><img class='introPic' src='trustrating_stim/white_mw091.bmp'><br><font color='red'><strong>Keep</strong></font></div></div></div>","null","ARRAY","3","trustrating_stim/white_mw042.bmp,trustrating_stim/white_mw040.bmp,trustrating_stim/white_mw091.bmp","1,0,0","Match","e","4500","","","","",""
"html-keyboard-response","62","226448","0.0-7.0-3.5","63b6e5e23b31a38790ff1ce2","bdp_wmem","Thu Mar 16 2023 00:21:11 GMT-0400 (Eastern Daylight Time)","613572","Match,No Match","","null","","","","","","<div class='trialBorder'><div class='vertical-center'><img src='img/fixation2_sml.jpg'</img></div></div>","null","DELAY","","","","","","","","","","",""
"html-keyboard-response","63","227628","0.0-7.0-4.5","63b6e5e23b31a38790ff1ce2","bdp_wmem","Thu Mar 16 2023 00:21:11 GMT-0400 (Eastern Daylight Time)","613572","Match,No Match","","1178","","","","","","<div class='trialBorder'><div class='targDiv'><div class='tc'><img class='introPic' src='trustrating_stim/white_mw042.bmp'><br><font color='green'><strong>Share</strong></font></div></div><div class='respDiv'><div class='respDivL'>Match<br>(e)</div><div class='respDivR'>No Match<br>(i)</div></div></div>","e","TARGET","3","trustrating_stim/white_mw042.bmp,trustrating_stim/white_mw040.bmp,trustrating_stim/white_mw091.bmp","1,0,0","Match","e","4500","trustrating_stim/white_mw042.bmp","green","Share","REAL","1"
"html-keyboard-response","64","228131","0.0-7.0-5.5","63b6e5e23b31a38790ff1ce2","bdp_wmem","Thu Mar 16 2023 00:21:11 GMT-0400 (Eastern Daylight Time)","613572","Match,No Match","","null","","","","","","<div class='trialBorder'><div class='vertical-center'><img src='img/correct.jpg'></div><div class='respDiv'><div class='respDivL'><font style='color:orange'>Match<br>(e)</font></div><div class='respDivR'>No Match<br>(i)</div></div></div>","null","FEEDBACK","","","","","","","","","","",""
"html-keyboard-response","65","228634","0.0-7.0-1.6","63b6e5e23b31a38790ff1ce2","bdp_wmem","Thu Mar 16 2023 00:21:11 GMT-0400 (Eastern Daylight Time)","613572","Match,No Match","","null","","","","","","<div class='trialBorder'><div class='vertical-center'><img src='img/fixation2_sml.jpg'</img></div></div>","null","FIX","","","","","","","","","","",""
"html-keyboard-response","66","231636","0.0-7.0-2.6","63b6e5e23b31a38790ff1ce2","bdp_wmem","Thu Mar 16 2023 00:21:11 GMT-0400 (Eastern Daylight Time)","613572","Match,No Match","","null","","","","","","<div class='trialBorder'><div class='vertical-center'><img style='vertical-align:center; align:center' src='img/fixation2_sml.jpg'></div><div class='arrayDiv2'><div class='tl'><img class='introPic' src='trustrating_stim/white_mw070.bmp'><br><font color='red'><strong>Keep</strong></font></div><div class='tr'><img class='introPic' src='trustrating_stim/white_mw038.bmp'><br><font color='green'><strong>Share</strong></font></div></div></div>","null","ARRAY","2","trustrating_stim/white_mw070.bmp,trustrating_stim/white_mw038.bmp","0,1","Match","e","3000","","","","",""
"html-keyboard-response","67","235638","0.0-7.0-3.6","63b6e5e23b31a38790ff1ce2","bdp_wmem","Thu Mar 16 2023 00:21:11 GMT-0400 (Eastern Daylight Time)","613572","Match,No Match","","null","","","","","","<div class='trialBorder'><div class='vertical-center'><img src='img/fixation2_sml.jpg'</img></div></div>","null","DELAY","","","","","","","","","","",""
"html-keyboard-response","68","237188","0.0-7.0-4.6","63b6e5e23b31a38790ff1ce2","bdp_wmem","Thu Mar 16 2023 00:21:11 GMT-0400 (Eastern Daylight Time)","613572","Match,No Match","","1547","","","","","","<div class='trialBorder'><div class='targDiv'><div class='tc'><img class='introPic' src='trustrating_stim/white_mw038.bmp'><br><font color='green'><strong>Share</strong></font></div></div><div class='respDiv'><div class='respDivL'>Match<br>(e)</div><div class='respDivR'>No Match<br>(i)</div></div></div>","e","TARGET","2","trustrating_stim/white_mw070.bmp,trustrating_stim/white_mw038.bmp","0,1","Match","e","3000","trustrating_stim/white_mw038.bmp","green","Share","REAL","1"
"html-keyboard-response","69","237691","0.0-7.0-5.6","63b6e5e23b31a38790ff1ce2","bdp_wmem","Thu Mar 16 2023 00:21:11 GMT-0400 (Eastern Daylight Time)","613572","Match,No Match","","null","","","","","","<div class='trialBorder'><div class='vertical-center'><img src='img/correct.jpg'></div><div class='respDiv'><div class='respDivL'><font style='color:orange'>Match<br>(e)</font></div><div class='respDivR'>No Match<br>(i)</div></div></div>","null","FEEDBACK","","","","","","","","","","",""
"html-keyboard-response","70","238192","0.0-7.0-1.7","63b6e5e23b31a38790ff1ce2","bdp_wmem","Thu Mar 16 2023 00:21:11 GMT-0400 (Eastern Daylight Time)","613572","Match,No Match","","null","","","","","","<div class='trialBorder'><div class='vertical-center'><img src='img/fixation2_sml.jpg'</img></div></div>","null","FIX","","","","","","","","","","",""
"html-keyboard-response","71","241194","0.0-7.0-2.7","63b6e5e23b31a38790ff1ce2","bdp_wmem","Thu Mar 16 2023 00:21:11 GMT-0400 (Eastern Daylight Time)","613572","Match,No Match","","null","","","","","","<div class='trialBorder'><div class='vertical-center'><img style='vertical-align:center; align:center' src='img/fixation2_sml.jpg'></div><div class='arrayDiv2'><div class='tl'><img class='introPic' src='trustrating_stim/white_mw003.bmp'><br><font color='red'><strong>Keep</strong></font></div><div class='tr'><img class='introPic' src='trustrating_stim/white_mw040.bmp'><br><font color='green'><strong>Share</strong></font></div></div></div>","null","ARRAY","2","trustrating_stim/white_mw003.bmp,trustrating_stim/white_mw040.bmp","0,1","noMatchFace","i","3000","","","","",""
"html-keyboard-response","72","245196","0.0-7.0-3.7","63b6e5e23b31a38790ff1ce2","bdp_wmem","Thu Mar 16 2023 00:21:11 GMT-0400 (Eastern Daylight Time)","613572","Match,No Match","","null","","","","","","<div class='trialBorder'><div class='vertical-center'><img src='img/fixation2_sml.jpg'</img></div></div>","null","DELAY","","","","","","","","","","",""
"html-keyboard-response","73","247133","0.0-7.0-4.7","63b6e5e23b31a38790ff1ce2","bdp_wmem","Thu Mar 16 2023 00:21:11 GMT-0400 (Eastern Daylight Time)","613572","Match,No Match","","1934","","","","","","<div class='trialBorder'><div class='targDiv'><div class='tc'><img class='introPic' src='trustrating_stim/white_mw092.bmp'><br><font color='red'><strong>Keep</strong></font></div></div><div class='respDiv'><div class='respDivL'>Match<br>(e)</div><div class='respDivR'>No Match<br>(i)</div></div></div>","i","TARGET","2","trustrating_stim/white_mw003.bmp,trustrating_stim/white_mw040.bmp","0,1","noMatchFace","i","3000","trustrating_stim/white_mw092.bmp","red","Keep","REAL","1"
"html-keyboard-response","74","247635","0.0-7.0-5.7","63b6e5e23b31a38790ff1ce2","bdp_wmem","Thu Mar 16 2023 00:21:11 GMT-0400 (Eastern Daylight Time)","613572","Match,No Match","","null","","","","","","<div class='trialBorder'><div class='vertical-center'><img src='img/correct.jpg'></div><div class='respDiv'><div class='respDivL'>Match<br>(e)</div><div class='respDivR'><font style='color:orange'>No Match<br>(i)</font></div></div></div>","null","FEEDBACK","","","","","","","","","","",""
"html-keyboard-response","75","248137","0.0-7.0-1.8","63b6e5e23b31a38790ff1ce2","bdp_wmem","Thu Mar 16 2023 00:21:11 GMT-0400 (Eastern Daylight Time)","613572","Match,No Match","","null","","","","","","<div class='trialBorder'><div class='vertical-center'><img src='img/fixation2_sml.jpg'</img></div></div>","null","FIX","","","","","","","","","","",""
"html-keyboard-response","76","251139","0.0-7.0-2.8","63b6e5e23b31a38790ff1ce2","bdp_wmem","Thu Mar 16 2023 00:21:11 GMT-0400 (Eastern Daylight Time)","613572","Match,No Match","","null","","","","","","<div class='trialBorder'><div class='vertical-center'><img style='vertical-align:center; align:center' src='img/fixation2_sml.jpg'></div><div class='arrayDiv2'><div class='tl'><img class='introPic' src='trustrating_stim/white_mw038.bmp'><br><font color='green'><strong>Share</strong></font></div><div class='tr'><img class='introPic' src='trustrating_stim/white_mw092.bmp'><br><font color='red'><strong>Keep</strong></font></div></div></div>","null","ARRAY","2","trustrating_stim/white_mw038.bmp,trustrating_stim/white_mw092.bmp","1,0","noMatchFace","i","3000","","","","",""
"html-keyboard-response","77","255142","0.0-7.0-3.8","63b6e5e23b31a38790ff1ce2","bdp_wmem","Thu Mar 16 2023 00:21:11 GMT-0400 (Eastern Daylight Time)","613572","Match,No Match","","null","","","","","","<div class='trialBorder'><div class='vertical-center'><img src='img/fixation2_sml.jpg'</img></div></div>","null","DELAY","","","","","","","","","","",""
"html-keyboard-response","78","256196","0.0-7.0-4.8","63b6e5e23b31a38790ff1ce2","bdp_wmem","Thu Mar 16 2023 00:21:11 GMT-0400 (Eastern Daylight Time)","613572","Match,No Match","","1052","","","","","","<div class='trialBorder'><div class='targDiv'><div class='tc'><img class='introPic' src='trustrating_stim/white_mw070.bmp'><br><font color='green'><strong>Share</strong></font></div></div><div class='respDiv'><div class='respDivL'>Match<br>(e)</div><div class='respDivR'>No Match<br>(i)</div></div></div>","i","TARGET","2","trustrating_stim/white_mw038.bmp,trustrating_stim/white_mw092.bmp","1,0","noMatchFace","i","3000","trustrating_stim/white_mw070.bmp","green","Share","REAL","1"
"html-keyboard-response","79","256698","0.0-7.0-5.8","63b6e5e23b31a38790ff1ce2","bdp_wmem","Thu Mar 16 2023 00:21:11 GMT-0400 (Eastern Daylight Time)","613572","Match,No Match","","null","","","","","","<div class='trialBorder'><div class='vertical-center'><img src='img/correct.jpg'></div><div class='respDiv'><div class='respDivL'>Match<br>(e)</div><div class='respDivR'><font style='color:orange'>No Match<br>(i)</font></div></div></div>","null","FEEDBACK","","","","","","","","","","",""
"html-keyboard-response","80","257200","0.0-7.0-1.9","63b6e5e23b31a38790ff1ce2","bdp_wmem","Thu Mar 16 2023 00:21:11 GMT-0400 (Eastern Daylight Time)","613572","Match,No Match","","null","","","","","","<div class='trialBorder'><div class='vertical-center'><img src='img/fixation2_sml.jpg'</img></div></div>","null","FIX","","","","","","","","","","",""
"html-keyboard-response","81","260202","0.0-7.0-2.9","63b6e5e23b31a38790ff1ce2","bdp_wmem","Thu Mar 16 2023 00:21:11 GMT-0400 (Eastern Daylight Time)","613572","Match,No Match","","null","","","","","","<div class='trialBorder'><div class='vertical-center'><img style='vertical-align:center; align:center' src='img/fixation2_sml.jpg'></div><div class='arrayDiv2'><div class='tl'><img class='introPic' src='trustrating_stim/white_mw070.bmp'><br><font color='red'><strong>Keep</strong></font></div><div class='tr'><img class='introPic' src='trustrating_stim/white_mw010.bmp'><br><font color='green'><strong>Share</strong></font></div></div></div>","null","ARRAY","2","trustrating_stim/white_mw070.bmp,trustrating_stim/white_mw010.bmp","0,1","Match","e","3000","","","","",""
"html-keyboard-response","82","264205","0.0-7.0-3.9","63b6e5e23b31a38790ff1ce2","bdp_wmem","Thu Mar 16 2023 00:21:11 GMT-0400 (Eastern Daylight Time)","613572","Match,No Match","","null","","","","","","<div class='trialBorder'><div class='vertical-center'><img src='img/fixation2_sml.jpg'</img></div></div>","null","DELAY","","","","","","","","","","",""
"html-keyboard-response","83","265564","0.0-7.0-4.9","63b6e5e23b31a38790ff1ce2","bdp_wmem","Thu Mar 16 2023 00:21:11 GMT-0400 (Eastern Daylight Time)","613572","Match,No Match","","1357","","","","","","<div class='trialBorder'><div class='targDiv'><div class='tc'><img class='introPic' src='trustrating_stim/white_mw010.bmp'><br><font color='green'><strong>Share</strong></font></div></div><div class='respDiv'><div class='respDivL'>Match<br>(e)</div><div class='respDivR'>No Match<br>(i)</div></div></div>","e","TARGET","2","trustrating_stim/white_mw070.bmp,trustrating_stim/white_mw010.bmp","0,1","Match","e","3000","trustrating_stim/white_mw010.bmp","green","Share","REAL","1"
"html-keyboard-response","84","266066","0.0-7.0-5.9","63b6e5e23b31a38790ff1ce2","bdp_wmem","Thu Mar 16 2023 00:21:11 GMT-0400 (Eastern Daylight Time)","613572","Match,No Match","","null","","","","","","<div class='trialBorder'><div class='vertical-center'><img src='img/correct.jpg'></div><div class='respDiv'><div class='respDivL'><font style='color:orange'>Match<br>(e)</font></div><div class='respDivR'>No Match<br>(i)</div></div></div>","null","FEEDBACK","","","","","","","","","","",""
"html-keyboard-response","85","266568","0.0-7.0-1.10","63b6e5e23b31a38790ff1ce2","bdp_wmem","Thu Mar 16 2023 00:21:11 GMT-0400 (Eastern Daylight Time)","613572","Match,No Match","","null","","","","","","<div class='trialBorder'><div class='vertical-center'><img src='img/fixation2_sml.jpg'</img></div></div>","null","FIX","","","","","","","","","","",""
"html-keyboard-response","86","271070","0.0-7.0-2.10","63b6e5e23b31a38790ff1ce2","bdp_wmem","Thu Mar 16 2023 00:21:11 GMT-0400 (Eastern Daylight Time)","613572","Match,No Match","","null","","","","","","<div class='trialBorder'><div class='vertical-center'><img style='vertical-align:center; align:center' src='img/fixation2_sml.jpg'></div><div class='arrayDiv3'><div class='tl'><img class='introPic' src='trustrating_stim/white_mw092.bmp'><br><font color='green'><strong>Share</strong></font></div><div class='tc'><img class='introPic' src='trustrating_stim/white_mw040.bmp'><br><font color='red'><strong>Keep</strong></font></div><div class='tr'><img class='introPic' src='trustrating_stim/white_mw003.bmp'><br><font color='red'><strong>Keep</strong></font></div></div></div>","null","ARRAY","3","trustrating_stim/white_mw092.bmp,trustrating_stim/white_mw040.bmp,trustrating_stim/white_mw003.bmp","1,0,0","noMatchFace","i","4500","","","","",""
"html-keyboard-response","87","275071","0.0-7.0-3.10","63b6e5e23b31a38790ff1ce2","bdp_wmem","Thu Mar 16 2023 00:21:11 GMT-0400 (Eastern Daylight Time)","613572","Match,No Match","","null","","","","","","<div class='trialBorder'><div class='vertical-center'><img src='img/fixation2_sml.jpg'</img></div></div>","null","DELAY","","","","","","","","","","",""
"html-keyboard-response","88","275988","0.0-7.0-4.10","63b6e5e23b31a38790ff1ce2","bdp_wmem","Thu Mar 16 2023 00:21:11 GMT-0400 (Eastern Daylight Time)","613572","Match,No Match","","914","","","","","","<div class='trialBorder'><div class='targDiv'><div class='tc'><img class='introPic' src='trustrating_stim/white_mw013.bmp'><br><font color='green'><strong>Share</strong></font></div></div><div class='respDiv'><div class='respDivL'>Match<br>(e)</div><div class='respDivR'>No Match<br>(i)</div></div></div>","i","TARGET","3","trustrating_stim/white_mw092.bmp,trustrating_stim/white_mw040.bmp,trustrating_stim/white_mw003.bmp","1,0,0","noMatchFace","i","4500","trustrating_stim/white_mw013.bmp","green","Share","REAL","1"
"html-keyboard-response","89","276491","0.0-7.0-5.10","63b6e5e23b31a38790ff1ce2","bdp_wmem","Thu Mar 16 2023 00:21:11 GMT-0400 (Eastern Daylight Time)","613572","Match,No Match","","null","","","","","","<div class='trialBorder'><div class='vertical-center'><img src='img/correct.jpg'></div><div class='respDiv'><div class='respDivL'>Match<br>(e)</div><div class='respDivR'><font style='color:orange'>No Match<br>(i)</font></div></div></div>","null","FEEDBACK","","","","","","","","","","",""
"html-keyboard-response","90","276993","0.0-7.0-1.11","63b6e5e23b31a38790ff1ce2","bdp_wmem","Thu Mar 16 2023 00:21:11 GMT-0400 (Eastern Daylight Time)","613572","Match,No Match","","null","","","","","","<div class='trialBorder'><div class='vertical-center'><img src='img/fixation2_sml.jpg'</img></div></div>","null","FIX","","","","","","","","","","",""
"html-keyboard-response","91","281496","0.0-7.0-2.11","63b6e5e23b31a38790ff1ce2","bdp_wmem","Thu Mar 16 2023 00:21:11 GMT-0400 (Eastern Daylight Time)","613572","Match,No Match","","null","","","","","","<div class='trialBorder'><div class='vertical-center'><img style='vertical-align:center; align:center' src='img/fixation2_sml.jpg'></div><div class='arrayDiv3'><div class='tl'><img class='introPic' src='trustrating_stim/white_mw013.bmp'><br><font color='red'><strong>Keep</strong></font></div><div class='tc'><img class='introPic' src='trustrating_stim/white_mw040.bmp'><br><font color='green'><strong>Share</strong></font></div><div class='tr'><img class='introPic' src='trustrating_stim/white_mw042.bmp'><br><font color='green'><strong>Share</strong></font></div></div></div>","null","ARRAY","3","trustrating_stim/white_mw013.bmp,trustrating_stim/white_mw040.bmp,trustrating_stim/white_mw042.bmp","0,1,1","noMatchFace","i","4500","","","","",""
"html-keyboard-response","92","285498","0.0-7.0-3.11","63b6e5e23b31a38790ff1ce2","bdp_wmem","Thu Mar 16 2023 00:21:11 GMT-0400 (Eastern Daylight Time)","613572","Match,No Match","","null","","","","","","<div class='trialBorder'><div class='vertical-center'><img src='img/fixation2_sml.jpg'</img></div></div>","null","DELAY","","","","","","","","","","",""
"html-keyboard-response","93","286500","0.0-7.0-4.11","63b6e5e23b31a38790ff1ce2","bdp_wmem","Thu Mar 16 2023 00:21:11 GMT-0400 (Eastern Daylight Time)","613572","Match,No Match","","1000","","","","","","<div class='trialBorder'><div class='targDiv'><div class='tc'><img class='introPic' src='trustrating_stim/white_mw091.bmp'><br><font color='green'><strong>Share</strong></font></div></div><div class='respDiv'><div class='respDivL'>Match<br>(e)</div><div class='respDivR'>No Match<br>(i)</div></div></div>","i","TARGET","3","trustrating_stim/white_mw013.bmp,trustrating_stim/white_mw040.bmp,trustrating_stim/white_mw042.bmp","0,1,1","noMatchFace","i","4500","trustrating_stim/white_mw091.bmp","green","Share","REAL","1"
"html-keyboard-response","94","287001","0.0-7.0-5.11","63b6e5e23b31a38790ff1ce2","bdp_wmem","Thu Mar 16 2023 00:21:11 GMT-0400 (Eastern Daylight Time)","613572","Match,No Match","","null","","","","","","<div class='trialBorder'><div class='vertical-center'><img src='img/correct.jpg'></div><div class='respDiv'><div class='respDivL'>Match<br>(e)</div><div class='respDivR'><font style='color:orange'>No Match<br>(i)</font></div></div></div>","null","FEEDBACK","","","","","","","","","","",""
"html-keyboard-response","95","287503","0.0-7.0-1.12","63b6e5e23b31a38790ff1ce2","bdp_wmem","Thu Mar 16 2023 00:21:11 GMT-0400 (Eastern Daylight Time)","613572","Match,No Match","","null","","","","","","<div class='trialBorder'><div class='vertical-center'><img src='img/fixation2_sml.jpg'</img></div></div>","null","FIX","","","","","","","","","","",""
"html-keyboard-response","96","290505","0.0-7.0-2.12","63b6e5e23b31a38790ff1ce2","bdp_wmem","Thu Mar 16 2023 00:21:11 GMT-0400 (Eastern Daylight Time)","613572","Match,No Match","","null","","","","","","<div class='trialBorder'><div class='vertical-center'><img style='vertical-align:center; align:center' src='img/fixation2_sml.jpg'></div><div class='arrayDiv2'><div class='tl'><img class='introPic' src='trustrating_stim/white_mw040.bmp'><br><font color='red'><strong>Keep</strong></font></div><div class='tr'><img class='introPic' src='trustrating_stim/white_mw012.bmp'><br><font color='green'><strong>Share</strong></font></div></div></div>","null","ARRAY","2","trustrating_stim/white_mw040.bmp,trustrating_stim/white_mw012.bmp","0,1","Match","e","3000","","","","",""
"html-keyboard-response","97","294508","0.0-7.0-3.12","63b6e5e23b31a38790ff1ce2","bdp_wmem","Thu Mar 16 2023 00:21:11 GMT-0400 (Eastern Daylight Time)","613572","Match,No Match","","null","","","","","","<div class='trialBorder'><div class='vertical-center'><img src='img/fixation2_sml.jpg'</img></div></div>","null","DELAY","","","","","","","","","","",""
"html-keyboard-response","98","295836","0.0-7.0-4.12","63b6e5e23b31a38790ff1ce2","bdp_wmem","Thu Mar 16 2023 00:21:11 GMT-0400 (Eastern Daylight Time)","613572","Match,No Match","","1326","","","","","","<div class='trialBorder'><div class='targDiv'><div class='tc'><img class='introPic' src='trustrating_stim/white_mw012.bmp'><br><font color='green'><strong>Share</strong></font></div></div><div class='respDiv'><div class='respDivL'>Match<br>(e)</div><div class='respDivR'>No Match<br>(i)</div></div></div>","e","TARGET","2","trustrating_stim/white_mw040.bmp,trustrating_stim/white_mw012.bmp","0,1","Match","e","3000","trustrating_stim/white_mw012.bmp","green","Share","REAL","1"
"html-keyboard-response","99","296338","0.0-7.0-5.12","63b6e5e23b31a38790ff1ce2","bdp_wmem","Thu Mar 16 2023 00:21:11 GMT-0400 (Eastern Daylight Time)","613572","Match,No Match","","null","","","","","","<div class='trialBorder'><div class='vertical-center'><img src='img/correct.jpg'></div><div class='respDiv'><div class='respDivL'><font style='color:orange'>Match<br>(e)</font></div><div class='respDivR'>No Match<br>(i)</div></div></div>","null","FEEDBACK","","","","","","","","","","",""
"html-keyboard-response","100","296840","0.0-7.0-1.13","63b6e5e23b31a38790ff1ce2","bdp_wmem","Thu Mar 16 2023 00:21:11 GMT-0400 (Eastern Daylight Time)","613572","Match,No Match","","null","","","","","","<div class='trialBorder'><div class='vertical-center'><img src='img/fixation2_sml.jpg'</img></div></div>","null","FIX","","","","","","","","","","",""
"html-keyboard-response","101","298343","0.0-7.0-2.13","63b6e5e23b31a38790ff1ce2","bdp_wmem","Thu Mar 16 2023 00:21:11 GMT-0400 (Eastern Daylight Time)","613572","Match,No Match","","null","","","","","","<div class='trialBorder'><div class='vertical-center'><img style='vertical-align:center; align:center' src='img/fixation2_sml.jpg'></div><div class='arrayDiv1'><div class='tc'><img class='introPic' src='trustrating_stim/white_mw078.bmp'><br><font color='red'><strong>Keep</strong></font></div></div></div>","null","ARRAY","1","trustrating_stim/white_mw078.bmp","0","Match","e","1500","","","","",""
"html-keyboard-response","102","302345","0.0-7.0-3.13","63b6e5e23b31a38790ff1ce2","bdp_wmem","Thu Mar 16 2023 00:21:11 GMT-0400 (Eastern Daylight Time)","613572","Match,No Match","","null","","","","","","<div class='trialBorder'><div class='vertical-center'><img src='img/fixation2_sml.jpg'</img></div></div>","null","DELAY","","","","","","","","","","",""
"html-keyboard-response","103","303940","0.0-7.0-4.13","63b6e5e23b31a38790ff1ce2","bdp_wmem","Thu Mar 16 2023 00:21:11 GMT-0400 (Eastern Daylight Time)","613572","Match,No Match","","1592","","","","","","<div class='trialBorder'><div class='targDiv'><div class='tc'><img class='introPic' src='trustrating_stim/white_mw078.bmp'><br><font color='red'><strong>Keep</strong></font></div></div><div class='respDiv'><div class='respDivL'>Match<br>(e)</div><div class='respDivR'>No Match<br>(i)</div></div></div>","e","TARGET","1","trustrating_stim/white_mw078.bmp","0","Match","e","1500","trustrating_stim/white_mw078.bmp","red","Keep","REAL","1"
"html-keyboard-response","104","304442","0.0-7.0-5.13","63b6e5e23b31a38790ff1ce2","bdp_wmem","Thu Mar 16 2023 00:21:11 GMT-0400 (Eastern Daylight Time)","613572","Match,No Match","","null","","","","","","<div class='trialBorder'><div class='vertical-center'><img src='img/correct.jpg'></div><div class='respDiv'><div class='respDivL'><font style='color:orange'>Match<br>(e)</font></div><div class='respDivR'>No Match<br>(i)</div></div></div>","null","FEEDBACK","","","","","","","","","","",""
"html-keyboard-response","105","304944","0.0-7.0-1.14","63b6e5e23b31a38790ff1ce2","bdp_wmem","Thu Mar 16 2023 00:21:11 GMT-0400 (Eastern Daylight Time)","613572","Match,No Match","","null","","","","","","<div class='trialBorder'><div class='vertical-center'><img src='img/fixation2_sml.jpg'</img></div></div>","null","FIX","","","","","","","","","","",""
"html-keyboard-response","106","307946","0.0-7.0-2.14","63b6e5e23b31a38790ff1ce2","bdp_wmem","Thu Mar 16 2023 00:21:11 GMT-0400 (Eastern Daylight Time)","613572","Match,No Match","","null","","","","","","<div class='trialBorder'><div class='vertical-center'><img style='vertical-align:center; align:center' src='img/fixation2_sml.jpg'></div><div class='arrayDiv2'><div class='tl'><img class='introPic' src='trustrating_stim/white_mw013.bmp'><br><font color='green'><strong>Share</strong></font></div><div class='tr'><img class='introPic' src='trustrating_stim/white_mw092.bmp'><br><font color='red'><strong>Keep</strong></font></div></div></div>","null","ARRAY","2","trustrating_stim/white_mw013.bmp,trustrating_stim/white_mw092.bmp","1,0","noMatchOutcome","i","3000","","","","",""
"html-keyboard-response","107","311949","0.0-7.0-3.14","63b6e5e23b31a38790ff1ce2","bdp_wmem","Thu Mar 16 2023 00:21:11 GMT-0400 (Eastern Daylight Time)","613572","Match,No Match","","null","","","","","","<div class='trialBorder'><div class='vertical-center'><img src='img/fixation2_sml.jpg'</img></div></div>","null","DELAY","","","","","","","","","","",""
"html-keyboard-response","108","313252","0.0-7.0-4.14","63b6e5e23b31a38790ff1ce2","bdp_wmem","Thu Mar 16 2023 00:21:11 GMT-0400 (Eastern Daylight Time)","613572","Match,No Match","","1301","","","","","","<div class='trialBorder'><div class='targDiv'><div class='tc'><img class='introPic' src='trustrating_stim/white_mw013.bmp'><br><font color='red'><strong>Keep</strong></font></div></div><div class='respDiv'><div class='respDivL'>Match<br>(e)</div><div class='respDivR'>No Match<br>(i)</div></div></div>","i","TARGET","2","trustrating_stim/white_mw013.bmp,trustrating_stim/white_mw092.bmp","1,0","noMatchOutcome","i","3000","trustrating_stim/white_mw013.bmp","red","Keep","REAL","1"
"html-keyboard-response","109","313754","0.0-7.0-5.14","63b6e5e23b31a38790ff1ce2","bdp_wmem","Thu Mar 16 2023 00:21:11 GMT-0400 (Eastern Daylight Time)","613572","Match,No Match","","null","","","","","","<div class='trialBorder'><div class='vertical-center'><img src='img/correct.jpg'></div><div class='respDiv'><div class='respDivL'>Match<br>(e)</div><div class='respDivR'><font style='color:orange'>No Match<br>(i)</font></div></div></div>","null","FEEDBACK","","","","","","","","","","",""
"html-keyboard-response","110","314256","0.0-7.0-1.15","63b6e5e23b31a38790ff1ce2","bdp_wmem","Thu Mar 16 2023 00:21:11 GMT-0400 (Eastern Daylight Time)","613572","Match,No Match","","null","","","","","","<div class='trialBorder'><div class='vertical-center'><img src='img/fixation2_sml.jpg'</img></div></div>","null","FIX","","","","","","","","","","",""
"html-keyboard-response","111","315759","0.0-7.0-2.15","63b6e5e23b31a38790ff1ce2","bdp_wmem","Thu Mar 16 2023 00:21:11 GMT-0400 (Eastern Daylight Time)","613572","Match,No Match","","null","","","","","","<div class='trialBorder'><div class='vertical-center'><img style='vertical-align:center; align:center' src='img/fixation2_sml.jpg'></div><div class='arrayDiv1'><div class='tc'><img class='introPic' src='trustrating_stim/white_mw003.bmp'><br><font color='red'><strong>Keep</strong></font></div></div></div>","null","ARRAY","1","trustrating_stim/white_mw003.bmp","0","noMatchOutcome","i","1500","","","","",""
"html-keyboard-response","112","319760","0.0-7.0-3.15","63b6e5e23b31a38790ff1ce2","bdp_wmem","Thu Mar 16 2023 00:21:11 GMT-0400 (Eastern Daylight Time)","613572","Match,No Match","","null","","","","","","<div class='trialBorder'><div class='vertical-center'><img src='img/fixation2_sml.jpg'</img></div></div>","null","DELAY","","","","","","","","","","",""
"html-keyboard-response","113","320572","0.0-7.0-4.15","63b6e5e23b31a38790ff1ce2","bdp_wmem","Thu Mar 16 2023 00:21:11 GMT-0400 (Eastern Daylight Time)","613572","Match,No Match","","810","","","","","","<div class='trialBorder'><div class='targDiv'><div class='tc'><img class='introPic' src='trustrating_stim/white_mw003.bmp'><br><font color='green'><strong>Share</strong></font></div></div><div class='respDiv'><div class='respDivL'>Match<br>(e)</div><div class='respDivR'>No Match<br>(i)</div></div></div>","i","TARGET","1","trustrating_stim/white_mw003.bmp","0","noMatchOutcome","i","1500","trustrating_stim/white_mw003.bmp","green","Share","REAL","1"
"html-keyboard-response","114","321074","0.0-7.0-5.15","63b6e5e23b31a38790ff1ce2","bdp_wmem","Thu Mar 16 2023 00:21:11 GMT-0400 (Eastern Daylight Time)","613572","Match,No Match","","null","","","","","","<div class='trialBorder'><div class='vertical-center'><img src='img/correct.jpg'></div><div class='respDiv'><div class='respDivL'>Match<br>(e)</div><div class='respDivR'><font style='color:orange'>No Match<br>(i)</font></div></div></div>","null","FEEDBACK","","","","","","","","","","",""
"html-keyboard-response","115","321576","0.0-7.0-1.16","63b6e5e23b31a38790ff1ce2","bdp_wmem","Thu Mar 16 2023 00:21:11 GMT-0400 (Eastern Daylight Time)","613572","Match,No Match","","null","","","","","","<div class='trialBorder'><div class='vertical-center'><img src='img/fixation2_sml.jpg'</img></div></div>","null","FIX","","","","","","","","","","",""
"html-keyboard-response","116","323079","0.0-7.0-2.16","63b6e5e23b31a38790ff1ce2","bdp_wmem","Thu Mar 16 2023 00:21:11 GMT-0400 (Eastern Daylight Time)","613572","Match,No Match","","null","","","","","","<div class='trialBorder'><div class='vertical-center'><img style='vertical-align:center; align:center' src='img/fixation2_sml.jpg'></div><div class='arrayDiv1'><div class='tc'><img class='introPic' src='trustrating_stim/white_mw091.bmp'><br><font color='red'><strong>Keep</strong></font></div></div></div>","null","ARRAY","1","trustrating_stim/white_mw091.bmp","0","noMatchOutcome","i","1500","","","","",""
"html-keyboard-response","117","327081","0.0-7.0-3.16","63b6e5e23b31a38790ff1ce2","bdp_wmem","Thu Mar 16 2023 00:21:11 GMT-0400 (Eastern Daylight Time)","613572","Match,No Match","","null","","","","","","<div class='trialBorder'><div class='vertical-center'><img src='img/fixation2_sml.jpg'</img></div></div>","null","DELAY","","","","","","","","","","",""
"html-keyboard-response","118","328036","0.0-7.0-4.16","63b6e5e23b31a38790ff1ce2","bdp_wmem","Thu Mar 16 2023 00:21:11 GMT-0400 (Eastern Daylight Time)","613572","Match,No Match","","952","","","","","","<div class='trialBorder'><div class='targDiv'><div class='tc'><img class='introPic' src='trustrating_stim/white_mw091.bmp'><br><font color='green'><strong>Share</strong></font></div></div><div class='respDiv'><div class='respDivL'>Match<br>(e)</div><div class='respDivR'>No Match<br>(i)</div></div></div>","i","TARGET","1","trustrating_stim/white_mw091.bmp","0","noMatchOutcome","i","1500","trustrating_stim/white_mw091.bmp","green","Share","REAL","1"
"html-keyboard-response","119","328538","0.0-7.0-5.16","63b6e5e23b31a38790ff1ce2","bdp_wmem","Thu Mar 16 2023 00:21:11 GMT-0400 (Eastern Daylight Time)","613572","Match,No Match","","null","","","","","","<div class='trialBorder'><div class='vertical-center'><img src='img/correct.jpg'></div><div class='respDiv'><div class='respDivL'>Match<br>(e)</div><div class='respDivR'><font style='color:orange'>No Match<br>(i)</font></div></div></div>","null","FEEDBACK","","","","","","","","","","",""
"html-keyboard-response","120","329040","0.0-7.0-1.17","63b6e5e23b31a38790ff1ce2","bdp_wmem","Thu Mar 16 2023 00:21:11 GMT-0400 (Eastern Daylight Time)","613572","Match,No Match","","null","","","","","","<div class='trialBorder'><div class='vertical-center'><img src='img/fixation2_sml.jpg'</img></div></div>","null","FIX","","","","","","","","","","",""
"html-keyboard-response","121","333542","0.0-7.0-2.17","63b6e5e23b31a38790ff1ce2","bdp_wmem","Thu Mar 16 2023 00:21:11 GMT-0400 (Eastern Daylight Time)","613572","Match,No Match","","null","","","","","","<div class='trialBorder'><div class='vertical-center'><img style='vertical-align:center; align:center' src='img/fixation2_sml.jpg'></div><div class='arrayDiv3'><div class='tl'><img class='introPic' src='trustrating_stim/white_mw003.bmp'><br><font color='red'><strong>Keep</strong></font></div><div class='tc'><img class='introPic' src='trustrating_stim/white_mw012.bmp'><br><font color='green'><strong>Share</strong></font></div><div class='tr'><img class='introPic' src='trustrating_stim/white_mw070.bmp'><br><font color='green'><strong>Share</strong></font></div></div></div>","null","ARRAY","3","trustrating_stim/white_mw003.bmp,trustrating_stim/white_mw012.bmp,trustrating_stim/white_mw070.bmp","0,1,1","Match","e","4500","","","","",""
"html-keyboard-response","122","337544","0.0-7.0-3.17","63b6e5e23b31a38790ff1ce2","bdp_wmem","Thu Mar 16 2023 00:21:11 GMT-0400 (Eastern Daylight Time)","613572","Match,No Match","","null","","","","","","<div class='trialBorder'><div class='vertical-center'><img src='img/fixation2_sml.jpg'</img></div></div>","null","DELAY","","","","","","","","","","",""
"html-keyboard-response","123","338780","0.0-7.0-4.17","63b6e5e23b31a38790ff1ce2","bdp_wmem","Thu Mar 16 2023 00:21:11 GMT-0400 (Eastern Daylight Time)","613572","Match,No Match","","1234","","","","","","<div class='trialBorder'><div class='targDiv'><div class='tc'><img class='introPic' src='trustrating_stim/white_mw003.bmp'><br><font color='red'><strong>Keep</strong></font></div></div><div class='respDiv'><div class='respDivL'>Match<br>(e)</div><div class='respDivR'>No Match<br>(i)</div></div></div>","e","TARGET","3","trustrating_stim/white_mw003.bmp,trustrating_stim/white_mw012.bmp,trustrating_stim/white_mw070.bmp","0,1,1","Match","e","4500","trustrating_stim/white_mw003.bmp","red","Keep","REAL","1"
"html-keyboard-response","124","339281","0.0-7.0-5.17","63b6e5e23b31a38790ff1ce2","bdp_wmem","Thu Mar 16 2023 00:21:11 GMT-0400 (Eastern Daylight Time)","613572","Match,No Match","","null","","","","","","<div class='trialBorder'><div class='vertical-center'><img src='img/correct.jpg'></div><div class='respDiv'><div class='respDivL'><font style='color:orange'>Match<br>(e)</font></div><div class='respDivR'>No Match<br>(i)</div></div></div>","null","FEEDBACK","","","","","","","","","","",""
"html-keyboard-response","125","339783","0.0-7.0-1.18","63b6e5e23b31a38790ff1ce2","bdp_wmem","Thu Mar 16 2023 00:21:11 GMT-0400 (Eastern Daylight Time)","613572","Match,No Match","","null","","","","","","<div class='trialBorder'><div class='vertical-center'><img src='img/fixation2_sml.jpg'</img></div></div>","null","FIX","","","","","","","","","","",""
"html-keyboard-response","126","341286","0.0-7.0-2.18","63b6e5e23b31a38790ff1ce2","bdp_wmem","Thu Mar 16 2023 00:21:11 GMT-0400 (Eastern Daylight Time)","613572","Match,No Match","","null","","","","","","<div class='trialBorder'><div class='vertical-center'><img style='vertical-align:center; align:center' src='img/fixation2_sml.jpg'></div><div class='arrayDiv1'><div class='tc'><img class='introPic' src='trustrating_stim/white_mw042.bmp'><br><font color='red'><strong>Keep</strong></font></div></div></div>","null","ARRAY","1","trustrating_stim/white_mw042.bmp","0","Match","e","1500","","","","",""
"html-keyboard-response","127","345288","0.0-7.0-3.18","63b6e5e23b31a38790ff1ce2","bdp_wmem","Thu Mar 16 2023 00:21:11 GMT-0400 (Eastern Daylight Time)","613572","Match,No Match","","null","","","","","","<div class='trialBorder'><div class='vertical-center'><img src='img/fixation2_sml.jpg'</img></div></div>","null","DELAY","","","","","","","","","","",""
"html-keyboard-response","128","346284","0.0-7.0-4.18","63b6e5e23b31a38790ff1ce2","bdp_wmem","Thu Mar 16 2023 00:21:11 GMT-0400 (Eastern Daylight Time)","613572","Match,No Match","","994","","","","","","<div class='trialBorder'><div class='targDiv'><div class='tc'><img class='introPic' src='trustrating_stim/white_mw042.bmp'><br><font color='red'><strong>Keep</strong></font></div></div><div class='respDiv'><div class='respDivL'>Match<br>(e)</div><div class='respDivR'>No Match<br>(i)</div></div></div>","e","TARGET","1","trustrating_stim/white_mw042.bmp","0","Match","e","1500","trustrating_stim/white_mw042.bmp","red","Keep","REAL","1"
"html-keyboard-response","129","346786","0.0-7.0-5.18","63b6e5e23b31a38790ff1ce2","bdp_wmem","Thu Mar 16 2023 00:21:11 GMT-0400 (Eastern Daylight Time)","613572","Match,No Match","","null","","","","","","<div class='trialBorder'><div class='vertical-center'><img src='img/correct.jpg'></div><div class='respDiv'><div class='respDivL'><font style='color:orange'>Match<br>(e)</font></div><div class='respDivR'>No Match<br>(i)</div></div></div>","null","FEEDBACK","","","","","","","","","","",""
"html-keyboard-response","130","347288","0.0-7.0-1.19","63b6e5e23b31a38790ff1ce2","bdp_wmem","Thu Mar 16 2023 00:21:11 GMT-0400 (Eastern Daylight Time)","613572","Match,No Match","","null","","","","","","<div class='trialBorder'><div class='vertical-center'><img src='img/fixation2_sml.jpg'</img></div></div>","null","FIX","","","","","","","","","","",""
"html-keyboard-response","131","348790","0.0-7.0-2.19","63b6e5e23b31a38790ff1ce2","bdp_wmem","Thu Mar 16 2023 00:21:11 GMT-0400 (Eastern Daylight Time)","613572","Match,No Match","","null","","","","","","<div class='trialBorder'><div class='vertical-center'><img style='vertical-align:center; align:center' src='img/fixation2_sml.jpg'></div><div class='arrayDiv1'><div class='tc'><img class='introPic' src='trustrating_stim/white_mw012.bmp'><br><font color='red'><strong>Keep</strong></font></div></div></div>","null","ARRAY","1","trustrating_stim/white_mw012.bmp","0","Match","e","1500","","","","",""
"html-keyboard-response","132","352792","0.0-7.0-3.19","63b6e5e23b31a38790ff1ce2","bdp_wmem","Thu Mar 16 2023 00:21:11 GMT-0400 (Eastern Daylight Time)","613572","Match,No Match","","null","","","","","","<div class='trialBorder'><div class='vertical-center'><img src='img/fixation2_sml.jpg'</img></div></div>","null","DELAY","","","","","","","","","","",""
"html-keyboard-response","133","353620","0.0-7.0-4.19","63b6e5e23b31a38790ff1ce2","bdp_wmem","Thu Mar 16 2023 00:21:11 GMT-0400 (Eastern Daylight Time)","613572","Match,No Match","","826","","","","","","<div class='trialBorder'><div class='targDiv'><div class='tc'><img class='introPic' src='trustrating_stim/white_mw012.bmp'><br><font color='red'><strong>Keep</strong></font></div></div><div class='respDiv'><div class='respDivL'>Match<br>(e)</div><div class='respDivR'>No Match<br>(i)</div></div></div>","e","TARGET","1","trustrating_stim/white_mw012.bmp","0","Match","e","1500","trustrating_stim/white_mw012.bmp","red","Keep","REAL","1"
"html-keyboard-response","134","354121","0.0-7.0-5.19","63b6e5e23b31a38790ff1ce2","bdp_wmem","Thu Mar 16 2023 00:21:11 GMT-0400 (Eastern Daylight Time)","613572","Match,No Match","","null","","","","","","<div class='trialBorder'><div class='vertical-center'><img src='img/correct.jpg'></div><div class='respDiv'><div class='respDivL'><font style='color:orange'>Match<br>(e)</font></div><div class='respDivR'>No Match<br>(i)</div></div></div>","null","FEEDBACK","","","","","","","","","","",""
"html-keyboard-response","135","354623","0.0-7.0-1.20","63b6e5e23b31a38790ff1ce2","bdp_wmem","Thu Mar 16 2023 00:21:11 GMT-0400 (Eastern Daylight Time)","613572","Match,No Match","","null","","","","","","<div class='trialBorder'><div class='vertical-center'><img src='img/fixation2_sml.jpg'</img></div></div>","null","FIX","","","","","","","","","","",""
"html-keyboard-response","136","359126","0.0-7.0-2.20","63b6e5e23b31a38790ff1ce2","bdp_wmem","Thu Mar 16 2023 00:21:11 GMT-0400 (Eastern Daylight Time)","613572","Match,No Match","","null","","","","","","<div class='trialBorder'><div class='vertical-center'><img style='vertical-align:center; align:center' src='img/fixation2_sml.jpg'></div><div class='arrayDiv3'><div class='tl'><img class='introPic' src='trustrating_stim/white_mw078.bmp'><br><font color='red'><strong>Keep</strong></font></div><div class='tc'><img class='introPic' src='trustrating_stim/white_mw003.bmp'><br><font color='red'><strong>Keep</strong></font></div><div class='tr'><img class='introPic' src='trustrating_stim/white_mw013.bmp'><br><font color='green'><strong>Share</strong></font></div></div></div>","null","ARRAY","3","trustrating_stim/white_mw078.bmp,trustrating_stim/white_mw003.bmp,trustrating_stim/white_mw013.bmp","0,0,1","Match","e","4500","","","","",""
"html-keyboard-response","137","363128","0.0-7.0-3.20","63b6e5e23b31a38790ff1ce2","bdp_wmem","Thu Mar 16 2023 00:21:11 GMT-0400 (Eastern Daylight Time)","613572","Match,No Match","","null","","","","","","<div class='trialBorder'><div class='vertical-center'><img src='img/fixation2_sml.jpg'</img></div></div>","null","DELAY","","","","","","","","","","",""
"html-keyboard-response","138","364124","0.0-7.0-4.20","63b6e5e23b31a38790ff1ce2","bdp_wmem","Thu Mar 16 2023 00:21:11 GMT-0400 (Eastern Daylight Time)","613572","Match,No Match","","994","","","","","","<div class='trialBorder'><div class='targDiv'><div class='tc'><img class='introPic' src='trustrating_stim/white_mw013.bmp'><br><font color='green'><strong>Share</strong></font></div></div><div class='respDiv'><div class='respDivL'>Match<br>(e)</div><div class='respDivR'>No Match<br>(i)</div></div></div>","e","TARGET","3","trustrating_stim/white_mw078.bmp,trustrating_stim/white_mw003.bmp,trustrating_stim/white_mw013.bmp","0,0,1","Match","e","4500","trustrating_stim/white_mw013.bmp","green","Share","REAL","1"
"html-keyboard-response","139","364626","0.0-7.0-5.20","63b6e5e23b31a38790ff1ce2","bdp_wmem","Thu Mar 16 2023 00:21:11 GMT-0400 (Eastern Daylight Time)","613572","Match,No Match","","null","","","","","","<div class='trialBorder'><div class='vertical-center'><img src='img/correct.jpg'></div><div class='respDiv'><div class='respDivL'><font style='color:orange'>Match<br>(e)</font></div><div class='respDivR'>No Match<br>(i)</div></div></div>","null","FEEDBACK","","","","","","","","","","",""
"html-keyboard-response","140","365128","0.0-7.0-1.21","63b6e5e23b31a38790ff1ce2","bdp_wmem","Thu Mar 16 2023 00:21:11 GMT-0400 (Eastern Daylight Time)","613572","Match,No Match","","null","","","","","","<div class='trialBorder'><div class='vertical-center'><img src='img/fixation2_sml.jpg'</img></div></div>","null","FIX","","","","","","","","","","",""
"html-keyboard-response","141","366630","0.0-7.0-2.21","63b6e5e23b31a38790ff1ce2","bdp_wmem","Thu Mar 16 2023 00:21:11 GMT-0400 (Eastern Daylight Time)","613572","Match,No Match","","null","","","","","","<div class='trialBorder'><div class='vertical-center'><img style='vertical-align:center; align:center' src='img/fixation2_sml.jpg'></div><div class='arrayDiv1'><div class='tc'><img class='introPic' src='trustrating_stim/white_mw070.bmp'><br><font color='red'><strong>Keep</strong></font></div></div></div>","null","ARRAY","1","trustrating_stim/white_mw070.bmp","0","Match","e","1500","","","","",""
"html-keyboard-response","142","370632","0.0-7.0-3.21","63b6e5e23b31a38790ff1ce2","bdp_wmem","Thu Mar 16 2023 00:21:11 GMT-0400 (Eastern Daylight Time)","613572","Match,No Match","","null","","","","","","<div class='trialBorder'><div class='vertical-center'><img src='img/fixation2_sml.jpg'</img></div></div>","null","DELAY","","","","","","","","","","",""
"html-keyboard-response","143","371620","0.0-7.0-4.21","63b6e5e23b31a38790ff1ce2","bdp_wmem","Thu Mar 16 2023 00:21:11 GMT-0400 (Eastern Daylight Time)","613572","Match,No Match","","986","","","","","","<div class='trialBorder'><div class='targDiv'><div class='tc'><img class='introPic' src='trustrating_stim/white_mw070.bmp'><br><font color='red'><strong>Keep</strong></font></div></div><div class='respDiv'><div class='respDivL'>Match<br>(e)</div><div class='respDivR'>No Match<br>(i)</div></div></div>","e","TARGET","1","trustrating_stim/white_mw070.bmp","0","Match","e","1500","trustrating_stim/white_mw070.bmp","red","Keep","REAL","1"
"html-keyboard-response","144","372122","0.0-7.0-5.21","63b6e5e23b31a38790ff1ce2","bdp_wmem","Thu Mar 16 2023 00:21:11 GMT-0400 (Eastern Daylight Time)","613572","Match,No Match","","null","","","","","","<div class='trialBorder'><div class='vertical-center'><img src='img/correct.jpg'></div><div class='respDiv'><div class='respDivL'><font style='color:orange'>Match<br>(e)</font></div><div class='respDivR'>No Match<br>(i)</div></div></div>","null","FEEDBACK","","","","","","","","","","",""
"html-keyboard-response","145","372623","0.0-7.0-1.22","63b6e5e23b31a38790ff1ce2","bdp_wmem","Thu Mar 16 2023 00:21:11 GMT-0400 (Eastern Daylight Time)","613572","Match,No Match","","null","","","","","","<div class='trialBorder'><div class='vertical-center'><img src='img/fixation2_sml.jpg'</img></div></div>","null","FIX","","","","","","","","","","",""
"html-keyboard-response","146","375626","0.0-7.0-2.22","63b6e5e23b31a38790ff1ce2","bdp_wmem","Thu Mar 16 2023 00:21:11 GMT-0400 (Eastern Daylight Time)","613572","Match,No Match","","null","","","","","","<div class='trialBorder'><div class='vertical-center'><img style='vertical-align:center; align:center' src='img/fixation2_sml.jpg'></div><div class='arrayDiv2'><div class='tl'><img class='introPic' src='trustrating_stim/white_mw012.bmp'><br><font color='green'><strong>Share</strong></font></div><div class='tr'><img class='introPic' src='trustrating_stim/white_mw042.bmp'><br><font color='red'><strong>Keep</strong></font></div></div></div>","null","ARRAY","2","trustrating_stim/white_mw012.bmp,trustrating_stim/white_mw042.bmp","1,0","noMatchOutcome","i","3000","","","","",""
"html-keyboard-response","147","379629","0.0-7.0-3.22","63b6e5e23b31a38790ff1ce2","bdp_wmem","Thu Mar 16 2023 00:21:11 GMT-0400 (Eastern Daylight Time)","613572","Match,No Match","","null","","","","","","<div class='trialBorder'><div class='vertical-center'><img src='img/fixation2_sml.jpg'</img></div></div>","null","DELAY","","","","","","","","","","",""
"html-keyboard-response","148","380676","0.0-7.0-4.22","63b6e5e23b31a38790ff1ce2","bdp_wmem","Thu Mar 16 2023 00:21:11 GMT-0400 (Eastern Daylight Time)","613572","Match,No Match","","1045","","","","","","<div class='trialBorder'><div class='targDiv'><div class='tc'><img class='introPic' src='trustrating_stim/white_mw012.bmp'><br><font color='red'><strong>Keep</strong></font></div></div><div class='respDiv'><div class='respDivL'>Match<br>(e)</div><div class='respDivR'>No Match<br>(i)</div></div></div>","i","TARGET","2","trustrating_stim/white_mw012.bmp,trustrating_stim/white_mw042.bmp","1,0","noMatchOutcome","i","3000","trustrating_stim/white_mw012.bmp","red","Keep","REAL","1"
"html-keyboard-response","149","381178","0.0-7.0-5.22","63b6e5e23b31a38790ff1ce2","bdp_wmem","Thu Mar 16 2023 00:21:11 GMT-0400 (Eastern Daylight Time)","613572","Match,No Match","","null","","","","","","<div class='trialBorder'><div class='vertical-center'><img src='img/correct.jpg'></div><div class='respDiv'><div class='respDivL'>Match<br>(e)</div><div class='respDivR'><font style='color:orange'>No Match<br>(i)</font></div></div></div>","null","FEEDBACK","","","","","","","","","","",""
"html-keyboard-response","150","381679","0.0-7.0-1.23","63b6e5e23b31a38790ff1ce2","bdp_wmem","Thu Mar 16 2023 00:21:11 GMT-0400 (Eastern Daylight Time)","613572","Match,No Match","","null","","","","","","<div class='trialBorder'><div class='vertical-center'><img src='img/fixation2_sml.jpg'</img></div></div>","null","FIX","","","","","","","","","","",""
"html-keyboard-response","151","384681","0.0-7.0-2.23","63b6e5e23b31a38790ff1ce2","bdp_wmem","Thu Mar 16 2023 00:21:11 GMT-0400 (Eastern Daylight Time)","613572","Match,No Match","","null","","","","","","<div class='trialBorder'><div class='vertical-center'><img style='vertical-align:center; align:center' src='img/fixation2_sml.jpg'></div><div class='arrayDiv2'><div class='tl'><img class='introPic' src='trustrating_stim/white_mw042.bmp'><br><font color='green'><strong>Share</strong></font></div><div class='tr'><img class='introPic' src='trustrating_stim/white_mw091.bmp'><br><font color='red'><strong>Keep</strong></font></div></div></div>","null","ARRAY","2","trustrating_stim/white_mw042.bmp,trustrating_stim/white_mw091.bmp","1,0","Match","e","3000","","","","",""
"html-keyboard-response","152","388684","0.0-7.0-3.23","63b6e5e23b31a38790ff1ce2","bdp_wmem","Thu Mar 16 2023 00:21:11 GMT-0400 (Eastern Daylight Time)","613572","Match,No Match","","null","","","","","","<div class='trialBorder'><div class='vertical-center'><img src='img/fixation2_sml.jpg'</img></div></div>","null","DELAY","","","","","","","","","","",""
"html-keyboard-response","153","389572","0.0-7.0-4.23","63b6e5e23b31a38790ff1ce2","bdp_wmem","Thu Mar 16 2023 00:21:11 GMT-0400 (Eastern Daylight Time)","613572","Match,No Match","","886","","","","","","<div class='trialBorder'><div class='targDiv'><div class='tc'><img class='introPic' src='trustrating_stim/white_mw042.bmp'><br><font color='green'><strong>Share</strong></font></div></div><div class='respDiv'><div class='respDivL'>Match<br>(e)</div><div class='respDivR'>No Match<br>(i)</div></div></div>","e","TARGET","2","trustrating_stim/white_mw042.bmp,trustrating_stim/white_mw091.bmp","1,0","Match","e","3000","trustrating_stim/white_mw042.bmp","green","Share","REAL","1"
"html-keyboard-response","154","390074","0.0-7.0-5.23","63b6e5e23b31a38790ff1ce2","bdp_wmem","Thu Mar 16 2023 00:21:11 GMT-0400 (Eastern Daylight Time)","613572","Match,No Match","","null","","","","","","<div class='trialBorder'><div class='vertical-center'><img src='img/correct.jpg'></div><div class='respDiv'><div class='respDivL'><font style='color:orange'>Match<br>(e)</font></div><div class='respDivR'>No Match<br>(i)</div></div></div>","null","FEEDBACK","","","","","","","","","","",""
"html-keyboard-response","155","390576","0.0-7.0-1.24","63b6e5e23b31a38790ff1ce2","bdp_wmem","Thu Mar 16 2023 00:21:11 GMT-0400 (Eastern Daylight Time)","613572","Match,No Match","","null","","","","","","<div class='trialBorder'><div class='vertical-center'><img src='img/fixation2_sml.jpg'</img></div></div>","null","FIX","","","","","","","","","","",""
"html-keyboard-response","156","392078","0.0-7.0-2.24","63b6e5e23b31a38790ff1ce2","bdp_wmem","Thu Mar 16 2023 00:21:11 GMT-0400 (Eastern Daylight Time)","613572","Match,No Match","","null","","","","","","<div class='trialBorder'><div class='vertical-center'><img style='vertical-align:center; align:center' src='img/fixation2_sml.jpg'></div><div class='arrayDiv1'><div class='tc'><img class='introPic' src='trustrating_stim/white_mw010.bmp'><br><font color='green'><strong>Share</strong></font></div></div></div>","null","ARRAY","1","trustrating_stim/white_mw010.bmp","1","noMatchFace","i","1500","","","","",""
"html-keyboard-response","157","396080","0.0-7.0-3.24","63b6e5e23b31a38790ff1ce2","bdp_wmem","Thu Mar 16 2023 00:21:11 GMT-0400 (Eastern Daylight Time)","613572","Match,No Match","","null","","","","","","<div class='trialBorder'><div class='vertical-center'><img src='img/fixation2_sml.jpg'</img></div></div>","null","DELAY","","","","","","","","","","",""
"html-keyboard-response","158","396940","0.0-7.0-4.24","63b6e5e23b31a38790ff1ce2","bdp_wmem","Thu Mar 16 2023 00:21:11 GMT-0400 (Eastern Daylight Time)","613572","Match,No Match","","857","","","","","","<div class='trialBorder'><div class='targDiv'><div class='tc'><img class='introPic' src='trustrating_stim/white_mw085.bmp'><br><font color='green'><strong>Share</strong></font></div></div><div class='respDiv'><div class='respDivL'>Match<br>(e)</div><div class='respDivR'>No Match<br>(i)</div></div></div>","i","TARGET","1","trustrating_stim/white_mw010.bmp","1","noMatchFace","i","1500","trustrating_stim/white_mw085.bmp","green","Share","REAL","1"
"html-keyboard-response","159","397441","0.0-7.0-5.24","63b6e5e23b31a38790ff1ce2","bdp_wmem","Thu Mar 16 2023 00:21:11 GMT-0400 (Eastern Daylight Time)","613572","Match,No Match","","null","","","","","","<div class='trialBorder'><div class='vertical-center'><img src='img/correct.jpg'></div><div class='respDiv'><div class='respDivL'>Match<br>(e)</div><div class='respDivR'><font style='color:orange'>No Match<br>(i)</font></div></div></div>","null","FEEDBACK","","","","","","","","","","",""
"html-keyboard-response","160","397944","0.0-7.0-1.25","63b6e5e23b31a38790ff1ce2","bdp_wmem","Thu Mar 16 2023 00:21:11 GMT-0400 (Eastern Daylight Time)","613572","Match,No Match","","null","","","","","","<div class='trialBorder'><div class='vertical-center'><img src='img/fixation2_sml.jpg'</img></div></div>","null","FIX","","","","","","","","","","",""
"html-keyboard-response","161","402446","0.0-7.0-2.25","63b6e5e23b31a38790ff1ce2","bdp_wmem","Thu Mar 16 2023 00:21:11 GMT-0400 (Eastern Daylight Time)","613572","Match,No Match","","null","","","","","","<div class='trialBorder'><div class='vertical-center'><img style='vertical-align:center; align:center' src='img/fixation2_sml.jpg'></div><div class='arrayDiv3'><div class='tl'><img class='introPic' src='trustrating_stim/white_mw085.bmp'><br><font color='red'><strong>Keep</strong></font></div><div class='tc'><img class='introPic' src='trustrating_stim/white_mw070.bmp'><br><font color='red'><strong>Keep</strong></font></div><div class='tr'><img class='introPic' src='trustrating_stim/white_mw091.bmp'><br><font color='green'><strong>Share</strong></font></div></div></div>","null","ARRAY","3","trustrating_stim/white_mw085.bmp,trustrating_stim/white_mw070.bmp,trustrating_stim/white_mw091.bmp","0,0,1","Match","e","4500","","","","",""
"html-keyboard-response","162","406449","0.0-7.0-3.25","63b6e5e23b31a38790ff1ce2","bdp_wmem","Thu Mar 16 2023 00:21:11 GMT-0400 (Eastern Daylight Time)","613572","Match,No Match","","null","","","","","","<div class='trialBorder'><div class='vertical-center'><img src='img/fixation2_sml.jpg'</img></div></div>","null","DELAY","","","","","","","","","","",""
"html-keyboard-response","163","408084","0.0-7.0-4.25","63b6e5e23b31a38790ff1ce2","bdp_wmem","Thu Mar 16 2023 00:21:11 GMT-0400 (Eastern Daylight Time)","613572","Match,No Match","","1633","","","","","","<div class='trialBorder'><div class='targDiv'><div class='tc'><img class='introPic' src='trustrating_stim/white_mw085.bmp'><br><font color='red'><strong>Keep</strong></font></div></div><div class='respDiv'><div class='respDivL'>Match<br>(e)</div><div class='respDivR'>No Match<br>(i)</div></div></div>","e","TARGET","3","trustrating_stim/white_mw085.bmp,trustrating_stim/white_mw070.bmp,trustrating_stim/white_mw091.bmp","0,0,1","Match","e","4500","trustrating_stim/white_mw085.bmp","red","Keep","REAL","1"
"html-keyboard-response","164","408587","0.0-7.0-5.25","63b6e5e23b31a38790ff1ce2","bdp_wmem","Thu Mar 16 2023 00:21:11 GMT-0400 (Eastern Daylight Time)","613572","Match,No Match","","null","","","","","","<div class='trialBorder'><div class='vertical-center'><img src='img/correct.jpg'></div><div class='respDiv'><div class='respDivL'><font style='color:orange'>Match<br>(e)</font></div><div class='respDivR'>No Match<br>(i)</div></div></div>","null","FEEDBACK","","","","","","","","","","",""
"html-keyboard-response","165","409089","0.0-7.0-1.26","63b6e5e23b31a38790ff1ce2","bdp_wmem","Thu Mar 16 2023 00:21:11 GMT-0400 (Eastern Daylight Time)","613572","Match,No Match","","null","","","","","","<div class='trialBorder'><div class='vertical-center'><img src='img/fixation2_sml.jpg'</img></div></div>","null","FIX","","","","","","","","","","",""
"html-keyboard-response","166","410591","0.0-7.0-2.26","63b6e5e23b31a38790ff1ce2","bdp_wmem","Thu Mar 16 2023 00:21:11 GMT-0400 (Eastern Daylight Time)","613572","Match,No Match","","null","","","","","","<div class='trialBorder'><div class='vertical-center'><img style='vertical-align:center; align:center' src='img/fixation2_sml.jpg'></div><div class='arrayDiv1'><div class='tc'><img class='introPic' src='trustrating_stim/white_mw042.bmp'><br><font color='red'><strong>Keep</strong></font></div></div></div>","null","ARRAY","1","trustrating_stim/white_mw042.bmp","0","noMatchFace","i","1500","","","","",""
"html-keyboard-response","167","414592","0.0-7.0-3.26","63b6e5e23b31a38790ff1ce2","bdp_wmem","Thu Mar 16 2023 00:21:11 GMT-0400 (Eastern Daylight Time)","613572","Match,No Match","","null","","","","","","<div class='trialBorder'><div class='vertical-center'><img src='img/fixation2_sml.jpg'</img></div></div>","null","DELAY","","","","","","","","","","",""
"html-keyboard-response","168","415340","0.0-7.0-4.26","63b6e5e23b31a38790ff1ce2","bdp_wmem","Thu Mar 16 2023 00:21:11 GMT-0400 (Eastern Daylight Time)","613572","Match,No Match","","745","","","","","","<div class='trialBorder'><div class='targDiv'><div class='tc'><img class='introPic' src='trustrating_stim/white_mw013.bmp'><br><font color='red'><strong>Keep</strong></font></div></div><div class='respDiv'><div class='respDivL'>Match<br>(e)</div><div class='respDivR'>No Match<br>(i)</div></div></div>","i","TARGET","1","trustrating_stim/white_mw042.bmp","0","noMatchFace","i","1500","trustrating_stim/white_mw013.bmp","red","Keep","REAL","1"
"html-keyboard-response","169","415843","0.0-7.0-5.26","63b6e5e23b31a38790ff1ce2","bdp_wmem","Thu Mar 16 2023 00:21:11 GMT-0400 (Eastern Daylight Time)","613572","Match,No Match","","null","","","","","","<div class='trialBorder'><div class='vertical-center'><img src='img/correct.jpg'></div><div class='respDiv'><div class='respDivL'>Match<br>(e)</div><div class='respDivR'><font style='color:orange'>No Match<br>(i)</font></div></div></div>","null","FEEDBACK","","","","","","","","","","",""
"html-keyboard-response","170","416344","0.0-7.0-1.27","63b6e5e23b31a38790ff1ce2","bdp_wmem","Thu Mar 16 2023 00:21:11 GMT-0400 (Eastern Daylight Time)","613572","Match,No Match","","null","","","","","","<div class='trialBorder'><div class='vertical-center'><img src='img/fixation2_sml.jpg'</img></div></div>","null","FIX","","","","","","","","","","",""
"html-keyboard-response","171","420847","0.0-7.0-2.27","63b6e5e23b31a38790ff1ce2","bdp_wmem","Thu Mar 16 2023 00:21:11 GMT-0400 (Eastern Daylight Time)","613572","Match,No Match","","null","","","","","","<div class='trialBorder'><div class='vertical-center'><img style='vertical-align:center; align:center' src='img/fixation2_sml.jpg'></div><div class='arrayDiv3'><div class='tl'><img class='introPic' src='trustrating_stim/white_mw078.bmp'><br><font color='red'><strong>Keep</strong></font></div><div class='tc'><img class='introPic' src='trustrating_stim/white_mw092.bmp'><br><font color='green'><strong>Share</strong></font></div><div class='tr'><img class='introPic' src='trustrating_stim/white_mw070.bmp'><br><font color='green'><strong>Share</strong></font></div></div></div>","null","ARRAY","3","trustrating_stim/white_mw078.bmp,trustrating_stim/white_mw092.bmp,trustrating_stim/white_mw070.bmp","0,1,1","noMatchOutcome","i","4500","","","","",""
"html-keyboard-response","172","424849","0.0-7.0-3.27","63b6e5e23b31a38790ff1ce2","bdp_wmem","Thu Mar 16 2023 00:21:11 GMT-0400 (Eastern Daylight Time)","613572","Match,No Match","","null","","","","","","<div class='trialBorder'><div class='vertical-center'><img src='img/fixation2_sml.jpg'</img></div></div>","null","DELAY","","","","","","","","","","",""
"html-keyboard-response","173","425820","0.0-7.0-4.27","63b6e5e23b31a38790ff1ce2","bdp_wmem","Thu Mar 16 2023 00:21:11 GMT-0400 (Eastern Daylight Time)","613572","Match,No Match","","968","","","","","","<div class='trialBorder'><div class='targDiv'><div class='tc'><img class='introPic' src='trustrating_stim/white_mw078.bmp'><br><font color='green'><strong>Share</strong></font></div></div><div class='respDiv'><div class='respDivL'>Match<br>(e)</div><div class='respDivR'>No Match<br>(i)</div></div></div>","i","TARGET","3","trustrating_stim/white_mw078.bmp,trustrating_stim/white_mw092.bmp,trustrating_stim/white_mw070.bmp","0,1,1","noMatchOutcome","i","4500","trustrating_stim/white_mw078.bmp","green","Share","REAL","1"
"html-keyboard-response","174","426323","0.0-7.0-5.27","63b6e5e23b31a38790ff1ce2","bdp_wmem","Thu Mar 16 2023 00:21:11 GMT-0400 (Eastern Daylight Time)","613572","Match,No Match","","null","","","","","","<div class='trialBorder'><div class='vertical-center'><img src='img/correct.jpg'></div><div class='respDiv'><div class='respDivL'>Match<br>(e)</div><div class='respDivR'><font style='color:orange'>No Match<br>(i)</font></div></div></div>","null","FEEDBACK","","","","","","","","","","",""
"html-keyboard-response","175","426825","0.0-7.0-1.28","63b6e5e23b31a38790ff1ce2","bdp_wmem","Thu Mar 16 2023 00:21:11 GMT-0400 (Eastern Daylight Time)","613572","Match,No Match","","null","","","","","","<div class='trialBorder'><div class='vertical-center'><img src='img/fixation2_sml.jpg'</img></div></div>","null","FIX","","","","","","","","","","",""
"html-keyboard-response","176","429827","0.0-7.0-2.28","63b6e5e23b31a38790ff1ce2","bdp_wmem","Thu Mar 16 2023 00:21:11 GMT-0400 (Eastern Daylight Time)","613572","Match,No Match","","null","","","","","","<div class='trialBorder'><div class='vertical-center'><img style='vertical-align:center; align:center' src='img/fixation2_sml.jpg'></div><div class='arrayDiv2'><div class='tl'><img class='introPic' src='trustrating_stim/white_mw092.bmp'><br><font color='red'><strong>Keep</strong></font></div><div class='tr'><img class='introPic' src='trustrating_stim/white_mw085.bmp'><br><font color='green'><strong>Share</strong></font></div></div></div>","null","ARRAY","2","trustrating_stim/white_mw092.bmp,trustrating_stim/white_mw085.bmp","0,1","Match","e","3000","","","","",""
"html-keyboard-response","177","433829","0.0-7.0-3.28","63b6e5e23b31a38790ff1ce2","bdp_wmem","Thu Mar 16 2023 00:21:11 GMT-0400 (Eastern Daylight Time)","613572","Match,No Match","","null","","","","","","<div class='trialBorder'><div class='vertical-center'><img src='img/fixation2_sml.jpg'</img></div></div>","null","DELAY","","","","","","","","","","",""
"html-keyboard-response","178","434908","0.0-7.0-4.28","63b6e5e23b31a38790ff1ce2","bdp_wmem","Thu Mar 16 2023 00:21:11 GMT-0400 (Eastern Daylight Time)","613572","Match,No Match","","1076","","","","","","<div class='trialBorder'><div class='targDiv'><div class='tc'><img class='introPic' src='trustrating_stim/white_mw092.bmp'><br><font color='red'><strong>Keep</strong></font></div></div><div class='respDiv'><div class='respDivL'>Match<br>(e)</div><div class='respDivR'>No Match<br>(i)</div></div></div>","e","TARGET","2","trustrating_stim/white_mw092.bmp,trustrating_stim/white_mw085.bmp","0,1","Match","e","3000","trustrating_stim/white_mw092.bmp","red","Keep","REAL","1"
"html-keyboard-response","179","435411","0.0-7.0-5.28","63b6e5e23b31a38790ff1ce2","bdp_wmem","Thu Mar 16 2023 00:21:11 GMT-0400 (Eastern Daylight Time)","613572","Match,No Match","","null","","","","","","<div class='trialBorder'><div class='vertical-center'><img src='img/correct.jpg'></div><div class='respDiv'><div class='respDivL'><font style='color:orange'>Match<br>(e)</font></div><div class='respDivR'>No Match<br>(i)</div></div></div>","null","FEEDBACK","","","","","","","","","","",""
"html-keyboard-response","180","435912","0.0-7.0-1.29","63b6e5e23b31a38790ff1ce2","bdp_wmem","Thu Mar 16 2023 00:21:11 GMT-0400 (Eastern Daylight Time)","613572","Match,No Match","","null","","","","","","<div class='trialBorder'><div class='vertical-center'><img src='img/fixation2_sml.jpg'</img></div></div>","null","FIX","","","","","","","","","","",""
"html-keyboard-response","181","438914","0.0-7.0-2.29","63b6e5e23b31a38790ff1ce2","bdp_wmem","Thu Mar 16 2023 00:21:11 GMT-0400 (Eastern Daylight Time)","613572","Match,No Match","","null","","","","","","<div class='trialBorder'><div class='vertical-center'><img style='vertical-align:center; align:center' src='img/fixation2_sml.jpg'></div><div class='arrayDiv2'><div class='tl'><img class='introPic' src='trustrating_stim/white_mw040.bmp'><br><font color='green'><strong>Share</strong></font></div><div class='tr'><img class='introPic' src='trustrating_stim/white_mw092.bmp'><br><font color='red'><strong>Keep</strong></font></div></div></div>","null","ARRAY","2","trustrating_stim/white_mw040.bmp,trustrating_stim/white_mw092.bmp","1,0","Match","e","3000","","","","",""
"html-keyboard-response","182","442916","0.0-7.0-3.29","63b6e5e23b31a38790ff1ce2","bdp_wmem","Thu Mar 16 2023 00:21:11 GMT-0400 (Eastern Daylight Time)","613572","Match,No Match","","null","","","","","","<div class='trialBorder'><div class='vertical-center'><img src='img/fixation2_sml.jpg'</img></div></div>","null","DELAY","","","","","","","","","","",""
"html-keyboard-response","183","443996","0.0-7.0-4.29","63b6e5e23b31a38790ff1ce2","bdp_wmem","Thu Mar 16 2023 00:21:11 GMT-0400 (Eastern Daylight Time)","613572","Match,No Match","","1077","","","","","","<div class='trialBorder'><div class='targDiv'><div class='tc'><img class='introPic' src='trustrating_stim/white_mw092.bmp'><br><font color='red'><strong>Keep</strong></font></div></div><div class='respDiv'><div class='respDivL'>Match<br>(e)</div><div class='respDivR'>No Match<br>(i)</div></div></div>","e","TARGET","2","trustrating_stim/white_mw040.bmp,trustrating_stim/white_mw092.bmp","1,0","Match","e","3000","trustrating_stim/white_mw092.bmp","red","Keep","REAL","1"
"html-keyboard-response","184","444498","0.0-7.0-5.29","63b6e5e23b31a38790ff1ce2","bdp_wmem","Thu Mar 16 2023 00:21:11 GMT-0400 (Eastern Daylight Time)","613572","Match,No Match","","null","","","","","","<div class='trialBorder'><div class='vertical-center'><img src='img/correct.jpg'></div><div class='respDiv'><div class='respDivL'><font style='color:orange'>Match<br>(e)</font></div><div class='respDivR'>No Match<br>(i)</div></div></div>","null","FEEDBACK","","","","","","","","","","",""
"html-keyboard-response","185","444999","0.0-7.0-1.30","63b6e5e23b31a38790ff1ce2","bdp_wmem","Thu Mar 16 2023 00:21:11 GMT-0400 (Eastern Daylight Time)","613572","Match,No Match","","null","","","","","","<div class='trialBorder'><div class='vertical-center'><img src='img/fixation2_sml.jpg'</img></div></div>","null","FIX","","","","","","","","","","",""
"html-keyboard-response","186","449502","0.0-7.0-2.30","63b6e5e23b31a38790ff1ce2","bdp_wmem","Thu Mar 16 2023 00:21:11 GMT-0400 (Eastern Daylight Time)","613572","Match,No Match","","null","","","","","","<div class='trialBorder'><div class='vertical-center'><img style='vertical-align:center; align:center' src='img/fixation2_sml.jpg'></div><div class='arrayDiv3'><div class='tl'><img class='introPic' src='trustrating_stim/white_mw085.bmp'><br><font color='green'><strong>Share</strong></font></div><div class='tc'><img class='introPic' src='trustrating_stim/white_mw040.bmp'><br><font color='red'><strong>Keep</strong></font></div><div class='tr'><img class='introPic' src='trustrating_stim/white_mw010.bmp'><br><font color='red'><strong>Keep</strong></font></div></div></div>","null","ARRAY","3","trustrating_stim/white_mw085.bmp,trustrating_stim/white_mw040.bmp,trustrating_stim/white_mw010.bmp","1,0,0","noMatchOutcome","i","4500","","","","",""
"html-keyboard-response","187","453504","0.0-7.0-3.30","63b6e5e23b31a38790ff1ce2","bdp_wmem","Thu Mar 16 2023 00:21:11 GMT-0400 (Eastern Daylight Time)","613572","Match,No Match","","null","","","","","","<div class='trialBorder'><div class='vertical-center'><img src='img/fixation2_sml.jpg'</img></div></div>","null","DELAY","","","","","","","","","","",""
"html-keyboard-response","188","454476","0.0-7.0-4.30","63b6e5e23b31a38790ff1ce2","bdp_wmem","Thu Mar 16 2023 00:21:11 GMT-0400 (Eastern Daylight Time)","613572","Match,No Match","","970","","","","","","<div class='trialBorder'><div class='targDiv'><div class='tc'><img class='introPic' src='trustrating_stim/white_mw010.bmp'><br><font color='green'><strong>Share</strong></font></div></div><div class='respDiv'><div class='respDivL'>Match<br>(e)</div><div class='respDivR'>No Match<br>(i)</div></div></div>","i","TARGET","3","trustrating_stim/white_mw085.bmp,trustrating_stim/white_mw040.bmp,trustrating_stim/white_mw010.bmp","1,0,0","noMatchOutcome","i","4500","trustrating_stim/white_mw010.bmp","green","Share","REAL","1"
