"trial_type","trial_index","time_elapsed","internal_node_id","subject_id","task","startTime","totalTime","labels","view_history","rt","event","trial","time","trialtype","success","stimulus","key_press","stimType","arraySize","arrayFaces","arrayOutcomes","matchType","corrResp","arrayDur","targFace","targCol","targOutcome","trialType","corr"
"pavlovia","0","3","0.0-0.0","60fefd59226b2b1d87bc36db","bdp_wmem","Sun Mar 12 2023 17:18:59 GMT-0400 (EDT)","560750","Match,No Match","","","","","","","","","","","","","","","","","","","","",""
"instructions","1","3795","0.0-1.0","60fefd59226b2b1d87bc36db","bdp_wmem","Sun Mar 12 2023 17:18:59 GMT-0400 (EDT)","560750","Match,No Match","[{""page_index"":0,""viewing_time"":3791}]","3791","","","","","","","","","","","","","","","","","","",""
"","","","","60fefd59226b2b1d87bc36db","bdp_wmem","Sun Mar 12 2023 17:18:59 GMT-0400 (EDT)","560750","Match,No Match","","","fullscreenenter","2","5596","fullscreenenter","","","","","","","","","","","","","","",""
"fullscreen","2","6563","0.0-2.0","60fefd59226b2b1d87bc36db","bdp_wmem","Sun Mar 12 2023 17:18:59 GMT-0400 (EDT)","560750","Match,No Match","","","","","","","true","","","","","","","","","","","","","",""
"instructions","3","48594","0.0-4.0","60fefd59226b2b1d87bc36db","bdp_wmem","Sun Mar 12 2023 17:18:59 GMT-0400 (EDT)","560750","Match,No Match","[{""page_index"":0,""viewing_time"":15036},{""page_index"":1,""viewing_time"":9045},{""page_index"":2,""viewing_time"":8364},{""page_index"":3,""viewing_time"":849},{""page_index"":4,""viewing_time"":8736}]","42030","","","","","","","","","","","","","","","","","","",""
"html-keyboard-response","4","49097","0.0-5.0-1.0","60fefd59226b2b1d87bc36db","bdp_wmem","Sun Mar 12 2023 17:18:59 GMT-0400 (EDT)","560750","Match,No Match","","null","","","","","","<div class='trialBorder'><div class='vertical-center'><img src='img/fixation2_sml.jpg'</img></div></div>","null","FIX","","","","","","","","","","",""
"html-keyboard-response","5","50599","0.0-5.0-2.0","60fefd59226b2b1d87bc36db","bdp_wmem","Sun Mar 12 2023 17:18:59 GMT-0400 (EDT)","560750","Match,No Match","","null","","","","","","<div class='trialBorder'><div class='vertical-center'><img style='vertical-align:center; align:center' src='img/fixation2_sml.jpg'></div><div class='arrayDiv1'><div class='tc'><img class='introPic' src='trustrating_stim/white_mw085.bmp'><br><font color='green'><strong>Share</strong></font></div></div></div>","null","ARRAY","1","trustrating_stim/white_mw085.bmp","1","noMatchFace","i","1500","","","","",""
"html-keyboard-response","6","54602","0.0-5.0-3.0","60fefd59226b2b1d87bc36db","bdp_wmem","Sun Mar 12 2023 17:18:59 GMT-0400 (EDT)","560750","Match,No Match","","null","","","","","","<div class='trialBorder'><div class='vertical-center'><img src='img/fixation2_sml.jpg'</img></div></div>","null","DELAY","","","","","","","","","","",""
"html-keyboard-response","7","54805","0.0-5.0-4.0","60fefd59226b2b1d87bc36db","bdp_wmem","Sun Mar 12 2023 17:18:59 GMT-0400 (EDT)","560750","Match,No Match","","199","","","","","","<div class='trialBorder'><div class='targDiv'><div class='tc'><img class='introPic' src='trustrating_stim/white_mw078.bmp'><br><font color='green'><strong>Share</strong></font></div></div><div class='respDiv'><div class='respDivL'>Match<br>(e)</div><div class='respDivR'>No Match<br>(i)</div></div></div>","i","TARGET","1","trustrating_stim/white_mw085.bmp","1","noMatchFace","i","1500","trustrating_stim/white_mw078.bmp","green","Share","PRACTICE","1"
"html-keyboard-response","8","55307","0.0-5.0-5.0","60fefd59226b2b1d87bc36db","bdp_wmem","Sun Mar 12 2023 17:18:59 GMT-0400 (EDT)","560750","Match,No Match","","null","","","","","","<div class='trialBorder'><div class='vertical-center'><img src='img/correct.jpg'></div><div class='respDiv'><div class='respDivL'>Match<br>(e)</div><div class='respDivR'><font style='color:orange'>No Match<br>(i)</font></div></div></div>","null","FEEDBACK","","","","","","","","","","",""
"html-keyboard-response","9","55810","0.0-5.0-1.1","60fefd59226b2b1d87bc36db","bdp_wmem","Sun Mar 12 2023 17:18:59 GMT-0400 (EDT)","560750","Match,No Match","","null","","","","","","<div class='trialBorder'><div class='vertical-center'><img src='img/fixation2_sml.jpg'</img></div></div>","null","FIX","","","","","","","","","","",""
"html-keyboard-response","10","58813","0.0-5.0-2.1","60fefd59226b2b1d87bc36db","bdp_wmem","Sun Mar 12 2023 17:18:59 GMT-0400 (EDT)","560750","Match,No Match","","null","","","","","","<div class='trialBorder'><div class='vertical-center'><img style='vertical-align:center; align:center' src='img/fixation2_sml.jpg'></div><div class='arrayDiv2'><div class='tl'><img class='introPic' src='trustrating_stim/white_mw091.bmp'><br><font color='green'><strong>Share</strong></font></div><div class='tr'><img class='introPic' src='trustrating_stim/white_mw010.bmp'><br><font color='red'><strong>Keep</strong></font></div></div></div>","null","ARRAY","2","trustrating_stim/white_mw091.bmp,trustrating_stim/white_mw010.bmp","1,0","Match","e","3000","","","","",""
"html-keyboard-response","11","62815","0.0-5.0-3.1","60fefd59226b2b1d87bc36db","bdp_wmem","Sun Mar 12 2023 17:18:59 GMT-0400 (EDT)","560750","Match,No Match","","null","","","","","","<div class='trialBorder'><div class='vertical-center'><img src='img/fixation2_sml.jpg'</img></div></div>","null","DELAY","","","","","","","","","","",""
"html-keyboard-response","12","64207","0.0-5.0-4.1","60fefd59226b2b1d87bc36db","bdp_wmem","Sun Mar 12 2023 17:18:59 GMT-0400 (EDT)","560750","Match,No Match","","1390","","","","","","<div class='trialBorder'><div class='targDiv'><div class='tc'><img class='introPic' src='trustrating_stim/white_mw010.bmp'><br><font color='red'><strong>Keep</strong></font></div></div><div class='respDiv'><div class='respDivL'>Match<br>(e)</div><div class='respDivR'>No Match<br>(i)</div></div></div>","i","TARGET","2","trustrating_stim/white_mw091.bmp,trustrating_stim/white_mw010.bmp","1,0","Match","e","3000","trustrating_stim/white_mw010.bmp","red","Keep","PRACTICE","0"
"html-keyboard-response","13","64710","0.0-5.0-5.1","60fefd59226b2b1d87bc36db","bdp_wmem","Sun Mar 12 2023 17:18:59 GMT-0400 (EDT)","560750","Match,No Match","","null","","","","","","<div class='trialBorder'><div class='vertical-center'><img src='img/error.jpg'></div><div class='respDiv'><div class='respDivL'>Match<br>(e)</div><div class='respDivR'><font style='color:orange'>No Match<br>(i)</font></div></div></div>","null","FEEDBACK","","","","","","","","","","",""
"html-keyboard-response","14","65212","0.0-5.0-1.2","60fefd59226b2b1d87bc36db","bdp_wmem","Sun Mar 12 2023 17:18:59 GMT-0400 (EDT)","560750","Match,No Match","","null","","","","","","<div class='trialBorder'><div class='vertical-center'><img src='img/fixation2_sml.jpg'</img></div></div>","null","FIX","","","","","","","","","","",""
"html-keyboard-response","15","66714","0.0-5.0-2.2","60fefd59226b2b1d87bc36db","bdp_wmem","Sun Mar 12 2023 17:18:59 GMT-0400 (EDT)","560750","Match,No Match","","null","","","","","","<div class='trialBorder'><div class='vertical-center'><img style='vertical-align:center; align:center' src='img/fixation2_sml.jpg'></div><div class='arrayDiv1'><div class='tc'><img class='introPic' src='trustrating_stim/white_mw092.bmp'><br><font color='red'><strong>Keep</strong></font></div></div></div>","null","ARRAY","1","trustrating_stim/white_mw092.bmp","0","Match","e","1500","","","","",""
"html-keyboard-response","16","70717","0.0-5.0-3.2","60fefd59226b2b1d87bc36db","bdp_wmem","Sun Mar 12 2023 17:18:59 GMT-0400 (EDT)","560750","Match,No Match","","null","","","","","","<div class='trialBorder'><div class='vertical-center'><img src='img/fixation2_sml.jpg'</img></div></div>","null","DELAY","","","","","","","","","","",""
"html-keyboard-response","17","72042","0.0-5.0-4.2","60fefd59226b2b1d87bc36db","bdp_wmem","Sun Mar 12 2023 17:18:59 GMT-0400 (EDT)","560750","Match,No Match","","1324","","","","","","<div class='trialBorder'><div class='targDiv'><div class='tc'><img class='introPic' src='trustrating_stim/white_mw092.bmp'><br><font color='red'><strong>Keep</strong></font></div></div><div class='respDiv'><div class='respDivL'>Match<br>(e)</div><div class='respDivR'>No Match<br>(i)</div></div></div>","e","TARGET","1","trustrating_stim/white_mw092.bmp","0","Match","e","1500","trustrating_stim/white_mw092.bmp","red","Keep","PRACTICE","1"
"html-keyboard-response","18","72544","0.0-5.0-5.2","60fefd59226b2b1d87bc36db","bdp_wmem","Sun Mar 12 2023 17:18:59 GMT-0400 (EDT)","560750","Match,No Match","","null","","","","","","<div class='trialBorder'><div class='vertical-center'><img src='img/correct.jpg'></div><div class='respDiv'><div class='respDivL'><font style='color:orange'>Match<br>(e)</font></div><div class='respDivR'>No Match<br>(i)</div></div></div>","null","FEEDBACK","","","","","","","","","","",""
"html-keyboard-response","19","73047","0.0-5.0-1.3","60fefd59226b2b1d87bc36db","bdp_wmem","Sun Mar 12 2023 17:18:59 GMT-0400 (EDT)","560750","Match,No Match","","null","","","","","","<div class='trialBorder'><div class='vertical-center'><img src='img/fixation2_sml.jpg'</img></div></div>","null","FIX","","","","","","","","","","",""
"html-keyboard-response","20","77550","0.0-5.0-2.3","60fefd59226b2b1d87bc36db","bdp_wmem","Sun Mar 12 2023 17:18:59 GMT-0400 (EDT)","560750","Match,No Match","","null","","","","","","<div class='trialBorder'><div class='vertical-center'><img style='vertical-align:center; align:center' src='img/fixation2_sml.jpg'></div><div class='arrayDiv3'><div class='tl'><img class='introPic' src='trustrating_stim/white_mw092.bmp'><br><font color='red'><strong>Keep</strong></font></div><div class='tc'><img class='introPic' src='trustrating_stim/white_mw012.bmp'><br><font color='green'><strong>Share</strong></font></div><div class='tr'><img class='introPic' src='trustrating_stim/white_mw038.bmp'><br><font color='green'><strong>Share</strong></font></div></div></div>","null","ARRAY","3","trustrating_stim/white_mw092.bmp,trustrating_stim/white_mw012.bmp,trustrating_stim/white_mw038.bmp","0,1,1","Match","e","4500","","","","",""
"html-keyboard-response","21","81552","0.0-5.0-3.3","60fefd59226b2b1d87bc36db","bdp_wmem","Sun Mar 12 2023 17:18:59 GMT-0400 (EDT)","560750","Match,No Match","","null","","","","","","<div class='trialBorder'><div class='vertical-center'><img src='img/fixation2_sml.jpg'</img></div></div>","null","DELAY","","","","","","","","","","",""
"html-keyboard-response","22","82116","0.0-5.0-4.3","60fefd59226b2b1d87bc36db","bdp_wmem","Sun Mar 12 2023 17:18:59 GMT-0400 (EDT)","560750","Match,No Match","","563","","","","","","<div class='trialBorder'><div class='targDiv'><div class='tc'><img class='introPic' src='trustrating_stim/white_mw038.bmp'><br><font color='green'><strong>Share</strong></font></div></div><div class='respDiv'><div class='respDivL'>Match<br>(e)</div><div class='respDivR'>No Match<br>(i)</div></div></div>","e","TARGET","3","trustrating_stim/white_mw092.bmp,trustrating_stim/white_mw012.bmp,trustrating_stim/white_mw038.bmp","0,1,1","Match","e","4500","trustrating_stim/white_mw038.bmp","green","Share","PRACTICE","1"
"html-keyboard-response","23","82619","0.0-5.0-5.3","60fefd59226b2b1d87bc36db","bdp_wmem","Sun Mar 12 2023 17:18:59 GMT-0400 (EDT)","560750","Match,No Match","","null","","","","","","<div class='trialBorder'><div class='vertical-center'><img src='img/correct.jpg'></div><div class='respDiv'><div class='respDivL'><font style='color:orange'>Match<br>(e)</font></div><div class='respDivR'>No Match<br>(i)</div></div></div>","null","FEEDBACK","","","","","","","","","","",""
"html-keyboard-response","24","83121","0.0-5.0-1.4","60fefd59226b2b1d87bc36db","bdp_wmem","Sun Mar 12 2023 17:18:59 GMT-0400 (EDT)","560750","Match,No Match","","null","","","","","","<div class='trialBorder'><div class='vertical-center'><img src='img/fixation2_sml.jpg'</img></div></div>","null","FIX","","","","","","","","","","",""
"html-keyboard-response","25","86123","0.0-5.0-2.4","60fefd59226b2b1d87bc36db","bdp_wmem","Sun Mar 12 2023 17:18:59 GMT-0400 (EDT)","560750","Match,No Match","","null","","","","","","<div class='trialBorder'><div class='vertical-center'><img style='vertical-align:center; align:center' src='img/fixation2_sml.jpg'></div><div class='arrayDiv2'><div class='tl'><img class='introPic' src='trustrating_stim/white_mw078.bmp'><br><font color='red'><strong>Keep</strong></font></div><div class='tr'><img class='introPic' src='trustrating_stim/white_mw040.bmp'><br><font color='green'><strong>Share</strong></font></div></div></div>","null","ARRAY","2","trustrating_stim/white_mw078.bmp,trustrating_stim/white_mw040.bmp","0,1","noMatchFace","i","3000","","","","",""
"html-keyboard-response","26","90126","0.0-5.0-3.4","60fefd59226b2b1d87bc36db","bdp_wmem","Sun Mar 12 2023 17:18:59 GMT-0400 (EDT)","560750","Match,No Match","","null","","","","","","<div class='trialBorder'><div class='vertical-center'><img src='img/fixation2_sml.jpg'</img></div></div>","null","DELAY","","","","","","","","","","",""
"html-keyboard-response","27","90507","0.0-5.0-4.4","60fefd59226b2b1d87bc36db","bdp_wmem","Sun Mar 12 2023 17:18:59 GMT-0400 (EDT)","560750","Match,No Match","","379","","","","","","<div class='trialBorder'><div class='targDiv'><div class='tc'><img class='introPic' src='trustrating_stim/white_mw085.bmp'><br><font color='red'><strong>Keep</strong></font></div></div><div class='respDiv'><div class='respDivL'>Match<br>(e)</div><div class='respDivR'>No Match<br>(i)</div></div></div>","e","TARGET","2","trustrating_stim/white_mw078.bmp,trustrating_stim/white_mw040.bmp","0,1","noMatchFace","i","3000","trustrating_stim/white_mw085.bmp","red","Keep","PRACTICE","0"
"html-keyboard-response","28","91009","0.0-5.0-5.4","60fefd59226b2b1d87bc36db","bdp_wmem","Sun Mar 12 2023 17:18:59 GMT-0400 (EDT)","560750","Match,No Match","","null","","","","","","<div class='trialBorder'><div class='vertical-center'><img src='img/error.jpg'></div><div class='respDiv'><div class='respDivL'><font style='color:orange'>Match<br>(e)</font></div><div class='respDivR'>No Match<br>(i)</div></div></div>","null","FEEDBACK","","","","","","","","","","",""
"html-keyboard-response","29","91510","0.0-5.0-1.5","60fefd59226b2b1d87bc36db","bdp_wmem","Sun Mar 12 2023 17:18:59 GMT-0400 (EDT)","560750","Match,No Match","","null","","","","","","<div class='trialBorder'><div class='vertical-center'><img src='img/fixation2_sml.jpg'</img></div></div>","null","FIX","","","","","","","","","","",""
"html-keyboard-response","30","96012","0.0-5.0-2.5","60fefd59226b2b1d87bc36db","bdp_wmem","Sun Mar 12 2023 17:18:59 GMT-0400 (EDT)","560750","Match,No Match","","null","","","","","","<div class='trialBorder'><div class='vertical-center'><img style='vertical-align:center; align:center' src='img/fixation2_sml.jpg'></div><div class='arrayDiv3'><div class='tl'><img class='introPic' src='trustrating_stim/white_mw003.bmp'><br><font color='red'><strong>Keep</strong></font></div><div class='tc'><img class='introPic' src='trustrating_stim/white_mw091.bmp'><br><font color='green'><strong>Share</strong></font></div><div class='tr'><img class='introPic' src='trustrating_stim/white_mw042.bmp'><br><font color='green'><strong>Share</strong></font></div></div></div>","null","ARRAY","3","trustrating_stim/white_mw003.bmp,trustrating_stim/white_mw091.bmp,trustrating_stim/white_mw042.bmp","0,1,1","noMatchOutcome","i","4500","","","","",""
"html-keyboard-response","31","100014","0.0-5.0-3.5","60fefd59226b2b1d87bc36db","bdp_wmem","Sun Mar 12 2023 17:18:59 GMT-0400 (EDT)","560750","Match,No Match","","null","","","","","","<div class='trialBorder'><div class='vertical-center'><img src='img/fixation2_sml.jpg'</img></div></div>","null","DELAY","","","","","","","","","","",""
"html-keyboard-response","32","101277","0.0-5.0-4.5","60fefd59226b2b1d87bc36db","bdp_wmem","Sun Mar 12 2023 17:18:59 GMT-0400 (EDT)","560750","Match,No Match","","1261","","","","","","<div class='trialBorder'><div class='targDiv'><div class='tc'><img class='introPic' src='trustrating_stim/white_mw091.bmp'><br><font color='red'><strong>Keep</strong></font></div></div><div class='respDiv'><div class='respDivL'>Match<br>(e)</div><div class='respDivR'>No Match<br>(i)</div></div></div>","i","TARGET","3","trustrating_stim/white_mw003.bmp,trustrating_stim/white_mw091.bmp,trustrating_stim/white_mw042.bmp","0,1,1","noMatchOutcome","i","4500","trustrating_stim/white_mw091.bmp","red","Keep","PRACTICE","1"
"html-keyboard-response","33","101779","0.0-5.0-5.5","60fefd59226b2b1d87bc36db","bdp_wmem","Sun Mar 12 2023 17:18:59 GMT-0400 (EDT)","560750","Match,No Match","","null","","","","","","<div class='trialBorder'><div class='vertical-center'><img src='img/correct.jpg'></div><div class='respDiv'><div class='respDivL'>Match<br>(e)</div><div class='respDivR'><font style='color:orange'>No Match<br>(i)</font></div></div></div>","null","FEEDBACK","","","","","","","","","","",""
"instructions","34","104169","0.0-6.0","60fefd59226b2b1d87bc36db","bdp_wmem","Sun Mar 12 2023 17:18:59 GMT-0400 (EDT)","560750","Match,No Match","[{""page_index"":0,""viewing_time"":2390}]","2390","","","","","","","","","","","","","","","","","","",""
"html-keyboard-response","35","104671","0.0-7.0-1.0","60fefd59226b2b1d87bc36db","bdp_wmem","Sun Mar 12 2023 17:18:59 GMT-0400 (EDT)","560750","Match,No Match","","null","","","","","","<div class='trialBorder'><div class='vertical-center'><img src='img/fixation2_sml.jpg'</img></div></div>","null","FIX","","","","","","","","","","",""
"html-keyboard-response","36","106174","0.0-7.0-2.0","60fefd59226b2b1d87bc36db","bdp_wmem","Sun Mar 12 2023 17:18:59 GMT-0400 (EDT)","560750","Match,No Match","","null","","","","","","<div class='trialBorder'><div class='vertical-center'><img style='vertical-align:center; align:center' src='img/fixation2_sml.jpg'></div><div class='arrayDiv1'><div class='tc'><img class='introPic' src='trustrating_stim/white_mw040.bmp'><br><font color='green'><strong>Share</strong></font></div></div></div>","null","ARRAY","1","trustrating_stim/white_mw040.bmp","1","noMatchFace","i","1500","","","","",""
"html-keyboard-response","37","110176","0.0-7.0-3.0","60fefd59226b2b1d87bc36db","bdp_wmem","Sun Mar 12 2023 17:18:59 GMT-0400 (EDT)","560750","Match,No Match","","null","","","","","","<div class='trialBorder'><div class='vertical-center'><img src='img/fixation2_sml.jpg'</img></div></div>","null","DELAY","","","","","","","","","","",""
"html-keyboard-response","38","111127","0.0-7.0-4.0","60fefd59226b2b1d87bc36db","bdp_wmem","Sun Mar 12 2023 17:18:59 GMT-0400 (EDT)","560750","Match,No Match","","950","","","","","","<div class='trialBorder'><div class='targDiv'><div class='tc'><img class='introPic' src='trustrating_stim/white_mw003.bmp'><br><font color='green'><strong>Share</strong></font></div></div><div class='respDiv'><div class='respDivL'>Match<br>(e)</div><div class='respDivR'>No Match<br>(i)</div></div></div>","i","TARGET","1","trustrating_stim/white_mw040.bmp","1","noMatchFace","i","1500","trustrating_stim/white_mw003.bmp","green","Share","REAL","1"
"html-keyboard-response","39","111629","0.0-7.0-5.0","60fefd59226b2b1d87bc36db","bdp_wmem","Sun Mar 12 2023 17:18:59 GMT-0400 (EDT)","560750","Match,No Match","","null","","","","","","<div class='trialBorder'><div class='vertical-center'><img src='img/correct.jpg'></div><div class='respDiv'><div class='respDivL'>Match<br>(e)</div><div class='respDivR'><font style='color:orange'>No Match<br>(i)</font></div></div></div>","null","FEEDBACK","","","","","","","","","","",""
"html-keyboard-response","40","112130","0.0-7.0-1.1","60fefd59226b2b1d87bc36db","bdp_wmem","Sun Mar 12 2023 17:18:59 GMT-0400 (EDT)","560750","Match,No Match","","null","","","","","","<div class='trialBorder'><div class='vertical-center'><img src='img/fixation2_sml.jpg'</img></div></div>","null","FIX","","","","","","","","","","",""
"html-keyboard-response","41","115133","0.0-7.0-2.1","60fefd59226b2b1d87bc36db","bdp_wmem","Sun Mar 12 2023 17:18:59 GMT-0400 (EDT)","560750","Match,No Match","","null","","","","","","<div class='trialBorder'><div class='vertical-center'><img style='vertical-align:center; align:center' src='img/fixation2_sml.jpg'></div><div class='arrayDiv2'><div class='tl'><img class='introPic' src='trustrating_stim/white_mw040.bmp'><br><font color='green'><strong>Share</strong></font></div><div class='tr'><img class='introPic' src='trustrating_stim/white_mw003.bmp'><br><font color='red'><strong>Keep</strong></font></div></div></div>","null","ARRAY","2","trustrating_stim/white_mw040.bmp,trustrating_stim/white_mw003.bmp","1,0","Match","e","3000","","","","",""
"html-keyboard-response","42","119135","0.0-7.0-3.1","60fefd59226b2b1d87bc36db","bdp_wmem","Sun Mar 12 2023 17:18:59 GMT-0400 (EDT)","560750","Match,No Match","","null","","","","","","<div class='trialBorder'><div class='vertical-center'><img src='img/fixation2_sml.jpg'</img></div></div>","null","DELAY","","","","","","","","","","",""
"html-keyboard-response","43","119980","0.0-7.0-4.1","60fefd59226b2b1d87bc36db","bdp_wmem","Sun Mar 12 2023 17:18:59 GMT-0400 (EDT)","560750","Match,No Match","","844","","","","","","<div class='trialBorder'><div class='targDiv'><div class='tc'><img class='introPic' src='trustrating_stim/white_mw040.bmp'><br><font color='green'><strong>Share</strong></font></div></div><div class='respDiv'><div class='respDivL'>Match<br>(e)</div><div class='respDivR'>No Match<br>(i)</div></div></div>","e","TARGET","2","trustrating_stim/white_mw040.bmp,trustrating_stim/white_mw003.bmp","1,0","Match","e","3000","trustrating_stim/white_mw040.bmp","green","Share","REAL","1"
"html-keyboard-response","44","120483","0.0-7.0-5.1","60fefd59226b2b1d87bc36db","bdp_wmem","Sun Mar 12 2023 17:18:59 GMT-0400 (EDT)","560750","Match,No Match","","null","","","","","","<div class='trialBorder'><div class='vertical-center'><img src='img/correct.jpg'></div><div class='respDiv'><div class='respDivL'><font style='color:orange'>Match<br>(e)</font></div><div class='respDivR'>No Match<br>(i)</div></div></div>","null","FEEDBACK","","","","","","","","","","",""
"html-keyboard-response","45","120985","0.0-7.0-1.2","60fefd59226b2b1d87bc36db","bdp_wmem","Sun Mar 12 2023 17:18:59 GMT-0400 (EDT)","560750","Match,No Match","","null","","","","","","<div class='trialBorder'><div class='vertical-center'><img src='img/fixation2_sml.jpg'</img></div></div>","null","FIX","","","","","","","","","","",""
"html-keyboard-response","46","122487","0.0-7.0-2.2","60fefd59226b2b1d87bc36db","bdp_wmem","Sun Mar 12 2023 17:18:59 GMT-0400 (EDT)","560750","Match,No Match","","null","","","","","","<div class='trialBorder'><div class='vertical-center'><img style='vertical-align:center; align:center' src='img/fixation2_sml.jpg'></div><div class='arrayDiv1'><div class='tc'><img class='introPic' src='trustrating_stim/white_mw003.bmp'><br><font color='red'><strong>Keep</strong></font></div></div></div>","null","ARRAY","1","trustrating_stim/white_mw003.bmp","0","Match","e","1500","","","","",""
"html-keyboard-response","47","126489","0.0-7.0-3.2","60fefd59226b2b1d87bc36db","bdp_wmem","Sun Mar 12 2023 17:18:59 GMT-0400 (EDT)","560750","Match,No Match","","null","","","","","","<div class='trialBorder'><div class='vertical-center'><img src='img/fixation2_sml.jpg'</img></div></div>","null","DELAY","","","","","","","","","","",""
"html-keyboard-response","48","127074","0.0-7.0-4.2","60fefd59226b2b1d87bc36db","bdp_wmem","Sun Mar 12 2023 17:18:59 GMT-0400 (EDT)","560750","Match,No Match","","584","","","","","","<div class='trialBorder'><div class='targDiv'><div class='tc'><img class='introPic' src='trustrating_stim/white_mw003.bmp'><br><font color='red'><strong>Keep</strong></font></div></div><div class='respDiv'><div class='respDivL'>Match<br>(e)</div><div class='respDivR'>No Match<br>(i)</div></div></div>","i","TARGET","1","trustrating_stim/white_mw003.bmp","0","Match","e","1500","trustrating_stim/white_mw003.bmp","red","Keep","REAL","0"
"html-keyboard-response","49","127576","0.0-7.0-5.2","60fefd59226b2b1d87bc36db","bdp_wmem","Sun Mar 12 2023 17:18:59 GMT-0400 (EDT)","560750","Match,No Match","","null","","","","","","<div class='trialBorder'><div class='vertical-center'><img src='img/error.jpg'></div><div class='respDiv'><div class='respDivL'>Match<br>(e)</div><div class='respDivR'><font style='color:orange'>No Match<br>(i)</font></div></div></div>","null","FEEDBACK","","","","","","","","","","",""
"html-keyboard-response","50","128079","0.0-7.0-1.3","60fefd59226b2b1d87bc36db","bdp_wmem","Sun Mar 12 2023 17:18:59 GMT-0400 (EDT)","560750","Match,No Match","","null","","","","","","<div class='trialBorder'><div class='vertical-center'><img src='img/fixation2_sml.jpg'</img></div></div>","null","FIX","","","","","","","","","","",""
"html-keyboard-response","51","131081","0.0-7.0-2.3","60fefd59226b2b1d87bc36db","bdp_wmem","Sun Mar 12 2023 17:18:59 GMT-0400 (EDT)","560750","Match,No Match","","null","","","","","","<div class='trialBorder'><div class='vertical-center'><img style='vertical-align:center; align:center' src='img/fixation2_sml.jpg'></div><div class='arrayDiv2'><div class='tl'><img class='introPic' src='trustrating_stim/white_mw085.bmp'><br><font color='red'><strong>Keep</strong></font></div><div class='tr'><img class='introPic' src='trustrating_stim/white_mw012.bmp'><br><font color='green'><strong>Share</strong></font></div></div></div>","null","ARRAY","2","trustrating_stim/white_mw085.bmp,trustrating_stim/white_mw012.bmp","0,1","Match","e","3000","","","","",""
"html-keyboard-response","52","135083","0.0-7.0-3.3","60fefd59226b2b1d87bc36db","bdp_wmem","Sun Mar 12 2023 17:18:59 GMT-0400 (EDT)","560750","Match,No Match","","null","","","","","","<div class='trialBorder'><div class='vertical-center'><img src='img/fixation2_sml.jpg'</img></div></div>","null","DELAY","","","","","","","","","","",""
"html-keyboard-response","53","136397","0.0-7.0-4.3","60fefd59226b2b1d87bc36db","bdp_wmem","Sun Mar 12 2023 17:18:59 GMT-0400 (EDT)","560750","Match,No Match","","1312","","","","","","<div class='trialBorder'><div class='targDiv'><div class='tc'><img class='introPic' src='trustrating_stim/white_mw085.bmp'><br><font color='red'><strong>Keep</strong></font></div></div><div class='respDiv'><div class='respDivL'>Match<br>(e)</div><div class='respDivR'>No Match<br>(i)</div></div></div>","e","TARGET","2","trustrating_stim/white_mw085.bmp,trustrating_stim/white_mw012.bmp","0,1","Match","e","3000","trustrating_stim/white_mw085.bmp","red","Keep","REAL","1"
"html-keyboard-response","54","136899","0.0-7.0-5.3","60fefd59226b2b1d87bc36db","bdp_wmem","Sun Mar 12 2023 17:18:59 GMT-0400 (EDT)","560750","Match,No Match","","null","","","","","","<div class='trialBorder'><div class='vertical-center'><img src='img/correct.jpg'></div><div class='respDiv'><div class='respDivL'><font style='color:orange'>Match<br>(e)</font></div><div class='respDivR'>No Match<br>(i)</div></div></div>","null","FEEDBACK","","","","","","","","","","",""
"html-keyboard-response","55","137401","0.0-7.0-1.4","60fefd59226b2b1d87bc36db","bdp_wmem","Sun Mar 12 2023 17:18:59 GMT-0400 (EDT)","560750","Match,No Match","","null","","","","","","<div class='trialBorder'><div class='vertical-center'><img src='img/fixation2_sml.jpg'</img></div></div>","null","FIX","","","","","","","","","","",""
"html-keyboard-response","56","140404","0.0-7.0-2.4","60fefd59226b2b1d87bc36db","bdp_wmem","Sun Mar 12 2023 17:18:59 GMT-0400 (EDT)","560750","Match,No Match","","null","","","","","","<div class='trialBorder'><div class='vertical-center'><img style='vertical-align:center; align:center' src='img/fixation2_sml.jpg'></div><div class='arrayDiv2'><div class='tl'><img class='introPic' src='trustrating_stim/white_mw003.bmp'><br><font color='red'><strong>Keep</strong></font></div><div class='tr'><img class='introPic' src='trustrating_stim/white_mw010.bmp'><br><font color='green'><strong>Share</strong></font></div></div></div>","null","ARRAY","2","trustrating_stim/white_mw003.bmp,trustrating_stim/white_mw010.bmp","0,1","Match","e","3000","","","","",""
"html-keyboard-response","57","144406","0.0-7.0-3.4","60fefd59226b2b1d87bc36db","bdp_wmem","Sun Mar 12 2023 17:18:59 GMT-0400 (EDT)","560750","Match,No Match","","null","","","","","","<div class='trialBorder'><div class='vertical-center'><img src='img/fixation2_sml.jpg'</img></div></div>","null","DELAY","","","","","","","","","","",""
"html-keyboard-response","58","145637","0.0-7.0-4.4","60fefd59226b2b1d87bc36db","bdp_wmem","Sun Mar 12 2023 17:18:59 GMT-0400 (EDT)","560750","Match,No Match","","1229","","","","","","<div class='trialBorder'><div class='targDiv'><div class='tc'><img class='introPic' src='trustrating_stim/white_mw010.bmp'><br><font color='green'><strong>Share</strong></font></div></div><div class='respDiv'><div class='respDivL'>Match<br>(e)</div><div class='respDivR'>No Match<br>(i)</div></div></div>","e","TARGET","2","trustrating_stim/white_mw003.bmp,trustrating_stim/white_mw010.bmp","0,1","Match","e","3000","trustrating_stim/white_mw010.bmp","green","Share","REAL","1"
"html-keyboard-response","59","146138","0.0-7.0-5.4","60fefd59226b2b1d87bc36db","bdp_wmem","Sun Mar 12 2023 17:18:59 GMT-0400 (EDT)","560750","Match,No Match","","null","","","","","","<div class='trialBorder'><div class='vertical-center'><img src='img/correct.jpg'></div><div class='respDiv'><div class='respDivL'><font style='color:orange'>Match<br>(e)</font></div><div class='respDivR'>No Match<br>(i)</div></div></div>","null","FEEDBACK","","","","","","","","","","",""
"html-keyboard-response","60","146640","0.0-7.0-1.5","60fefd59226b2b1d87bc36db","bdp_wmem","Sun Mar 12 2023 17:18:59 GMT-0400 (EDT)","560750","Match,No Match","","null","","","","","","<div class='trialBorder'><div class='vertical-center'><img src='img/fixation2_sml.jpg'</img></div></div>","null","FIX","","","","","","","","","","",""
"html-keyboard-response","61","148143","0.0-7.0-2.5","60fefd59226b2b1d87bc36db","bdp_wmem","Sun Mar 12 2023 17:18:59 GMT-0400 (EDT)","560750","Match,No Match","","null","","","","","","<div class='trialBorder'><div class='vertical-center'><img style='vertical-align:center; align:center' src='img/fixation2_sml.jpg'></div><div class='arrayDiv1'><div class='tc'><img class='introPic' src='trustrating_stim/white_mw040.bmp'><br><font color='red'><strong>Keep</strong></font></div></div></div>","null","ARRAY","1","trustrating_stim/white_mw040.bmp","0","noMatchFace","i","1500","","","","",""
"html-keyboard-response","62","152145","0.0-7.0-3.5","60fefd59226b2b1d87bc36db","bdp_wmem","Sun Mar 12 2023 17:18:59 GMT-0400 (EDT)","560750","Match,No Match","","null","","","","","","<div class='trialBorder'><div class='vertical-center'><img src='img/fixation2_sml.jpg'</img></div></div>","null","DELAY","","","","","","","","","","",""
"html-keyboard-response","63","152875","0.0-7.0-4.5","60fefd59226b2b1d87bc36db","bdp_wmem","Sun Mar 12 2023 17:18:59 GMT-0400 (EDT)","560750","Match,No Match","","729","","","","","","<div class='trialBorder'><div class='targDiv'><div class='tc'><img class='introPic' src='trustrating_stim/white_mw078.bmp'><br><font color='red'><strong>Keep</strong></font></div></div><div class='respDiv'><div class='respDivL'>Match<br>(e)</div><div class='respDivR'>No Match<br>(i)</div></div></div>","i","TARGET","1","trustrating_stim/white_mw040.bmp","0","noMatchFace","i","1500","trustrating_stim/white_mw078.bmp","red","Keep","REAL","1"
"html-keyboard-response","64","153377","0.0-7.0-5.5","60fefd59226b2b1d87bc36db","bdp_wmem","Sun Mar 12 2023 17:18:59 GMT-0400 (EDT)","560750","Match,No Match","","null","","","","","","<div class='trialBorder'><div class='vertical-center'><img src='img/correct.jpg'></div><div class='respDiv'><div class='respDivL'>Match<br>(e)</div><div class='respDivR'><font style='color:orange'>No Match<br>(i)</font></div></div></div>","null","FEEDBACK","","","","","","","","","","",""
"html-keyboard-response","65","153879","0.0-7.0-1.6","60fefd59226b2b1d87bc36db","bdp_wmem","Sun Mar 12 2023 17:18:59 GMT-0400 (EDT)","560750","Match,No Match","","null","","","","","","<div class='trialBorder'><div class='vertical-center'><img src='img/fixation2_sml.jpg'</img></div></div>","null","FIX","","","","","","","","","","",""
"html-keyboard-response","66","155382","0.0-7.0-2.6","60fefd59226b2b1d87bc36db","bdp_wmem","Sun Mar 12 2023 17:18:59 GMT-0400 (EDT)","560750","Match,No Match","","null","","","","","","<div class='trialBorder'><div class='vertical-center'><img style='vertical-align:center; align:center' src='img/fixation2_sml.jpg'></div><div class='arrayDiv1'><div class='tc'><img class='introPic' src='trustrating_stim/white_mw091.bmp'><br><font color='green'><strong>Share</strong></font></div></div></div>","null","ARRAY","1","trustrating_stim/white_mw091.bmp","1","Match","e","1500","","","","",""
"html-keyboard-response","67","159384","0.0-7.0-3.6","60fefd59226b2b1d87bc36db","bdp_wmem","Sun Mar 12 2023 17:18:59 GMT-0400 (EDT)","560750","Match,No Match","","null","","","","","","<div class='trialBorder'><div class='vertical-center'><img src='img/fixation2_sml.jpg'</img></div></div>","null","DELAY","","","","","","","","","","",""
"html-keyboard-response","68","161097","0.0-7.0-4.6","60fefd59226b2b1d87bc36db","bdp_wmem","Sun Mar 12 2023 17:18:59 GMT-0400 (EDT)","560750","Match,No Match","","1712","","","","","","<div class='trialBorder'><div class='targDiv'><div class='tc'><img class='introPic' src='trustrating_stim/white_mw091.bmp'><br><font color='green'><strong>Share</strong></font></div></div><div class='respDiv'><div class='respDivL'>Match<br>(e)</div><div class='respDivR'>No Match<br>(i)</div></div></div>","e","TARGET","1","trustrating_stim/white_mw091.bmp","1","Match","e","1500","trustrating_stim/white_mw091.bmp","green","Share","REAL","1"
"html-keyboard-response","69","161599","0.0-7.0-5.6","60fefd59226b2b1d87bc36db","bdp_wmem","Sun Mar 12 2023 17:18:59 GMT-0400 (EDT)","560750","Match,No Match","","null","","","","","","<div class='trialBorder'><div class='vertical-center'><img src='img/correct.jpg'></div><div class='respDiv'><div class='respDivL'><font style='color:orange'>Match<br>(e)</font></div><div class='respDivR'>No Match<br>(i)</div></div></div>","null","FEEDBACK","","","","","","","","","","",""
"html-keyboard-response","70","162101","0.0-7.0-1.7","60fefd59226b2b1d87bc36db","bdp_wmem","Sun Mar 12 2023 17:18:59 GMT-0400 (EDT)","560750","Match,No Match","","null","","","","","","<div class='trialBorder'><div class='vertical-center'><img src='img/fixation2_sml.jpg'</img></div></div>","null","FIX","","","","","","","","","","",""
"html-keyboard-response","71","166604","0.0-7.0-2.7","60fefd59226b2b1d87bc36db","bdp_wmem","Sun Mar 12 2023 17:18:59 GMT-0400 (EDT)","560750","Match,No Match","","null","","","","","","<div class='trialBorder'><div class='vertical-center'><img style='vertical-align:center; align:center' src='img/fixation2_sml.jpg'></div><div class='arrayDiv3'><div class='tl'><img class='introPic' src='trustrating_stim/white_mw070.bmp'><br><font color='red'><strong>Keep</strong></font></div><div class='tc'><img class='introPic' src='trustrating_stim/white_mw013.bmp'><br><font color='red'><strong>Keep</strong></font></div><div class='tr'><img class='introPic' src='trustrating_stim/white_mw038.bmp'><br><font color='green'><strong>Share</strong></font></div></div></div>","null","ARRAY","3","trustrating_stim/white_mw070.bmp,trustrating_stim/white_mw013.bmp,trustrating_stim/white_mw038.bmp","0,0,1","Match","e","4500","","","","",""
"html-keyboard-response","72","170606","0.0-7.0-3.7","60fefd59226b2b1d87bc36db","bdp_wmem","Sun Mar 12 2023 17:18:59 GMT-0400 (EDT)","560750","Match,No Match","","null","","","","","","<div class='trialBorder'><div class='vertical-center'><img src='img/fixation2_sml.jpg'</img></div></div>","null","DELAY","","","","","","","","","","",""
"html-keyboard-response","73","171943","0.0-7.0-4.7","60fefd59226b2b1d87bc36db","bdp_wmem","Sun Mar 12 2023 17:18:59 GMT-0400 (EDT)","560750","Match,No Match","","1336","","","","","","<div class='trialBorder'><div class='targDiv'><div class='tc'><img class='introPic' src='trustrating_stim/white_mw070.bmp'><br><font color='red'><strong>Keep</strong></font></div></div><div class='respDiv'><div class='respDivL'>Match<br>(e)</div><div class='respDivR'>No Match<br>(i)</div></div></div>","i","TARGET","3","trustrating_stim/white_mw070.bmp,trustrating_stim/white_mw013.bmp,trustrating_stim/white_mw038.bmp","0,0,1","Match","e","4500","trustrating_stim/white_mw070.bmp","red","Keep","REAL","0"
"html-keyboard-response","74","172446","0.0-7.0-5.7","60fefd59226b2b1d87bc36db","bdp_wmem","Sun Mar 12 2023 17:18:59 GMT-0400 (EDT)","560750","Match,No Match","","null","","","","","","<div class='trialBorder'><div class='vertical-center'><img src='img/error.jpg'></div><div class='respDiv'><div class='respDivL'>Match<br>(e)</div><div class='respDivR'><font style='color:orange'>No Match<br>(i)</font></div></div></div>","null","FEEDBACK","","","","","","","","","","",""
"html-keyboard-response","75","172948","0.0-7.0-1.8","60fefd59226b2b1d87bc36db","bdp_wmem","Sun Mar 12 2023 17:18:59 GMT-0400 (EDT)","560750","Match,No Match","","null","","","","","","<div class='trialBorder'><div class='vertical-center'><img src='img/fixation2_sml.jpg'</img></div></div>","null","FIX","","","","","","","","","","",""
"html-keyboard-response","76","175949","0.0-7.0-2.8","60fefd59226b2b1d87bc36db","bdp_wmem","Sun Mar 12 2023 17:18:59 GMT-0400 (EDT)","560750","Match,No Match","","null","","","","","","<div class='trialBorder'><div class='vertical-center'><img style='vertical-align:center; align:center' src='img/fixation2_sml.jpg'></div><div class='arrayDiv2'><div class='tl'><img class='introPic' src='trustrating_stim/white_mw012.bmp'><br><font color='red'><strong>Keep</strong></font></div><div class='tr'><img class='introPic' src='trustrating_stim/white_mw013.bmp'><br><font color='green'><strong>Share</strong></font></div></div></div>","null","ARRAY","2","trustrating_stim/white_mw012.bmp,trustrating_stim/white_mw013.bmp","0,1","noMatchFace","i","3000","","","","",""
"html-keyboard-response","77","179951","0.0-7.0-3.8","60fefd59226b2b1d87bc36db","bdp_wmem","Sun Mar 12 2023 17:18:59 GMT-0400 (EDT)","560750","Match,No Match","","null","","","","","","<div class='trialBorder'><div class='vertical-center'><img src='img/fixation2_sml.jpg'</img></div></div>","null","DELAY","","","","","","","","","","",""
"html-keyboard-response","78","181094","0.0-7.0-4.8","60fefd59226b2b1d87bc36db","bdp_wmem","Sun Mar 12 2023 17:18:59 GMT-0400 (EDT)","560750","Match,No Match","","1141","","","","","","<div class='trialBorder'><div class='targDiv'><div class='tc'><img class='introPic' src='trustrating_stim/white_mw092.bmp'><br><font color='green'><strong>Share</strong></font></div></div><div class='respDiv'><div class='respDivL'>Match<br>(e)</div><div class='respDivR'>No Match<br>(i)</div></div></div>","i","TARGET","2","trustrating_stim/white_mw012.bmp,trustrating_stim/white_mw013.bmp","0,1","noMatchFace","i","3000","trustrating_stim/white_mw092.bmp","green","Share","REAL","1"
"html-keyboard-response","79","181595","0.0-7.0-5.8","60fefd59226b2b1d87bc36db","bdp_wmem","Sun Mar 12 2023 17:18:59 GMT-0400 (EDT)","560750","Match,No Match","","null","","","","","","<div class='trialBorder'><div class='vertical-center'><img src='img/correct.jpg'></div><div class='respDiv'><div class='respDivL'>Match<br>(e)</div><div class='respDivR'><font style='color:orange'>No Match<br>(i)</font></div></div></div>","null","FEEDBACK","","","","","","","","","","",""
"html-keyboard-response","80","182097","0.0-7.0-1.9","60fefd59226b2b1d87bc36db","bdp_wmem","Sun Mar 12 2023 17:18:59 GMT-0400 (EDT)","560750","Match,No Match","","null","","","","","","<div class='trialBorder'><div class='vertical-center'><img src='img/fixation2_sml.jpg'</img></div></div>","null","FIX","","","","","","","","","","",""
"html-keyboard-response","81","186600","0.0-7.0-2.9","60fefd59226b2b1d87bc36db","bdp_wmem","Sun Mar 12 2023 17:18:59 GMT-0400 (EDT)","560750","Match,No Match","","null","","","","","","<div class='trialBorder'><div class='vertical-center'><img style='vertical-align:center; align:center' src='img/fixation2_sml.jpg'></div><div class='arrayDiv3'><div class='tl'><img class='introPic' src='trustrating_stim/white_mw012.bmp'><br><font color='green'><strong>Share</strong></font></div><div class='tc'><img class='introPic' src='trustrating_stim/white_mw013.bmp'><br><font color='red'><strong>Keep</strong></font></div><div class='tr'><img class='introPic' src='trustrating_stim/white_mw070.bmp'><br><font color='green'><strong>Share</strong></font></div></div></div>","null","ARRAY","3","trustrating_stim/white_mw012.bmp,trustrating_stim/white_mw013.bmp,trustrating_stim/white_mw070.bmp","1,0,1","Match","e","4500","","","","",""
"html-keyboard-response","82","190602","0.0-7.0-3.9","60fefd59226b2b1d87bc36db","bdp_wmem","Sun Mar 12 2023 17:18:59 GMT-0400 (EDT)","560750","Match,No Match","","null","","","","","","<div class='trialBorder'><div class='vertical-center'><img src='img/fixation2_sml.jpg'</img></div></div>","null","DELAY","","","","","","","","","","",""
"html-keyboard-response","83","191842","0.0-7.0-4.9","60fefd59226b2b1d87bc36db","bdp_wmem","Sun Mar 12 2023 17:18:59 GMT-0400 (EDT)","560750","Match,No Match","","1239","","","","","","<div class='trialBorder'><div class='targDiv'><div class='tc'><img class='introPic' src='trustrating_stim/white_mw070.bmp'><br><font color='green'><strong>Share</strong></font></div></div><div class='respDiv'><div class='respDivL'>Match<br>(e)</div><div class='respDivR'>No Match<br>(i)</div></div></div>","i","TARGET","3","trustrating_stim/white_mw012.bmp,trustrating_stim/white_mw013.bmp,trustrating_stim/white_mw070.bmp","1,0,1","Match","e","4500","trustrating_stim/white_mw070.bmp","green","Share","REAL","0"
"html-keyboard-response","84","192344","0.0-7.0-5.9","60fefd59226b2b1d87bc36db","bdp_wmem","Sun Mar 12 2023 17:18:59 GMT-0400 (EDT)","560750","Match,No Match","","null","","","","","","<div class='trialBorder'><div class='vertical-center'><img src='img/error.jpg'></div><div class='respDiv'><div class='respDivL'>Match<br>(e)</div><div class='respDivR'><font style='color:orange'>No Match<br>(i)</font></div></div></div>","null","FEEDBACK","","","","","","","","","","",""
"html-keyboard-response","85","192846","0.0-7.0-1.10","60fefd59226b2b1d87bc36db","bdp_wmem","Sun Mar 12 2023 17:18:59 GMT-0400 (EDT)","560750","Match,No Match","","null","","","","","","<div class='trialBorder'><div class='vertical-center'><img src='img/fixation2_sml.jpg'</img></div></div>","null","FIX","","","","","","","","","","",""
"html-keyboard-response","86","195849","0.0-7.0-2.10","60fefd59226b2b1d87bc36db","bdp_wmem","Sun Mar 12 2023 17:18:59 GMT-0400 (EDT)","560750","Match,No Match","","null","","","","","","<div class='trialBorder'><div class='vertical-center'><img style='vertical-align:center; align:center' src='img/fixation2_sml.jpg'></div><div class='arrayDiv2'><div class='tl'><img class='introPic' src='trustrating_stim/white_mw070.bmp'><br><font color='red'><strong>Keep</strong></font></div><div class='tr'><img class='introPic' src='trustrating_stim/white_mw085.bmp'><br><font color='green'><strong>Share</strong></font></div></div></div>","null","ARRAY","2","trustrating_stim/white_mw070.bmp,trustrating_stim/white_mw085.bmp","0,1","Match","e","3000","","","","",""
"html-keyboard-response","87","199851","0.0-7.0-3.10","60fefd59226b2b1d87bc36db","bdp_wmem","Sun Mar 12 2023 17:18:59 GMT-0400 (EDT)","560750","Match,No Match","","null","","","","","","<div class='trialBorder'><div class='vertical-center'><img src='img/fixation2_sml.jpg'</img></div></div>","null","DELAY","","","","","","","","","","",""
"html-keyboard-response","88","200715","0.0-7.0-4.10","60fefd59226b2b1d87bc36db","bdp_wmem","Sun Mar 12 2023 17:18:59 GMT-0400 (EDT)","560750","Match,No Match","","862","","","","","","<div class='trialBorder'><div class='targDiv'><div class='tc'><img class='introPic' src='trustrating_stim/white_mw085.bmp'><br><font color='green'><strong>Share</strong></font></div></div><div class='respDiv'><div class='respDivL'>Match<br>(e)</div><div class='respDivR'>No Match<br>(i)</div></div></div>","i","TARGET","2","trustrating_stim/white_mw070.bmp,trustrating_stim/white_mw085.bmp","0,1","Match","e","3000","trustrating_stim/white_mw085.bmp","green","Share","REAL","0"
"html-keyboard-response","89","201217","0.0-7.0-5.10","60fefd59226b2b1d87bc36db","bdp_wmem","Sun Mar 12 2023 17:18:59 GMT-0400 (EDT)","560750","Match,No Match","","null","","","","","","<div class='trialBorder'><div class='vertical-center'><img src='img/error.jpg'></div><div class='respDiv'><div class='respDivL'>Match<br>(e)</div><div class='respDivR'><font style='color:orange'>No Match<br>(i)</font></div></div></div>","null","FEEDBACK","","","","","","","","","","",""
"html-keyboard-response","90","201719","0.0-7.0-1.11","60fefd59226b2b1d87bc36db","bdp_wmem","Sun Mar 12 2023 17:18:59 GMT-0400 (EDT)","560750","Match,No Match","","null","","","","","","<div class='trialBorder'><div class='vertical-center'><img src='img/fixation2_sml.jpg'</img></div></div>","null","FIX","","","","","","","","","","",""
"html-keyboard-response","91","206221","0.0-7.0-2.11","60fefd59226b2b1d87bc36db","bdp_wmem","Sun Mar 12 2023 17:18:59 GMT-0400 (EDT)","560750","Match,No Match","","null","","","","","","<div class='trialBorder'><div class='vertical-center'><img style='vertical-align:center; align:center' src='img/fixation2_sml.jpg'></div><div class='arrayDiv3'><div class='tl'><img class='introPic' src='trustrating_stim/white_mw070.bmp'><br><font color='red'><strong>Keep</strong></font></div><div class='tc'><img class='introPic' src='trustrating_stim/white_mw042.bmp'><br><font color='red'><strong>Keep</strong></font></div><div class='tr'><img class='introPic' src='trustrating_stim/white_mw078.bmp'><br><font color='green'><strong>Share</strong></font></div></div></div>","null","ARRAY","3","trustrating_stim/white_mw070.bmp,trustrating_stim/white_mw042.bmp,trustrating_stim/white_mw078.bmp","0,0,1","noMatchFace","i","4500","","","","",""
"html-keyboard-response","92","210223","0.0-7.0-3.11","60fefd59226b2b1d87bc36db","bdp_wmem","Sun Mar 12 2023 17:18:59 GMT-0400 (EDT)","560750","Match,No Match","","null","","","","","","<div class='trialBorder'><div class='vertical-center'><img src='img/fixation2_sml.jpg'</img></div></div>","null","DELAY","","","","","","","","","","",""
"html-keyboard-response","93","211636","0.0-7.0-4.11","60fefd59226b2b1d87bc36db","bdp_wmem","Sun Mar 12 2023 17:18:59 GMT-0400 (EDT)","560750","Match,No Match","","1412","","","","","","<div class='trialBorder'><div class='targDiv'><div class='tc'><img class='introPic' src='trustrating_stim/white_mw013.bmp'><br><font color='green'><strong>Share</strong></font></div></div><div class='respDiv'><div class='respDivL'>Match<br>(e)</div><div class='respDivR'>No Match<br>(i)</div></div></div>","i","TARGET","3","trustrating_stim/white_mw070.bmp,trustrating_stim/white_mw042.bmp,trustrating_stim/white_mw078.bmp","0,0,1","noMatchFace","i","4500","trustrating_stim/white_mw013.bmp","green","Share","REAL","1"
"html-keyboard-response","94","212138","0.0-7.0-5.11","60fefd59226b2b1d87bc36db","bdp_wmem","Sun Mar 12 2023 17:18:59 GMT-0400 (EDT)","560750","Match,No Match","","null","","","","","","<div class='trialBorder'><div class='vertical-center'><img src='img/correct.jpg'></div><div class='respDiv'><div class='respDivL'>Match<br>(e)</div><div class='respDivR'><font style='color:orange'>No Match<br>(i)</font></div></div></div>","null","FEEDBACK","","","","","","","","","","",""
"html-keyboard-response","95","212641","0.0-7.0-1.12","60fefd59226b2b1d87bc36db","bdp_wmem","Sun Mar 12 2023 17:18:59 GMT-0400 (EDT)","560750","Match,No Match","","null","","","","","","<div class='trialBorder'><div class='vertical-center'><img src='img/fixation2_sml.jpg'</img></div></div>","null","FIX","","","","","","","","","","",""
"html-keyboard-response","96","215643","0.0-7.0-2.12","60fefd59226b2b1d87bc36db","bdp_wmem","Sun Mar 12 2023 17:18:59 GMT-0400 (EDT)","560750","Match,No Match","","null","","","","","","<div class='trialBorder'><div class='vertical-center'><img style='vertical-align:center; align:center' src='img/fixation2_sml.jpg'></div><div class='arrayDiv2'><div class='tl'><img class='introPic' src='trustrating_stim/white_mw003.bmp'><br><font color='green'><strong>Share</strong></font></div><div class='tr'><img class='introPic' src='trustrating_stim/white_mw042.bmp'><br><font color='red'><strong>Keep</strong></font></div></div></div>","null","ARRAY","2","trustrating_stim/white_mw003.bmp,trustrating_stim/white_mw042.bmp","1,0","Match","e","3000","","","","",""
"html-keyboard-response","97","219645","0.0-7.0-3.12","60fefd59226b2b1d87bc36db","bdp_wmem","Sun Mar 12 2023 17:18:59 GMT-0400 (EDT)","560750","Match,No Match","","null","","","","","","<div class='trialBorder'><div class='vertical-center'><img src='img/fixation2_sml.jpg'</img></div></div>","null","DELAY","","","","","","","","","","",""
"html-keyboard-response","98","220255","0.0-7.0-4.12","60fefd59226b2b1d87bc36db","bdp_wmem","Sun Mar 12 2023 17:18:59 GMT-0400 (EDT)","560750","Match,No Match","","609","","","","","","<div class='trialBorder'><div class='targDiv'><div class='tc'><img class='introPic' src='trustrating_stim/white_mw042.bmp'><br><font color='red'><strong>Keep</strong></font></div></div><div class='respDiv'><div class='respDivL'>Match<br>(e)</div><div class='respDivR'>No Match<br>(i)</div></div></div>","e","TARGET","2","trustrating_stim/white_mw003.bmp,trustrating_stim/white_mw042.bmp","1,0","Match","e","3000","trustrating_stim/white_mw042.bmp","red","Keep","REAL","1"
"html-keyboard-response","99","220758","0.0-7.0-5.12","60fefd59226b2b1d87bc36db","bdp_wmem","Sun Mar 12 2023 17:18:59 GMT-0400 (EDT)","560750","Match,No Match","","null","","","","","","<div class='trialBorder'><div class='vertical-center'><img src='img/correct.jpg'></div><div class='respDiv'><div class='respDivL'><font style='color:orange'>Match<br>(e)</font></div><div class='respDivR'>No Match<br>(i)</div></div></div>","null","FEEDBACK","","","","","","","","","","",""
"html-keyboard-response","100","221260","0.0-7.0-1.13","60fefd59226b2b1d87bc36db","bdp_wmem","Sun Mar 12 2023 17:18:59 GMT-0400 (EDT)","560750","Match,No Match","","null","","","","","","<div class='trialBorder'><div class='vertical-center'><img src='img/fixation2_sml.jpg'</img></div></div>","null","FIX","","","","","","","","","","",""
"html-keyboard-response","101","222763","0.0-7.0-2.13","60fefd59226b2b1d87bc36db","bdp_wmem","Sun Mar 12 2023 17:18:59 GMT-0400 (EDT)","560750","Match,No Match","","null","","","","","","<div class='trialBorder'><div class='vertical-center'><img style='vertical-align:center; align:center' src='img/fixation2_sml.jpg'></div><div class='arrayDiv1'><div class='tc'><img class='introPic' src='trustrating_stim/white_mw040.bmp'><br><font color='green'><strong>Share</strong></font></div></div></div>","null","ARRAY","1","trustrating_stim/white_mw040.bmp","1","Match","e","1500","","","","",""
"html-keyboard-response","102","226765","0.0-7.0-3.13","60fefd59226b2b1d87bc36db","bdp_wmem","Sun Mar 12 2023 17:18:59 GMT-0400 (EDT)","560750","Match,No Match","","null","","","","","","<div class='trialBorder'><div class='vertical-center'><img src='img/fixation2_sml.jpg'</img></div></div>","null","DELAY","","","","","","","","","","",""
"html-keyboard-response","103","227777","0.0-7.0-4.13","60fefd59226b2b1d87bc36db","bdp_wmem","Sun Mar 12 2023 17:18:59 GMT-0400 (EDT)","560750","Match,No Match","","1011","","","","","","<div class='trialBorder'><div class='targDiv'><div class='tc'><img class='introPic' src='trustrating_stim/white_mw040.bmp'><br><font color='green'><strong>Share</strong></font></div></div><div class='respDiv'><div class='respDivL'>Match<br>(e)</div><div class='respDivR'>No Match<br>(i)</div></div></div>","i","TARGET","1","trustrating_stim/white_mw040.bmp","1","Match","e","1500","trustrating_stim/white_mw040.bmp","green","Share","REAL","0"
"html-keyboard-response","104","228280","0.0-7.0-5.13","60fefd59226b2b1d87bc36db","bdp_wmem","Sun Mar 12 2023 17:18:59 GMT-0400 (EDT)","560750","Match,No Match","","null","","","","","","<div class='trialBorder'><div class='vertical-center'><img src='img/error.jpg'></div><div class='respDiv'><div class='respDivL'>Match<br>(e)</div><div class='respDivR'><font style='color:orange'>No Match<br>(i)</font></div></div></div>","null","FEEDBACK","","","","","","","","","","",""
"html-keyboard-response","105","228782","0.0-7.0-1.14","60fefd59226b2b1d87bc36db","bdp_wmem","Sun Mar 12 2023 17:18:59 GMT-0400 (EDT)","560750","Match,No Match","","null","","","","","","<div class='trialBorder'><div class='vertical-center'><img src='img/fixation2_sml.jpg'</img></div></div>","null","FIX","","","","","","","","","","",""
"html-keyboard-response","106","233284","0.0-7.0-2.14","60fefd59226b2b1d87bc36db","bdp_wmem","Sun Mar 12 2023 17:18:59 GMT-0400 (EDT)","560750","Match,No Match","","null","","","","","","<div class='trialBorder'><div class='vertical-center'><img style='vertical-align:center; align:center' src='img/fixation2_sml.jpg'></div><div class='arrayDiv3'><div class='tl'><img class='introPic' src='trustrating_stim/white_mw092.bmp'><br><font color='red'><strong>Keep</strong></font></div><div class='tc'><img class='introPic' src='trustrating_stim/white_mw038.bmp'><br><font color='red'><strong>Keep</strong></font></div><div class='tr'><img class='introPic' src='trustrating_stim/white_mw042.bmp'><br><font color='green'><strong>Share</strong></font></div></div></div>","null","ARRAY","3","trustrating_stim/white_mw092.bmp,trustrating_stim/white_mw038.bmp,trustrating_stim/white_mw042.bmp","0,0,1","Match","e","4500","","","","",""
"html-keyboard-response","107","237287","0.0-7.0-3.14","60fefd59226b2b1d87bc36db","bdp_wmem","Sun Mar 12 2023 17:18:59 GMT-0400 (EDT)","560750","Match,No Match","","null","","","","","","<div class='trialBorder'><div class='vertical-center'><img src='img/fixation2_sml.jpg'</img></div></div>","null","DELAY","","","","","","","","","","",""
"html-keyboard-response","108","238306","0.0-7.0-4.14","60fefd59226b2b1d87bc36db","bdp_wmem","Sun Mar 12 2023 17:18:59 GMT-0400 (EDT)","560750","Match,No Match","","1018","","","","","","<div class='trialBorder'><div class='targDiv'><div class='tc'><img class='introPic' src='trustrating_stim/white_mw092.bmp'><br><font color='red'><strong>Keep</strong></font></div></div><div class='respDiv'><div class='respDivL'>Match<br>(e)</div><div class='respDivR'>No Match<br>(i)</div></div></div>","e","TARGET","3","trustrating_stim/white_mw092.bmp,trustrating_stim/white_mw038.bmp,trustrating_stim/white_mw042.bmp","0,0,1","Match","e","4500","trustrating_stim/white_mw092.bmp","red","Keep","REAL","1"
"html-keyboard-response","109","238809","0.0-7.0-5.14","60fefd59226b2b1d87bc36db","bdp_wmem","Sun Mar 12 2023 17:18:59 GMT-0400 (EDT)","560750","Match,No Match","","null","","","","","","<div class='trialBorder'><div class='vertical-center'><img src='img/correct.jpg'></div><div class='respDiv'><div class='respDivL'><font style='color:orange'>Match<br>(e)</font></div><div class='respDivR'>No Match<br>(i)</div></div></div>","null","FEEDBACK","","","","","","","","","","",""
"html-keyboard-response","110","239311","0.0-7.0-1.15","60fefd59226b2b1d87bc36db","bdp_wmem","Sun Mar 12 2023 17:18:59 GMT-0400 (EDT)","560750","Match,No Match","","null","","","","","","<div class='trialBorder'><div class='vertical-center'><img src='img/fixation2_sml.jpg'</img></div></div>","null","FIX","","","","","","","","","","",""
"html-keyboard-response","111","243813","0.0-7.0-2.15","60fefd59226b2b1d87bc36db","bdp_wmem","Sun Mar 12 2023 17:18:59 GMT-0400 (EDT)","560750","Match,No Match","","null","","","","","","<div class='trialBorder'><div class='vertical-center'><img style='vertical-align:center; align:center' src='img/fixation2_sml.jpg'></div><div class='arrayDiv3'><div class='tl'><img class='introPic' src='trustrating_stim/white_mw042.bmp'><br><font color='green'><strong>Share</strong></font></div><div class='tc'><img class='introPic' src='trustrating_stim/white_mw078.bmp'><br><font color='red'><strong>Keep</strong></font></div><div class='tr'><img class='introPic' src='trustrating_stim/white_mw012.bmp'><br><font color='green'><strong>Share</strong></font></div></div></div>","null","ARRAY","3","trustrating_stim/white_mw042.bmp,trustrating_stim/white_mw078.bmp,trustrating_stim/white_mw012.bmp","1,0,1","Match","e","4500","","","","",""
"html-keyboard-response","112","247816","0.0-7.0-3.15","60fefd59226b2b1d87bc36db","bdp_wmem","Sun Mar 12 2023 17:18:59 GMT-0400 (EDT)","560750","Match,No Match","","null","","","","","","<div class='trialBorder'><div class='vertical-center'><img src='img/fixation2_sml.jpg'</img></div></div>","null","DELAY","","","","","","","","","","",""
"html-keyboard-response","113","249341","0.0-7.0-4.15","60fefd59226b2b1d87bc36db","bdp_wmem","Sun Mar 12 2023 17:18:59 GMT-0400 (EDT)","560750","Match,No Match","","1525","","","","","","<div class='trialBorder'><div class='targDiv'><div class='tc'><img class='introPic' src='trustrating_stim/white_mw042.bmp'><br><font color='green'><strong>Share</strong></font></div></div><div class='respDiv'><div class='respDivL'>Match<br>(e)</div><div class='respDivR'>No Match<br>(i)</div></div></div>","e","TARGET","3","trustrating_stim/white_mw042.bmp,trustrating_stim/white_mw078.bmp,trustrating_stim/white_mw012.bmp","1,0,1","Match","e","4500","trustrating_stim/white_mw042.bmp","green","Share","REAL","1"
"html-keyboard-response","114","249843","0.0-7.0-5.15","60fefd59226b2b1d87bc36db","bdp_wmem","Sun Mar 12 2023 17:18:59 GMT-0400 (EDT)","560750","Match,No Match","","null","","","","","","<div class='trialBorder'><div class='vertical-center'><img src='img/correct.jpg'></div><div class='respDiv'><div class='respDivL'><font style='color:orange'>Match<br>(e)</font></div><div class='respDivR'>No Match<br>(i)</div></div></div>","null","FEEDBACK","","","","","","","","","","",""
"html-keyboard-response","115","250344","0.0-7.0-1.16","60fefd59226b2b1d87bc36db","bdp_wmem","Sun Mar 12 2023 17:18:59 GMT-0400 (EDT)","560750","Match,No Match","","null","","","","","","<div class='trialBorder'><div class='vertical-center'><img src='img/fixation2_sml.jpg'</img></div></div>","null","FIX","","","","","","","","","","",""
"html-keyboard-response","116","253351","0.0-7.0-2.16","60fefd59226b2b1d87bc36db","bdp_wmem","Sun Mar 12 2023 17:18:59 GMT-0400 (EDT)","560750","Match,No Match","","null","","","","","","<div class='trialBorder'><div class='vertical-center'><img style='vertical-align:center; align:center' src='img/fixation2_sml.jpg'></div><div class='arrayDiv2'><div class='tl'><img class='introPic' src='trustrating_stim/white_mw070.bmp'><br><font color='red'><strong>Keep</strong></font></div><div class='tr'><img class='introPic' src='trustrating_stim/white_mw038.bmp'><br><font color='green'><strong>Share</strong></font></div></div></div>","null","ARRAY","2","trustrating_stim/white_mw070.bmp,trustrating_stim/white_mw038.bmp","0,1","noMatchOutcome","i","3000","","","","",""
"html-keyboard-response","117","257360","0.0-7.0-3.16","60fefd59226b2b1d87bc36db","bdp_wmem","Sun Mar 12 2023 17:18:59 GMT-0400 (EDT)","560750","Match,No Match","","null","","","","","","<div class='trialBorder'><div class='vertical-center'><img src='img/fixation2_sml.jpg'</img></div></div>","null","DELAY","","","","","","","","","","",""
"html-keyboard-response","118","258518","0.0-7.0-4.16","60fefd59226b2b1d87bc36db","bdp_wmem","Sun Mar 12 2023 17:18:59 GMT-0400 (EDT)","560750","Match,No Match","","1157","","","","","","<div class='trialBorder'><div class='targDiv'><div class='tc'><img class='introPic' src='trustrating_stim/white_mw070.bmp'><br><font color='green'><strong>Share</strong></font></div></div><div class='respDiv'><div class='respDivL'>Match<br>(e)</div><div class='respDivR'>No Match<br>(i)</div></div></div>","e","TARGET","2","trustrating_stim/white_mw070.bmp,trustrating_stim/white_mw038.bmp","0,1","noMatchOutcome","i","3000","trustrating_stim/white_mw070.bmp","green","Share","REAL","0"
"html-keyboard-response","119","259020","0.0-7.0-5.16","60fefd59226b2b1d87bc36db","bdp_wmem","Sun Mar 12 2023 17:18:59 GMT-0400 (EDT)","560750","Match,No Match","","null","","","","","","<div class='trialBorder'><div class='vertical-center'><img src='img/error.jpg'></div><div class='respDiv'><div class='respDivL'><font style='color:orange'>Match<br>(e)</font></div><div class='respDivR'>No Match<br>(i)</div></div></div>","null","FEEDBACK","","","","","","","","","","",""
"html-keyboard-response","120","259523","0.0-7.0-1.17","60fefd59226b2b1d87bc36db","bdp_wmem","Sun Mar 12 2023 17:18:59 GMT-0400 (EDT)","560750","Match,No Match","","null","","","","","","<div class='trialBorder'><div class='vertical-center'><img src='img/fixation2_sml.jpg'</img></div></div>","null","FIX","","","","","","","","","","",""
"html-keyboard-response","121","262527","0.0-7.0-2.17","60fefd59226b2b1d87bc36db","bdp_wmem","Sun Mar 12 2023 17:18:59 GMT-0400 (EDT)","560750","Match,No Match","","null","","","","","","<div class='trialBorder'><div class='vertical-center'><img style='vertical-align:center; align:center' src='img/fixation2_sml.jpg'></div><div class='arrayDiv2'><div class='tl'><img class='introPic' src='trustrating_stim/white_mw040.bmp'><br><font color='red'><strong>Keep</strong></font></div><div class='tr'><img class='introPic' src='trustrating_stim/white_mw092.bmp'><br><font color='green'><strong>Share</strong></font></div></div></div>","null","ARRAY","2","trustrating_stim/white_mw040.bmp,trustrating_stim/white_mw092.bmp","0,1","noMatchOutcome","i","3000","","","","",""
"html-keyboard-response","122","266532","0.0-7.0-3.17","60fefd59226b2b1d87bc36db","bdp_wmem","Sun Mar 12 2023 17:18:59 GMT-0400 (EDT)","560750","Match,No Match","","null","","","","","","<div class='trialBorder'><div class='vertical-center'><img src='img/fixation2_sml.jpg'</img></div></div>","null","DELAY","","","","","","","","","","",""
"html-keyboard-response","123","267381","0.0-7.0-4.17","60fefd59226b2b1d87bc36db","bdp_wmem","Sun Mar 12 2023 17:18:59 GMT-0400 (EDT)","560750","Match,No Match","","849","","","","","","<div class='trialBorder'><div class='targDiv'><div class='tc'><img class='introPic' src='trustrating_stim/white_mw040.bmp'><br><font color='green'><strong>Share</strong></font></div></div><div class='respDiv'><div class='respDivL'>Match<br>(e)</div><div class='respDivR'>No Match<br>(i)</div></div></div>","i","TARGET","2","trustrating_stim/white_mw040.bmp,trustrating_stim/white_mw092.bmp","0,1","noMatchOutcome","i","3000","trustrating_stim/white_mw040.bmp","green","Share","REAL","1"
"html-keyboard-response","124","267882","0.0-7.0-5.17","60fefd59226b2b1d87bc36db","bdp_wmem","Sun Mar 12 2023 17:18:59 GMT-0400 (EDT)","560750","Match,No Match","","null","","","","","","<div class='trialBorder'><div class='vertical-center'><img src='img/correct.jpg'></div><div class='respDiv'><div class='respDivL'>Match<br>(e)</div><div class='respDivR'><font style='color:orange'>No Match<br>(i)</font></div></div></div>","null","FEEDBACK","","","","","","","","","","",""
"html-keyboard-response","125","268383","0.0-7.0-1.18","60fefd59226b2b1d87bc36db","bdp_wmem","Sun Mar 12 2023 17:18:59 GMT-0400 (EDT)","560750","Match,No Match","","null","","","","","","<div class='trialBorder'><div class='vertical-center'><img src='img/fixation2_sml.jpg'</img></div></div>","null","FIX","","","","","","","","","","",""
"html-keyboard-response","126","271387","0.0-7.0-2.18","60fefd59226b2b1d87bc36db","bdp_wmem","Sun Mar 12 2023 17:18:59 GMT-0400 (EDT)","560750","Match,No Match","","null","","","","","","<div class='trialBorder'><div class='vertical-center'><img style='vertical-align:center; align:center' src='img/fixation2_sml.jpg'></div><div class='arrayDiv2'><div class='tl'><img class='introPic' src='trustrating_stim/white_mw040.bmp'><br><font color='red'><strong>Keep</strong></font></div><div class='tr'><img class='introPic' src='trustrating_stim/white_mw092.bmp'><br><font color='green'><strong>Share</strong></font></div></div></div>","null","ARRAY","2","trustrating_stim/white_mw040.bmp,trustrating_stim/white_mw092.bmp","0,1","noMatchFace","i","3000","","","","",""
"html-keyboard-response","127","275390","0.0-7.0-3.18","60fefd59226b2b1d87bc36db","bdp_wmem","Sun Mar 12 2023 17:18:59 GMT-0400 (EDT)","560750","Match,No Match","","null","","","","","","<div class='trialBorder'><div class='vertical-center'><img src='img/fixation2_sml.jpg'</img></div></div>","null","DELAY","","","","","","","","","","",""
"html-keyboard-response","128","276294","0.0-7.0-4.18","60fefd59226b2b1d87bc36db","bdp_wmem","Sun Mar 12 2023 17:18:59 GMT-0400 (EDT)","560750","Match,No Match","","904","","","","","","<div class='trialBorder'><div class='targDiv'><div class='tc'><img class='introPic' src='trustrating_stim/white_mw078.bmp'><br><font color='red'><strong>Keep</strong></font></div></div><div class='respDiv'><div class='respDivL'>Match<br>(e)</div><div class='respDivR'>No Match<br>(i)</div></div></div>","i","TARGET","2","trustrating_stim/white_mw040.bmp,trustrating_stim/white_mw092.bmp","0,1","noMatchFace","i","3000","trustrating_stim/white_mw078.bmp","red","Keep","REAL","1"
"html-keyboard-response","129","276796","0.0-7.0-5.18","60fefd59226b2b1d87bc36db","bdp_wmem","Sun Mar 12 2023 17:18:59 GMT-0400 (EDT)","560750","Match,No Match","","null","","","","","","<div class='trialBorder'><div class='vertical-center'><img src='img/correct.jpg'></div><div class='respDiv'><div class='respDivL'>Match<br>(e)</div><div class='respDivR'><font style='color:orange'>No Match<br>(i)</font></div></div></div>","null","FEEDBACK","","","","","","","","","","",""
"html-keyboard-response","130","277298","0.0-7.0-1.19","60fefd59226b2b1d87bc36db","bdp_wmem","Sun Mar 12 2023 17:18:59 GMT-0400 (EDT)","560750","Match,No Match","","null","","","","","","<div class='trialBorder'><div class='vertical-center'><img src='img/fixation2_sml.jpg'</img></div></div>","null","FIX","","","","","","","","","","",""
"html-keyboard-response","131","281801","0.0-7.0-2.19","60fefd59226b2b1d87bc36db","bdp_wmem","Sun Mar 12 2023 17:18:59 GMT-0400 (EDT)","560750","Match,No Match","","null","","","","","","<div class='trialBorder'><div class='vertical-center'><img style='vertical-align:center; align:center' src='img/fixation2_sml.jpg'></div><div class='arrayDiv3'><div class='tl'><img class='introPic' src='trustrating_stim/white_mw010.bmp'><br><font color='red'><strong>Keep</strong></font></div><div class='tc'><img class='introPic' src='trustrating_stim/white_mw040.bmp'><br><font color='green'><strong>Share</strong></font></div><div class='tr'><img class='introPic' src='trustrating_stim/white_mw003.bmp'><br><font color='green'><strong>Share</strong></font></div></div></div>","null","ARRAY","3","trustrating_stim/white_mw010.bmp,trustrating_stim/white_mw040.bmp,trustrating_stim/white_mw003.bmp","0,1,1","noMatchFace","i","4500","","","","",""
"html-keyboard-response","132","285803","0.0-7.0-3.19","60fefd59226b2b1d87bc36db","bdp_wmem","Sun Mar 12 2023 17:18:59 GMT-0400 (EDT)","560750","Match,No Match","","null","","","","","","<div class='trialBorder'><div class='vertical-center'><img src='img/fixation2_sml.jpg'</img></div></div>","null","DELAY","","","","","","","","","","",""
"html-keyboard-response","133","286739","0.0-7.0-4.19","60fefd59226b2b1d87bc36db","bdp_wmem","Sun Mar 12 2023 17:18:59 GMT-0400 (EDT)","560750","Match,No Match","","932","","","","","","<div class='trialBorder'><div class='targDiv'><div class='tc'><img class='introPic' src='trustrating_stim/white_mw085.bmp'><br><font color='red'><strong>Keep</strong></font></div></div><div class='respDiv'><div class='respDivL'>Match<br>(e)</div><div class='respDivR'>No Match<br>(i)</div></div></div>","i","TARGET","3","trustrating_stim/white_mw010.bmp,trustrating_stim/white_mw040.bmp,trustrating_stim/white_mw003.bmp","0,1,1","noMatchFace","i","4500","trustrating_stim/white_mw085.bmp","red","Keep","REAL","1"
"html-keyboard-response","134","287240","0.0-7.0-5.19","60fefd59226b2b1d87bc36db","bdp_wmem","Sun Mar 12 2023 17:18:59 GMT-0400 (EDT)","560750","Match,No Match","","null","","","","","","<div class='trialBorder'><div class='vertical-center'><img src='img/correct.jpg'></div><div class='respDiv'><div class='respDivL'>Match<br>(e)</div><div class='respDivR'><font style='color:orange'>No Match<br>(i)</font></div></div></div>","null","FEEDBACK","","","","","","","","","","",""
"html-keyboard-response","135","287741","0.0-7.0-1.20","60fefd59226b2b1d87bc36db","bdp_wmem","Sun Mar 12 2023 17:18:59 GMT-0400 (EDT)","560750","Match,No Match","","null","","","","","","<div class='trialBorder'><div class='vertical-center'><img src='img/fixation2_sml.jpg'</img></div></div>","null","FIX","","","","","","","","","","",""
"html-keyboard-response","136","289242","0.0-7.0-2.20","60fefd59226b2b1d87bc36db","bdp_wmem","Sun Mar 12 2023 17:18:59 GMT-0400 (EDT)","560750","Match,No Match","","null","","","","","","<div class='trialBorder'><div class='vertical-center'><img style='vertical-align:center; align:center' src='img/fixation2_sml.jpg'></div><div class='arrayDiv1'><div class='tc'><img class='introPic' src='trustrating_stim/white_mw013.bmp'><br><font color='green'><strong>Share</strong></font></div></div></div>","null","ARRAY","1","trustrating_stim/white_mw013.bmp","1","noMatchFace","i","1500","","","","",""
"html-keyboard-response","137","293244","0.0-7.0-3.20","60fefd59226b2b1d87bc36db","bdp_wmem","Sun Mar 12 2023 17:18:59 GMT-0400 (EDT)","560750","Match,No Match","","null","","","","","","<div class='trialBorder'><div class='vertical-center'><img src='img/fixation2_sml.jpg'</img></div></div>","null","DELAY","","","","","","","","","","",""
"html-keyboard-response","138","294022","0.0-7.0-4.20","60fefd59226b2b1d87bc36db","bdp_wmem","Sun Mar 12 2023 17:18:59 GMT-0400 (EDT)","560750","Match,No Match","","777","","","","","","<div class='trialBorder'><div class='targDiv'><div class='tc'><img class='introPic' src='trustrating_stim/white_mw040.bmp'><br><font color='green'><strong>Share</strong></font></div></div><div class='respDiv'><div class='respDivL'>Match<br>(e)</div><div class='respDivR'>No Match<br>(i)</div></div></div>","i","TARGET","1","trustrating_stim/white_mw013.bmp","1","noMatchFace","i","1500","trustrating_stim/white_mw040.bmp","green","Share","REAL","1"
"html-keyboard-response","139","294524","0.0-7.0-5.20","60fefd59226b2b1d87bc36db","bdp_wmem","Sun Mar 12 2023 17:18:59 GMT-0400 (EDT)","560750","Match,No Match","","null","","","","","","<div class='trialBorder'><div class='vertical-center'><img src='img/correct.jpg'></div><div class='respDiv'><div class='respDivL'>Match<br>(e)</div><div class='respDivR'><font style='color:orange'>No Match<br>(i)</font></div></div></div>","null","FEEDBACK","","","","","","","","","","",""
"html-keyboard-response","140","295026","0.0-7.0-1.21","60fefd59226b2b1d87bc36db","bdp_wmem","Sun Mar 12 2023 17:18:59 GMT-0400 (EDT)","560750","Match,No Match","","null","","","","","","<div class='trialBorder'><div class='vertical-center'><img src='img/fixation2_sml.jpg'</img></div></div>","null","FIX","","","","","","","","","","",""
"html-keyboard-response","141","299528","0.0-7.0-2.21","60fefd59226b2b1d87bc36db","bdp_wmem","Sun Mar 12 2023 17:18:59 GMT-0400 (EDT)","560750","Match,No Match","","null","","","","","","<div class='trialBorder'><div class='vertical-center'><img style='vertical-align:center; align:center' src='img/fixation2_sml.jpg'></div><div class='arrayDiv3'><div class='tl'><img class='introPic' src='trustrating_stim/white_mw042.bmp'><br><font color='green'><strong>Share</strong></font></div><div class='tc'><img class='introPic' src='trustrating_stim/white_mw013.bmp'><br><font color='red'><strong>Keep</strong></font></div><div class='tr'><img class='introPic' src='trustrating_stim/white_mw012.bmp'><br><font color='red'><strong>Keep</strong></font></div></div></div>","null","ARRAY","3","trustrating_stim/white_mw042.bmp,trustrating_stim/white_mw013.bmp,trustrating_stim/white_mw012.bmp","1,0,0","Match","e","4500","","","","",""
"html-keyboard-response","142","303530","0.0-7.0-3.21","60fefd59226b2b1d87bc36db","bdp_wmem","Sun Mar 12 2023 17:18:59 GMT-0400 (EDT)","560750","Match,No Match","","null","","","","","","<div class='trialBorder'><div class='vertical-center'><img src='img/fixation2_sml.jpg'</img></div></div>","null","DELAY","","","","","","","","","","",""
"html-keyboard-response","143","304637","0.0-7.0-4.21","60fefd59226b2b1d87bc36db","bdp_wmem","Sun Mar 12 2023 17:18:59 GMT-0400 (EDT)","560750","Match,No Match","","1105","","","","","","<div class='trialBorder'><div class='targDiv'><div class='tc'><img class='introPic' src='trustrating_stim/white_mw042.bmp'><br><font color='green'><strong>Share</strong></font></div></div><div class='respDiv'><div class='respDivL'>Match<br>(e)</div><div class='respDivR'>No Match<br>(i)</div></div></div>","e","TARGET","3","trustrating_stim/white_mw042.bmp,trustrating_stim/white_mw013.bmp,trustrating_stim/white_mw012.bmp","1,0,0","Match","e","4500","trustrating_stim/white_mw042.bmp","green","Share","REAL","1"
"html-keyboard-response","144","305139","0.0-7.0-5.21","60fefd59226b2b1d87bc36db","bdp_wmem","Sun Mar 12 2023 17:18:59 GMT-0400 (EDT)","560750","Match,No Match","","null","","","","","","<div class='trialBorder'><div class='vertical-center'><img src='img/correct.jpg'></div><div class='respDiv'><div class='respDivL'><font style='color:orange'>Match<br>(e)</font></div><div class='respDivR'>No Match<br>(i)</div></div></div>","null","FEEDBACK","","","","","","","","","","",""
"html-keyboard-response","145","305641","0.0-7.0-1.22","60fefd59226b2b1d87bc36db","bdp_wmem","Sun Mar 12 2023 17:18:59 GMT-0400 (EDT)","560750","Match,No Match","","null","","","","","","<div class='trialBorder'><div class='vertical-center'><img src='img/fixation2_sml.jpg'</img></div></div>","null","FIX","","","","","","","","","","",""
"html-keyboard-response","146","307142","0.0-7.0-2.22","60fefd59226b2b1d87bc36db","bdp_wmem","Sun Mar 12 2023 17:18:59 GMT-0400 (EDT)","560750","Match,No Match","","null","","","","","","<div class='trialBorder'><div class='vertical-center'><img style='vertical-align:center; align:center' src='img/fixation2_sml.jpg'></div><div class='arrayDiv1'><div class='tc'><img class='introPic' src='trustrating_stim/white_mw012.bmp'><br><font color='red'><strong>Keep</strong></font></div></div></div>","null","ARRAY","1","trustrating_stim/white_mw012.bmp","0","noMatchOutcome","i","1500","","","","",""
"html-keyboard-response","147","311143","0.0-7.0-3.22","60fefd59226b2b1d87bc36db","bdp_wmem","Sun Mar 12 2023 17:18:59 GMT-0400 (EDT)","560750","Match,No Match","","null","","","","","","<div class='trialBorder'><div class='vertical-center'><img src='img/fixation2_sml.jpg'</img></div></div>","null","DELAY","","","","","","","","","","",""
"html-keyboard-response","148","311912","0.0-7.0-4.22","60fefd59226b2b1d87bc36db","bdp_wmem","Sun Mar 12 2023 17:18:59 GMT-0400 (EDT)","560750","Match,No Match","","768","","","","","","<div class='trialBorder'><div class='targDiv'><div class='tc'><img class='introPic' src='trustrating_stim/white_mw012.bmp'><br><font color='green'><strong>Share</strong></font></div></div><div class='respDiv'><div class='respDivL'>Match<br>(e)</div><div class='respDivR'>No Match<br>(i)</div></div></div>","e","TARGET","1","trustrating_stim/white_mw012.bmp","0","noMatchOutcome","i","1500","trustrating_stim/white_mw012.bmp","green","Share","REAL","0"
"html-keyboard-response","149","312414","0.0-7.0-5.22","60fefd59226b2b1d87bc36db","bdp_wmem","Sun Mar 12 2023 17:18:59 GMT-0400 (EDT)","560750","Match,No Match","","null","","","","","","<div class='trialBorder'><div class='vertical-center'><img src='img/error.jpg'></div><div class='respDiv'><div class='respDivL'><font style='color:orange'>Match<br>(e)</font></div><div class='respDivR'>No Match<br>(i)</div></div></div>","null","FEEDBACK","","","","","","","","","","",""
"html-keyboard-response","150","312915","0.0-7.0-1.23","60fefd59226b2b1d87bc36db","bdp_wmem","Sun Mar 12 2023 17:18:59 GMT-0400 (EDT)","560750","Match,No Match","","null","","","","","","<div class='trialBorder'><div class='vertical-center'><img src='img/fixation2_sml.jpg'</img></div></div>","null","FIX","","","","","","","","","","",""
"html-keyboard-response","151","314416","0.0-7.0-2.23","60fefd59226b2b1d87bc36db","bdp_wmem","Sun Mar 12 2023 17:18:59 GMT-0400 (EDT)","560750","Match,No Match","","null","","","","","","<div class='trialBorder'><div class='vertical-center'><img style='vertical-align:center; align:center' src='img/fixation2_sml.jpg'></div><div class='arrayDiv1'><div class='tc'><img class='introPic' src='trustrating_stim/white_mw085.bmp'><br><font color='red'><strong>Keep</strong></font></div></div></div>","null","ARRAY","1","trustrating_stim/white_mw085.bmp","0","noMatchOutcome","i","1500","","","","",""
"html-keyboard-response","152","318417","0.0-7.0-3.23","60fefd59226b2b1d87bc36db","bdp_wmem","Sun Mar 12 2023 17:18:59 GMT-0400 (EDT)","560750","Match,No Match","","null","","","","","","<div class='trialBorder'><div class='vertical-center'><img src='img/fixation2_sml.jpg'</img></div></div>","null","DELAY","","","","","","","","","","",""
"html-keyboard-response","153","319487","0.0-7.0-4.23","60fefd59226b2b1d87bc36db","bdp_wmem","Sun Mar 12 2023 17:18:59 GMT-0400 (EDT)","560750","Match,No Match","","1069","","","","","","<div class='trialBorder'><div class='targDiv'><div class='tc'><img class='introPic' src='trustrating_stim/white_mw085.bmp'><br><font color='green'><strong>Share</strong></font></div></div><div class='respDiv'><div class='respDivL'>Match<br>(e)</div><div class='respDivR'>No Match<br>(i)</div></div></div>","e","TARGET","1","trustrating_stim/white_mw085.bmp","0","noMatchOutcome","i","1500","trustrating_stim/white_mw085.bmp","green","Share","REAL","0"
"html-keyboard-response","154","319989","0.0-7.0-5.23","60fefd59226b2b1d87bc36db","bdp_wmem","Sun Mar 12 2023 17:18:59 GMT-0400 (EDT)","560750","Match,No Match","","null","","","","","","<div class='trialBorder'><div class='vertical-center'><img src='img/error.jpg'></div><div class='respDiv'><div class='respDivL'><font style='color:orange'>Match<br>(e)</font></div><div class='respDivR'>No Match<br>(i)</div></div></div>","null","FEEDBACK","","","","","","","","","","",""
"html-keyboard-response","155","320490","0.0-7.0-1.24","60fefd59226b2b1d87bc36db","bdp_wmem","Sun Mar 12 2023 17:18:59 GMT-0400 (EDT)","560750","Match,No Match","","null","","","","","","<div class='trialBorder'><div class='vertical-center'><img src='img/fixation2_sml.jpg'</img></div></div>","null","FIX","","","","","","","","","","",""
"html-keyboard-response","156","324991","0.0-7.0-2.24","60fefd59226b2b1d87bc36db","bdp_wmem","Sun Mar 12 2023 17:18:59 GMT-0400 (EDT)","560750","Match,No Match","","null","","","","","","<div class='trialBorder'><div class='vertical-center'><img style='vertical-align:center; align:center' src='img/fixation2_sml.jpg'></div><div class='arrayDiv3'><div class='tl'><img class='introPic' src='trustrating_stim/white_mw010.bmp'><br><font color='green'><strong>Share</strong></font></div><div class='tc'><img class='introPic' src='trustrating_stim/white_mw012.bmp'><br><font color='green'><strong>Share</strong></font></div><div class='tr'><img class='introPic' src='trustrating_stim/white_mw085.bmp'><br><font color='red'><strong>Keep</strong></font></div></div></div>","null","ARRAY","3","trustrating_stim/white_mw010.bmp,trustrating_stim/white_mw012.bmp,trustrating_stim/white_mw085.bmp","1,1,0","noMatchFace","i","4500","","","","",""
"html-keyboard-response","157","328993","0.0-7.0-3.24","60fefd59226b2b1d87bc36db","bdp_wmem","Sun Mar 12 2023 17:18:59 GMT-0400 (EDT)","560750","Match,No Match","","null","","","","","","<div class='trialBorder'><div class='vertical-center'><img src='img/fixation2_sml.jpg'</img></div></div>","null","DELAY","","","","","","","","","","",""
"html-keyboard-response","158","329774","0.0-7.0-4.24","60fefd59226b2b1d87bc36db","bdp_wmem","Sun Mar 12 2023 17:18:59 GMT-0400 (EDT)","560750","Match,No Match","","780","","","","","","<div class='trialBorder'><div class='targDiv'><div class='tc'><img class='introPic' src='trustrating_stim/white_mw091.bmp'><br><font color='green'><strong>Share</strong></font></div></div><div class='respDiv'><div class='respDivL'>Match<br>(e)</div><div class='respDivR'>No Match<br>(i)</div></div></div>","i","TARGET","3","trustrating_stim/white_mw010.bmp,trustrating_stim/white_mw012.bmp,trustrating_stim/white_mw085.bmp","1,1,0","noMatchFace","i","4500","trustrating_stim/white_mw091.bmp","green","Share","REAL","1"
"html-keyboard-response","159","330277","0.0-7.0-5.24","60fefd59226b2b1d87bc36db","bdp_wmem","Sun Mar 12 2023 17:18:59 GMT-0400 (EDT)","560750","Match,No Match","","null","","","","","","<div class='trialBorder'><div class='vertical-center'><img src='img/correct.jpg'></div><div class='respDiv'><div class='respDivL'>Match<br>(e)</div><div class='respDivR'><font style='color:orange'>No Match<br>(i)</font></div></div></div>","null","FEEDBACK","","","","","","","","","","",""
"html-keyboard-response","160","330779","0.0-7.0-1.25","60fefd59226b2b1d87bc36db","bdp_wmem","Sun Mar 12 2023 17:18:59 GMT-0400 (EDT)","560750","Match,No Match","","null","","","","","","<div class='trialBorder'><div class='vertical-center'><img src='img/fixation2_sml.jpg'</img></div></div>","null","FIX","","","","","","","","","","",""
"html-keyboard-response","161","335280","0.0-7.0-2.25","60fefd59226b2b1d87bc36db","bdp_wmem","Sun Mar 12 2023 17:18:59 GMT-0400 (EDT)","560750","Match,No Match","","null","","","","","","<div class='trialBorder'><div class='vertical-center'><img style='vertical-align:center; align:center' src='img/fixation2_sml.jpg'></div><div class='arrayDiv3'><div class='tl'><img class='introPic' src='trustrating_stim/white_mw085.bmp'><br><font color='green'><strong>Share</strong></font></div><div class='tc'><img class='introPic' src='trustrating_stim/white_mw003.bmp'><br><font color='red'><strong>Keep</strong></font></div><div class='tr'><img class='introPic' src='trustrating_stim/white_mw078.bmp'><br><font color='red'><strong>Keep</strong></font></div></div></div>","null","ARRAY","3","trustrating_stim/white_mw085.bmp,trustrating_stim/white_mw003.bmp,trustrating_stim/white_mw078.bmp","1,0,0","noMatchOutcome","i","4500","","","","",""
"html-keyboard-response","162","339283","0.0-7.0-3.25","60fefd59226b2b1d87bc36db","bdp_wmem","Sun Mar 12 2023 17:18:59 GMT-0400 (EDT)","560750","Match,No Match","","null","","","","","","<div class='trialBorder'><div class='vertical-center'><img src='img/fixation2_sml.jpg'</img></div></div>","null","DELAY","","","","","","","","","","",""
"html-keyboard-response","163","340243","0.0-7.0-4.25","60fefd59226b2b1d87bc36db","bdp_wmem","Sun Mar 12 2023 17:18:59 GMT-0400 (EDT)","560750","Match,No Match","","959","","","","","","<div class='trialBorder'><div class='targDiv'><div class='tc'><img class='introPic' src='trustrating_stim/white_mw003.bmp'><br><font color='green'><strong>Share</strong></font></div></div><div class='respDiv'><div class='respDivL'>Match<br>(e)</div><div class='respDivR'>No Match<br>(i)</div></div></div>","i","TARGET","3","trustrating_stim/white_mw085.bmp,trustrating_stim/white_mw003.bmp,trustrating_stim/white_mw078.bmp","1,0,0","noMatchOutcome","i","4500","trustrating_stim/white_mw003.bmp","green","Share","REAL","1"
"html-keyboard-response","164","340745","0.0-7.0-5.25","60fefd59226b2b1d87bc36db","bdp_wmem","Sun Mar 12 2023 17:18:59 GMT-0400 (EDT)","560750","Match,No Match","","null","","","","","","<div class='trialBorder'><div class='vertical-center'><img src='img/correct.jpg'></div><div class='respDiv'><div class='respDivL'>Match<br>(e)</div><div class='respDivR'><font style='color:orange'>No Match<br>(i)</font></div></div></div>","null","FEEDBACK","","","","","","","","","","",""
"html-keyboard-response","165","341247","0.0-7.0-1.26","60fefd59226b2b1d87bc36db","bdp_wmem","Sun Mar 12 2023 17:18:59 GMT-0400 (EDT)","560750","Match,No Match","","null","","","","","","<div class='trialBorder'><div class='vertical-center'><img src='img/fixation2_sml.jpg'</img></div></div>","null","FIX","","","","","","","","","","",""
"html-keyboard-response","166","344250","0.0-7.0-2.26","60fefd59226b2b1d87bc36db","bdp_wmem","Sun Mar 12 2023 17:18:59 GMT-0400 (EDT)","560750","Match,No Match","","null","","","","","","<div class='trialBorder'><div class='vertical-center'><img style='vertical-align:center; align:center' src='img/fixation2_sml.jpg'></div><div class='arrayDiv2'><div class='tl'><img class='introPic' src='trustrating_stim/white_mw012.bmp'><br><font color='red'><strong>Keep</strong></font></div><div class='tr'><img class='introPic' src='trustrating_stim/white_mw085.bmp'><br><font color='green'><strong>Share</strong></font></div></div></div>","null","ARRAY","2","trustrating_stim/white_mw012.bmp,trustrating_stim/white_mw085.bmp","0,1","noMatchOutcome","i","3000","","","","",""
"html-keyboard-response","167","348252","0.0-7.0-3.26","60fefd59226b2b1d87bc36db","bdp_wmem","Sun Mar 12 2023 17:18:59 GMT-0400 (EDT)","560750","Match,No Match","","null","","","","","","<div class='trialBorder'><div class='vertical-center'><img src='img/fixation2_sml.jpg'</img></div></div>","null","DELAY","","","","","","","","","","",""
"html-keyboard-response","168","349661","0.0-7.0-4.26","60fefd59226b2b1d87bc36db","bdp_wmem","Sun Mar 12 2023 17:18:59 GMT-0400 (EDT)","560750","Match,No Match","","1407","","","","","","<div class='trialBorder'><div class='targDiv'><div class='tc'><img class='introPic' src='trustrating_stim/white_mw012.bmp'><br><font color='green'><strong>Share</strong></font></div></div><div class='respDiv'><div class='respDivL'>Match<br>(e)</div><div class='respDivR'>No Match<br>(i)</div></div></div>","e","TARGET","2","trustrating_stim/white_mw012.bmp,trustrating_stim/white_mw085.bmp","0,1","noMatchOutcome","i","3000","trustrating_stim/white_mw012.bmp","green","Share","REAL","0"
"html-keyboard-response","169","350163","0.0-7.0-5.26","60fefd59226b2b1d87bc36db","bdp_wmem","Sun Mar 12 2023 17:18:59 GMT-0400 (EDT)","560750","Match,No Match","","null","","","","","","<div class='trialBorder'><div class='vertical-center'><img src='img/error.jpg'></div><div class='respDiv'><div class='respDivL'><font style='color:orange'>Match<br>(e)</font></div><div class='respDivR'>No Match<br>(i)</div></div></div>","null","FEEDBACK","","","","","","","","","","",""
"html-keyboard-response","170","350665","0.0-7.0-1.27","60fefd59226b2b1d87bc36db","bdp_wmem","Sun Mar 12 2023 17:18:59 GMT-0400 (EDT)","560750","Match,No Match","","null","","","","","","<div class='trialBorder'><div class='vertical-center'><img src='img/fixation2_sml.jpg'</img></div></div>","null","FIX","","","","","","","","","","",""
"html-keyboard-response","171","355167","0.0-7.0-2.27","60fefd59226b2b1d87bc36db","bdp_wmem","Sun Mar 12 2023 17:18:59 GMT-0400 (EDT)","560750","Match,No Match","","null","","","","","","<div class='trialBorder'><div class='vertical-center'><img style='vertical-align:center; align:center' src='img/fixation2_sml.jpg'></div><div class='arrayDiv3'><div class='tl'><img class='introPic' src='trustrating_stim/white_mw070.bmp'><br><font color='green'><strong>Share</strong></font></div><div class='tc'><img class='introPic' src='trustrating_stim/white_mw010.bmp'><br><font color='red'><strong>Keep</strong></font></div><div class='tr'><img class='introPic' src='trustrating_stim/white_mw091.bmp'><br><font color='red'><strong>Keep</strong></font></div></div></div>","null","ARRAY","3","trustrating_stim/white_mw070.bmp,trustrating_stim/white_mw010.bmp,trustrating_stim/white_mw091.bmp","1,0,0","noMatchFace","i","4500","","","","",""
"html-keyboard-response","172","359170","0.0-7.0-3.27","60fefd59226b2b1d87bc36db","bdp_wmem","Sun Mar 12 2023 17:18:59 GMT-0400 (EDT)","560750","Match,No Match","","null","","","","","","<div class='trialBorder'><div class='vertical-center'><img src='img/fixation2_sml.jpg'</img></div></div>","null","DELAY","","","","","","","","","","",""
"html-keyboard-response","173","359870","0.0-7.0-4.27","60fefd59226b2b1d87bc36db","bdp_wmem","Sun Mar 12 2023 17:18:59 GMT-0400 (EDT)","560750","Match,No Match","","699","","","","","","<div class='trialBorder'><div class='targDiv'><div class='tc'><img class='introPic' src='trustrating_stim/white_mw040.bmp'><br><font color='green'><strong>Share</strong></font></div></div><div class='respDiv'><div class='respDivL'>Match<br>(e)</div><div class='respDivR'>No Match<br>(i)</div></div></div>","i","TARGET","3","trustrating_stim/white_mw070.bmp,trustrating_stim/white_mw010.bmp,trustrating_stim/white_mw091.bmp","1,0,0","noMatchFace","i","4500","trustrating_stim/white_mw040.bmp","green","Share","REAL","1"
"html-keyboard-response","174","360372","0.0-7.0-5.27","60fefd59226b2b1d87bc36db","bdp_wmem","Sun Mar 12 2023 17:18:59 GMT-0400 (EDT)","560750","Match,No Match","","null","","","","","","<div class='trialBorder'><div class='vertical-center'><img src='img/correct.jpg'></div><div class='respDiv'><div class='respDivL'>Match<br>(e)</div><div class='respDivR'><font style='color:orange'>No Match<br>(i)</font></div></div></div>","null","FEEDBACK","","","","","","","","","","",""
"html-keyboard-response","175","360875","0.0-7.0-1.28","60fefd59226b2b1d87bc36db","bdp_wmem","Sun Mar 12 2023 17:18:59 GMT-0400 (EDT)","560750","Match,No Match","","null","","","","","","<div class='trialBorder'><div class='vertical-center'><img src='img/fixation2_sml.jpg'</img></div></div>","null","FIX","","","","","","","","","","",""
"html-keyboard-response","176","363877","0.0-7.0-2.28","60fefd59226b2b1d87bc36db","bdp_wmem","Sun Mar 12 2023 17:18:59 GMT-0400 (EDT)","560750","Match,No Match","","null","","","","","","<div class='trialBorder'><div class='vertical-center'><img style='vertical-align:center; align:center' src='img/fixation2_sml.jpg'></div><div class='arrayDiv2'><div class='tl'><img class='introPic' src='trustrating_stim/white_mw092.bmp'><br><font color='green'><strong>Share</strong></font></div><div class='tr'><img class='introPic' src='trustrating_stim/white_mw078.bmp'><br><font color='red'><strong>Keep</strong></font></div></div></div>","null","ARRAY","2","trustrating_stim/white_mw092.bmp,trustrating_stim/white_mw078.bmp","1,0","noMatchOutcome","i","3000","","","","",""
"html-keyboard-response","177","367879","0.0-7.0-3.28","60fefd59226b2b1d87bc36db","bdp_wmem","Sun Mar 12 2023 17:18:59 GMT-0400 (EDT)","560750","Match,No Match","","null","","","","","","<div class='trialBorder'><div class='vertical-center'><img src='img/fixation2_sml.jpg'</img></div></div>","null","DELAY","","","","","","","","","","",""
"html-keyboard-response","178","368673","0.0-7.0-4.28","60fefd59226b2b1d87bc36db","bdp_wmem","Sun Mar 12 2023 17:18:59 GMT-0400 (EDT)","560750","Match,No Match","","793","","","","","","<div class='trialBorder'><div class='targDiv'><div class='tc'><img class='introPic' src='trustrating_stim/white_mw078.bmp'><br><font color='green'><strong>Share</strong></font></div></div><div class='respDiv'><div class='respDivL'>Match<br>(e)</div><div class='respDivR'>No Match<br>(i)</div></div></div>","i","TARGET","2","trustrating_stim/white_mw092.bmp,trustrating_stim/white_mw078.bmp","1,0","noMatchOutcome","i","3000","trustrating_stim/white_mw078.bmp","green","Share","REAL","1"
"html-keyboard-response","179","369176","0.0-7.0-5.28","60fefd59226b2b1d87bc36db","bdp_wmem","Sun Mar 12 2023 17:18:59 GMT-0400 (EDT)","560750","Match,No Match","","null","","","","","","<div class='trialBorder'><div class='vertical-center'><img src='img/correct.jpg'></div><div class='respDiv'><div class='respDivL'>Match<br>(e)</div><div class='respDivR'><font style='color:orange'>No Match<br>(i)</font></div></div></div>","null","FEEDBACK","","","","","","","","","","",""
"html-keyboard-response","180","369678","0.0-7.0-1.29","60fefd59226b2b1d87bc36db","bdp_wmem","Sun Mar 12 2023 17:18:59 GMT-0400 (EDT)","560750","Match,No Match","","null","","","","","","<div class='trialBorder'><div class='vertical-center'><img src='img/fixation2_sml.jpg'</img></div></div>","null","FIX","","","","","","","","","","",""
"html-keyboard-response","181","371180","0.0-7.0-2.29","60fefd59226b2b1d87bc36db","bdp_wmem","Sun Mar 12 2023 17:18:59 GMT-0400 (EDT)","560750","Match,No Match","","null","","","","","","<div class='trialBorder'><div class='vertical-center'><img style='vertical-align:center; align:center' src='img/fixation2_sml.jpg'></div><div class='arrayDiv1'><div class='tc'><img class='introPic' src='trustrating_stim/white_mw010.bmp'><br><font color='red'><strong>Keep</strong></font></div></div></div>","null","ARRAY","1","trustrating_stim/white_mw010.bmp","0","noMatchFace","i","1500","","","","",""
"html-keyboard-response","182","375182","0.0-7.0-3.29","60fefd59226b2b1d87bc36db","bdp_wmem","Sun Mar 12 2023 17:18:59 GMT-0400 (EDT)","560750","Match,No Match","","null","","","","","","<div class='trialBorder'><div class='vertical-center'><img src='img/fixation2_sml.jpg'</img></div></div>","null","DELAY","","","","","","","","","","",""
"html-keyboard-response","183","380081","0.0-7.0-4.29","60fefd59226b2b1d87bc36db","bdp_wmem","Sun Mar 12 2023 17:18:59 GMT-0400 (EDT)","560750","Match,No Match","","4898","","","","","","<div class='trialBorder'><div class='targDiv'><div class='tc'><img class='introPic' src='trustrating_stim/white_mw042.bmp'><br><font color='red'><strong>Keep</strong></font></div></div><div class='respDiv'><div class='respDivL'>Match<br>(e)</div><div class='respDivR'>No Match<br>(i)</div></div></div>","i","TARGET","1","trustrating_stim/white_mw010.bmp","0","noMatchFace","i","1500","trustrating_stim/white_mw042.bmp","red","Keep","REAL","1"
"html-keyboard-response","184","380584","0.0-7.0-5.29","60fefd59226b2b1d87bc36db","bdp_wmem","Sun Mar 12 2023 17:18:59 GMT-0400 (EDT)","560750","Match,No Match","","null","","","","","","<div class='trialBorder'><div class='vertical-center'><img src='img/correct.jpg'></div><div class='respDiv'><div class='respDivL'>Match<br>(e)</div><div class='respDivR'><font style='color:orange'>No Match<br>(i)</font></div></div></div>","null","FEEDBACK","","","","","","","","","","",""
"html-keyboard-response","185","381085","0.0-7.0-1.30","60fefd59226b2b1d87bc36db","bdp_wmem","Sun Mar 12 2023 17:18:59 GMT-0400 (EDT)","560750","Match,No Match","","null","","","","","","<div class='trialBorder'><div class='vertical-center'><img src='img/fixation2_sml.jpg'</img></div></div>","null","FIX","","","","","","","","","","",""
"html-keyboard-response","186","382587","0.0-7.0-2.30","60fefd59226b2b1d87bc36db","bdp_wmem","Sun Mar 12 2023 17:18:59 GMT-0400 (EDT)","560750","Match,No Match","","null","","","","","","<div class='trialBorder'><div class='vertical-center'><img style='vertical-align:center; align:center' src='img/fixation2_sml.jpg'></div><div class='arrayDiv1'><div class='tc'><img class='introPic' src='trustrating_stim/white_mw012.bmp'><br><font color='red'><strong>Keep</strong></font></div></div></div>","null","ARRAY","1","trustrating_stim/white_mw012.bmp","0","Match","e","1500","","","","",""
"html-keyboard-response","187","386589","0.0-7.0-3.30","60fefd59226b2b1d87bc36db","bdp_wmem","Sun Mar 12 2023 17:18:59 GMT-0400 (EDT)","560750","Match,No Match","","null","","","","","","<div class='trialBorder'><div class='vertical-center'><img src='img/fixation2_sml.jpg'</img></div></div>","null","DELAY","","","","","","","","","","",""
"html-keyboard-response","188","387433","0.0-7.0-4.30","60fefd59226b2b1d87bc36db","bdp_wmem","Sun Mar 12 2023 17:18:59 GMT-0400 (EDT)","560750","Match,No Match","","843","","","","","","<div class='trialBorder'><div class='targDiv'><div class='tc'><img class='introPic' src='trustrating_stim/white_mw012.bmp'><br><font color='red'><strong>Keep</strong></font></div></div><div class='respDiv'><div class='respDivL'>Match<br>(e)</div><div class='respDivR'>No Match<br>(i)</div></div></div>","i","TARGET","1","trustrating_stim/white_mw012.bmp","0","Match","e","1500","trustrating_stim/white_mw012.bmp","red","Keep","REAL","0"
"html-keyboard-response","189","387936","0.0-7.0-5.30","60fefd59226b2b1d87bc36db","bdp_wmem","Sun Mar 12 2023 17:18:59 GMT-0400 (EDT)","560750","Match,No Match","","null","","","","","","<div class='trialBorder'><div class='vertical-center'><img src='img/error.jpg'></div><div class='respDiv'><div class='respDivL'>Match<br>(e)</div><div class='respDivR'><font style='color:orange'>No Match<br>(i)</font></div></div></div>","null","FEEDBACK","","","","","","","","","","",""
"html-keyboard-response","190","388438","0.0-7.0-1.31","60fefd59226b2b1d87bc36db","bdp_wmem","Sun Mar 12 2023 17:18:59 GMT-0400 (EDT)","560750","Match,No Match","","null","","","","","","<div class='trialBorder'><div class='vertical-center'><img src='img/fixation2_sml.jpg'</img></div></div>","null","FIX","","","","","","","","","","",""
"html-keyboard-response","191","391440","0.0-7.0-2.31","60fefd59226b2b1d87bc36db","bdp_wmem","Sun Mar 12 2023 17:18:59 GMT-0400 (EDT)","560750","Match,No Match","","null","","","","","","<div class='trialBorder'><div class='vertical-center'><img style='vertical-align:center; align:center' src='img/fixation2_sml.jpg'></div><div class='arrayDiv2'><div class='tl'><img class='introPic' src='trustrating_stim/white_mw042.bmp'><br><font color='green'><strong>Share</strong></font></div><div class='tr'><img class='introPic' src='trustrating_stim/white_mw040.bmp'><br><font color='red'><strong>Keep</strong></font></div></div></div>","null","ARRAY","2","trustrating_stim/white_mw042.bmp,trustrating_stim/white_mw040.bmp","1,0","Match","e","3000","","","","",""
"html-keyboard-response","192","395442","0.0-7.0-3.31","60fefd59226b2b1d87bc36db","bdp_wmem","Sun Mar 12 2023 17:18:59 GMT-0400 (EDT)","560750","Match,No Match","","null","","","","","","<div class='trialBorder'><div class='vertical-center'><img src='img/fixation2_sml.jpg'</img></div></div>","null","DELAY","","","","","","","","","","",""
"html-keyboard-response","193","398193","0.0-7.0-4.31","60fefd59226b2b1d87bc36db","bdp_wmem","Sun Mar 12 2023 17:18:59 GMT-0400 (EDT)","560750","Match,No Match","","2750","","","","","","<div class='trialBorder'><div class='targDiv'><div class='tc'><img class='introPic' src='trustrating_stim/white_mw042.bmp'><br><font color='green'><strong>Share</strong></font></div></div><div class='respDiv'><div class='respDivL'>Match<br>(e)</div><div class='respDivR'>No Match<br>(i)</div></div></div>","i","TARGET","2","trustrating_stim/white_mw042.bmp,trustrating_stim/white_mw040.bmp","1,0","Match","e","3000","trustrating_stim/white_mw042.bmp","green","Share","REAL","0"
"html-keyboard-response","194","398695","0.0-7.0-5.31","60fefd59226b2b1d87bc36db","bdp_wmem","Sun Mar 12 2023 17:18:59 GMT-0400 (EDT)","560750","Match,No Match","","null","","","","","","<div class='trialBorder'><div class='vertical-center'><img src='img/error.jpg'></div><div class='respDiv'><div class='respDivL'>Match<br>(e)</div><div class='respDivR'><font style='color:orange'>No Match<br>(i)</font></div></div></div>","null","FEEDBACK","","","","","","","","","","",""
