"trial_type","trial_index","time_elapsed","internal_node_id","subject_id","task","startTime","totalTime","labels","view_history","rt","event","trial","time","trialtype","success","stimulus","key_press","stimType","arraySize","arrayFaces","arrayOutcomes","matchType","corrResp","arrayDur","targFace","targCol","targOutcome","trialType","corr"
"pavlovia","0","4","0.0-0.0","60fdbd3afcd943b7119d6f4a","bdp_wmem","Wed Mar 15 2023 14:02:12 GMT-0500 (Central Daylight Time)","662136","Match,No Match","","","","","","","","","","","","","","","","","","","","",""
"instructions","1","3204","0.0-1.0","60fdbd3afcd943b7119d6f4a","bdp_wmem","Wed Mar 15 2023 14:02:12 GMT-0500 (Central Daylight Time)","662136","Match,No Match","[{""page_index"":0,""viewing_time"":3199}]","3200","","","","","","","","","","","","","","","","","","",""
"","","","","60fdbd3afcd943b7119d6f4a","bdp_wmem","Wed Mar 15 2023 14:02:12 GMT-0500 (Central Daylight Time)","662136","Match,No Match","","","fullscreenenter","2","9663","fullscreenenter","","","","","","","","","","","","","","",""
"fullscreen","2","10651","0.0-2.0","60fdbd3afcd943b7119d6f4a","bdp_wmem","Wed Mar 15 2023 14:02:12 GMT-0500 (Central Daylight Time)","662136","Match,No Match","","","","","","","true","","","","","","","","","","","","","",""
"instructions","3","136338","0.0-4.0","60fdbd3afcd943b7119d6f4a","bdp_wmem","Wed Mar 15 2023 14:02:12 GMT-0500 (Central Daylight Time)","662136","Match,No Match","[{""page_index"":0,""viewing_time"":26164},{""page_index"":1,""viewing_time"":66873},{""page_index"":2,""viewing_time"":11938},{""page_index"":3,""viewing_time"":3508},{""page_index"":4,""viewing_time"":17203}]","125687","","","","","","","","","","","","","","","","","","",""
"html-keyboard-response","4","136839","0.0-5.0-1.0","60fdbd3afcd943b7119d6f4a","bdp_wmem","Wed Mar 15 2023 14:02:12 GMT-0500 (Central Daylight Time)","662136","Match,No Match","","null","","","","","","<div class='trialBorder'><div class='vertical-center'><img src='img/fixation2_sml.jpg'</img></div></div>","null","FIX","","","","","","","","","","",""
"html-keyboard-response","5","139851","0.0-5.0-2.0","60fdbd3afcd943b7119d6f4a","bdp_wmem","Wed Mar 15 2023 14:02:12 GMT-0500 (Central Daylight Time)","662136","Match,No Match","","null","","","","","","<div class='trialBorder'><div class='vertical-center'><img style='vertical-align:center; align:center' src='img/fixation2_sml.jpg'></div><div class='arrayDiv2'><div class='tl'><img class='introPic' src='trustrating_stim/white_mw091.bmp'><br><font color='red'><strong>Keep</strong></font></div><div class='tr'><img class='introPic' src='trustrating_stim/white_mw078.bmp'><br><font color='green'><strong>Share</strong></font></div></div></div>","null","ARRAY","2","trustrating_stim/white_mw091.bmp,trustrating_stim/white_mw078.bmp","0,1","noMatchOutcome","i","3000","","","","",""
"html-keyboard-response","6","143856","0.0-5.0-3.0","60fdbd3afcd943b7119d6f4a","bdp_wmem","Wed Mar 15 2023 14:02:12 GMT-0500 (Central Daylight Time)","662136","Match,No Match","","null","","","","","","<div class='trialBorder'><div class='vertical-center'><img src='img/fixation2_sml.jpg'</img></div></div>","null","DELAY","","","","","","","","","","",""
"html-keyboard-response","7","146987","0.0-5.0-4.0","60fdbd3afcd943b7119d6f4a","bdp_wmem","Wed Mar 15 2023 14:02:12 GMT-0500 (Central Daylight Time)","662136","Match,No Match","","3130","","","","","","<div class='trialBorder'><div class='targDiv'><div class='tc'><img class='introPic' src='trustrating_stim/white_mw091.bmp'><br><font color='green'><strong>Share</strong></font></div></div><div class='respDiv'><div class='respDivL'>Match<br>(e)</div><div class='respDivR'>No Match<br>(i)</div></div></div>","i","TARGET","2","trustrating_stim/white_mw091.bmp,trustrating_stim/white_mw078.bmp","0,1","noMatchOutcome","i","3000","trustrating_stim/white_mw091.bmp","green","Share","PRACTICE","1"
"html-keyboard-response","8","147499","0.0-5.0-5.0","60fdbd3afcd943b7119d6f4a","bdp_wmem","Wed Mar 15 2023 14:02:12 GMT-0500 (Central Daylight Time)","662136","Match,No Match","","null","","","","","","<div class='trialBorder'><div class='vertical-center'><img src='img/correct.jpg'></div><div class='respDiv'><div class='respDivL'>Match<br>(e)</div><div class='respDivR'><font style='color:orange'>No Match<br>(i)</font></div></div></div>","null","FEEDBACK","","","","","","","","","","",""
"html-keyboard-response","9","148007","0.0-5.0-1.1","60fdbd3afcd943b7119d6f4a","bdp_wmem","Wed Mar 15 2023 14:02:12 GMT-0500 (Central Daylight Time)","662136","Match,No Match","","null","","","","","","<div class='trialBorder'><div class='vertical-center'><img src='img/fixation2_sml.jpg'</img></div></div>","null","FIX","","","","","","","","","","",""
"html-keyboard-response","10","152514","0.0-5.0-2.1","60fdbd3afcd943b7119d6f4a","bdp_wmem","Wed Mar 15 2023 14:02:12 GMT-0500 (Central Daylight Time)","662136","Match,No Match","","null","","","","","","<div class='trialBorder'><div class='vertical-center'><img style='vertical-align:center; align:center' src='img/fixation2_sml.jpg'></div><div class='arrayDiv3'><div class='tl'><img class='introPic' src='trustrating_stim/white_mw092.bmp'><br><font color='red'><strong>Keep</strong></font></div><div class='tc'><img class='introPic' src='trustrating_stim/white_mw012.bmp'><br><font color='green'><strong>Share</strong></font></div><div class='tr'><img class='introPic' src='trustrating_stim/white_mw040.bmp'><br><font color='green'><strong>Share</strong></font></div></div></div>","null","ARRAY","3","trustrating_stim/white_mw092.bmp,trustrating_stim/white_mw012.bmp,trustrating_stim/white_mw040.bmp","0,1,1","Match","e","4500","","","","",""
"html-keyboard-response","11","156523","0.0-5.0-3.1","60fdbd3afcd943b7119d6f4a","bdp_wmem","Wed Mar 15 2023 14:02:12 GMT-0500 (Central Daylight Time)","662136","Match,No Match","","null","","","","","","<div class='trialBorder'><div class='vertical-center'><img src='img/fixation2_sml.jpg'</img></div></div>","null","DELAY","","","","","","","","","","",""
"html-keyboard-response","12","158360","0.0-5.0-4.1","60fdbd3afcd943b7119d6f4a","bdp_wmem","Wed Mar 15 2023 14:02:12 GMT-0500 (Central Daylight Time)","662136","Match,No Match","","1836","","","","","","<div class='trialBorder'><div class='targDiv'><div class='tc'><img class='introPic' src='trustrating_stim/white_mw040.bmp'><br><font color='green'><strong>Share</strong></font></div></div><div class='respDiv'><div class='respDivL'>Match<br>(e)</div><div class='respDivR'>No Match<br>(i)</div></div></div>","e","TARGET","3","trustrating_stim/white_mw092.bmp,trustrating_stim/white_mw012.bmp,trustrating_stim/white_mw040.bmp","0,1,1","Match","e","4500","trustrating_stim/white_mw040.bmp","green","Share","PRACTICE","1"
"html-keyboard-response","13","158864","0.0-5.0-5.1","60fdbd3afcd943b7119d6f4a","bdp_wmem","Wed Mar 15 2023 14:02:12 GMT-0500 (Central Daylight Time)","662136","Match,No Match","","null","","","","","","<div class='trialBorder'><div class='vertical-center'><img src='img/correct.jpg'></div><div class='respDiv'><div class='respDivL'><font style='color:orange'>Match<br>(e)</font></div><div class='respDivR'>No Match<br>(i)</div></div></div>","null","FEEDBACK","","","","","","","","","","",""
"html-keyboard-response","14","159371","0.0-5.0-1.2","60fdbd3afcd943b7119d6f4a","bdp_wmem","Wed Mar 15 2023 14:02:12 GMT-0500 (Central Daylight Time)","662136","Match,No Match","","null","","","","","","<div class='trialBorder'><div class='vertical-center'><img src='img/fixation2_sml.jpg'</img></div></div>","null","FIX","","","","","","","","","","",""
"html-keyboard-response","15","163883","0.0-5.0-2.2","60fdbd3afcd943b7119d6f4a","bdp_wmem","Wed Mar 15 2023 14:02:12 GMT-0500 (Central Daylight Time)","662136","Match,No Match","","null","","","","","","<div class='trialBorder'><div class='vertical-center'><img style='vertical-align:center; align:center' src='img/fixation2_sml.jpg'></div><div class='arrayDiv3'><div class='tl'><img class='introPic' src='trustrating_stim/white_mw078.bmp'><br><font color='red'><strong>Keep</strong></font></div><div class='tc'><img class='introPic' src='trustrating_stim/white_mw040.bmp'><br><font color='green'><strong>Share</strong></font></div><div class='tr'><img class='introPic' src='trustrating_stim/white_mw092.bmp'><br><font color='red'><strong>Keep</strong></font></div></div></div>","null","ARRAY","3","trustrating_stim/white_mw078.bmp,trustrating_stim/white_mw040.bmp,trustrating_stim/white_mw092.bmp","0,1,0","noMatchOutcome","i","4500","","","","",""
"html-keyboard-response","16","167888","0.0-5.0-3.2","60fdbd3afcd943b7119d6f4a","bdp_wmem","Wed Mar 15 2023 14:02:12 GMT-0500 (Central Daylight Time)","662136","Match,No Match","","null","","","","","","<div class='trialBorder'><div class='vertical-center'><img src='img/fixation2_sml.jpg'</img></div></div>","null","DELAY","","","","","","","","","","",""
"html-keyboard-response","17","170534","0.0-5.0-4.2","60fdbd3afcd943b7119d6f4a","bdp_wmem","Wed Mar 15 2023 14:02:12 GMT-0500 (Central Daylight Time)","662136","Match,No Match","","2645","","","","","","<div class='trialBorder'><div class='targDiv'><div class='tc'><img class='introPic' src='trustrating_stim/white_mw078.bmp'><br><font color='green'><strong>Share</strong></font></div></div><div class='respDiv'><div class='respDivL'>Match<br>(e)</div><div class='respDivR'>No Match<br>(i)</div></div></div>","i","TARGET","3","trustrating_stim/white_mw078.bmp,trustrating_stim/white_mw040.bmp,trustrating_stim/white_mw092.bmp","0,1,0","noMatchOutcome","i","4500","trustrating_stim/white_mw078.bmp","green","Share","PRACTICE","1"
"html-keyboard-response","18","171042","0.0-5.0-5.2","60fdbd3afcd943b7119d6f4a","bdp_wmem","Wed Mar 15 2023 14:02:12 GMT-0500 (Central Daylight Time)","662136","Match,No Match","","null","","","","","","<div class='trialBorder'><div class='vertical-center'><img src='img/correct.jpg'></div><div class='respDiv'><div class='respDivL'>Match<br>(e)</div><div class='respDivR'><font style='color:orange'>No Match<br>(i)</font></div></div></div>","null","FEEDBACK","","","","","","","","","","",""
"html-keyboard-response","19","171543","0.0-5.0-1.3","60fdbd3afcd943b7119d6f4a","bdp_wmem","Wed Mar 15 2023 14:02:12 GMT-0500 (Central Daylight Time)","662136","Match,No Match","","null","","","","","","<div class='trialBorder'><div class='vertical-center'><img src='img/fixation2_sml.jpg'</img></div></div>","null","FIX","","","","","","","","","","",""
"html-keyboard-response","20","173047","0.0-5.0-2.3","60fdbd3afcd943b7119d6f4a","bdp_wmem","Wed Mar 15 2023 14:02:12 GMT-0500 (Central Daylight Time)","662136","Match,No Match","","null","","","","","","<div class='trialBorder'><div class='vertical-center'><img style='vertical-align:center; align:center' src='img/fixation2_sml.jpg'></div><div class='arrayDiv1'><div class='tc'><img class='introPic' src='trustrating_stim/white_mw091.bmp'><br><font color='red'><strong>Keep</strong></font></div></div></div>","null","ARRAY","1","trustrating_stim/white_mw091.bmp","0","noMatchFace","i","1500","","","","",""
"html-keyboard-response","21","177056","0.0-5.0-3.3","60fdbd3afcd943b7119d6f4a","bdp_wmem","Wed Mar 15 2023 14:02:12 GMT-0500 (Central Daylight Time)","662136","Match,No Match","","null","","","","","","<div class='trialBorder'><div class='vertical-center'><img src='img/fixation2_sml.jpg'</img></div></div>","null","DELAY","","","","","","","","","","",""
"html-keyboard-response","22","178863","0.0-5.0-4.3","60fdbd3afcd943b7119d6f4a","bdp_wmem","Wed Mar 15 2023 14:02:12 GMT-0500 (Central Daylight Time)","662136","Match,No Match","","1806","","","","","","<div class='trialBorder'><div class='targDiv'><div class='tc'><img class='introPic' src='trustrating_stim/white_mw042.bmp'><br><font color='red'><strong>Keep</strong></font></div></div><div class='respDiv'><div class='respDivL'>Match<br>(e)</div><div class='respDivR'>No Match<br>(i)</div></div></div>","i","TARGET","1","trustrating_stim/white_mw091.bmp","0","noMatchFace","i","1500","trustrating_stim/white_mw042.bmp","red","Keep","PRACTICE","1"
"html-keyboard-response","23","179371","0.0-5.0-5.3","60fdbd3afcd943b7119d6f4a","bdp_wmem","Wed Mar 15 2023 14:02:12 GMT-0500 (Central Daylight Time)","662136","Match,No Match","","null","","","","","","<div class='trialBorder'><div class='vertical-center'><img src='img/correct.jpg'></div><div class='respDiv'><div class='respDivL'>Match<br>(e)</div><div class='respDivR'><font style='color:orange'>No Match<br>(i)</font></div></div></div>","null","FEEDBACK","","","","","","","","","","",""
"html-keyboard-response","24","179883","0.0-5.0-1.4","60fdbd3afcd943b7119d6f4a","bdp_wmem","Wed Mar 15 2023 14:02:12 GMT-0500 (Central Daylight Time)","662136","Match,No Match","","null","","","","","","<div class='trialBorder'><div class='vertical-center'><img src='img/fixation2_sml.jpg'</img></div></div>","null","FIX","","","","","","","","","","",""
"html-keyboard-response","25","182887","0.0-5.0-2.4","60fdbd3afcd943b7119d6f4a","bdp_wmem","Wed Mar 15 2023 14:02:12 GMT-0500 (Central Daylight Time)","662136","Match,No Match","","null","","","","","","<div class='trialBorder'><div class='vertical-center'><img style='vertical-align:center; align:center' src='img/fixation2_sml.jpg'></div><div class='arrayDiv2'><div class='tl'><img class='introPic' src='trustrating_stim/white_mw042.bmp'><br><font color='green'><strong>Share</strong></font></div><div class='tr'><img class='introPic' src='trustrating_stim/white_mw013.bmp'><br><font color='red'><strong>Keep</strong></font></div></div></div>","null","ARRAY","2","trustrating_stim/white_mw042.bmp,trustrating_stim/white_mw013.bmp","1,0","Match","e","3000","","","","",""
"html-keyboard-response","26","186896","0.0-5.0-3.4","60fdbd3afcd943b7119d6f4a","bdp_wmem","Wed Mar 15 2023 14:02:12 GMT-0500 (Central Daylight Time)","662136","Match,No Match","","null","","","","","","<div class='trialBorder'><div class='vertical-center'><img src='img/fixation2_sml.jpg'</img></div></div>","null","DELAY","","","","","","","","","","",""
"html-keyboard-response","27","188678","0.0-5.0-4.4","60fdbd3afcd943b7119d6f4a","bdp_wmem","Wed Mar 15 2023 14:02:12 GMT-0500 (Central Daylight Time)","662136","Match,No Match","","1781","","","","","","<div class='trialBorder'><div class='targDiv'><div class='tc'><img class='introPic' src='trustrating_stim/white_mw013.bmp'><br><font color='red'><strong>Keep</strong></font></div></div><div class='respDiv'><div class='respDivL'>Match<br>(e)</div><div class='respDivR'>No Match<br>(i)</div></div></div>","i","TARGET","2","trustrating_stim/white_mw042.bmp,trustrating_stim/white_mw013.bmp","1,0","Match","e","3000","trustrating_stim/white_mw013.bmp","red","Keep","PRACTICE","0"
"html-keyboard-response","28","189187","0.0-5.0-5.4","60fdbd3afcd943b7119d6f4a","bdp_wmem","Wed Mar 15 2023 14:02:12 GMT-0500 (Central Daylight Time)","662136","Match,No Match","","null","","","","","","<div class='trialBorder'><div class='vertical-center'><img src='img/error.jpg'></div><div class='respDiv'><div class='respDivL'>Match<br>(e)</div><div class='respDivR'><font style='color:orange'>No Match<br>(i)</font></div></div></div>","null","FEEDBACK","","","","","","","","","","",""
"html-keyboard-response","29","189696","0.0-5.0-1.5","60fdbd3afcd943b7119d6f4a","bdp_wmem","Wed Mar 15 2023 14:02:12 GMT-0500 (Central Daylight Time)","662136","Match,No Match","","null","","","","","","<div class='trialBorder'><div class='vertical-center'><img src='img/fixation2_sml.jpg'</img></div></div>","null","FIX","","","","","","","","","","",""
"html-keyboard-response","30","191203","0.0-5.0-2.5","60fdbd3afcd943b7119d6f4a","bdp_wmem","Wed Mar 15 2023 14:02:12 GMT-0500 (Central Daylight Time)","662136","Match,No Match","","null","","","","","","<div class='trialBorder'><div class='vertical-center'><img style='vertical-align:center; align:center' src='img/fixation2_sml.jpg'></div><div class='arrayDiv1'><div class='tc'><img class='introPic' src='trustrating_stim/white_mw012.bmp'><br><font color='green'><strong>Share</strong></font></div></div></div>","null","ARRAY","1","trustrating_stim/white_mw012.bmp","1","Match","e","1500","","","","",""
"html-keyboard-response","31","195207","0.0-5.0-3.5","60fdbd3afcd943b7119d6f4a","bdp_wmem","Wed Mar 15 2023 14:02:12 GMT-0500 (Central Daylight Time)","662136","Match,No Match","","null","","","","","","<div class='trialBorder'><div class='vertical-center'><img src='img/fixation2_sml.jpg'</img></div></div>","null","DELAY","","","","","","","","","","",""
"html-keyboard-response","32","196127","0.0-5.0-4.5","60fdbd3afcd943b7119d6f4a","bdp_wmem","Wed Mar 15 2023 14:02:12 GMT-0500 (Central Daylight Time)","662136","Match,No Match","","919","","","","","","<div class='trialBorder'><div class='targDiv'><div class='tc'><img class='introPic' src='trustrating_stim/white_mw012.bmp'><br><font color='green'><strong>Share</strong></font></div></div><div class='respDiv'><div class='respDivL'>Match<br>(e)</div><div class='respDivR'>No Match<br>(i)</div></div></div>","e","TARGET","1","trustrating_stim/white_mw012.bmp","1","Match","e","1500","trustrating_stim/white_mw012.bmp","green","Share","PRACTICE","1"
"html-keyboard-response","33","196631","0.0-5.0-5.5","60fdbd3afcd943b7119d6f4a","bdp_wmem","Wed Mar 15 2023 14:02:12 GMT-0500 (Central Daylight Time)","662136","Match,No Match","","null","","","","","","<div class='trialBorder'><div class='vertical-center'><img src='img/correct.jpg'></div><div class='respDiv'><div class='respDivL'><font style='color:orange'>Match<br>(e)</font></div><div class='respDivR'>No Match<br>(i)</div></div></div>","null","FEEDBACK","","","","","","","","","","",""
"instructions","34","201024","0.0-6.0","60fdbd3afcd943b7119d6f4a","bdp_wmem","Wed Mar 15 2023 14:02:12 GMT-0500 (Central Daylight Time)","662136","Match,No Match","[{""page_index"":0,""viewing_time"":4393}]","4393","","","","","","","","","","","","","","","","","","",""
"html-keyboard-response","35","201531","0.0-7.0-1.0","60fdbd3afcd943b7119d6f4a","bdp_wmem","Wed Mar 15 2023 14:02:12 GMT-0500 (Central Daylight Time)","662136","Match,No Match","","null","","","","","","<div class='trialBorder'><div class='vertical-center'><img src='img/fixation2_sml.jpg'</img></div></div>","null","FIX","","","","","","","","","","",""
"html-keyboard-response","36","204539","0.0-7.0-2.0","60fdbd3afcd943b7119d6f4a","bdp_wmem","Wed Mar 15 2023 14:02:12 GMT-0500 (Central Daylight Time)","662136","Match,No Match","","null","","","","","","<div class='trialBorder'><div class='vertical-center'><img style='vertical-align:center; align:center' src='img/fixation2_sml.jpg'></div><div class='arrayDiv2'><div class='tl'><img class='introPic' src='trustrating_stim/white_mw092.bmp'><br><font color='red'><strong>Keep</strong></font></div><div class='tr'><img class='introPic' src='trustrating_stim/white_mw085.bmp'><br><font color='green'><strong>Share</strong></font></div></div></div>","null","ARRAY","2","trustrating_stim/white_mw092.bmp,trustrating_stim/white_mw085.bmp","0,1","noMatchFace","i","3000","","","","",""
"html-keyboard-response","37","208546","0.0-7.0-3.0","60fdbd3afcd943b7119d6f4a","bdp_wmem","Wed Mar 15 2023 14:02:12 GMT-0500 (Central Daylight Time)","662136","Match,No Match","","null","","","","","","<div class='trialBorder'><div class='vertical-center'><img src='img/fixation2_sml.jpg'</img></div></div>","null","DELAY","","","","","","","","","","",""
"html-keyboard-response","38","211072","0.0-7.0-4.0","60fdbd3afcd943b7119d6f4a","bdp_wmem","Wed Mar 15 2023 14:02:12 GMT-0500 (Central Daylight Time)","662136","Match,No Match","","2525","","","","","","<div class='trialBorder'><div class='targDiv'><div class='tc'><img class='introPic' src='trustrating_stim/white_mw078.bmp'><br><font color='red'><strong>Keep</strong></font></div></div><div class='respDiv'><div class='respDivL'>Match<br>(e)</div><div class='respDivR'>No Match<br>(i)</div></div></div>","i","TARGET","2","trustrating_stim/white_mw092.bmp,trustrating_stim/white_mw085.bmp","0,1","noMatchFace","i","3000","trustrating_stim/white_mw078.bmp","red","Keep","REAL","1"
"html-keyboard-response","39","211575","0.0-7.0-5.0","60fdbd3afcd943b7119d6f4a","bdp_wmem","Wed Mar 15 2023 14:02:12 GMT-0500 (Central Daylight Time)","662136","Match,No Match","","null","","","","","","<div class='trialBorder'><div class='vertical-center'><img src='img/correct.jpg'></div><div class='respDiv'><div class='respDivL'>Match<br>(e)</div><div class='respDivR'><font style='color:orange'>No Match<br>(i)</font></div></div></div>","null","FEEDBACK","","","","","","","","","","",""
"html-keyboard-response","40","212080","0.0-7.0-1.1","60fdbd3afcd943b7119d6f4a","bdp_wmem","Wed Mar 15 2023 14:02:12 GMT-0500 (Central Daylight Time)","662136","Match,No Match","","null","","","","","","<div class='trialBorder'><div class='vertical-center'><img src='img/fixation2_sml.jpg'</img></div></div>","null","FIX","","","","","","","","","","",""
"html-keyboard-response","41","216587","0.0-7.0-2.1","60fdbd3afcd943b7119d6f4a","bdp_wmem","Wed Mar 15 2023 14:02:12 GMT-0500 (Central Daylight Time)","662136","Match,No Match","","null","","","","","","<div class='trialBorder'><div class='vertical-center'><img style='vertical-align:center; align:center' src='img/fixation2_sml.jpg'></div><div class='arrayDiv3'><div class='tl'><img class='introPic' src='trustrating_stim/white_mw078.bmp'><br><font color='red'><strong>Keep</strong></font></div><div class='tc'><img class='introPic' src='trustrating_stim/white_mw042.bmp'><br><font color='green'><strong>Share</strong></font></div><div class='tr'><img class='introPic' src='trustrating_stim/white_mw040.bmp'><br><font color='red'><strong>Keep</strong></font></div></div></div>","null","ARRAY","3","trustrating_stim/white_mw078.bmp,trustrating_stim/white_mw042.bmp,trustrating_stim/white_mw040.bmp","0,1,0","noMatchFace","i","4500","","","","",""
"html-keyboard-response","42","220592","0.0-7.0-3.1","60fdbd3afcd943b7119d6f4a","bdp_wmem","Wed Mar 15 2023 14:02:12 GMT-0500 (Central Daylight Time)","662136","Match,No Match","","null","","","","","","<div class='trialBorder'><div class='vertical-center'><img src='img/fixation2_sml.jpg'</img></div></div>","null","DELAY","","","","","","","","","","",""
"html-keyboard-response","43","223221","0.0-7.0-4.1","60fdbd3afcd943b7119d6f4a","bdp_wmem","Wed Mar 15 2023 14:02:12 GMT-0500 (Central Daylight Time)","662136","Match,No Match","","2628","","","","","","<div class='trialBorder'><div class='targDiv'><div class='tc'><img class='introPic' src='trustrating_stim/white_mw003.bmp'><br><font color='green'><strong>Share</strong></font></div></div><div class='respDiv'><div class='respDivL'>Match<br>(e)</div><div class='respDivR'>No Match<br>(i)</div></div></div>","i","TARGET","3","trustrating_stim/white_mw078.bmp,trustrating_stim/white_mw042.bmp,trustrating_stim/white_mw040.bmp","0,1,0","noMatchFace","i","4500","trustrating_stim/white_mw003.bmp","green","Share","REAL","1"
"html-keyboard-response","44","223728","0.0-7.0-5.1","60fdbd3afcd943b7119d6f4a","bdp_wmem","Wed Mar 15 2023 14:02:12 GMT-0500 (Central Daylight Time)","662136","Match,No Match","","null","","","","","","<div class='trialBorder'><div class='vertical-center'><img src='img/correct.jpg'></div><div class='respDiv'><div class='respDivL'>Match<br>(e)</div><div class='respDivR'><font style='color:orange'>No Match<br>(i)</font></div></div></div>","null","FEEDBACK","","","","","","","","","","",""
"html-keyboard-response","45","224235","0.0-7.0-1.2","60fdbd3afcd943b7119d6f4a","bdp_wmem","Wed Mar 15 2023 14:02:12 GMT-0500 (Central Daylight Time)","662136","Match,No Match","","null","","","","","","<div class='trialBorder'><div class='vertical-center'><img src='img/fixation2_sml.jpg'</img></div></div>","null","FIX","","","","","","","","","","",""
"html-keyboard-response","46","225746","0.0-7.0-2.2","60fdbd3afcd943b7119d6f4a","bdp_wmem","Wed Mar 15 2023 14:02:12 GMT-0500 (Central Daylight Time)","662136","Match,No Match","","null","","","","","","<div class='trialBorder'><div class='vertical-center'><img style='vertical-align:center; align:center' src='img/fixation2_sml.jpg'></div><div class='arrayDiv1'><div class='tc'><img class='introPic' src='trustrating_stim/white_mw038.bmp'><br><font color='red'><strong>Keep</strong></font></div></div></div>","null","ARRAY","1","trustrating_stim/white_mw038.bmp","0","noMatchFace","i","1500","","","","",""
"html-keyboard-response","47","229755","0.0-7.0-3.2","60fdbd3afcd943b7119d6f4a","bdp_wmem","Wed Mar 15 2023 14:02:12 GMT-0500 (Central Daylight Time)","662136","Match,No Match","","null","","","","","","<div class='trialBorder'><div class='vertical-center'><img src='img/fixation2_sml.jpg'</img></div></div>","null","DELAY","","","","","","","","","","",""
"html-keyboard-response","48","230614","0.0-7.0-4.2","60fdbd3afcd943b7119d6f4a","bdp_wmem","Wed Mar 15 2023 14:02:12 GMT-0500 (Central Daylight Time)","662136","Match,No Match","","858","","","","","","<div class='trialBorder'><div class='targDiv'><div class='tc'><img class='introPic' src='trustrating_stim/white_mw010.bmp'><br><font color='red'><strong>Keep</strong></font></div></div><div class='respDiv'><div class='respDivL'>Match<br>(e)</div><div class='respDivR'>No Match<br>(i)</div></div></div>","i","TARGET","1","trustrating_stim/white_mw038.bmp","0","noMatchFace","i","1500","trustrating_stim/white_mw010.bmp","red","Keep","REAL","1"
"html-keyboard-response","49","231120","0.0-7.0-5.2","60fdbd3afcd943b7119d6f4a","bdp_wmem","Wed Mar 15 2023 14:02:12 GMT-0500 (Central Daylight Time)","662136","Match,No Match","","null","","","","","","<div class='trialBorder'><div class='vertical-center'><img src='img/correct.jpg'></div><div class='respDiv'><div class='respDivL'>Match<br>(e)</div><div class='respDivR'><font style='color:orange'>No Match<br>(i)</font></div></div></div>","null","FEEDBACK","","","","","","","","","","",""
"html-keyboard-response","50","231627","0.0-7.0-1.3","60fdbd3afcd943b7119d6f4a","bdp_wmem","Wed Mar 15 2023 14:02:12 GMT-0500 (Central Daylight Time)","662136","Match,No Match","","null","","","","","","<div class='trialBorder'><div class='vertical-center'><img src='img/fixation2_sml.jpg'</img></div></div>","null","FIX","","","","","","","","","","",""
"html-keyboard-response","51","234635","0.0-7.0-2.3","60fdbd3afcd943b7119d6f4a","bdp_wmem","Wed Mar 15 2023 14:02:12 GMT-0500 (Central Daylight Time)","662136","Match,No Match","","null","","","","","","<div class='trialBorder'><div class='vertical-center'><img style='vertical-align:center; align:center' src='img/fixation2_sml.jpg'></div><div class='arrayDiv2'><div class='tl'><img class='introPic' src='trustrating_stim/white_mw042.bmp'><br><font color='red'><strong>Keep</strong></font></div><div class='tr'><img class='introPic' src='trustrating_stim/white_mw012.bmp'><br><font color='green'><strong>Share</strong></font></div></div></div>","null","ARRAY","2","trustrating_stim/white_mw042.bmp,trustrating_stim/white_mw012.bmp","0,1","noMatchFace","i","3000","","","","",""
"html-keyboard-response","52","238642","0.0-7.0-3.3","60fdbd3afcd943b7119d6f4a","bdp_wmem","Wed Mar 15 2023 14:02:12 GMT-0500 (Central Daylight Time)","662136","Match,No Match","","null","","","","","","<div class='trialBorder'><div class='vertical-center'><img src='img/fixation2_sml.jpg'</img></div></div>","null","DELAY","","","","","","","","","","",""
"html-keyboard-response","53","240280","0.0-7.0-4.3","60fdbd3afcd943b7119d6f4a","bdp_wmem","Wed Mar 15 2023 14:02:12 GMT-0500 (Central Daylight Time)","662136","Match,No Match","","1637","","","","","","<div class='trialBorder'><div class='targDiv'><div class='tc'><img class='introPic' src='trustrating_stim/white_mw078.bmp'><br><font color='green'><strong>Share</strong></font></div></div><div class='respDiv'><div class='respDivL'>Match<br>(e)</div><div class='respDivR'>No Match<br>(i)</div></div></div>","i","TARGET","2","trustrating_stim/white_mw042.bmp,trustrating_stim/white_mw012.bmp","0,1","noMatchFace","i","3000","trustrating_stim/white_mw078.bmp","green","Share","REAL","1"
"html-keyboard-response","54","240784","0.0-7.0-5.3","60fdbd3afcd943b7119d6f4a","bdp_wmem","Wed Mar 15 2023 14:02:12 GMT-0500 (Central Daylight Time)","662136","Match,No Match","","null","","","","","","<div class='trialBorder'><div class='vertical-center'><img src='img/correct.jpg'></div><div class='respDiv'><div class='respDivL'>Match<br>(e)</div><div class='respDivR'><font style='color:orange'>No Match<br>(i)</font></div></div></div>","null","FEEDBACK","","","","","","","","","","",""
"html-keyboard-response","55","241287","0.0-7.0-1.4","60fdbd3afcd943b7119d6f4a","bdp_wmem","Wed Mar 15 2023 14:02:12 GMT-0500 (Central Daylight Time)","662136","Match,No Match","","null","","","","","","<div class='trialBorder'><div class='vertical-center'><img src='img/fixation2_sml.jpg'</img></div></div>","null","FIX","","","","","","","","","","",""
"html-keyboard-response","56","242795","0.0-7.0-2.4","60fdbd3afcd943b7119d6f4a","bdp_wmem","Wed Mar 15 2023 14:02:12 GMT-0500 (Central Daylight Time)","662136","Match,No Match","","null","","","","","","<div class='trialBorder'><div class='vertical-center'><img style='vertical-align:center; align:center' src='img/fixation2_sml.jpg'></div><div class='arrayDiv1'><div class='tc'><img class='introPic' src='trustrating_stim/white_mw040.bmp'><br><font color='red'><strong>Keep</strong></font></div></div></div>","null","ARRAY","1","trustrating_stim/white_mw040.bmp","0","noMatchOutcome","i","1500","","","","",""
"html-keyboard-response","57","246802","0.0-7.0-3.4","60fdbd3afcd943b7119d6f4a","bdp_wmem","Wed Mar 15 2023 14:02:12 GMT-0500 (Central Daylight Time)","662136","Match,No Match","","null","","","","","","<div class='trialBorder'><div class='vertical-center'><img src='img/fixation2_sml.jpg'</img></div></div>","null","DELAY","","","","","","","","","","",""
"html-keyboard-response","58","248258","0.0-7.0-4.4","60fdbd3afcd943b7119d6f4a","bdp_wmem","Wed Mar 15 2023 14:02:12 GMT-0500 (Central Daylight Time)","662136","Match,No Match","","1455","","","","","","<div class='trialBorder'><div class='targDiv'><div class='tc'><img class='introPic' src='trustrating_stim/white_mw040.bmp'><br><font color='green'><strong>Share</strong></font></div></div><div class='respDiv'><div class='respDivL'>Match<br>(e)</div><div class='respDivR'>No Match<br>(i)</div></div></div>","i","TARGET","1","trustrating_stim/white_mw040.bmp","0","noMatchOutcome","i","1500","trustrating_stim/white_mw040.bmp","green","Share","REAL","1"
"html-keyboard-response","59","248763","0.0-7.0-5.4","60fdbd3afcd943b7119d6f4a","bdp_wmem","Wed Mar 15 2023 14:02:12 GMT-0500 (Central Daylight Time)","662136","Match,No Match","","null","","","","","","<div class='trialBorder'><div class='vertical-center'><img src='img/correct.jpg'></div><div class='respDiv'><div class='respDivL'>Match<br>(e)</div><div class='respDivR'><font style='color:orange'>No Match<br>(i)</font></div></div></div>","null","FEEDBACK","","","","","","","","","","",""
"html-keyboard-response","60","249275","0.0-7.0-1.5","60fdbd3afcd943b7119d6f4a","bdp_wmem","Wed Mar 15 2023 14:02:12 GMT-0500 (Central Daylight Time)","662136","Match,No Match","","null","","","","","","<div class='trialBorder'><div class='vertical-center'><img src='img/fixation2_sml.jpg'</img></div></div>","null","FIX","","","","","","","","","","",""
"html-keyboard-response","61","253787","0.0-7.0-2.5","60fdbd3afcd943b7119d6f4a","bdp_wmem","Wed Mar 15 2023 14:02:12 GMT-0500 (Central Daylight Time)","662136","Match,No Match","","null","","","","","","<div class='trialBorder'><div class='vertical-center'><img style='vertical-align:center; align:center' src='img/fixation2_sml.jpg'></div><div class='arrayDiv3'><div class='tl'><img class='introPic' src='trustrating_stim/white_mw078.bmp'><br><font color='green'><strong>Share</strong></font></div><div class='tc'><img class='introPic' src='trustrating_stim/white_mw003.bmp'><br><font color='red'><strong>Keep</strong></font></div><div class='tr'><img class='introPic' src='trustrating_stim/white_mw012.bmp'><br><font color='red'><strong>Keep</strong></font></div></div></div>","null","ARRAY","3","trustrating_stim/white_mw078.bmp,trustrating_stim/white_mw003.bmp,trustrating_stim/white_mw012.bmp","1,0,0","Match","e","4500","","","","",""
"html-keyboard-response","62","257794","0.0-7.0-3.5","60fdbd3afcd943b7119d6f4a","bdp_wmem","Wed Mar 15 2023 14:02:12 GMT-0500 (Central Daylight Time)","662136","Match,No Match","","null","","","","","","<div class='trialBorder'><div class='vertical-center'><img src='img/fixation2_sml.jpg'</img></div></div>","null","DELAY","","","","","","","","","","",""
"html-keyboard-response","63","259443","0.0-7.0-4.5","60fdbd3afcd943b7119d6f4a","bdp_wmem","Wed Mar 15 2023 14:02:12 GMT-0500 (Central Daylight Time)","662136","Match,No Match","","1647","","","","","","<div class='trialBorder'><div class='targDiv'><div class='tc'><img class='introPic' src='trustrating_stim/white_mw012.bmp'><br><font color='red'><strong>Keep</strong></font></div></div><div class='respDiv'><div class='respDivL'>Match<br>(e)</div><div class='respDivR'>No Match<br>(i)</div></div></div>","e","TARGET","3","trustrating_stim/white_mw078.bmp,trustrating_stim/white_mw003.bmp,trustrating_stim/white_mw012.bmp","1,0,0","Match","e","4500","trustrating_stim/white_mw012.bmp","red","Keep","REAL","1"
"html-keyboard-response","64","259947","0.0-7.0-5.5","60fdbd3afcd943b7119d6f4a","bdp_wmem","Wed Mar 15 2023 14:02:12 GMT-0500 (Central Daylight Time)","662136","Match,No Match","","null","","","","","","<div class='trialBorder'><div class='vertical-center'><img src='img/correct.jpg'></div><div class='respDiv'><div class='respDivL'><font style='color:orange'>Match<br>(e)</font></div><div class='respDivR'>No Match<br>(i)</div></div></div>","null","FEEDBACK","","","","","","","","","","",""
"html-keyboard-response","65","260455","0.0-7.0-1.6","60fdbd3afcd943b7119d6f4a","bdp_wmem","Wed Mar 15 2023 14:02:12 GMT-0500 (Central Daylight Time)","662136","Match,No Match","","null","","","","","","<div class='trialBorder'><div class='vertical-center'><img src='img/fixation2_sml.jpg'</img></div></div>","null","FIX","","","","","","","","","","",""
"html-keyboard-response","66","261963","0.0-7.0-2.6","60fdbd3afcd943b7119d6f4a","bdp_wmem","Wed Mar 15 2023 14:02:12 GMT-0500 (Central Daylight Time)","662136","Match,No Match","","null","","","","","","<div class='trialBorder'><div class='vertical-center'><img style='vertical-align:center; align:center' src='img/fixation2_sml.jpg'></div><div class='arrayDiv1'><div class='tc'><img class='introPic' src='trustrating_stim/white_mw085.bmp'><br><font color='red'><strong>Keep</strong></font></div></div></div>","null","ARRAY","1","trustrating_stim/white_mw085.bmp","0","noMatchFace","i","1500","","","","",""
"html-keyboard-response","67","265968","0.0-7.0-3.6","60fdbd3afcd943b7119d6f4a","bdp_wmem","Wed Mar 15 2023 14:02:12 GMT-0500 (Central Daylight Time)","662136","Match,No Match","","null","","","","","","<div class='trialBorder'><div class='vertical-center'><img src='img/fixation2_sml.jpg'</img></div></div>","null","DELAY","","","","","","","","","","",""
"html-keyboard-response","68","266935","0.0-7.0-4.6","60fdbd3afcd943b7119d6f4a","bdp_wmem","Wed Mar 15 2023 14:02:12 GMT-0500 (Central Daylight Time)","662136","Match,No Match","","965","","","","","","<div class='trialBorder'><div class='targDiv'><div class='tc'><img class='introPic' src='trustrating_stim/white_mw038.bmp'><br><font color='red'><strong>Keep</strong></font></div></div><div class='respDiv'><div class='respDivL'>Match<br>(e)</div><div class='respDivR'>No Match<br>(i)</div></div></div>","i","TARGET","1","trustrating_stim/white_mw085.bmp","0","noMatchFace","i","1500","trustrating_stim/white_mw038.bmp","red","Keep","REAL","1"
"html-keyboard-response","69","267442","0.0-7.0-5.6","60fdbd3afcd943b7119d6f4a","bdp_wmem","Wed Mar 15 2023 14:02:12 GMT-0500 (Central Daylight Time)","662136","Match,No Match","","null","","","","","","<div class='trialBorder'><div class='vertical-center'><img src='img/correct.jpg'></div><div class='respDiv'><div class='respDivL'>Match<br>(e)</div><div class='respDivR'><font style='color:orange'>No Match<br>(i)</font></div></div></div>","null","FEEDBACK","","","","","","","","","","",""
"html-keyboard-response","70","267943","0.0-7.0-1.7","60fdbd3afcd943b7119d6f4a","bdp_wmem","Wed Mar 15 2023 14:02:12 GMT-0500 (Central Daylight Time)","662136","Match,No Match","","null","","","","","","<div class='trialBorder'><div class='vertical-center'><img src='img/fixation2_sml.jpg'</img></div></div>","null","FIX","","","","","","","","","","",""
"html-keyboard-response","71","270955","0.0-7.0-2.7","60fdbd3afcd943b7119d6f4a","bdp_wmem","Wed Mar 15 2023 14:02:12 GMT-0500 (Central Daylight Time)","662136","Match,No Match","","null","","","","","","<div class='trialBorder'><div class='vertical-center'><img style='vertical-align:center; align:center' src='img/fixation2_sml.jpg'></div><div class='arrayDiv2'><div class='tl'><img class='introPic' src='trustrating_stim/white_mw091.bmp'><br><font color='red'><strong>Keep</strong></font></div><div class='tr'><img class='introPic' src='trustrating_stim/white_mw070.bmp'><br><font color='green'><strong>Share</strong></font></div></div></div>","null","ARRAY","2","trustrating_stim/white_mw091.bmp,trustrating_stim/white_mw070.bmp","0,1","Match","e","3000","","","","",""
"html-keyboard-response","72","274961","0.0-7.0-3.7","60fdbd3afcd943b7119d6f4a","bdp_wmem","Wed Mar 15 2023 14:02:12 GMT-0500 (Central Daylight Time)","662136","Match,No Match","","null","","","","","","<div class='trialBorder'><div class='vertical-center'><img src='img/fixation2_sml.jpg'</img></div></div>","null","DELAY","","","","","","","","","","",""
"html-keyboard-response","73","276075","0.0-7.0-4.7","60fdbd3afcd943b7119d6f4a","bdp_wmem","Wed Mar 15 2023 14:02:12 GMT-0500 (Central Daylight Time)","662136","Match,No Match","","1113","","","","","","<div class='trialBorder'><div class='targDiv'><div class='tc'><img class='introPic' src='trustrating_stim/white_mw091.bmp'><br><font color='red'><strong>Keep</strong></font></div></div><div class='respDiv'><div class='respDivL'>Match<br>(e)</div><div class='respDivR'>No Match<br>(i)</div></div></div>","e","TARGET","2","trustrating_stim/white_mw091.bmp,trustrating_stim/white_mw070.bmp","0,1","Match","e","3000","trustrating_stim/white_mw091.bmp","red","Keep","REAL","1"
"html-keyboard-response","74","276577","0.0-7.0-5.7","60fdbd3afcd943b7119d6f4a","bdp_wmem","Wed Mar 15 2023 14:02:12 GMT-0500 (Central Daylight Time)","662136","Match,No Match","","null","","","","","","<div class='trialBorder'><div class='vertical-center'><img src='img/correct.jpg'></div><div class='respDiv'><div class='respDivL'><font style='color:orange'>Match<br>(e)</font></div><div class='respDivR'>No Match<br>(i)</div></div></div>","null","FEEDBACK","","","","","","","","","","",""
"html-keyboard-response","75","277083","0.0-7.0-1.8","60fdbd3afcd943b7119d6f4a","bdp_wmem","Wed Mar 15 2023 14:02:12 GMT-0500 (Central Daylight Time)","662136","Match,No Match","","null","","","","","","<div class='trialBorder'><div class='vertical-center'><img src='img/fixation2_sml.jpg'</img></div></div>","null","FIX","","","","","","","","","","",""
"html-keyboard-response","76","278594","0.0-7.0-2.8","60fdbd3afcd943b7119d6f4a","bdp_wmem","Wed Mar 15 2023 14:02:12 GMT-0500 (Central Daylight Time)","662136","Match,No Match","","null","","","","","","<div class='trialBorder'><div class='vertical-center'><img style='vertical-align:center; align:center' src='img/fixation2_sml.jpg'></div><div class='arrayDiv1'><div class='tc'><img class='introPic' src='trustrating_stim/white_mw042.bmp'><br><font color='green'><strong>Share</strong></font></div></div></div>","null","ARRAY","1","trustrating_stim/white_mw042.bmp","1","Match","e","1500","","","","",""
"html-keyboard-response","77","282599","0.0-7.0-3.8","60fdbd3afcd943b7119d6f4a","bdp_wmem","Wed Mar 15 2023 14:02:12 GMT-0500 (Central Daylight Time)","662136","Match,No Match","","null","","","","","","<div class='trialBorder'><div class='vertical-center'><img src='img/fixation2_sml.jpg'</img></div></div>","null","DELAY","","","","","","","","","","",""
"html-keyboard-response","78","283460","0.0-7.0-4.8","60fdbd3afcd943b7119d6f4a","bdp_wmem","Wed Mar 15 2023 14:02:12 GMT-0500 (Central Daylight Time)","662136","Match,No Match","","860","","","","","","<div class='trialBorder'><div class='targDiv'><div class='tc'><img class='introPic' src='trustrating_stim/white_mw042.bmp'><br><font color='green'><strong>Share</strong></font></div></div><div class='respDiv'><div class='respDivL'>Match<br>(e)</div><div class='respDivR'>No Match<br>(i)</div></div></div>","e","TARGET","1","trustrating_stim/white_mw042.bmp","1","Match","e","1500","trustrating_stim/white_mw042.bmp","green","Share","REAL","1"
"html-keyboard-response","79","283968","0.0-7.0-5.8","60fdbd3afcd943b7119d6f4a","bdp_wmem","Wed Mar 15 2023 14:02:12 GMT-0500 (Central Daylight Time)","662136","Match,No Match","","null","","","","","","<div class='trialBorder'><div class='vertical-center'><img src='img/correct.jpg'></div><div class='respDiv'><div class='respDivL'><font style='color:orange'>Match<br>(e)</font></div><div class='respDivR'>No Match<br>(i)</div></div></div>","null","FEEDBACK","","","","","","","","","","",""
"html-keyboard-response","80","284471","0.0-7.0-1.9","60fdbd3afcd943b7119d6f4a","bdp_wmem","Wed Mar 15 2023 14:02:12 GMT-0500 (Central Daylight Time)","662136","Match,No Match","","null","","","","","","<div class='trialBorder'><div class='vertical-center'><img src='img/fixation2_sml.jpg'</img></div></div>","null","FIX","","","","","","","","","","",""
"html-keyboard-response","81","287483","0.0-7.0-2.9","60fdbd3afcd943b7119d6f4a","bdp_wmem","Wed Mar 15 2023 14:02:12 GMT-0500 (Central Daylight Time)","662136","Match,No Match","","null","","","","","","<div class='trialBorder'><div class='vertical-center'><img style='vertical-align:center; align:center' src='img/fixation2_sml.jpg'></div><div class='arrayDiv2'><div class='tl'><img class='introPic' src='trustrating_stim/white_mw092.bmp'><br><font color='green'><strong>Share</strong></font></div><div class='tr'><img class='introPic' src='trustrating_stim/white_mw085.bmp'><br><font color='red'><strong>Keep</strong></font></div></div></div>","null","ARRAY","2","trustrating_stim/white_mw092.bmp,trustrating_stim/white_mw085.bmp","1,0","noMatchFace","i","3000","","","","",""
"html-keyboard-response","82","291488","0.0-7.0-3.9","60fdbd3afcd943b7119d6f4a","bdp_wmem","Wed Mar 15 2023 14:02:12 GMT-0500 (Central Daylight Time)","662136","Match,No Match","","null","","","","","","<div class='trialBorder'><div class='vertical-center'><img src='img/fixation2_sml.jpg'</img></div></div>","null","DELAY","","","","","","","","","","",""
"html-keyboard-response","83","292418","0.0-7.0-4.9","60fdbd3afcd943b7119d6f4a","bdp_wmem","Wed Mar 15 2023 14:02:12 GMT-0500 (Central Daylight Time)","662136","Match,No Match","","929","","","","","","<div class='trialBorder'><div class='targDiv'><div class='tc'><img class='introPic' src='trustrating_stim/white_mw038.bmp'><br><font color='red'><strong>Keep</strong></font></div></div><div class='respDiv'><div class='respDivL'>Match<br>(e)</div><div class='respDivR'>No Match<br>(i)</div></div></div>","i","TARGET","2","trustrating_stim/white_mw092.bmp,trustrating_stim/white_mw085.bmp","1,0","noMatchFace","i","3000","trustrating_stim/white_mw038.bmp","red","Keep","REAL","1"
"html-keyboard-response","84","292919","0.0-7.0-5.9","60fdbd3afcd943b7119d6f4a","bdp_wmem","Wed Mar 15 2023 14:02:12 GMT-0500 (Central Daylight Time)","662136","Match,No Match","","null","","","","","","<div class='trialBorder'><div class='vertical-center'><img src='img/correct.jpg'></div><div class='respDiv'><div class='respDivL'>Match<br>(e)</div><div class='respDivR'><font style='color:orange'>No Match<br>(i)</font></div></div></div>","null","FEEDBACK","","","","","","","","","","",""
"html-keyboard-response","85","293426","0.0-7.0-1.10","60fdbd3afcd943b7119d6f4a","bdp_wmem","Wed Mar 15 2023 14:02:12 GMT-0500 (Central Daylight Time)","662136","Match,No Match","","null","","","","","","<div class='trialBorder'><div class='vertical-center'><img src='img/fixation2_sml.jpg'</img></div></div>","null","FIX","","","","","","","","","","",""
"html-keyboard-response","86","297936","0.0-7.0-2.10","60fdbd3afcd943b7119d6f4a","bdp_wmem","Wed Mar 15 2023 14:02:12 GMT-0500 (Central Daylight Time)","662136","Match,No Match","","null","","","","","","<div class='trialBorder'><div class='vertical-center'><img style='vertical-align:center; align:center' src='img/fixation2_sml.jpg'></div><div class='arrayDiv3'><div class='tl'><img class='introPic' src='trustrating_stim/white_mw092.bmp'><br><font color='red'><strong>Keep</strong></font></div><div class='tc'><img class='introPic' src='trustrating_stim/white_mw085.bmp'><br><font color='red'><strong>Keep</strong></font></div><div class='tr'><img class='introPic' src='trustrating_stim/white_mw040.bmp'><br><font color='green'><strong>Share</strong></font></div></div></div>","null","ARRAY","3","trustrating_stim/white_mw092.bmp,trustrating_stim/white_mw085.bmp,trustrating_stim/white_mw040.bmp","0,0,1","noMatchOutcome","i","4500","","","","",""
"html-keyboard-response","87","301943","0.0-7.0-3.10","60fdbd3afcd943b7119d6f4a","bdp_wmem","Wed Mar 15 2023 14:02:12 GMT-0500 (Central Daylight Time)","662136","Match,No Match","","null","","","","","","<div class='trialBorder'><div class='vertical-center'><img src='img/fixation2_sml.jpg'</img></div></div>","null","DELAY","","","","","","","","","","",""
"html-keyboard-response","88","304142","0.0-7.0-4.10","60fdbd3afcd943b7119d6f4a","bdp_wmem","Wed Mar 15 2023 14:02:12 GMT-0500 (Central Daylight Time)","662136","Match,No Match","","2198","","","","","","<div class='trialBorder'><div class='targDiv'><div class='tc'><img class='introPic' src='trustrating_stim/white_mw085.bmp'><br><font color='green'><strong>Share</strong></font></div></div><div class='respDiv'><div class='respDivL'>Match<br>(e)</div><div class='respDivR'>No Match<br>(i)</div></div></div>","i","TARGET","3","trustrating_stim/white_mw092.bmp,trustrating_stim/white_mw085.bmp,trustrating_stim/white_mw040.bmp","0,0,1","noMatchOutcome","i","4500","trustrating_stim/white_mw085.bmp","green","Share","REAL","1"
"html-keyboard-response","89","304651","0.0-7.0-5.10","60fdbd3afcd943b7119d6f4a","bdp_wmem","Wed Mar 15 2023 14:02:12 GMT-0500 (Central Daylight Time)","662136","Match,No Match","","null","","","","","","<div class='trialBorder'><div class='vertical-center'><img src='img/correct.jpg'></div><div class='respDiv'><div class='respDivL'>Match<br>(e)</div><div class='respDivR'><font style='color:orange'>No Match<br>(i)</font></div></div></div>","null","FEEDBACK","","","","","","","","","","",""
"html-keyboard-response","90","305154","0.0-7.0-1.11","60fdbd3afcd943b7119d6f4a","bdp_wmem","Wed Mar 15 2023 14:02:12 GMT-0500 (Central Daylight Time)","662136","Match,No Match","","null","","","","","","<div class='trialBorder'><div class='vertical-center'><img src='img/fixation2_sml.jpg'</img></div></div>","null","FIX","","","","","","","","","","",""
"html-keyboard-response","91","306667","0.0-7.0-2.11","60fdbd3afcd943b7119d6f4a","bdp_wmem","Wed Mar 15 2023 14:02:12 GMT-0500 (Central Daylight Time)","662136","Match,No Match","","null","","","","","","<div class='trialBorder'><div class='vertical-center'><img style='vertical-align:center; align:center' src='img/fixation2_sml.jpg'></div><div class='arrayDiv1'><div class='tc'><img class='introPic' src='trustrating_stim/white_mw092.bmp'><br><font color='red'><strong>Keep</strong></font></div></div></div>","null","ARRAY","1","trustrating_stim/white_mw092.bmp","0","noMatchOutcome","i","1500","","","","",""
"html-keyboard-response","92","310673","0.0-7.0-3.11","60fdbd3afcd943b7119d6f4a","bdp_wmem","Wed Mar 15 2023 14:02:12 GMT-0500 (Central Daylight Time)","662136","Match,No Match","","null","","","","","","<div class='trialBorder'><div class='vertical-center'><img src='img/fixation2_sml.jpg'</img></div></div>","null","DELAY","","","","","","","","","","",""
"html-keyboard-response","93","314792","0.0-7.0-4.11","60fdbd3afcd943b7119d6f4a","bdp_wmem","Wed Mar 15 2023 14:02:12 GMT-0500 (Central Daylight Time)","662136","Match,No Match","","4118","","","","","","<div class='trialBorder'><div class='targDiv'><div class='tc'><img class='introPic' src='trustrating_stim/white_mw092.bmp'><br><font color='green'><strong>Share</strong></font></div></div><div class='respDiv'><div class='respDivL'>Match<br>(e)</div><div class='respDivR'>No Match<br>(i)</div></div></div>","i","TARGET","1","trustrating_stim/white_mw092.bmp","0","noMatchOutcome","i","1500","trustrating_stim/white_mw092.bmp","green","Share","REAL","1"
"html-keyboard-response","94","315298","0.0-7.0-5.11","60fdbd3afcd943b7119d6f4a","bdp_wmem","Wed Mar 15 2023 14:02:12 GMT-0500 (Central Daylight Time)","662136","Match,No Match","","null","","","","","","<div class='trialBorder'><div class='vertical-center'><img src='img/correct.jpg'></div><div class='respDiv'><div class='respDivL'>Match<br>(e)</div><div class='respDivR'><font style='color:orange'>No Match<br>(i)</font></div></div></div>","null","FEEDBACK","","","","","","","","","","",""
"html-keyboard-response","95","315804","0.0-7.0-1.12","60fdbd3afcd943b7119d6f4a","bdp_wmem","Wed Mar 15 2023 14:02:12 GMT-0500 (Central Daylight Time)","662136","Match,No Match","","null","","","","","","<div class='trialBorder'><div class='vertical-center'><img src='img/fixation2_sml.jpg'</img></div></div>","null","FIX","","","","","","","","","","",""
"html-keyboard-response","96","318811","0.0-7.0-2.12","60fdbd3afcd943b7119d6f4a","bdp_wmem","Wed Mar 15 2023 14:02:12 GMT-0500 (Central Daylight Time)","662136","Match,No Match","","null","","","","","","<div class='trialBorder'><div class='vertical-center'><img style='vertical-align:center; align:center' src='img/fixation2_sml.jpg'></div><div class='arrayDiv2'><div class='tl'><img class='introPic' src='trustrating_stim/white_mw003.bmp'><br><font color='red'><strong>Keep</strong></font></div><div class='tr'><img class='introPic' src='trustrating_stim/white_mw012.bmp'><br><font color='green'><strong>Share</strong></font></div></div></div>","null","ARRAY","2","trustrating_stim/white_mw003.bmp,trustrating_stim/white_mw012.bmp","0,1","noMatchOutcome","i","3000","","","","",""
"html-keyboard-response","97","322817","0.0-7.0-3.12","60fdbd3afcd943b7119d6f4a","bdp_wmem","Wed Mar 15 2023 14:02:12 GMT-0500 (Central Daylight Time)","662136","Match,No Match","","null","","","","","","<div class='trialBorder'><div class='vertical-center'><img src='img/fixation2_sml.jpg'</img></div></div>","null","DELAY","","","","","","","","","","",""
"html-keyboard-response","98","324500","0.0-7.0-4.12","60fdbd3afcd943b7119d6f4a","bdp_wmem","Wed Mar 15 2023 14:02:12 GMT-0500 (Central Daylight Time)","662136","Match,No Match","","1682","","","","","","<div class='trialBorder'><div class='targDiv'><div class='tc'><img class='introPic' src='trustrating_stim/white_mw003.bmp'><br><font color='green'><strong>Share</strong></font></div></div><div class='respDiv'><div class='respDivL'>Match<br>(e)</div><div class='respDivR'>No Match<br>(i)</div></div></div>","i","TARGET","2","trustrating_stim/white_mw003.bmp,trustrating_stim/white_mw012.bmp","0,1","noMatchOutcome","i","3000","trustrating_stim/white_mw003.bmp","green","Share","REAL","1"
"html-keyboard-response","99","325008","0.0-7.0-5.12","60fdbd3afcd943b7119d6f4a","bdp_wmem","Wed Mar 15 2023 14:02:12 GMT-0500 (Central Daylight Time)","662136","Match,No Match","","null","","","","","","<div class='trialBorder'><div class='vertical-center'><img src='img/correct.jpg'></div><div class='respDiv'><div class='respDivL'>Match<br>(e)</div><div class='respDivR'><font style='color:orange'>No Match<br>(i)</font></div></div></div>","null","FEEDBACK","","","","","","","","","","",""
"html-keyboard-response","100","325515","0.0-7.0-1.13","60fdbd3afcd943b7119d6f4a","bdp_wmem","Wed Mar 15 2023 14:02:12 GMT-0500 (Central Daylight Time)","662136","Match,No Match","","null","","","","","","<div class='trialBorder'><div class='vertical-center'><img src='img/fixation2_sml.jpg'</img></div></div>","null","FIX","","","","","","","","","","",""
"html-keyboard-response","101","330017","0.0-7.0-2.13","60fdbd3afcd943b7119d6f4a","bdp_wmem","Wed Mar 15 2023 14:02:12 GMT-0500 (Central Daylight Time)","662136","Match,No Match","","null","","","","","","<div class='trialBorder'><div class='vertical-center'><img style='vertical-align:center; align:center' src='img/fixation2_sml.jpg'></div><div class='arrayDiv3'><div class='tl'><img class='introPic' src='trustrating_stim/white_mw042.bmp'><br><font color='red'><strong>Keep</strong></font></div><div class='tc'><img class='introPic' src='trustrating_stim/white_mw012.bmp'><br><font color='green'><strong>Share</strong></font></div><div class='tr'><img class='introPic' src='trustrating_stim/white_mw070.bmp'><br><font color='red'><strong>Keep</strong></font></div></div></div>","null","ARRAY","3","trustrating_stim/white_mw042.bmp,trustrating_stim/white_mw012.bmp,trustrating_stim/white_mw070.bmp","0,1,0","Match","e","4500","","","","",""
"html-keyboard-response","102","334023","0.0-7.0-3.13","60fdbd3afcd943b7119d6f4a","bdp_wmem","Wed Mar 15 2023 14:02:12 GMT-0500 (Central Daylight Time)","662136","Match,No Match","","null","","","","","","<div class='trialBorder'><div class='vertical-center'><img src='img/fixation2_sml.jpg'</img></div></div>","null","DELAY","","","","","","","","","","",""
"html-keyboard-response","103","338085","0.0-7.0-4.13","60fdbd3afcd943b7119d6f4a","bdp_wmem","Wed Mar 15 2023 14:02:12 GMT-0500 (Central Daylight Time)","662136","Match,No Match","","4061","","","","","","<div class='trialBorder'><div class='targDiv'><div class='tc'><img class='introPic' src='trustrating_stim/white_mw012.bmp'><br><font color='green'><strong>Share</strong></font></div></div><div class='respDiv'><div class='respDivL'>Match<br>(e)</div><div class='respDivR'>No Match<br>(i)</div></div></div>","e","TARGET","3","trustrating_stim/white_mw042.bmp,trustrating_stim/white_mw012.bmp,trustrating_stim/white_mw070.bmp","0,1,0","Match","e","4500","trustrating_stim/white_mw012.bmp","green","Share","REAL","1"
"html-keyboard-response","104","338593","0.0-7.0-5.13","60fdbd3afcd943b7119d6f4a","bdp_wmem","Wed Mar 15 2023 14:02:12 GMT-0500 (Central Daylight Time)","662136","Match,No Match","","null","","","","","","<div class='trialBorder'><div class='vertical-center'><img src='img/correct.jpg'></div><div class='respDiv'><div class='respDivL'><font style='color:orange'>Match<br>(e)</font></div><div class='respDivR'>No Match<br>(i)</div></div></div>","null","FEEDBACK","","","","","","","","","","",""
"html-keyboard-response","105","339095","0.0-7.0-1.14","60fdbd3afcd943b7119d6f4a","bdp_wmem","Wed Mar 15 2023 14:02:12 GMT-0500 (Central Daylight Time)","662136","Match,No Match","","null","","","","","","<div class='trialBorder'><div class='vertical-center'><img src='img/fixation2_sml.jpg'</img></div></div>","null","FIX","","","","","","","","","","",""
"html-keyboard-response","106","342107","0.0-7.0-2.14","60fdbd3afcd943b7119d6f4a","bdp_wmem","Wed Mar 15 2023 14:02:12 GMT-0500 (Central Daylight Time)","662136","Match,No Match","","null","","","","","","<div class='trialBorder'><div class='vertical-center'><img style='vertical-align:center; align:center' src='img/fixation2_sml.jpg'></div><div class='arrayDiv2'><div class='tl'><img class='introPic' src='trustrating_stim/white_mw012.bmp'><br><font color='red'><strong>Keep</strong></font></div><div class='tr'><img class='introPic' src='trustrating_stim/white_mw040.bmp'><br><font color='green'><strong>Share</strong></font></div></div></div>","null","ARRAY","2","trustrating_stim/white_mw012.bmp,trustrating_stim/white_mw040.bmp","0,1","Match","e","3000","","","","",""
"html-keyboard-response","107","346114","0.0-7.0-3.14","60fdbd3afcd943b7119d6f4a","bdp_wmem","Wed Mar 15 2023 14:02:12 GMT-0500 (Central Daylight Time)","662136","Match,No Match","","null","","","","","","<div class='trialBorder'><div class='vertical-center'><img src='img/fixation2_sml.jpg'</img></div></div>","null","DELAY","","","","","","","","","","",""
"html-keyboard-response","108","347297","0.0-7.0-4.14","60fdbd3afcd943b7119d6f4a","bdp_wmem","Wed Mar 15 2023 14:02:12 GMT-0500 (Central Daylight Time)","662136","Match,No Match","","1181","","","","","","<div class='trialBorder'><div class='targDiv'><div class='tc'><img class='introPic' src='trustrating_stim/white_mw012.bmp'><br><font color='red'><strong>Keep</strong></font></div></div><div class='respDiv'><div class='respDivL'>Match<br>(e)</div><div class='respDivR'>No Match<br>(i)</div></div></div>","e","TARGET","2","trustrating_stim/white_mw012.bmp,trustrating_stim/white_mw040.bmp","0,1","Match","e","3000","trustrating_stim/white_mw012.bmp","red","Keep","REAL","1"
"html-keyboard-response","109","347799","0.0-7.0-5.14","60fdbd3afcd943b7119d6f4a","bdp_wmem","Wed Mar 15 2023 14:02:12 GMT-0500 (Central Daylight Time)","662136","Match,No Match","","null","","","","","","<div class='trialBorder'><div class='vertical-center'><img src='img/correct.jpg'></div><div class='respDiv'><div class='respDivL'><font style='color:orange'>Match<br>(e)</font></div><div class='respDivR'>No Match<br>(i)</div></div></div>","null","FEEDBACK","","","","","","","","","","",""
"html-keyboard-response","110","348308","0.0-7.0-1.15","60fdbd3afcd943b7119d6f4a","bdp_wmem","Wed Mar 15 2023 14:02:12 GMT-0500 (Central Daylight Time)","662136","Match,No Match","","null","","","","","","<div class='trialBorder'><div class='vertical-center'><img src='img/fixation2_sml.jpg'</img></div></div>","null","FIX","","","","","","","","","","",""
"html-keyboard-response","111","349816","0.0-7.0-2.15","60fdbd3afcd943b7119d6f4a","bdp_wmem","Wed Mar 15 2023 14:02:12 GMT-0500 (Central Daylight Time)","662136","Match,No Match","","null","","","","","","<div class='trialBorder'><div class='vertical-center'><img style='vertical-align:center; align:center' src='img/fixation2_sml.jpg'></div><div class='arrayDiv1'><div class='tc'><img class='introPic' src='trustrating_stim/white_mw042.bmp'><br><font color='red'><strong>Keep</strong></font></div></div></div>","null","ARRAY","1","trustrating_stim/white_mw042.bmp","0","Match","e","1500","","","","",""
"html-keyboard-response","112","353824","0.0-7.0-3.15","60fdbd3afcd943b7119d6f4a","bdp_wmem","Wed Mar 15 2023 14:02:12 GMT-0500 (Central Daylight Time)","662136","Match,No Match","","null","","","","","","<div class='trialBorder'><div class='vertical-center'><img src='img/fixation2_sml.jpg'</img></div></div>","null","DELAY","","","","","","","","","","",""
"html-keyboard-response","113","355050","0.0-7.0-4.15","60fdbd3afcd943b7119d6f4a","bdp_wmem","Wed Mar 15 2023 14:02:12 GMT-0500 (Central Daylight Time)","662136","Match,No Match","","1225","","","","","","<div class='trialBorder'><div class='targDiv'><div class='tc'><img class='introPic' src='trustrating_stim/white_mw042.bmp'><br><font color='red'><strong>Keep</strong></font></div></div><div class='respDiv'><div class='respDivL'>Match<br>(e)</div><div class='respDivR'>No Match<br>(i)</div></div></div>","e","TARGET","1","trustrating_stim/white_mw042.bmp","0","Match","e","1500","trustrating_stim/white_mw042.bmp","red","Keep","REAL","1"
"html-keyboard-response","114","355554","0.0-7.0-5.15","60fdbd3afcd943b7119d6f4a","bdp_wmem","Wed Mar 15 2023 14:02:12 GMT-0500 (Central Daylight Time)","662136","Match,No Match","","null","","","","","","<div class='trialBorder'><div class='vertical-center'><img src='img/correct.jpg'></div><div class='respDiv'><div class='respDivL'><font style='color:orange'>Match<br>(e)</font></div><div class='respDivR'>No Match<br>(i)</div></div></div>","null","FEEDBACK","","","","","","","","","","",""
"html-keyboard-response","115","356059","0.0-7.0-1.16","60fdbd3afcd943b7119d6f4a","bdp_wmem","Wed Mar 15 2023 14:02:12 GMT-0500 (Central Daylight Time)","662136","Match,No Match","","null","","","","","","<div class='trialBorder'><div class='vertical-center'><img src='img/fixation2_sml.jpg'</img></div></div>","null","FIX","","","","","","","","","","",""
"html-keyboard-response","116","359063","0.0-7.0-2.16","60fdbd3afcd943b7119d6f4a","bdp_wmem","Wed Mar 15 2023 14:02:12 GMT-0500 (Central Daylight Time)","662136","Match,No Match","","null","","","","","","<div class='trialBorder'><div class='vertical-center'><img style='vertical-align:center; align:center' src='img/fixation2_sml.jpg'></div><div class='arrayDiv2'><div class='tl'><img class='introPic' src='trustrating_stim/white_mw091.bmp'><br><font color='green'><strong>Share</strong></font></div><div class='tr'><img class='introPic' src='trustrating_stim/white_mw013.bmp'><br><font color='red'><strong>Keep</strong></font></div></div></div>","null","ARRAY","2","trustrating_stim/white_mw091.bmp,trustrating_stim/white_mw013.bmp","1,0","Match","e","3000","","","","",""
"html-keyboard-response","117","363074","0.0-7.0-3.16","60fdbd3afcd943b7119d6f4a","bdp_wmem","Wed Mar 15 2023 14:02:12 GMT-0500 (Central Daylight Time)","662136","Match,No Match","","null","","","","","","<div class='trialBorder'><div class='vertical-center'><img src='img/fixation2_sml.jpg'</img></div></div>","null","DELAY","","","","","","","","","","",""
"html-keyboard-response","118","364159","0.0-7.0-4.16","60fdbd3afcd943b7119d6f4a","bdp_wmem","Wed Mar 15 2023 14:02:12 GMT-0500 (Central Daylight Time)","662136","Match,No Match","","1084","","","","","","<div class='trialBorder'><div class='targDiv'><div class='tc'><img class='introPic' src='trustrating_stim/white_mw091.bmp'><br><font color='green'><strong>Share</strong></font></div></div><div class='respDiv'><div class='respDivL'>Match<br>(e)</div><div class='respDivR'>No Match<br>(i)</div></div></div>","e","TARGET","2","trustrating_stim/white_mw091.bmp,trustrating_stim/white_mw013.bmp","1,0","Match","e","3000","trustrating_stim/white_mw091.bmp","green","Share","REAL","1"
"html-keyboard-response","119","364664","0.0-7.0-5.16","60fdbd3afcd943b7119d6f4a","bdp_wmem","Wed Mar 15 2023 14:02:12 GMT-0500 (Central Daylight Time)","662136","Match,No Match","","null","","","","","","<div class='trialBorder'><div class='vertical-center'><img src='img/correct.jpg'></div><div class='respDiv'><div class='respDivL'><font style='color:orange'>Match<br>(e)</font></div><div class='respDivR'>No Match<br>(i)</div></div></div>","null","FEEDBACK","","","","","","","","","","",""
"html-keyboard-response","120","365169","0.0-7.0-1.17","60fdbd3afcd943b7119d6f4a","bdp_wmem","Wed Mar 15 2023 14:02:12 GMT-0500 (Central Daylight Time)","662136","Match,No Match","","null","","","","","","<div class='trialBorder'><div class='vertical-center'><img src='img/fixation2_sml.jpg'</img></div></div>","null","FIX","","","","","","","","","","",""
"html-keyboard-response","121","366676","0.0-7.0-2.17","60fdbd3afcd943b7119d6f4a","bdp_wmem","Wed Mar 15 2023 14:02:12 GMT-0500 (Central Daylight Time)","662136","Match,No Match","","null","","","","","","<div class='trialBorder'><div class='vertical-center'><img style='vertical-align:center; align:center' src='img/fixation2_sml.jpg'></div><div class='arrayDiv1'><div class='tc'><img class='introPic' src='trustrating_stim/white_mw042.bmp'><br><font color='green'><strong>Share</strong></font></div></div></div>","null","ARRAY","1","trustrating_stim/white_mw042.bmp","1","Match","e","1500","","","","",""
"html-keyboard-response","122","370679","0.0-7.0-3.17","60fdbd3afcd943b7119d6f4a","bdp_wmem","Wed Mar 15 2023 14:02:12 GMT-0500 (Central Daylight Time)","662136","Match,No Match","","null","","","","","","<div class='trialBorder'><div class='vertical-center'><img src='img/fixation2_sml.jpg'</img></div></div>","null","DELAY","","","","","","","","","","",""
"html-keyboard-response","123","371421","0.0-7.0-4.17","60fdbd3afcd943b7119d6f4a","bdp_wmem","Wed Mar 15 2023 14:02:12 GMT-0500 (Central Daylight Time)","662136","Match,No Match","","741","","","","","","<div class='trialBorder'><div class='targDiv'><div class='tc'><img class='introPic' src='trustrating_stim/white_mw042.bmp'><br><font color='green'><strong>Share</strong></font></div></div><div class='respDiv'><div class='respDivL'>Match<br>(e)</div><div class='respDivR'>No Match<br>(i)</div></div></div>","e","TARGET","1","trustrating_stim/white_mw042.bmp","1","Match","e","1500","trustrating_stim/white_mw042.bmp","green","Share","REAL","1"
"html-keyboard-response","124","371931","0.0-7.0-5.17","60fdbd3afcd943b7119d6f4a","bdp_wmem","Wed Mar 15 2023 14:02:12 GMT-0500 (Central Daylight Time)","662136","Match,No Match","","null","","","","","","<div class='trialBorder'><div class='vertical-center'><img src='img/correct.jpg'></div><div class='respDiv'><div class='respDivL'><font style='color:orange'>Match<br>(e)</font></div><div class='respDivR'>No Match<br>(i)</div></div></div>","null","FEEDBACK","","","","","","","","","","",""
"html-keyboard-response","125","372440","0.0-7.0-1.18","60fdbd3afcd943b7119d6f4a","bdp_wmem","Wed Mar 15 2023 14:02:12 GMT-0500 (Central Daylight Time)","662136","Match,No Match","","null","","","","","","<div class='trialBorder'><div class='vertical-center'><img src='img/fixation2_sml.jpg'</img></div></div>","null","FIX","","","","","","","","","","",""
"html-keyboard-response","126","373947","0.0-7.0-2.18","60fdbd3afcd943b7119d6f4a","bdp_wmem","Wed Mar 15 2023 14:02:12 GMT-0500 (Central Daylight Time)","662136","Match,No Match","","null","","","","","","<div class='trialBorder'><div class='vertical-center'><img style='vertical-align:center; align:center' src='img/fixation2_sml.jpg'></div><div class='arrayDiv1'><div class='tc'><img class='introPic' src='trustrating_stim/white_mw085.bmp'><br><font color='red'><strong>Keep</strong></font></div></div></div>","null","ARRAY","1","trustrating_stim/white_mw085.bmp","0","Match","e","1500","","","","",""
"html-keyboard-response","127","377962","0.0-7.0-3.18","60fdbd3afcd943b7119d6f4a","bdp_wmem","Wed Mar 15 2023 14:02:12 GMT-0500 (Central Daylight Time)","662136","Match,No Match","","null","","","","","","<div class='trialBorder'><div class='vertical-center'><img src='img/fixation2_sml.jpg'</img></div></div>","null","DELAY","","","","","","","","","","",""
"html-keyboard-response","128","378919","0.0-7.0-4.18","60fdbd3afcd943b7119d6f4a","bdp_wmem","Wed Mar 15 2023 14:02:12 GMT-0500 (Central Daylight Time)","662136","Match,No Match","","956","","","","","","<div class='trialBorder'><div class='targDiv'><div class='tc'><img class='introPic' src='trustrating_stim/white_mw085.bmp'><br><font color='red'><strong>Keep</strong></font></div></div><div class='respDiv'><div class='respDivL'>Match<br>(e)</div><div class='respDivR'>No Match<br>(i)</div></div></div>","e","TARGET","1","trustrating_stim/white_mw085.bmp","0","Match","e","1500","trustrating_stim/white_mw085.bmp","red","Keep","REAL","1"
"html-keyboard-response","129","379424","0.0-7.0-5.18","60fdbd3afcd943b7119d6f4a","bdp_wmem","Wed Mar 15 2023 14:02:12 GMT-0500 (Central Daylight Time)","662136","Match,No Match","","null","","","","","","<div class='trialBorder'><div class='vertical-center'><img src='img/correct.jpg'></div><div class='respDiv'><div class='respDivL'><font style='color:orange'>Match<br>(e)</font></div><div class='respDivR'>No Match<br>(i)</div></div></div>","null","FEEDBACK","","","","","","","","","","",""
"html-keyboard-response","130","379931","0.0-7.0-1.19","60fdbd3afcd943b7119d6f4a","bdp_wmem","Wed Mar 15 2023 14:02:12 GMT-0500 (Central Daylight Time)","662136","Match,No Match","","null","","","","","","<div class='trialBorder'><div class='vertical-center'><img src='img/fixation2_sml.jpg'</img></div></div>","null","FIX","","","","","","","","","","",""
"html-keyboard-response","131","382939","0.0-7.0-2.19","60fdbd3afcd943b7119d6f4a","bdp_wmem","Wed Mar 15 2023 14:02:12 GMT-0500 (Central Daylight Time)","662136","Match,No Match","","null","","","","","","<div class='trialBorder'><div class='vertical-center'><img style='vertical-align:center; align:center' src='img/fixation2_sml.jpg'></div><div class='arrayDiv2'><div class='tl'><img class='introPic' src='trustrating_stim/white_mw003.bmp'><br><font color='green'><strong>Share</strong></font></div><div class='tr'><img class='introPic' src='trustrating_stim/white_mw042.bmp'><br><font color='red'><strong>Keep</strong></font></div></div></div>","null","ARRAY","2","trustrating_stim/white_mw003.bmp,trustrating_stim/white_mw042.bmp","1,0","Match","e","3000","","","","",""
"html-keyboard-response","132","386946","0.0-7.0-3.19","60fdbd3afcd943b7119d6f4a","bdp_wmem","Wed Mar 15 2023 14:02:12 GMT-0500 (Central Daylight Time)","662136","Match,No Match","","null","","","","","","<div class='trialBorder'><div class='vertical-center'><img src='img/fixation2_sml.jpg'</img></div></div>","null","DELAY","","","","","","","","","","",""
"html-keyboard-response","133","388160","0.0-7.0-4.19","60fdbd3afcd943b7119d6f4a","bdp_wmem","Wed Mar 15 2023 14:02:12 GMT-0500 (Central Daylight Time)","662136","Match,No Match","","1213","","","","","","<div class='trialBorder'><div class='targDiv'><div class='tc'><img class='introPic' src='trustrating_stim/white_mw042.bmp'><br><font color='red'><strong>Keep</strong></font></div></div><div class='respDiv'><div class='respDivL'>Match<br>(e)</div><div class='respDivR'>No Match<br>(i)</div></div></div>","e","TARGET","2","trustrating_stim/white_mw003.bmp,trustrating_stim/white_mw042.bmp","1,0","Match","e","3000","trustrating_stim/white_mw042.bmp","red","Keep","REAL","1"
"html-keyboard-response","134","388664","0.0-7.0-5.19","60fdbd3afcd943b7119d6f4a","bdp_wmem","Wed Mar 15 2023 14:02:12 GMT-0500 (Central Daylight Time)","662136","Match,No Match","","null","","","","","","<div class='trialBorder'><div class='vertical-center'><img src='img/correct.jpg'></div><div class='respDiv'><div class='respDivL'><font style='color:orange'>Match<br>(e)</font></div><div class='respDivR'>No Match<br>(i)</div></div></div>","null","FEEDBACK","","","","","","","","","","",""
"html-keyboard-response","135","389168","0.0-7.0-1.20","60fdbd3afcd943b7119d6f4a","bdp_wmem","Wed Mar 15 2023 14:02:12 GMT-0500 (Central Daylight Time)","662136","Match,No Match","","null","","","","","","<div class='trialBorder'><div class='vertical-center'><img src='img/fixation2_sml.jpg'</img></div></div>","null","FIX","","","","","","","","","","",""
"html-keyboard-response","136","390673","0.0-7.0-2.20","60fdbd3afcd943b7119d6f4a","bdp_wmem","Wed Mar 15 2023 14:02:12 GMT-0500 (Central Daylight Time)","662136","Match,No Match","","null","","","","","","<div class='trialBorder'><div class='vertical-center'><img style='vertical-align:center; align:center' src='img/fixation2_sml.jpg'></div><div class='arrayDiv1'><div class='tc'><img class='introPic' src='trustrating_stim/white_mw085.bmp'><br><font color='red'><strong>Keep</strong></font></div></div></div>","null","ARRAY","1","trustrating_stim/white_mw085.bmp","0","Match","e","1500","","","","",""
"html-keyboard-response","137","394680","0.0-7.0-3.20","60fdbd3afcd943b7119d6f4a","bdp_wmem","Wed Mar 15 2023 14:02:12 GMT-0500 (Central Daylight Time)","662136","Match,No Match","","null","","","","","","<div class='trialBorder'><div class='vertical-center'><img src='img/fixation2_sml.jpg'</img></div></div>","null","DELAY","","","","","","","","","","",""
"html-keyboard-response","138","395824","0.0-7.0-4.20","60fdbd3afcd943b7119d6f4a","bdp_wmem","Wed Mar 15 2023 14:02:12 GMT-0500 (Central Daylight Time)","662136","Match,No Match","","1144","","","","","","<div class='trialBorder'><div class='targDiv'><div class='tc'><img class='introPic' src='trustrating_stim/white_mw085.bmp'><br><font color='red'><strong>Keep</strong></font></div></div><div class='respDiv'><div class='respDivL'>Match<br>(e)</div><div class='respDivR'>No Match<br>(i)</div></div></div>","e","TARGET","1","trustrating_stim/white_mw085.bmp","0","Match","e","1500","trustrating_stim/white_mw085.bmp","red","Keep","REAL","1"
"html-keyboard-response","139","396331","0.0-7.0-5.20","60fdbd3afcd943b7119d6f4a","bdp_wmem","Wed Mar 15 2023 14:02:12 GMT-0500 (Central Daylight Time)","662136","Match,No Match","","null","","","","","","<div class='trialBorder'><div class='vertical-center'><img src='img/correct.jpg'></div><div class='respDiv'><div class='respDivL'><font style='color:orange'>Match<br>(e)</font></div><div class='respDivR'>No Match<br>(i)</div></div></div>","null","FEEDBACK","","","","","","","","","","",""
"html-keyboard-response","140","396843","0.0-7.0-1.21","60fdbd3afcd943b7119d6f4a","bdp_wmem","Wed Mar 15 2023 14:02:12 GMT-0500 (Central Daylight Time)","662136","Match,No Match","","null","","","","","","<div class='trialBorder'><div class='vertical-center'><img src='img/fixation2_sml.jpg'</img></div></div>","null","FIX","","","","","","","","","","",""
"html-keyboard-response","141","401355","0.0-7.0-2.21","60fdbd3afcd943b7119d6f4a","bdp_wmem","Wed Mar 15 2023 14:02:12 GMT-0500 (Central Daylight Time)","662136","Match,No Match","","null","","","","","","<div class='trialBorder'><div class='vertical-center'><img style='vertical-align:center; align:center' src='img/fixation2_sml.jpg'></div><div class='arrayDiv3'><div class='tl'><img class='introPic' src='trustrating_stim/white_mw038.bmp'><br><font color='red'><strong>Keep</strong></font></div><div class='tc'><img class='introPic' src='trustrating_stim/white_mw085.bmp'><br><font color='green'><strong>Share</strong></font></div><div class='tr'><img class='introPic' src='trustrating_stim/white_mw070.bmp'><br><font color='green'><strong>Share</strong></font></div></div></div>","null","ARRAY","3","trustrating_stim/white_mw038.bmp,trustrating_stim/white_mw085.bmp,trustrating_stim/white_mw070.bmp","0,1,1","noMatchOutcome","i","4500","","","","",""
"html-keyboard-response","142","405362","0.0-7.0-3.21","60fdbd3afcd943b7119d6f4a","bdp_wmem","Wed Mar 15 2023 14:02:12 GMT-0500 (Central Daylight Time)","662136","Match,No Match","","null","","","","","","<div class='trialBorder'><div class='vertical-center'><img src='img/fixation2_sml.jpg'</img></div></div>","null","DELAY","","","","","","","","","","",""
"html-keyboard-response","143","407484","0.0-7.0-4.21","60fdbd3afcd943b7119d6f4a","bdp_wmem","Wed Mar 15 2023 14:02:12 GMT-0500 (Central Daylight Time)","662136","Match,No Match","","2121","","","","","","<div class='trialBorder'><div class='targDiv'><div class='tc'><img class='introPic' src='trustrating_stim/white_mw038.bmp'><br><font color='green'><strong>Share</strong></font></div></div><div class='respDiv'><div class='respDivL'>Match<br>(e)</div><div class='respDivR'>No Match<br>(i)</div></div></div>","i","TARGET","3","trustrating_stim/white_mw038.bmp,trustrating_stim/white_mw085.bmp,trustrating_stim/white_mw070.bmp","0,1,1","noMatchOutcome","i","4500","trustrating_stim/white_mw038.bmp","green","Share","REAL","1"
"html-keyboard-response","144","407995","0.0-7.0-5.21","60fdbd3afcd943b7119d6f4a","bdp_wmem","Wed Mar 15 2023 14:02:12 GMT-0500 (Central Daylight Time)","662136","Match,No Match","","null","","","","","","<div class='trialBorder'><div class='vertical-center'><img src='img/correct.jpg'></div><div class='respDiv'><div class='respDivL'>Match<br>(e)</div><div class='respDivR'><font style='color:orange'>No Match<br>(i)</font></div></div></div>","null","FEEDBACK","","","","","","","","","","",""
"html-keyboard-response","145","408505","0.0-7.0-1.22","60fdbd3afcd943b7119d6f4a","bdp_wmem","Wed Mar 15 2023 14:02:12 GMT-0500 (Central Daylight Time)","662136","Match,No Match","","null","","","","","","<div class='trialBorder'><div class='vertical-center'><img src='img/fixation2_sml.jpg'</img></div></div>","null","FIX","","","","","","","","","","",""
"html-keyboard-response","146","410012","0.0-7.0-2.22","60fdbd3afcd943b7119d6f4a","bdp_wmem","Wed Mar 15 2023 14:02:12 GMT-0500 (Central Daylight Time)","662136","Match,No Match","","null","","","","","","<div class='trialBorder'><div class='vertical-center'><img style='vertical-align:center; align:center' src='img/fixation2_sml.jpg'></div><div class='arrayDiv1'><div class='tc'><img class='introPic' src='trustrating_stim/white_mw010.bmp'><br><font color='red'><strong>Keep</strong></font></div></div></div>","null","ARRAY","1","trustrating_stim/white_mw010.bmp","0","Match","e","1500","","","","",""
"html-keyboard-response","147","414017","0.0-7.0-3.22","60fdbd3afcd943b7119d6f4a","bdp_wmem","Wed Mar 15 2023 14:02:12 GMT-0500 (Central Daylight Time)","662136","Match,No Match","","null","","","","","","<div class='trialBorder'><div class='vertical-center'><img src='img/fixation2_sml.jpg'</img></div></div>","null","DELAY","","","","","","","","","","",""
"html-keyboard-response","148","414905","0.0-7.0-4.22","60fdbd3afcd943b7119d6f4a","bdp_wmem","Wed Mar 15 2023 14:02:12 GMT-0500 (Central Daylight Time)","662136","Match,No Match","","887","","","","","","<div class='trialBorder'><div class='targDiv'><div class='tc'><img class='introPic' src='trustrating_stim/white_mw010.bmp'><br><font color='red'><strong>Keep</strong></font></div></div><div class='respDiv'><div class='respDivL'>Match<br>(e)</div><div class='respDivR'>No Match<br>(i)</div></div></div>","e","TARGET","1","trustrating_stim/white_mw010.bmp","0","Match","e","1500","trustrating_stim/white_mw010.bmp","red","Keep","REAL","1"
"html-keyboard-response","149","415412","0.0-7.0-5.22","60fdbd3afcd943b7119d6f4a","bdp_wmem","Wed Mar 15 2023 14:02:12 GMT-0500 (Central Daylight Time)","662136","Match,No Match","","null","","","","","","<div class='trialBorder'><div class='vertical-center'><img src='img/correct.jpg'></div><div class='respDiv'><div class='respDivL'><font style='color:orange'>Match<br>(e)</font></div><div class='respDivR'>No Match<br>(i)</div></div></div>","null","FEEDBACK","","","","","","","","","","",""
"html-keyboard-response","150","415922","0.0-7.0-1.23","60fdbd3afcd943b7119d6f4a","bdp_wmem","Wed Mar 15 2023 14:02:12 GMT-0500 (Central Daylight Time)","662136","Match,No Match","","null","","","","","","<div class='trialBorder'><div class='vertical-center'><img src='img/fixation2_sml.jpg'</img></div></div>","null","FIX","","","","","","","","","","",""
"html-keyboard-response","151","420433","0.0-7.0-2.23","60fdbd3afcd943b7119d6f4a","bdp_wmem","Wed Mar 15 2023 14:02:12 GMT-0500 (Central Daylight Time)","662136","Match,No Match","","null","","","","","","<div class='trialBorder'><div class='vertical-center'><img style='vertical-align:center; align:center' src='img/fixation2_sml.jpg'></div><div class='arrayDiv3'><div class='tl'><img class='introPic' src='trustrating_stim/white_mw070.bmp'><br><font color='green'><strong>Share</strong></font></div><div class='tc'><img class='introPic' src='trustrating_stim/white_mw013.bmp'><br><font color='red'><strong>Keep</strong></font></div><div class='tr'><img class='introPic' src='trustrating_stim/white_mw038.bmp'><br><font color='red'><strong>Keep</strong></font></div></div></div>","null","ARRAY","3","trustrating_stim/white_mw070.bmp,trustrating_stim/white_mw013.bmp,trustrating_stim/white_mw038.bmp","1,0,0","noMatchOutcome","i","4500","","","","",""
"html-keyboard-response","152","424440","0.0-7.0-3.23","60fdbd3afcd943b7119d6f4a","bdp_wmem","Wed Mar 15 2023 14:02:12 GMT-0500 (Central Daylight Time)","662136","Match,No Match","","null","","","","","","<div class='trialBorder'><div class='vertical-center'><img src='img/fixation2_sml.jpg'</img></div></div>","null","DELAY","","","","","","","","","","",""
"html-keyboard-response","153","426589","0.0-7.0-4.23","60fdbd3afcd943b7119d6f4a","bdp_wmem","Wed Mar 15 2023 14:02:12 GMT-0500 (Central Daylight Time)","662136","Match,No Match","","2148","","","","","","<div class='trialBorder'><div class='targDiv'><div class='tc'><img class='introPic' src='trustrating_stim/white_mw038.bmp'><br><font color='green'><strong>Share</strong></font></div></div><div class='respDiv'><div class='respDivL'>Match<br>(e)</div><div class='respDivR'>No Match<br>(i)</div></div></div>","i","TARGET","3","trustrating_stim/white_mw070.bmp,trustrating_stim/white_mw013.bmp,trustrating_stim/white_mw038.bmp","1,0,0","noMatchOutcome","i","4500","trustrating_stim/white_mw038.bmp","green","Share","REAL","1"
"html-keyboard-response","154","427096","0.0-7.0-5.23","60fdbd3afcd943b7119d6f4a","bdp_wmem","Wed Mar 15 2023 14:02:12 GMT-0500 (Central Daylight Time)","662136","Match,No Match","","null","","","","","","<div class='trialBorder'><div class='vertical-center'><img src='img/correct.jpg'></div><div class='respDiv'><div class='respDivL'>Match<br>(e)</div><div class='respDivR'><font style='color:orange'>No Match<br>(i)</font></div></div></div>","null","FEEDBACK","","","","","","","","","","",""
"html-keyboard-response","155","427602","0.0-7.0-1.24","60fdbd3afcd943b7119d6f4a","bdp_wmem","Wed Mar 15 2023 14:02:12 GMT-0500 (Central Daylight Time)","662136","Match,No Match","","null","","","","","","<div class='trialBorder'><div class='vertical-center'><img src='img/fixation2_sml.jpg'</img></div></div>","null","FIX","","","","","","","","","","",""
"html-keyboard-response","156","430611","0.0-7.0-2.24","60fdbd3afcd943b7119d6f4a","bdp_wmem","Wed Mar 15 2023 14:02:12 GMT-0500 (Central Daylight Time)","662136","Match,No Match","","null","","","","","","<div class='trialBorder'><div class='vertical-center'><img style='vertical-align:center; align:center' src='img/fixation2_sml.jpg'></div><div class='arrayDiv2'><div class='tl'><img class='introPic' src='trustrating_stim/white_mw070.bmp'><br><font color='green'><strong>Share</strong></font></div><div class='tr'><img class='introPic' src='trustrating_stim/white_mw092.bmp'><br><font color='red'><strong>Keep</strong></font></div></div></div>","null","ARRAY","2","trustrating_stim/white_mw070.bmp,trustrating_stim/white_mw092.bmp","1,0","Match","e","3000","","","","",""
"html-keyboard-response","157","434616","0.0-7.0-3.24","60fdbd3afcd943b7119d6f4a","bdp_wmem","Wed Mar 15 2023 14:02:12 GMT-0500 (Central Daylight Time)","662136","Match,No Match","","null","","","","","","<div class='trialBorder'><div class='vertical-center'><img src='img/fixation2_sml.jpg'</img></div></div>","null","DELAY","","","","","","","","","","",""
"html-keyboard-response","158","435749","0.0-7.0-4.24","60fdbd3afcd943b7119d6f4a","bdp_wmem","Wed Mar 15 2023 14:02:12 GMT-0500 (Central Daylight Time)","662136","Match,No Match","","1132","","","","","","<div class='trialBorder'><div class='targDiv'><div class='tc'><img class='introPic' src='trustrating_stim/white_mw070.bmp'><br><font color='green'><strong>Share</strong></font></div></div><div class='respDiv'><div class='respDivL'>Match<br>(e)</div><div class='respDivR'>No Match<br>(i)</div></div></div>","e","TARGET","2","trustrating_stim/white_mw070.bmp,trustrating_stim/white_mw092.bmp","1,0","Match","e","3000","trustrating_stim/white_mw070.bmp","green","Share","REAL","1"
"html-keyboard-response","159","436257","0.0-7.0-5.24","60fdbd3afcd943b7119d6f4a","bdp_wmem","Wed Mar 15 2023 14:02:12 GMT-0500 (Central Daylight Time)","662136","Match,No Match","","null","","","","","","<div class='trialBorder'><div class='vertical-center'><img src='img/correct.jpg'></div><div class='respDiv'><div class='respDivL'><font style='color:orange'>Match<br>(e)</font></div><div class='respDivR'>No Match<br>(i)</div></div></div>","null","FEEDBACK","","","","","","","","","","",""
"html-keyboard-response","160","436763","0.0-7.0-1.25","60fdbd3afcd943b7119d6f4a","bdp_wmem","Wed Mar 15 2023 14:02:12 GMT-0500 (Central Daylight Time)","662136","Match,No Match","","null","","","","","","<div class='trialBorder'><div class='vertical-center'><img src='img/fixation2_sml.jpg'</img></div></div>","null","FIX","","","","","","","","","","",""
"html-keyboard-response","161","441272","0.0-7.0-2.25","60fdbd3afcd943b7119d6f4a","bdp_wmem","Wed Mar 15 2023 14:02:12 GMT-0500 (Central Daylight Time)","662136","Match,No Match","","null","","","","","","<div class='trialBorder'><div class='vertical-center'><img style='vertical-align:center; align:center' src='img/fixation2_sml.jpg'></div><div class='arrayDiv3'><div class='tl'><img class='introPic' src='trustrating_stim/white_mw038.bmp'><br><font color='green'><strong>Share</strong></font></div><div class='tc'><img class='introPic' src='trustrating_stim/white_mw070.bmp'><br><font color='green'><strong>Share</strong></font></div><div class='tr'><img class='introPic' src='trustrating_stim/white_mw010.bmp'><br><font color='red'><strong>Keep</strong></font></div></div></div>","null","ARRAY","3","trustrating_stim/white_mw038.bmp,trustrating_stim/white_mw070.bmp,trustrating_stim/white_mw010.bmp","1,1,0","Match","e","4500","","","","",""
"html-keyboard-response","162","445281","0.0-7.0-3.25","60fdbd3afcd943b7119d6f4a","bdp_wmem","Wed Mar 15 2023 14:02:12 GMT-0500 (Central Daylight Time)","662136","Match,No Match","","null","","","","","","<div class='trialBorder'><div class='vertical-center'><img src='img/fixation2_sml.jpg'</img></div></div>","null","DELAY","","","","","","","","","","",""
"html-keyboard-response","163","446322","0.0-7.0-4.25","60fdbd3afcd943b7119d6f4a","bdp_wmem","Wed Mar 15 2023 14:02:12 GMT-0500 (Central Daylight Time)","662136","Match,No Match","","1040","","","","","","<div class='trialBorder'><div class='targDiv'><div class='tc'><img class='introPic' src='trustrating_stim/white_mw038.bmp'><br><font color='green'><strong>Share</strong></font></div></div><div class='respDiv'><div class='respDivL'>Match<br>(e)</div><div class='respDivR'>No Match<br>(i)</div></div></div>","e","TARGET","3","trustrating_stim/white_mw038.bmp,trustrating_stim/white_mw070.bmp,trustrating_stim/white_mw010.bmp","1,1,0","Match","e","4500","trustrating_stim/white_mw038.bmp","green","Share","REAL","1"
"html-keyboard-response","164","446827","0.0-7.0-5.25","60fdbd3afcd943b7119d6f4a","bdp_wmem","Wed Mar 15 2023 14:02:12 GMT-0500 (Central Daylight Time)","662136","Match,No Match","","null","","","","","","<div class='trialBorder'><div class='vertical-center'><img src='img/correct.jpg'></div><div class='respDiv'><div class='respDivL'><font style='color:orange'>Match<br>(e)</font></div><div class='respDivR'>No Match<br>(i)</div></div></div>","null","FEEDBACK","","","","","","","","","","",""
"html-keyboard-response","165","447339","0.0-7.0-1.26","60fdbd3afcd943b7119d6f4a","bdp_wmem","Wed Mar 15 2023 14:02:12 GMT-0500 (Central Daylight Time)","662136","Match,No Match","","null","","","","","","<div class='trialBorder'><div class='vertical-center'><img src='img/fixation2_sml.jpg'</img></div></div>","null","FIX","","","","","","","","","","",""
"html-keyboard-response","166","448849","0.0-7.0-2.26","60fdbd3afcd943b7119d6f4a","bdp_wmem","Wed Mar 15 2023 14:02:12 GMT-0500 (Central Daylight Time)","662136","Match,No Match","","null","","","","","","<div class='trialBorder'><div class='vertical-center'><img style='vertical-align:center; align:center' src='img/fixation2_sml.jpg'></div><div class='arrayDiv1'><div class='tc'><img class='introPic' src='trustrating_stim/white_mw070.bmp'><br><font color='green'><strong>Share</strong></font></div></div></div>","null","ARRAY","1","trustrating_stim/white_mw070.bmp","1","noMatchFace","i","1500","","","","",""
"html-keyboard-response","167","452860","0.0-7.0-3.26","60fdbd3afcd943b7119d6f4a","bdp_wmem","Wed Mar 15 2023 14:02:12 GMT-0500 (Central Daylight Time)","662136","Match,No Match","","null","","","","","","<div class='trialBorder'><div class='vertical-center'><img src='img/fixation2_sml.jpg'</img></div></div>","null","DELAY","","","","","","","","","","",""
"html-keyboard-response","168","453980","0.0-7.0-4.26","60fdbd3afcd943b7119d6f4a","bdp_wmem","Wed Mar 15 2023 14:02:12 GMT-0500 (Central Daylight Time)","662136","Match,No Match","","1120","","","","","","<div class='trialBorder'><div class='targDiv'><div class='tc'><img class='introPic' src='trustrating_stim/white_mw085.bmp'><br><font color='green'><strong>Share</strong></font></div></div><div class='respDiv'><div class='respDivL'>Match<br>(e)</div><div class='respDivR'>No Match<br>(i)</div></div></div>","i","TARGET","1","trustrating_stim/white_mw070.bmp","1","noMatchFace","i","1500","trustrating_stim/white_mw085.bmp","green","Share","REAL","1"
"html-keyboard-response","169","454492","0.0-7.0-5.26","60fdbd3afcd943b7119d6f4a","bdp_wmem","Wed Mar 15 2023 14:02:12 GMT-0500 (Central Daylight Time)","662136","Match,No Match","","null","","","","","","<div class='trialBorder'><div class='vertical-center'><img src='img/correct.jpg'></div><div class='respDiv'><div class='respDivL'>Match<br>(e)</div><div class='respDivR'><font style='color:orange'>No Match<br>(i)</font></div></div></div>","null","FEEDBACK","","","","","","","","","","",""
"html-keyboard-response","170","455004","0.0-7.0-1.27","60fdbd3afcd943b7119d6f4a","bdp_wmem","Wed Mar 15 2023 14:02:12 GMT-0500 (Central Daylight Time)","662136","Match,No Match","","null","","","","","","<div class='trialBorder'><div class='vertical-center'><img src='img/fixation2_sml.jpg'</img></div></div>","null","FIX","","","","","","","","","","",""
"html-keyboard-response","171","458012","0.0-7.0-2.27","60fdbd3afcd943b7119d6f4a","bdp_wmem","Wed Mar 15 2023 14:02:12 GMT-0500 (Central Daylight Time)","662136","Match,No Match","","null","","","","","","<div class='trialBorder'><div class='vertical-center'><img style='vertical-align:center; align:center' src='img/fixation2_sml.jpg'></div><div class='arrayDiv2'><div class='tl'><img class='introPic' src='trustrating_stim/white_mw013.bmp'><br><font color='green'><strong>Share</strong></font></div><div class='tr'><img class='introPic' src='trustrating_stim/white_mw012.bmp'><br><font color='red'><strong>Keep</strong></font></div></div></div>","null","ARRAY","2","trustrating_stim/white_mw013.bmp,trustrating_stim/white_mw012.bmp","1,0","Match","e","3000","","","","",""
"html-keyboard-response","172","462017","0.0-7.0-3.27","60fdbd3afcd943b7119d6f4a","bdp_wmem","Wed Mar 15 2023 14:02:12 GMT-0500 (Central Daylight Time)","662136","Match,No Match","","null","","","","","","<div class='trialBorder'><div class='vertical-center'><img src='img/fixation2_sml.jpg'</img></div></div>","null","DELAY","","","","","","","","","","",""
"html-keyboard-response","173","463928","0.0-7.0-4.27","60fdbd3afcd943b7119d6f4a","bdp_wmem","Wed Mar 15 2023 14:02:12 GMT-0500 (Central Daylight Time)","662136","Match,No Match","","1910","","","","","","<div class='trialBorder'><div class='targDiv'><div class='tc'><img class='introPic' src='trustrating_stim/white_mw012.bmp'><br><font color='red'><strong>Keep</strong></font></div></div><div class='respDiv'><div class='respDivL'>Match<br>(e)</div><div class='respDivR'>No Match<br>(i)</div></div></div>","e","TARGET","2","trustrating_stim/white_mw013.bmp,trustrating_stim/white_mw012.bmp","1,0","Match","e","3000","trustrating_stim/white_mw012.bmp","red","Keep","REAL","1"
"html-keyboard-response","174","464434","0.0-7.0-5.27","60fdbd3afcd943b7119d6f4a","bdp_wmem","Wed Mar 15 2023 14:02:12 GMT-0500 (Central Daylight Time)","662136","Match,No Match","","null","","","","","","<div class='trialBorder'><div class='vertical-center'><img src='img/correct.jpg'></div><div class='respDiv'><div class='respDivL'><font style='color:orange'>Match<br>(e)</font></div><div class='respDivR'>No Match<br>(i)</div></div></div>","null","FEEDBACK","","","","","","","","","","",""
"html-keyboard-response","175","464940","0.0-7.0-1.28","60fdbd3afcd943b7119d6f4a","bdp_wmem","Wed Mar 15 2023 14:02:12 GMT-0500 (Central Daylight Time)","662136","Match,No Match","","null","","","","","","<div class='trialBorder'><div class='vertical-center'><img src='img/fixation2_sml.jpg'</img></div></div>","null","FIX","","","","","","","","","","",""
"html-keyboard-response","176","466449","0.0-7.0-2.28","60fdbd3afcd943b7119d6f4a","bdp_wmem","Wed Mar 15 2023 14:02:12 GMT-0500 (Central Daylight Time)","662136","Match,No Match","","null","","","","","","<div class='trialBorder'><div class='vertical-center'><img style='vertical-align:center; align:center' src='img/fixation2_sml.jpg'></div><div class='arrayDiv1'><div class='tc'><img class='introPic' src='trustrating_stim/white_mw091.bmp'><br><font color='green'><strong>Share</strong></font></div></div></div>","null","ARRAY","1","trustrating_stim/white_mw091.bmp","1","noMatchOutcome","i","1500","","","","",""
"html-keyboard-response","177","470460","0.0-7.0-3.28","60fdbd3afcd943b7119d6f4a","bdp_wmem","Wed Mar 15 2023 14:02:12 GMT-0500 (Central Daylight Time)","662136","Match,No Match","","null","","","","","","<div class='trialBorder'><div class='vertical-center'><img src='img/fixation2_sml.jpg'</img></div></div>","null","DELAY","","","","","","","","","","",""
"html-keyboard-response","178","471271","0.0-7.0-4.28","60fdbd3afcd943b7119d6f4a","bdp_wmem","Wed Mar 15 2023 14:02:12 GMT-0500 (Central Daylight Time)","662136","Match,No Match","","810","","","","","","<div class='trialBorder'><div class='targDiv'><div class='tc'><img class='introPic' src='trustrating_stim/white_mw091.bmp'><br><font color='red'><strong>Keep</strong></font></div></div><div class='respDiv'><div class='respDivL'>Match<br>(e)</div><div class='respDivR'>No Match<br>(i)</div></div></div>","i","TARGET","1","trustrating_stim/white_mw091.bmp","1","noMatchOutcome","i","1500","trustrating_stim/white_mw091.bmp","red","Keep","REAL","1"
"html-keyboard-response","179","471778","0.0-7.0-5.28","60fdbd3afcd943b7119d6f4a","bdp_wmem","Wed Mar 15 2023 14:02:12 GMT-0500 (Central Daylight Time)","662136","Match,No Match","","null","","","","","","<div class='trialBorder'><div class='vertical-center'><img src='img/correct.jpg'></div><div class='respDiv'><div class='respDivL'>Match<br>(e)</div><div class='respDivR'><font style='color:orange'>No Match<br>(i)</font></div></div></div>","null","FEEDBACK","","","","","","","","","","",""
"html-keyboard-response","180","472283","0.0-7.0-1.29","60fdbd3afcd943b7119d6f4a","bdp_wmem","Wed Mar 15 2023 14:02:12 GMT-0500 (Central Daylight Time)","662136","Match,No Match","","null","","","","","","<div class='trialBorder'><div class='vertical-center'><img src='img/fixation2_sml.jpg'</img></div></div>","null","FIX","","","","","","","","","","",""
"html-keyboard-response","181","475288","0.0-7.0-2.29","60fdbd3afcd943b7119d6f4a","bdp_wmem","Wed Mar 15 2023 14:02:12 GMT-0500 (Central Daylight Time)","662136","Match,No Match","","null","","","","","","<div class='trialBorder'><div class='vertical-center'><img style='vertical-align:center; align:center' src='img/fixation2_sml.jpg'></div><div class='arrayDiv2'><div class='tl'><img class='introPic' src='trustrating_stim/white_mw012.bmp'><br><font color='red'><strong>Keep</strong></font></div><div class='tr'><img class='introPic' src='trustrating_stim/white_mw038.bmp'><br><font color='green'><strong>Share</strong></font></div></div></div>","null","ARRAY","2","trustrating_stim/white_mw012.bmp,trustrating_stim/white_mw038.bmp","0,1","noMatchOutcome","i","3000","","","","",""
"html-keyboard-response","182","479297","0.0-7.0-3.29","60fdbd3afcd943b7119d6f4a","bdp_wmem","Wed Mar 15 2023 14:02:12 GMT-0500 (Central Daylight Time)","662136","Match,No Match","","null","","","","","","<div class='trialBorder'><div class='vertical-center'><img src='img/fixation2_sml.jpg'</img></div></div>","null","DELAY","","","","","","","","","","",""
"html-keyboard-response","183","480421","0.0-7.0-4.29","60fdbd3afcd943b7119d6f4a","bdp_wmem","Wed Mar 15 2023 14:02:12 GMT-0500 (Central Daylight Time)","662136","Match,No Match","","1123","","","","","","<div class='trialBorder'><div class='targDiv'><div class='tc'><img class='introPic' src='trustrating_stim/white_mw012.bmp'><br><font color='green'><strong>Share</strong></font></div></div><div class='respDiv'><div class='respDivL'>Match<br>(e)</div><div class='respDivR'>No Match<br>(i)</div></div></div>","i","TARGET","2","trustrating_stim/white_mw012.bmp,trustrating_stim/white_mw038.bmp","0,1","noMatchOutcome","i","3000","trustrating_stim/white_mw012.bmp","green","Share","REAL","1"
"html-keyboard-response","184","480930","0.0-7.0-5.29","60fdbd3afcd943b7119d6f4a","bdp_wmem","Wed Mar 15 2023 14:02:12 GMT-0500 (Central Daylight Time)","662136","Match,No Match","","null","","","","","","<div class='trialBorder'><div class='vertical-center'><img src='img/correct.jpg'></div><div class='respDiv'><div class='respDivL'>Match<br>(e)</div><div class='respDivR'><font style='color:orange'>No Match<br>(i)</font></div></div></div>","null","FEEDBACK","","","","","","","","","","",""
"html-keyboard-response","185","481436","0.0-7.0-1.30","60fdbd3afcd943b7119d6f4a","bdp_wmem","Wed Mar 15 2023 14:02:12 GMT-0500 (Central Daylight Time)","662136","Match,No Match","","null","","","","","","<div class='trialBorder'><div class='vertical-center'><img src='img/fixation2_sml.jpg'</img></div></div>","null","FIX","","","","","","","","","","",""
"html-keyboard-response","186","485948","0.0-7.0-2.30","60fdbd3afcd943b7119d6f4a","bdp_wmem","Wed Mar 15 2023 14:02:12 GMT-0500 (Central Daylight Time)","662136","Match,No Match","","null","","","","","","<div class='trialBorder'><div class='vertical-center'><img style='vertical-align:center; align:center' src='img/fixation2_sml.jpg'></div><div class='arrayDiv3'><div class='tl'><img class='introPic' src='trustrating_stim/white_mw040.bmp'><br><font color='red'><strong>Keep</strong></font></div><div class='tc'><img class='introPic' src='trustrating_stim/white_mw003.bmp'><br><font color='red'><strong>Keep</strong></font></div><div class='tr'><img class='introPic' src='trustrating_stim/white_mw091.bmp'><br><font color='green'><strong>Share</strong></font></div></div></div>","null","ARRAY","3","trustrating_stim/white_mw040.bmp,trustrating_stim/white_mw003.bmp,trustrating_stim/white_mw091.bmp","0,0,1","noMatchFace","i","4500","","","","",""
"html-keyboard-response","187","489954","0.0-7.0-3.30","60fdbd3afcd943b7119d6f4a","bdp_wmem","Wed Mar 15 2023 14:02:12 GMT-0500 (Central Daylight Time)","662136","Match,No Match","","null","","","","","","<div class='trialBorder'><div class='vertical-center'><img src='img/fixation2_sml.jpg'</img></div></div>","null","DELAY","","","","","","","","","","",""
"html-keyboard-response","188","492681","0.0-7.0-4.30","60fdbd3afcd943b7119d6f4a","bdp_wmem","Wed Mar 15 2023 14:02:12 GMT-0500 (Central Daylight Time)","662136","Match,No Match","","2726","","","","","","<div class='trialBorder'><div class='targDiv'><div class='tc'><img class='introPic' src='trustrating_stim/white_mw078.bmp'><br><font color='red'><strong>Keep</strong></font></div></div><div class='respDiv'><div class='respDivL'>Match<br>(e)</div><div class='respDivR'>No Match<br>(i)</div></div></div>","i","TARGET","3","trustrating_stim/white_mw040.bmp,trustrating_stim/white_mw003.bmp,trustrating_stim/white_mw091.bmp","0,0,1","noMatchFace","i","4500","trustrating_stim/white_mw078.bmp","red","Keep","REAL","1"
"html-keyboard-response","189","493185","0.0-7.0-5.30","60fdbd3afcd943b7119d6f4a","bdp_wmem","Wed Mar 15 2023 14:02:12 GMT-0500 (Central Daylight Time)","662136","Match,No Match","","null","","","","","","<div class='trialBorder'><div class='vertical-center'><img src='img/correct.jpg'></div><div class='respDiv'><div class='respDivL'>Match<br>(e)</div><div class='respDivR'><font style='color:orange'>No Match<br>(i)</font></div></div></div>","null","FEEDBACK","","","","","","","","","","",""
