"trial_type","trial_index","time_elapsed","internal_node_id","subject_id","task","startTime","totalTime","labels","view_history","rt","event","trial","time","trialtype","success","stimulus","key_press","stimType","arraySize","arrayFaces","arrayOutcomes","matchType","corrResp","arrayDur","targFace","targCol","targOutcome","trialType","corr"
"pavlovia","0","2","0.0-0.0","611401411bf1ede5a4d85bdc","bdp_wmem","Wed Mar 15 2023 23:22:18 GMT-0400 (Eastern Daylight Time)","571113","Match,No Match","","","","","","","","","","","","","","","","","","","","",""
"instructions","1","1999","0.0-1.0","611401411bf1ede5a4d85bdc","bdp_wmem","Wed Mar 15 2023 23:22:18 GMT-0400 (Eastern Daylight Time)","571113","Match,No Match","[{""page_index"":0,""viewing_time"":1997}]","1997","","","","","","","","","","","","","","","","","","",""
"","","","","611401411bf1ede5a4d85bdc","bdp_wmem","Wed Mar 15 2023 23:22:18 GMT-0400 (Eastern Daylight Time)","571113","Match,No Match","","","fullscreenenter","2","3272","fullscreenenter","","","","","","","","","","","","","","",""
"fullscreen","2","4257","0.0-2.0","611401411bf1ede5a4d85bdc","bdp_wmem","Wed Mar 15 2023 23:22:18 GMT-0400 (Eastern Daylight Time)","571113","Match,No Match","","","","","","","true","","","","","","","","","","","","","",""
"instructions","3","66609","0.0-4.0","611401411bf1ede5a4d85bdc","bdp_wmem","Wed Mar 15 2023 23:22:18 GMT-0400 (Eastern Daylight Time)","571113","Match,No Match","[{""page_index"":0,""viewing_time"":20344},{""page_index"":1,""viewing_time"":23729},{""page_index"":2,""viewing_time"":8298},{""page_index"":3,""viewing_time"":3466},{""page_index"":4,""viewing_time"":6513}]","62350","","","","","","","","","","","","","","","","","","",""
"html-keyboard-response","4","67114","0.0-5.0-1.0","611401411bf1ede5a4d85bdc","bdp_wmem","Wed Mar 15 2023 23:22:18 GMT-0400 (Eastern Daylight Time)","571113","Match,No Match","","null","","","","","","<div class='trialBorder'><div class='vertical-center'><img src='img/fixation2_sml.jpg'</img></div></div>","null","FIX","","","","","","","","","","",""
"html-keyboard-response","5","71617","0.0-5.0-2.0","611401411bf1ede5a4d85bdc","bdp_wmem","Wed Mar 15 2023 23:22:18 GMT-0400 (Eastern Daylight Time)","571113","Match,No Match","","null","","","","","","<div class='trialBorder'><div class='vertical-center'><img style='vertical-align:center; align:center' src='img/fixation2_sml.jpg'></div><div class='arrayDiv3'><div class='tl'><img class='introPic' src='trustrating_stim/white_mw038.bmp'><br><font color='red'><strong>Keep</strong></font></div><div class='tc'><img class='introPic' src='trustrating_stim/white_mw013.bmp'><br><font color='red'><strong>Keep</strong></font></div><div class='tr'><img class='introPic' src='trustrating_stim/white_mw085.bmp'><br><font color='green'><strong>Share</strong></font></div></div></div>","null","ARRAY","3","trustrating_stim/white_mw038.bmp,trustrating_stim/white_mw013.bmp,trustrating_stim/white_mw085.bmp","0,0,1","Match","e","4500","","","","",""
"html-keyboard-response","6","75620","0.0-5.0-3.0","611401411bf1ede5a4d85bdc","bdp_wmem","Wed Mar 15 2023 23:22:18 GMT-0400 (Eastern Daylight Time)","571113","Match,No Match","","null","","","","","","<div class='trialBorder'><div class='vertical-center'><img src='img/fixation2_sml.jpg'</img></div></div>","null","DELAY","","","","","","","","","","",""
"html-keyboard-response","7","76342","0.0-5.0-4.0","611401411bf1ede5a4d85bdc","bdp_wmem","Wed Mar 15 2023 23:22:18 GMT-0400 (Eastern Daylight Time)","571113","Match,No Match","","718","","","","","","<div class='trialBorder'><div class='targDiv'><div class='tc'><img class='introPic' src='trustrating_stim/white_mw085.bmp'><br><font color='green'><strong>Share</strong></font></div></div><div class='respDiv'><div class='respDivL'>Match<br>(e)</div><div class='respDivR'>No Match<br>(i)</div></div></div>","i","TARGET","3","trustrating_stim/white_mw038.bmp,trustrating_stim/white_mw013.bmp,trustrating_stim/white_mw085.bmp","0,0,1","Match","e","4500","trustrating_stim/white_mw085.bmp","green","Share","PRACTICE","0"
"html-keyboard-response","8","76846","0.0-5.0-5.0","611401411bf1ede5a4d85bdc","bdp_wmem","Wed Mar 15 2023 23:22:18 GMT-0400 (Eastern Daylight Time)","571113","Match,No Match","","null","","","","","","<div class='trialBorder'><div class='vertical-center'><img src='img/error.jpg'></div><div class='respDiv'><div class='respDivL'>Match<br>(e)</div><div class='respDivR'><font style='color:orange'>No Match<br>(i)</font></div></div></div>","null","FEEDBACK","","","","","","","","","","",""
"html-keyboard-response","9","77350","0.0-5.0-1.1","611401411bf1ede5a4d85bdc","bdp_wmem","Wed Mar 15 2023 23:22:18 GMT-0400 (Eastern Daylight Time)","571113","Match,No Match","","null","","","","","","<div class='trialBorder'><div class='vertical-center'><img src='img/fixation2_sml.jpg'</img></div></div>","null","FIX","","","","","","","","","","",""
"html-keyboard-response","10","78853","0.0-5.0-2.1","611401411bf1ede5a4d85bdc","bdp_wmem","Wed Mar 15 2023 23:22:18 GMT-0400 (Eastern Daylight Time)","571113","Match,No Match","","null","","","","","","<div class='trialBorder'><div class='vertical-center'><img style='vertical-align:center; align:center' src='img/fixation2_sml.jpg'></div><div class='arrayDiv1'><div class='tc'><img class='introPic' src='trustrating_stim/white_mw078.bmp'><br><font color='green'><strong>Share</strong></font></div></div></div>","null","ARRAY","1","trustrating_stim/white_mw078.bmp","1","Match","e","1500","","","","",""
"html-keyboard-response","11","82857","0.0-5.0-3.1","611401411bf1ede5a4d85bdc","bdp_wmem","Wed Mar 15 2023 23:22:18 GMT-0400 (Eastern Daylight Time)","571113","Match,No Match","","null","","","","","","<div class='trialBorder'><div class='vertical-center'><img src='img/fixation2_sml.jpg'</img></div></div>","null","DELAY","","","","","","","","","","",""
"html-keyboard-response","12","83553","0.0-5.0-4.1","611401411bf1ede5a4d85bdc","bdp_wmem","Wed Mar 15 2023 23:22:18 GMT-0400 (Eastern Daylight Time)","571113","Match,No Match","","694","","","","","","<div class='trialBorder'><div class='targDiv'><div class='tc'><img class='introPic' src='trustrating_stim/white_mw078.bmp'><br><font color='green'><strong>Share</strong></font></div></div><div class='respDiv'><div class='respDivL'>Match<br>(e)</div><div class='respDivR'>No Match<br>(i)</div></div></div>","i","TARGET","1","trustrating_stim/white_mw078.bmp","1","Match","e","1500","trustrating_stim/white_mw078.bmp","green","Share","PRACTICE","0"
"html-keyboard-response","13","84057","0.0-5.0-5.1","611401411bf1ede5a4d85bdc","bdp_wmem","Wed Mar 15 2023 23:22:18 GMT-0400 (Eastern Daylight Time)","571113","Match,No Match","","null","","","","","","<div class='trialBorder'><div class='vertical-center'><img src='img/error.jpg'></div><div class='respDiv'><div class='respDivL'>Match<br>(e)</div><div class='respDivR'><font style='color:orange'>No Match<br>(i)</font></div></div></div>","null","FEEDBACK","","","","","","","","","","",""
"html-keyboard-response","14","84560","0.0-5.0-1.2","611401411bf1ede5a4d85bdc","bdp_wmem","Wed Mar 15 2023 23:22:18 GMT-0400 (Eastern Daylight Time)","571113","Match,No Match","","null","","","","","","<div class='trialBorder'><div class='vertical-center'><img src='img/fixation2_sml.jpg'</img></div></div>","null","FIX","","","","","","","","","","",""
"html-keyboard-response","15","87564","0.0-5.0-2.2","611401411bf1ede5a4d85bdc","bdp_wmem","Wed Mar 15 2023 23:22:18 GMT-0400 (Eastern Daylight Time)","571113","Match,No Match","","null","","","","","","<div class='trialBorder'><div class='vertical-center'><img style='vertical-align:center; align:center' src='img/fixation2_sml.jpg'></div><div class='arrayDiv2'><div class='tl'><img class='introPic' src='trustrating_stim/white_mw038.bmp'><br><font color='red'><strong>Keep</strong></font></div><div class='tr'><img class='introPic' src='trustrating_stim/white_mw085.bmp'><br><font color='green'><strong>Share</strong></font></div></div></div>","null","ARRAY","2","trustrating_stim/white_mw038.bmp,trustrating_stim/white_mw085.bmp","0,1","noMatchOutcome","i","3000","","","","",""
"html-keyboard-response","16","91567","0.0-5.0-3.2","611401411bf1ede5a4d85bdc","bdp_wmem","Wed Mar 15 2023 23:22:18 GMT-0400 (Eastern Daylight Time)","571113","Match,No Match","","null","","","","","","<div class='trialBorder'><div class='vertical-center'><img src='img/fixation2_sml.jpg'</img></div></div>","null","DELAY","","","","","","","","","","",""
"html-keyboard-response","17","91938","0.0-5.0-4.2","611401411bf1ede5a4d85bdc","bdp_wmem","Wed Mar 15 2023 23:22:18 GMT-0400 (Eastern Daylight Time)","571113","Match,No Match","","367","","","","","","<div class='trialBorder'><div class='targDiv'><div class='tc'><img class='introPic' src='trustrating_stim/white_mw085.bmp'><br><font color='red'><strong>Keep</strong></font></div></div><div class='respDiv'><div class='respDivL'>Match<br>(e)</div><div class='respDivR'>No Match<br>(i)</div></div></div>","i","TARGET","2","trustrating_stim/white_mw038.bmp,trustrating_stim/white_mw085.bmp","0,1","noMatchOutcome","i","3000","trustrating_stim/white_mw085.bmp","red","Keep","PRACTICE","1"
"html-keyboard-response","18","92441","0.0-5.0-5.2","611401411bf1ede5a4d85bdc","bdp_wmem","Wed Mar 15 2023 23:22:18 GMT-0400 (Eastern Daylight Time)","571113","Match,No Match","","null","","","","","","<div class='trialBorder'><div class='vertical-center'><img src='img/correct.jpg'></div><div class='respDiv'><div class='respDivL'>Match<br>(e)</div><div class='respDivR'><font style='color:orange'>No Match<br>(i)</font></div></div></div>","null","FEEDBACK","","","","","","","","","","",""
"html-keyboard-response","19","92944","0.0-5.0-1.3","611401411bf1ede5a4d85bdc","bdp_wmem","Wed Mar 15 2023 23:22:18 GMT-0400 (Eastern Daylight Time)","571113","Match,No Match","","null","","","","","","<div class='trialBorder'><div class='vertical-center'><img src='img/fixation2_sml.jpg'</img></div></div>","null","FIX","","","","","","","","","","",""
"html-keyboard-response","20","94447","0.0-5.0-2.3","611401411bf1ede5a4d85bdc","bdp_wmem","Wed Mar 15 2023 23:22:18 GMT-0400 (Eastern Daylight Time)","571113","Match,No Match","","null","","","","","","<div class='trialBorder'><div class='vertical-center'><img style='vertical-align:center; align:center' src='img/fixation2_sml.jpg'></div><div class='arrayDiv1'><div class='tc'><img class='introPic' src='trustrating_stim/white_mw042.bmp'><br><font color='red'><strong>Keep</strong></font></div></div></div>","null","ARRAY","1","trustrating_stim/white_mw042.bmp","0","noMatchFace","i","1500","","","","",""
"html-keyboard-response","21","98449","0.0-5.0-3.3","611401411bf1ede5a4d85bdc","bdp_wmem","Wed Mar 15 2023 23:22:18 GMT-0400 (Eastern Daylight Time)","571113","Match,No Match","","null","","","","","","<div class='trialBorder'><div class='vertical-center'><img src='img/fixation2_sml.jpg'</img></div></div>","null","DELAY","","","","","","","","","","",""
"html-keyboard-response","22","98765","0.0-5.0-4.3","611401411bf1ede5a4d85bdc","bdp_wmem","Wed Mar 15 2023 23:22:18 GMT-0400 (Eastern Daylight Time)","571113","Match,No Match","","312","","","","","","<div class='trialBorder'><div class='targDiv'><div class='tc'><img class='introPic' src='trustrating_stim/white_mw070.bmp'><br><font color='red'><strong>Keep</strong></font></div></div><div class='respDiv'><div class='respDivL'>Match<br>(e)</div><div class='respDivR'>No Match<br>(i)</div></div></div>","i","TARGET","1","trustrating_stim/white_mw042.bmp","0","noMatchFace","i","1500","trustrating_stim/white_mw070.bmp","red","Keep","PRACTICE","1"
"html-keyboard-response","23","99268","0.0-5.0-5.3","611401411bf1ede5a4d85bdc","bdp_wmem","Wed Mar 15 2023 23:22:18 GMT-0400 (Eastern Daylight Time)","571113","Match,No Match","","null","","","","","","<div class='trialBorder'><div class='vertical-center'><img src='img/correct.jpg'></div><div class='respDiv'><div class='respDivL'>Match<br>(e)</div><div class='respDivR'><font style='color:orange'>No Match<br>(i)</font></div></div></div>","null","FEEDBACK","","","","","","","","","","",""
"html-keyboard-response","24","99771","0.0-5.0-1.4","611401411bf1ede5a4d85bdc","bdp_wmem","Wed Mar 15 2023 23:22:18 GMT-0400 (Eastern Daylight Time)","571113","Match,No Match","","null","","","","","","<div class='trialBorder'><div class='vertical-center'><img src='img/fixation2_sml.jpg'</img></div></div>","null","FIX","","","","","","","","","","",""
"html-keyboard-response","25","104277","0.0-5.0-2.4","611401411bf1ede5a4d85bdc","bdp_wmem","Wed Mar 15 2023 23:22:18 GMT-0400 (Eastern Daylight Time)","571113","Match,No Match","","null","","","","","","<div class='trialBorder'><div class='vertical-center'><img style='vertical-align:center; align:center' src='img/fixation2_sml.jpg'></div><div class='arrayDiv3'><div class='tl'><img class='introPic' src='trustrating_stim/white_mw091.bmp'><br><font color='red'><strong>Keep</strong></font></div><div class='tc'><img class='introPic' src='trustrating_stim/white_mw003.bmp'><br><font color='green'><strong>Share</strong></font></div><div class='tr'><img class='introPic' src='trustrating_stim/white_mw092.bmp'><br><font color='green'><strong>Share</strong></font></div></div></div>","null","ARRAY","3","trustrating_stim/white_mw091.bmp,trustrating_stim/white_mw003.bmp,trustrating_stim/white_mw092.bmp","0,1,1","noMatchOutcome","i","4500","","","","",""
"html-keyboard-response","26","108280","0.0-5.0-3.4","611401411bf1ede5a4d85bdc","bdp_wmem","Wed Mar 15 2023 23:22:18 GMT-0400 (Eastern Daylight Time)","571113","Match,No Match","","null","","","","","","<div class='trialBorder'><div class='vertical-center'><img src='img/fixation2_sml.jpg'</img></div></div>","null","DELAY","","","","","","","","","","",""
"html-keyboard-response","27","109962","0.0-5.0-4.4","611401411bf1ede5a4d85bdc","bdp_wmem","Wed Mar 15 2023 23:22:18 GMT-0400 (Eastern Daylight Time)","571113","Match,No Match","","1678","","","","","","<div class='trialBorder'><div class='targDiv'><div class='tc'><img class='introPic' src='trustrating_stim/white_mw091.bmp'><br><font color='green'><strong>Share</strong></font></div></div><div class='respDiv'><div class='respDivL'>Match<br>(e)</div><div class='respDivR'>No Match<br>(i)</div></div></div>","i","TARGET","3","trustrating_stim/white_mw091.bmp,trustrating_stim/white_mw003.bmp,trustrating_stim/white_mw092.bmp","0,1,1","noMatchOutcome","i","4500","trustrating_stim/white_mw091.bmp","green","Share","PRACTICE","1"
"html-keyboard-response","28","110464","0.0-5.0-5.4","611401411bf1ede5a4d85bdc","bdp_wmem","Wed Mar 15 2023 23:22:18 GMT-0400 (Eastern Daylight Time)","571113","Match,No Match","","null","","","","","","<div class='trialBorder'><div class='vertical-center'><img src='img/correct.jpg'></div><div class='respDiv'><div class='respDivL'>Match<br>(e)</div><div class='respDivR'><font style='color:orange'>No Match<br>(i)</font></div></div></div>","null","FEEDBACK","","","","","","","","","","",""
"html-keyboard-response","29","110965","0.0-5.0-1.5","611401411bf1ede5a4d85bdc","bdp_wmem","Wed Mar 15 2023 23:22:18 GMT-0400 (Eastern Daylight Time)","571113","Match,No Match","","null","","","","","","<div class='trialBorder'><div class='vertical-center'><img src='img/fixation2_sml.jpg'</img></div></div>","null","FIX","","","","","","","","","","",""
"html-keyboard-response","30","113969","0.0-5.0-2.5","611401411bf1ede5a4d85bdc","bdp_wmem","Wed Mar 15 2023 23:22:18 GMT-0400 (Eastern Daylight Time)","571113","Match,No Match","","null","","","","","","<div class='trialBorder'><div class='vertical-center'><img style='vertical-align:center; align:center' src='img/fixation2_sml.jpg'></div><div class='arrayDiv2'><div class='tl'><img class='introPic' src='trustrating_stim/white_mw040.bmp'><br><font color='red'><strong>Keep</strong></font></div><div class='tr'><img class='introPic' src='trustrating_stim/white_mw091.bmp'><br><font color='green'><strong>Share</strong></font></div></div></div>","null","ARRAY","2","trustrating_stim/white_mw040.bmp,trustrating_stim/white_mw091.bmp","0,1","Match","e","3000","","","","",""
"html-keyboard-response","31","117972","0.0-5.0-3.5","611401411bf1ede5a4d85bdc","bdp_wmem","Wed Mar 15 2023 23:22:18 GMT-0400 (Eastern Daylight Time)","571113","Match,No Match","","null","","","","","","<div class='trialBorder'><div class='vertical-center'><img src='img/fixation2_sml.jpg'</img></div></div>","null","DELAY","","","","","","","","","","",""
"html-keyboard-response","32","118684","0.0-5.0-4.5","611401411bf1ede5a4d85bdc","bdp_wmem","Wed Mar 15 2023 23:22:18 GMT-0400 (Eastern Daylight Time)","571113","Match,No Match","","709","","","","","","<div class='trialBorder'><div class='targDiv'><div class='tc'><img class='introPic' src='trustrating_stim/white_mw040.bmp'><br><font color='red'><strong>Keep</strong></font></div></div><div class='respDiv'><div class='respDivL'>Match<br>(e)</div><div class='respDivR'>No Match<br>(i)</div></div></div>","i","TARGET","2","trustrating_stim/white_mw040.bmp,trustrating_stim/white_mw091.bmp","0,1","Match","e","3000","trustrating_stim/white_mw040.bmp","red","Keep","PRACTICE","0"
"html-keyboard-response","33","119186","0.0-5.0-5.5","611401411bf1ede5a4d85bdc","bdp_wmem","Wed Mar 15 2023 23:22:18 GMT-0400 (Eastern Daylight Time)","571113","Match,No Match","","null","","","","","","<div class='trialBorder'><div class='vertical-center'><img src='img/error.jpg'></div><div class='respDiv'><div class='respDivL'>Match<br>(e)</div><div class='respDivR'><font style='color:orange'>No Match<br>(i)</font></div></div></div>","null","FEEDBACK","","","","","","","","","","",""
"instructions","34","121464","0.0-6.0","611401411bf1ede5a4d85bdc","bdp_wmem","Wed Mar 15 2023 23:22:18 GMT-0400 (Eastern Daylight Time)","571113","Match,No Match","[{""page_index"":0,""viewing_time"":2277}]","2277","","","","","","","","","","","","","","","","","","",""
"html-keyboard-response","35","121966","0.0-7.0-1.0","611401411bf1ede5a4d85bdc","bdp_wmem","Wed Mar 15 2023 23:22:18 GMT-0400 (Eastern Daylight Time)","571113","Match,No Match","","null","","","","","","<div class='trialBorder'><div class='vertical-center'><img src='img/fixation2_sml.jpg'</img></div></div>","null","FIX","","","","","","","","","","",""
"html-keyboard-response","36","124970","0.0-7.0-2.0","611401411bf1ede5a4d85bdc","bdp_wmem","Wed Mar 15 2023 23:22:18 GMT-0400 (Eastern Daylight Time)","571113","Match,No Match","","null","","","","","","<div class='trialBorder'><div class='vertical-center'><img style='vertical-align:center; align:center' src='img/fixation2_sml.jpg'></div><div class='arrayDiv2'><div class='tl'><img class='introPic' src='trustrating_stim/white_mw010.bmp'><br><font color='red'><strong>Keep</strong></font></div><div class='tr'><img class='introPic' src='trustrating_stim/white_mw070.bmp'><br><font color='green'><strong>Share</strong></font></div></div></div>","null","ARRAY","2","trustrating_stim/white_mw010.bmp,trustrating_stim/white_mw070.bmp","0,1","Match","e","3000","","","","",""
"html-keyboard-response","37","128973","0.0-7.0-3.0","611401411bf1ede5a4d85bdc","bdp_wmem","Wed Mar 15 2023 23:22:18 GMT-0400 (Eastern Daylight Time)","571113","Match,No Match","","null","","","","","","<div class='trialBorder'><div class='vertical-center'><img src='img/fixation2_sml.jpg'</img></div></div>","null","DELAY","","","","","","","","","","",""
"html-keyboard-response","38","129437","0.0-7.0-4.0","611401411bf1ede5a4d85bdc","bdp_wmem","Wed Mar 15 2023 23:22:18 GMT-0400 (Eastern Daylight Time)","571113","Match,No Match","","461","","","","","","<div class='trialBorder'><div class='targDiv'><div class='tc'><img class='introPic' src='trustrating_stim/white_mw070.bmp'><br><font color='green'><strong>Share</strong></font></div></div><div class='respDiv'><div class='respDivL'>Match<br>(e)</div><div class='respDivR'>No Match<br>(i)</div></div></div>","i","TARGET","2","trustrating_stim/white_mw010.bmp,trustrating_stim/white_mw070.bmp","0,1","Match","e","3000","trustrating_stim/white_mw070.bmp","green","Share","REAL","0"
"html-keyboard-response","39","129939","0.0-7.0-5.0","611401411bf1ede5a4d85bdc","bdp_wmem","Wed Mar 15 2023 23:22:18 GMT-0400 (Eastern Daylight Time)","571113","Match,No Match","","null","","","","","","<div class='trialBorder'><div class='vertical-center'><img src='img/error.jpg'></div><div class='respDiv'><div class='respDivL'>Match<br>(e)</div><div class='respDivR'><font style='color:orange'>No Match<br>(i)</font></div></div></div>","null","FEEDBACK","","","","","","","","","","",""
"html-keyboard-response","40","130441","0.0-7.0-1.1","611401411bf1ede5a4d85bdc","bdp_wmem","Wed Mar 15 2023 23:22:18 GMT-0400 (Eastern Daylight Time)","571113","Match,No Match","","null","","","","","","<div class='trialBorder'><div class='vertical-center'><img src='img/fixation2_sml.jpg'</img></div></div>","null","FIX","","","","","","","","","","",""
"html-keyboard-response","41","133443","0.0-7.0-2.1","611401411bf1ede5a4d85bdc","bdp_wmem","Wed Mar 15 2023 23:22:18 GMT-0400 (Eastern Daylight Time)","571113","Match,No Match","","null","","","","","","<div class='trialBorder'><div class='vertical-center'><img style='vertical-align:center; align:center' src='img/fixation2_sml.jpg'></div><div class='arrayDiv2'><div class='tl'><img class='introPic' src='trustrating_stim/white_mw010.bmp'><br><font color='red'><strong>Keep</strong></font></div><div class='tr'><img class='introPic' src='trustrating_stim/white_mw013.bmp'><br><font color='green'><strong>Share</strong></font></div></div></div>","null","ARRAY","2","trustrating_stim/white_mw010.bmp,trustrating_stim/white_mw013.bmp","0,1","noMatchFace","i","3000","","","","",""
"html-keyboard-response","42","137447","0.0-7.0-3.1","611401411bf1ede5a4d85bdc","bdp_wmem","Wed Mar 15 2023 23:22:18 GMT-0400 (Eastern Daylight Time)","571113","Match,No Match","","null","","","","","","<div class='trialBorder'><div class='vertical-center'><img src='img/fixation2_sml.jpg'</img></div></div>","null","DELAY","","","","","","","","","","",""
"html-keyboard-response","43","137992","0.0-7.0-4.1","611401411bf1ede5a4d85bdc","bdp_wmem","Wed Mar 15 2023 23:22:18 GMT-0400 (Eastern Daylight Time)","571113","Match,No Match","","540","","","","","","<div class='trialBorder'><div class='targDiv'><div class='tc'><img class='introPic' src='trustrating_stim/white_mw092.bmp'><br><font color='red'><strong>Keep</strong></font></div></div><div class='respDiv'><div class='respDivL'>Match<br>(e)</div><div class='respDivR'>No Match<br>(i)</div></div></div>","i","TARGET","2","trustrating_stim/white_mw010.bmp,trustrating_stim/white_mw013.bmp","0,1","noMatchFace","i","3000","trustrating_stim/white_mw092.bmp","red","Keep","REAL","1"
"html-keyboard-response","44","138495","0.0-7.0-5.1","611401411bf1ede5a4d85bdc","bdp_wmem","Wed Mar 15 2023 23:22:18 GMT-0400 (Eastern Daylight Time)","571113","Match,No Match","","null","","","","","","<div class='trialBorder'><div class='vertical-center'><img src='img/correct.jpg'></div><div class='respDiv'><div class='respDivL'>Match<br>(e)</div><div class='respDivR'><font style='color:orange'>No Match<br>(i)</font></div></div></div>","null","FEEDBACK","","","","","","","","","","",""
"html-keyboard-response","45","138997","0.0-7.0-1.2","611401411bf1ede5a4d85bdc","bdp_wmem","Wed Mar 15 2023 23:22:18 GMT-0400 (Eastern Daylight Time)","571113","Match,No Match","","null","","","","","","<div class='trialBorder'><div class='vertical-center'><img src='img/fixation2_sml.jpg'</img></div></div>","null","FIX","","","","","","","","","","",""
"html-keyboard-response","46","140500","0.0-7.0-2.2","611401411bf1ede5a4d85bdc","bdp_wmem","Wed Mar 15 2023 23:22:18 GMT-0400 (Eastern Daylight Time)","571113","Match,No Match","","null","","","","","","<div class='trialBorder'><div class='vertical-center'><img style='vertical-align:center; align:center' src='img/fixation2_sml.jpg'></div><div class='arrayDiv1'><div class='tc'><img class='introPic' src='trustrating_stim/white_mw013.bmp'><br><font color='green'><strong>Share</strong></font></div></div></div>","null","ARRAY","1","trustrating_stim/white_mw013.bmp","1","noMatchFace","i","1500","","","","",""
"html-keyboard-response","47","144504","0.0-7.0-3.2","611401411bf1ede5a4d85bdc","bdp_wmem","Wed Mar 15 2023 23:22:18 GMT-0400 (Eastern Daylight Time)","571113","Match,No Match","","null","","","","","","<div class='trialBorder'><div class='vertical-center'><img src='img/fixation2_sml.jpg'</img></div></div>","null","DELAY","","","","","","","","","","",""
"html-keyboard-response","48","146350","0.0-7.0-4.2","611401411bf1ede5a4d85bdc","bdp_wmem","Wed Mar 15 2023 23:22:18 GMT-0400 (Eastern Daylight Time)","571113","Match,No Match","","1843","","","","","","<div class='trialBorder'><div class='targDiv'><div class='tc'><img class='introPic' src='trustrating_stim/white_mw070.bmp'><br><font color='green'><strong>Share</strong></font></div></div><div class='respDiv'><div class='respDivL'>Match<br>(e)</div><div class='respDivR'>No Match<br>(i)</div></div></div>","i","TARGET","1","trustrating_stim/white_mw013.bmp","1","noMatchFace","i","1500","trustrating_stim/white_mw070.bmp","green","Share","REAL","1"
"html-keyboard-response","49","146854","0.0-7.0-5.2","611401411bf1ede5a4d85bdc","bdp_wmem","Wed Mar 15 2023 23:22:18 GMT-0400 (Eastern Daylight Time)","571113","Match,No Match","","null","","","","","","<div class='trialBorder'><div class='vertical-center'><img src='img/correct.jpg'></div><div class='respDiv'><div class='respDivL'>Match<br>(e)</div><div class='respDivR'><font style='color:orange'>No Match<br>(i)</font></div></div></div>","null","FEEDBACK","","","","","","","","","","",""
"html-keyboard-response","50","147356","0.0-7.0-1.3","611401411bf1ede5a4d85bdc","bdp_wmem","Wed Mar 15 2023 23:22:18 GMT-0400 (Eastern Daylight Time)","571113","Match,No Match","","null","","","","","","<div class='trialBorder'><div class='vertical-center'><img src='img/fixation2_sml.jpg'</img></div></div>","null","FIX","","","","","","","","","","",""
"html-keyboard-response","51","151861","0.0-7.0-2.3","611401411bf1ede5a4d85bdc","bdp_wmem","Wed Mar 15 2023 23:22:18 GMT-0400 (Eastern Daylight Time)","571113","Match,No Match","","null","","","","","","<div class='trialBorder'><div class='vertical-center'><img style='vertical-align:center; align:center' src='img/fixation2_sml.jpg'></div><div class='arrayDiv3'><div class='tl'><img class='introPic' src='trustrating_stim/white_mw092.bmp'><br><font color='green'><strong>Share</strong></font></div><div class='tc'><img class='introPic' src='trustrating_stim/white_mw040.bmp'><br><font color='red'><strong>Keep</strong></font></div><div class='tr'><img class='introPic' src='trustrating_stim/white_mw085.bmp'><br><font color='red'><strong>Keep</strong></font></div></div></div>","null","ARRAY","3","trustrating_stim/white_mw092.bmp,trustrating_stim/white_mw040.bmp,trustrating_stim/white_mw085.bmp","1,0,0","Match","e","4500","","","","",""
"html-keyboard-response","52","155864","0.0-7.0-3.3","611401411bf1ede5a4d85bdc","bdp_wmem","Wed Mar 15 2023 23:22:18 GMT-0400 (Eastern Daylight Time)","571113","Match,No Match","","null","","","","","","<div class='trialBorder'><div class='vertical-center'><img src='img/fixation2_sml.jpg'</img></div></div>","null","DELAY","","","","","","","","","","",""
"html-keyboard-response","53","157712","0.0-7.0-4.3","611401411bf1ede5a4d85bdc","bdp_wmem","Wed Mar 15 2023 23:22:18 GMT-0400 (Eastern Daylight Time)","571113","Match,No Match","","1844","","","","","","<div class='trialBorder'><div class='targDiv'><div class='tc'><img class='introPic' src='trustrating_stim/white_mw085.bmp'><br><font color='red'><strong>Keep</strong></font></div></div><div class='respDiv'><div class='respDivL'>Match<br>(e)</div><div class='respDivR'>No Match<br>(i)</div></div></div>","i","TARGET","3","trustrating_stim/white_mw092.bmp,trustrating_stim/white_mw040.bmp,trustrating_stim/white_mw085.bmp","1,0,0","Match","e","4500","trustrating_stim/white_mw085.bmp","red","Keep","REAL","0"
"html-keyboard-response","54","158215","0.0-7.0-5.3","611401411bf1ede5a4d85bdc","bdp_wmem","Wed Mar 15 2023 23:22:18 GMT-0400 (Eastern Daylight Time)","571113","Match,No Match","","null","","","","","","<div class='trialBorder'><div class='vertical-center'><img src='img/error.jpg'></div><div class='respDiv'><div class='respDivL'>Match<br>(e)</div><div class='respDivR'><font style='color:orange'>No Match<br>(i)</font></div></div></div>","null","FEEDBACK","","","","","","","","","","",""
"html-keyboard-response","55","158718","0.0-7.0-1.4","611401411bf1ede5a4d85bdc","bdp_wmem","Wed Mar 15 2023 23:22:18 GMT-0400 (Eastern Daylight Time)","571113","Match,No Match","","null","","","","","","<div class='trialBorder'><div class='vertical-center'><img src='img/fixation2_sml.jpg'</img></div></div>","null","FIX","","","","","","","","","","",""
"html-keyboard-response","56","161721","0.0-7.0-2.4","611401411bf1ede5a4d85bdc","bdp_wmem","Wed Mar 15 2023 23:22:18 GMT-0400 (Eastern Daylight Time)","571113","Match,No Match","","null","","","","","","<div class='trialBorder'><div class='vertical-center'><img style='vertical-align:center; align:center' src='img/fixation2_sml.jpg'></div><div class='arrayDiv2'><div class='tl'><img class='introPic' src='trustrating_stim/white_mw040.bmp'><br><font color='red'><strong>Keep</strong></font></div><div class='tr'><img class='introPic' src='trustrating_stim/white_mw003.bmp'><br><font color='green'><strong>Share</strong></font></div></div></div>","null","ARRAY","2","trustrating_stim/white_mw040.bmp,trustrating_stim/white_mw003.bmp","0,1","noMatchFace","i","3000","","","","",""
"html-keyboard-response","57","165723","0.0-7.0-3.4","611401411bf1ede5a4d85bdc","bdp_wmem","Wed Mar 15 2023 23:22:18 GMT-0400 (Eastern Daylight Time)","571113","Match,No Match","","null","","","","","","<div class='trialBorder'><div class='vertical-center'><img src='img/fixation2_sml.jpg'</img></div></div>","null","DELAY","","","","","","","","","","",""
"html-keyboard-response","58","167197","0.0-7.0-4.4","611401411bf1ede5a4d85bdc","bdp_wmem","Wed Mar 15 2023 23:22:18 GMT-0400 (Eastern Daylight Time)","571113","Match,No Match","","1471","","","","","","<div class='trialBorder'><div class='targDiv'><div class='tc'><img class='introPic' src='trustrating_stim/white_mw042.bmp'><br><font color='green'><strong>Share</strong></font></div></div><div class='respDiv'><div class='respDivL'>Match<br>(e)</div><div class='respDivR'>No Match<br>(i)</div></div></div>","i","TARGET","2","trustrating_stim/white_mw040.bmp,trustrating_stim/white_mw003.bmp","0,1","noMatchFace","i","3000","trustrating_stim/white_mw042.bmp","green","Share","REAL","1"
"html-keyboard-response","59","167699","0.0-7.0-5.4","611401411bf1ede5a4d85bdc","bdp_wmem","Wed Mar 15 2023 23:22:18 GMT-0400 (Eastern Daylight Time)","571113","Match,No Match","","null","","","","","","<div class='trialBorder'><div class='vertical-center'><img src='img/correct.jpg'></div><div class='respDiv'><div class='respDivL'>Match<br>(e)</div><div class='respDivR'><font style='color:orange'>No Match<br>(i)</font></div></div></div>","null","FEEDBACK","","","","","","","","","","",""
"html-keyboard-response","60","168202","0.0-7.0-1.5","611401411bf1ede5a4d85bdc","bdp_wmem","Wed Mar 15 2023 23:22:18 GMT-0400 (Eastern Daylight Time)","571113","Match,No Match","","null","","","","","","<div class='trialBorder'><div class='vertical-center'><img src='img/fixation2_sml.jpg'</img></div></div>","null","FIX","","","","","","","","","","",""
"html-keyboard-response","61","171206","0.0-7.0-2.5","611401411bf1ede5a4d85bdc","bdp_wmem","Wed Mar 15 2023 23:22:18 GMT-0400 (Eastern Daylight Time)","571113","Match,No Match","","null","","","","","","<div class='trialBorder'><div class='vertical-center'><img style='vertical-align:center; align:center' src='img/fixation2_sml.jpg'></div><div class='arrayDiv2'><div class='tl'><img class='introPic' src='trustrating_stim/white_mw085.bmp'><br><font color='green'><strong>Share</strong></font></div><div class='tr'><img class='introPic' src='trustrating_stim/white_mw003.bmp'><br><font color='red'><strong>Keep</strong></font></div></div></div>","null","ARRAY","2","trustrating_stim/white_mw085.bmp,trustrating_stim/white_mw003.bmp","1,0","noMatchOutcome","i","3000","","","","",""
"html-keyboard-response","62","175208","0.0-7.0-3.5","611401411bf1ede5a4d85bdc","bdp_wmem","Wed Mar 15 2023 23:22:18 GMT-0400 (Eastern Daylight Time)","571113","Match,No Match","","null","","","","","","<div class='trialBorder'><div class='vertical-center'><img src='img/fixation2_sml.jpg'</img></div></div>","null","DELAY","","","","","","","","","","",""
"html-keyboard-response","63","176984","0.0-7.0-4.5","611401411bf1ede5a4d85bdc","bdp_wmem","Wed Mar 15 2023 23:22:18 GMT-0400 (Eastern Daylight Time)","571113","Match,No Match","","1772","","","","","","<div class='trialBorder'><div class='targDiv'><div class='tc'><img class='introPic' src='trustrating_stim/white_mw085.bmp'><br><font color='red'><strong>Keep</strong></font></div></div><div class='respDiv'><div class='respDivL'>Match<br>(e)</div><div class='respDivR'>No Match<br>(i)</div></div></div>","e","TARGET","2","trustrating_stim/white_mw085.bmp,trustrating_stim/white_mw003.bmp","1,0","noMatchOutcome","i","3000","trustrating_stim/white_mw085.bmp","red","Keep","REAL","0"
"html-keyboard-response","64","177487","0.0-7.0-5.5","611401411bf1ede5a4d85bdc","bdp_wmem","Wed Mar 15 2023 23:22:18 GMT-0400 (Eastern Daylight Time)","571113","Match,No Match","","null","","","","","","<div class='trialBorder'><div class='vertical-center'><img src='img/error.jpg'></div><div class='respDiv'><div class='respDivL'><font style='color:orange'>Match<br>(e)</font></div><div class='respDivR'>No Match<br>(i)</div></div></div>","null","FEEDBACK","","","","","","","","","","",""
"html-keyboard-response","65","177990","0.0-7.0-1.6","611401411bf1ede5a4d85bdc","bdp_wmem","Wed Mar 15 2023 23:22:18 GMT-0400 (Eastern Daylight Time)","571113","Match,No Match","","null","","","","","","<div class='trialBorder'><div class='vertical-center'><img src='img/fixation2_sml.jpg'</img></div></div>","null","FIX","","","","","","","","","","",""
"html-keyboard-response","66","179492","0.0-7.0-2.6","611401411bf1ede5a4d85bdc","bdp_wmem","Wed Mar 15 2023 23:22:18 GMT-0400 (Eastern Daylight Time)","571113","Match,No Match","","null","","","","","","<div class='trialBorder'><div class='vertical-center'><img style='vertical-align:center; align:center' src='img/fixation2_sml.jpg'></div><div class='arrayDiv1'><div class='tc'><img class='introPic' src='trustrating_stim/white_mw085.bmp'><br><font color='green'><strong>Share</strong></font></div></div></div>","null","ARRAY","1","trustrating_stim/white_mw085.bmp","1","Match","e","1500","","","","",""
"html-keyboard-response","67","183494","0.0-7.0-3.6","611401411bf1ede5a4d85bdc","bdp_wmem","Wed Mar 15 2023 23:22:18 GMT-0400 (Eastern Daylight Time)","571113","Match,No Match","","null","","","","","","<div class='trialBorder'><div class='vertical-center'><img src='img/fixation2_sml.jpg'</img></div></div>","null","DELAY","","","","","","","","","","",""
"html-keyboard-response","68","184279","0.0-7.0-4.6","611401411bf1ede5a4d85bdc","bdp_wmem","Wed Mar 15 2023 23:22:18 GMT-0400 (Eastern Daylight Time)","571113","Match,No Match","","783","","","","","","<div class='trialBorder'><div class='targDiv'><div class='tc'><img class='introPic' src='trustrating_stim/white_mw085.bmp'><br><font color='green'><strong>Share</strong></font></div></div><div class='respDiv'><div class='respDivL'>Match<br>(e)</div><div class='respDivR'>No Match<br>(i)</div></div></div>","e","TARGET","1","trustrating_stim/white_mw085.bmp","1","Match","e","1500","trustrating_stim/white_mw085.bmp","green","Share","REAL","1"
"html-keyboard-response","69","184781","0.0-7.0-5.6","611401411bf1ede5a4d85bdc","bdp_wmem","Wed Mar 15 2023 23:22:18 GMT-0400 (Eastern Daylight Time)","571113","Match,No Match","","null","","","","","","<div class='trialBorder'><div class='vertical-center'><img src='img/correct.jpg'></div><div class='respDiv'><div class='respDivL'><font style='color:orange'>Match<br>(e)</font></div><div class='respDivR'>No Match<br>(i)</div></div></div>","null","FEEDBACK","","","","","","","","","","",""
"html-keyboard-response","70","185283","0.0-7.0-1.7","611401411bf1ede5a4d85bdc","bdp_wmem","Wed Mar 15 2023 23:22:18 GMT-0400 (Eastern Daylight Time)","571113","Match,No Match","","null","","","","","","<div class='trialBorder'><div class='vertical-center'><img src='img/fixation2_sml.jpg'</img></div></div>","null","FIX","","","","","","","","","","",""
"html-keyboard-response","71","186787","0.0-7.0-2.7","611401411bf1ede5a4d85bdc","bdp_wmem","Wed Mar 15 2023 23:22:18 GMT-0400 (Eastern Daylight Time)","571113","Match,No Match","","null","","","","","","<div class='trialBorder'><div class='vertical-center'><img style='vertical-align:center; align:center' src='img/fixation2_sml.jpg'></div><div class='arrayDiv1'><div class='tc'><img class='introPic' src='trustrating_stim/white_mw040.bmp'><br><font color='green'><strong>Share</strong></font></div></div></div>","null","ARRAY","1","trustrating_stim/white_mw040.bmp","1","noMatchOutcome","i","1500","","","","",""
"html-keyboard-response","72","190788","0.0-7.0-3.7","611401411bf1ede5a4d85bdc","bdp_wmem","Wed Mar 15 2023 23:22:18 GMT-0400 (Eastern Daylight Time)","571113","Match,No Match","","null","","","","","","<div class='trialBorder'><div class='vertical-center'><img src='img/fixation2_sml.jpg'</img></div></div>","null","DELAY","","","","","","","","","","",""
"html-keyboard-response","73","192103","0.0-7.0-4.7","611401411bf1ede5a4d85bdc","bdp_wmem","Wed Mar 15 2023 23:22:18 GMT-0400 (Eastern Daylight Time)","571113","Match,No Match","","1311","","","","","","<div class='trialBorder'><div class='targDiv'><div class='tc'><img class='introPic' src='trustrating_stim/white_mw040.bmp'><br><font color='red'><strong>Keep</strong></font></div></div><div class='respDiv'><div class='respDivL'>Match<br>(e)</div><div class='respDivR'>No Match<br>(i)</div></div></div>","i","TARGET","1","trustrating_stim/white_mw040.bmp","1","noMatchOutcome","i","1500","trustrating_stim/white_mw040.bmp","red","Keep","REAL","1"
"html-keyboard-response","74","192605","0.0-7.0-5.7","611401411bf1ede5a4d85bdc","bdp_wmem","Wed Mar 15 2023 23:22:18 GMT-0400 (Eastern Daylight Time)","571113","Match,No Match","","null","","","","","","<div class='trialBorder'><div class='vertical-center'><img src='img/correct.jpg'></div><div class='respDiv'><div class='respDivL'>Match<br>(e)</div><div class='respDivR'><font style='color:orange'>No Match<br>(i)</font></div></div></div>","null","FEEDBACK","","","","","","","","","","",""
"html-keyboard-response","75","193108","0.0-7.0-1.8","611401411bf1ede5a4d85bdc","bdp_wmem","Wed Mar 15 2023 23:22:18 GMT-0400 (Eastern Daylight Time)","571113","Match,No Match","","null","","","","","","<div class='trialBorder'><div class='vertical-center'><img src='img/fixation2_sml.jpg'</img></div></div>","null","FIX","","","","","","","","","","",""
"html-keyboard-response","76","194610","0.0-7.0-2.8","611401411bf1ede5a4d85bdc","bdp_wmem","Wed Mar 15 2023 23:22:18 GMT-0400 (Eastern Daylight Time)","571113","Match,No Match","","null","","","","","","<div class='trialBorder'><div class='vertical-center'><img style='vertical-align:center; align:center' src='img/fixation2_sml.jpg'></div><div class='arrayDiv1'><div class='tc'><img class='introPic' src='trustrating_stim/white_mw070.bmp'><br><font color='green'><strong>Share</strong></font></div></div></div>","null","ARRAY","1","trustrating_stim/white_mw070.bmp","1","noMatchOutcome","i","1500","","","","",""
"html-keyboard-response","77","198613","0.0-7.0-3.8","611401411bf1ede5a4d85bdc","bdp_wmem","Wed Mar 15 2023 23:22:18 GMT-0400 (Eastern Daylight Time)","571113","Match,No Match","","null","","","","","","<div class='trialBorder'><div class='vertical-center'><img src='img/fixation2_sml.jpg'</img></div></div>","null","DELAY","","","","","","","","","","",""
"html-keyboard-response","78","199701","0.0-7.0-4.8","611401411bf1ede5a4d85bdc","bdp_wmem","Wed Mar 15 2023 23:22:18 GMT-0400 (Eastern Daylight Time)","571113","Match,No Match","","1084","","","","","","<div class='trialBorder'><div class='targDiv'><div class='tc'><img class='introPic' src='trustrating_stim/white_mw070.bmp'><br><font color='red'><strong>Keep</strong></font></div></div><div class='respDiv'><div class='respDivL'>Match<br>(e)</div><div class='respDivR'>No Match<br>(i)</div></div></div>","i","TARGET","1","trustrating_stim/white_mw070.bmp","1","noMatchOutcome","i","1500","trustrating_stim/white_mw070.bmp","red","Keep","REAL","1"
"html-keyboard-response","79","200204","0.0-7.0-5.8","611401411bf1ede5a4d85bdc","bdp_wmem","Wed Mar 15 2023 23:22:18 GMT-0400 (Eastern Daylight Time)","571113","Match,No Match","","null","","","","","","<div class='trialBorder'><div class='vertical-center'><img src='img/correct.jpg'></div><div class='respDiv'><div class='respDivL'>Match<br>(e)</div><div class='respDivR'><font style='color:orange'>No Match<br>(i)</font></div></div></div>","null","FEEDBACK","","","","","","","","","","",""
"html-keyboard-response","80","200706","0.0-7.0-1.9","611401411bf1ede5a4d85bdc","bdp_wmem","Wed Mar 15 2023 23:22:18 GMT-0400 (Eastern Daylight Time)","571113","Match,No Match","","null","","","","","","<div class='trialBorder'><div class='vertical-center'><img src='img/fixation2_sml.jpg'</img></div></div>","null","FIX","","","","","","","","","","",""
"html-keyboard-response","81","203709","0.0-7.0-2.9","611401411bf1ede5a4d85bdc","bdp_wmem","Wed Mar 15 2023 23:22:18 GMT-0400 (Eastern Daylight Time)","571113","Match,No Match","","null","","","","","","<div class='trialBorder'><div class='vertical-center'><img style='vertical-align:center; align:center' src='img/fixation2_sml.jpg'></div><div class='arrayDiv2'><div class='tl'><img class='introPic' src='trustrating_stim/white_mw010.bmp'><br><font color='red'><strong>Keep</strong></font></div><div class='tr'><img class='introPic' src='trustrating_stim/white_mw042.bmp'><br><font color='green'><strong>Share</strong></font></div></div></div>","null","ARRAY","2","trustrating_stim/white_mw010.bmp,trustrating_stim/white_mw042.bmp","0,1","noMatchOutcome","i","3000","","","","",""
"html-keyboard-response","82","207712","0.0-7.0-3.9","611401411bf1ede5a4d85bdc","bdp_wmem","Wed Mar 15 2023 23:22:18 GMT-0400 (Eastern Daylight Time)","571113","Match,No Match","","null","","","","","","<div class='trialBorder'><div class='vertical-center'><img src='img/fixation2_sml.jpg'</img></div></div>","null","DELAY","","","","","","","","","","",""
"html-keyboard-response","83","209129","0.0-7.0-4.9","611401411bf1ede5a4d85bdc","bdp_wmem","Wed Mar 15 2023 23:22:18 GMT-0400 (Eastern Daylight Time)","571113","Match,No Match","","1412","","","","","","<div class='trialBorder'><div class='targDiv'><div class='tc'><img class='introPic' src='trustrating_stim/white_mw042.bmp'><br><font color='red'><strong>Keep</strong></font></div></div><div class='respDiv'><div class='respDivL'>Match<br>(e)</div><div class='respDivR'>No Match<br>(i)</div></div></div>","e","TARGET","2","trustrating_stim/white_mw010.bmp,trustrating_stim/white_mw042.bmp","0,1","noMatchOutcome","i","3000","trustrating_stim/white_mw042.bmp","red","Keep","REAL","0"
"html-keyboard-response","84","209631","0.0-7.0-5.9","611401411bf1ede5a4d85bdc","bdp_wmem","Wed Mar 15 2023 23:22:18 GMT-0400 (Eastern Daylight Time)","571113","Match,No Match","","null","","","","","","<div class='trialBorder'><div class='vertical-center'><img src='img/error.jpg'></div><div class='respDiv'><div class='respDivL'><font style='color:orange'>Match<br>(e)</font></div><div class='respDivR'>No Match<br>(i)</div></div></div>","null","FEEDBACK","","","","","","","","","","",""
"html-keyboard-response","85","210135","0.0-7.0-1.10","611401411bf1ede5a4d85bdc","bdp_wmem","Wed Mar 15 2023 23:22:18 GMT-0400 (Eastern Daylight Time)","571113","Match,No Match","","null","","","","","","<div class='trialBorder'><div class='vertical-center'><img src='img/fixation2_sml.jpg'</img></div></div>","null","FIX","","","","","","","","","","",""
"html-keyboard-response","86","213140","0.0-7.0-2.10","611401411bf1ede5a4d85bdc","bdp_wmem","Wed Mar 15 2023 23:22:18 GMT-0400 (Eastern Daylight Time)","571113","Match,No Match","","null","","","","","","<div class='trialBorder'><div class='vertical-center'><img style='vertical-align:center; align:center' src='img/fixation2_sml.jpg'></div><div class='arrayDiv2'><div class='tl'><img class='introPic' src='trustrating_stim/white_mw012.bmp'><br><font color='red'><strong>Keep</strong></font></div><div class='tr'><img class='introPic' src='trustrating_stim/white_mw091.bmp'><br><font color='green'><strong>Share</strong></font></div></div></div>","null","ARRAY","2","trustrating_stim/white_mw012.bmp,trustrating_stim/white_mw091.bmp","0,1","Match","e","3000","","","","",""
"html-keyboard-response","87","217142","0.0-7.0-3.10","611401411bf1ede5a4d85bdc","bdp_wmem","Wed Mar 15 2023 23:22:18 GMT-0400 (Eastern Daylight Time)","571113","Match,No Match","","null","","","","","","<div class='trialBorder'><div class='vertical-center'><img src='img/fixation2_sml.jpg'</img></div></div>","null","DELAY","","","","","","","","","","",""
"html-keyboard-response","88","217991","0.0-7.0-4.10","611401411bf1ede5a4d85bdc","bdp_wmem","Wed Mar 15 2023 23:22:18 GMT-0400 (Eastern Daylight Time)","571113","Match,No Match","","847","","","","","","<div class='trialBorder'><div class='targDiv'><div class='tc'><img class='introPic' src='trustrating_stim/white_mw091.bmp'><br><font color='green'><strong>Share</strong></font></div></div><div class='respDiv'><div class='respDivL'>Match<br>(e)</div><div class='respDivR'>No Match<br>(i)</div></div></div>","i","TARGET","2","trustrating_stim/white_mw012.bmp,trustrating_stim/white_mw091.bmp","0,1","Match","e","3000","trustrating_stim/white_mw091.bmp","green","Share","REAL","0"
"html-keyboard-response","89","218495","0.0-7.0-5.10","611401411bf1ede5a4d85bdc","bdp_wmem","Wed Mar 15 2023 23:22:18 GMT-0400 (Eastern Daylight Time)","571113","Match,No Match","","null","","","","","","<div class='trialBorder'><div class='vertical-center'><img src='img/error.jpg'></div><div class='respDiv'><div class='respDivL'>Match<br>(e)</div><div class='respDivR'><font style='color:orange'>No Match<br>(i)</font></div></div></div>","null","FEEDBACK","","","","","","","","","","",""
"html-keyboard-response","90","218997","0.0-7.0-1.11","611401411bf1ede5a4d85bdc","bdp_wmem","Wed Mar 15 2023 23:22:18 GMT-0400 (Eastern Daylight Time)","571113","Match,No Match","","null","","","","","","<div class='trialBorder'><div class='vertical-center'><img src='img/fixation2_sml.jpg'</img></div></div>","null","FIX","","","","","","","","","","",""
"html-keyboard-response","91","223501","0.0-7.0-2.11","611401411bf1ede5a4d85bdc","bdp_wmem","Wed Mar 15 2023 23:22:18 GMT-0400 (Eastern Daylight Time)","571113","Match,No Match","","null","","","","","","<div class='trialBorder'><div class='vertical-center'><img style='vertical-align:center; align:center' src='img/fixation2_sml.jpg'></div><div class='arrayDiv3'><div class='tl'><img class='introPic' src='trustrating_stim/white_mw070.bmp'><br><font color='green'><strong>Share</strong></font></div><div class='tc'><img class='introPic' src='trustrating_stim/white_mw092.bmp'><br><font color='red'><strong>Keep</strong></font></div><div class='tr'><img class='introPic' src='trustrating_stim/white_mw042.bmp'><br><font color='green'><strong>Share</strong></font></div></div></div>","null","ARRAY","3","trustrating_stim/white_mw070.bmp,trustrating_stim/white_mw092.bmp,trustrating_stim/white_mw042.bmp","1,0,1","Match","e","4500","","","","",""
"html-keyboard-response","92","227504","0.0-7.0-3.11","611401411bf1ede5a4d85bdc","bdp_wmem","Wed Mar 15 2023 23:22:18 GMT-0400 (Eastern Daylight Time)","571113","Match,No Match","","null","","","","","","<div class='trialBorder'><div class='vertical-center'><img src='img/fixation2_sml.jpg'</img></div></div>","null","DELAY","","","","","","","","","","",""
"html-keyboard-response","93","228647","0.0-7.0-4.11","611401411bf1ede5a4d85bdc","bdp_wmem","Wed Mar 15 2023 23:22:18 GMT-0400 (Eastern Daylight Time)","571113","Match,No Match","","1140","","","","","","<div class='trialBorder'><div class='targDiv'><div class='tc'><img class='introPic' src='trustrating_stim/white_mw070.bmp'><br><font color='green'><strong>Share</strong></font></div></div><div class='respDiv'><div class='respDivL'>Match<br>(e)</div><div class='respDivR'>No Match<br>(i)</div></div></div>","e","TARGET","3","trustrating_stim/white_mw070.bmp,trustrating_stim/white_mw092.bmp,trustrating_stim/white_mw042.bmp","1,0,1","Match","e","4500","trustrating_stim/white_mw070.bmp","green","Share","REAL","1"
"html-keyboard-response","94","229149","0.0-7.0-5.11","611401411bf1ede5a4d85bdc","bdp_wmem","Wed Mar 15 2023 23:22:18 GMT-0400 (Eastern Daylight Time)","571113","Match,No Match","","null","","","","","","<div class='trialBorder'><div class='vertical-center'><img src='img/correct.jpg'></div><div class='respDiv'><div class='respDivL'><font style='color:orange'>Match<br>(e)</font></div><div class='respDivR'>No Match<br>(i)</div></div></div>","null","FEEDBACK","","","","","","","","","","",""
"html-keyboard-response","95","229652","0.0-7.0-1.12","611401411bf1ede5a4d85bdc","bdp_wmem","Wed Mar 15 2023 23:22:18 GMT-0400 (Eastern Daylight Time)","571113","Match,No Match","","null","","","","","","<div class='trialBorder'><div class='vertical-center'><img src='img/fixation2_sml.jpg'</img></div></div>","null","FIX","","","","","","","","","","",""
"html-keyboard-response","96","234155","0.0-7.0-2.12","611401411bf1ede5a4d85bdc","bdp_wmem","Wed Mar 15 2023 23:22:18 GMT-0400 (Eastern Daylight Time)","571113","Match,No Match","","null","","","","","","<div class='trialBorder'><div class='vertical-center'><img style='vertical-align:center; align:center' src='img/fixation2_sml.jpg'></div><div class='arrayDiv3'><div class='tl'><img class='introPic' src='trustrating_stim/white_mw042.bmp'><br><font color='green'><strong>Share</strong></font></div><div class='tc'><img class='introPic' src='trustrating_stim/white_mw070.bmp'><br><font color='green'><strong>Share</strong></font></div><div class='tr'><img class='introPic' src='trustrating_stim/white_mw040.bmp'><br><font color='red'><strong>Keep</strong></font></div></div></div>","null","ARRAY","3","trustrating_stim/white_mw042.bmp,trustrating_stim/white_mw070.bmp,trustrating_stim/white_mw040.bmp","1,1,0","noMatchOutcome","i","4500","","","","",""
"html-keyboard-response","97","238158","0.0-7.0-3.12","611401411bf1ede5a4d85bdc","bdp_wmem","Wed Mar 15 2023 23:22:18 GMT-0400 (Eastern Daylight Time)","571113","Match,No Match","","null","","","","","","<div class='trialBorder'><div class='vertical-center'><img src='img/fixation2_sml.jpg'</img></div></div>","null","DELAY","","","","","","","","","","",""
"html-keyboard-response","98","239436","0.0-7.0-4.12","611401411bf1ede5a4d85bdc","bdp_wmem","Wed Mar 15 2023 23:22:18 GMT-0400 (Eastern Daylight Time)","571113","Match,No Match","","1277","","","","","","<div class='trialBorder'><div class='targDiv'><div class='tc'><img class='introPic' src='trustrating_stim/white_mw042.bmp'><br><font color='red'><strong>Keep</strong></font></div></div><div class='respDiv'><div class='respDivL'>Match<br>(e)</div><div class='respDivR'>No Match<br>(i)</div></div></div>","e","TARGET","3","trustrating_stim/white_mw042.bmp,trustrating_stim/white_mw070.bmp,trustrating_stim/white_mw040.bmp","1,1,0","noMatchOutcome","i","4500","trustrating_stim/white_mw042.bmp","red","Keep","REAL","0"
"html-keyboard-response","99","239938","0.0-7.0-5.12","611401411bf1ede5a4d85bdc","bdp_wmem","Wed Mar 15 2023 23:22:18 GMT-0400 (Eastern Daylight Time)","571113","Match,No Match","","null","","","","","","<div class='trialBorder'><div class='vertical-center'><img src='img/error.jpg'></div><div class='respDiv'><div class='respDivL'><font style='color:orange'>Match<br>(e)</font></div><div class='respDivR'>No Match<br>(i)</div></div></div>","null","FEEDBACK","","","","","","","","","","",""
"html-keyboard-response","100","240441","0.0-7.0-1.13","611401411bf1ede5a4d85bdc","bdp_wmem","Wed Mar 15 2023 23:22:18 GMT-0400 (Eastern Daylight Time)","571113","Match,No Match","","null","","","","","","<div class='trialBorder'><div class='vertical-center'><img src='img/fixation2_sml.jpg'</img></div></div>","null","FIX","","","","","","","","","","",""
"html-keyboard-response","101","241944","0.0-7.0-2.13","611401411bf1ede5a4d85bdc","bdp_wmem","Wed Mar 15 2023 23:22:18 GMT-0400 (Eastern Daylight Time)","571113","Match,No Match","","null","","","","","","<div class='trialBorder'><div class='vertical-center'><img style='vertical-align:center; align:center' src='img/fixation2_sml.jpg'></div><div class='arrayDiv1'><div class='tc'><img class='introPic' src='trustrating_stim/white_mw042.bmp'><br><font color='red'><strong>Keep</strong></font></div></div></div>","null","ARRAY","1","trustrating_stim/white_mw042.bmp","0","Match","e","1500","","","","",""
"html-keyboard-response","102","245946","0.0-7.0-3.13","611401411bf1ede5a4d85bdc","bdp_wmem","Wed Mar 15 2023 23:22:18 GMT-0400 (Eastern Daylight Time)","571113","Match,No Match","","null","","","","","","<div class='trialBorder'><div class='vertical-center'><img src='img/fixation2_sml.jpg'</img></div></div>","null","DELAY","","","","","","","","","","",""
"html-keyboard-response","103","247022","0.0-7.0-4.13","611401411bf1ede5a4d85bdc","bdp_wmem","Wed Mar 15 2023 23:22:18 GMT-0400 (Eastern Daylight Time)","571113","Match,No Match","","1075","","","","","","<div class='trialBorder'><div class='targDiv'><div class='tc'><img class='introPic' src='trustrating_stim/white_mw042.bmp'><br><font color='red'><strong>Keep</strong></font></div></div><div class='respDiv'><div class='respDivL'>Match<br>(e)</div><div class='respDivR'>No Match<br>(i)</div></div></div>","i","TARGET","1","trustrating_stim/white_mw042.bmp","0","Match","e","1500","trustrating_stim/white_mw042.bmp","red","Keep","REAL","0"
"html-keyboard-response","104","247524","0.0-7.0-5.13","611401411bf1ede5a4d85bdc","bdp_wmem","Wed Mar 15 2023 23:22:18 GMT-0400 (Eastern Daylight Time)","571113","Match,No Match","","null","","","","","","<div class='trialBorder'><div class='vertical-center'><img src='img/error.jpg'></div><div class='respDiv'><div class='respDivL'>Match<br>(e)</div><div class='respDivR'><font style='color:orange'>No Match<br>(i)</font></div></div></div>","null","FEEDBACK","","","","","","","","","","",""
"html-keyboard-response","105","248026","0.0-7.0-1.14","611401411bf1ede5a4d85bdc","bdp_wmem","Wed Mar 15 2023 23:22:18 GMT-0400 (Eastern Daylight Time)","571113","Match,No Match","","null","","","","","","<div class='trialBorder'><div class='vertical-center'><img src='img/fixation2_sml.jpg'</img></div></div>","null","FIX","","","","","","","","","","",""
"html-keyboard-response","106","252529","0.0-7.0-2.14","611401411bf1ede5a4d85bdc","bdp_wmem","Wed Mar 15 2023 23:22:18 GMT-0400 (Eastern Daylight Time)","571113","Match,No Match","","null","","","","","","<div class='trialBorder'><div class='vertical-center'><img style='vertical-align:center; align:center' src='img/fixation2_sml.jpg'></div><div class='arrayDiv3'><div class='tl'><img class='introPic' src='trustrating_stim/white_mw010.bmp'><br><font color='green'><strong>Share</strong></font></div><div class='tc'><img class='introPic' src='trustrating_stim/white_mw042.bmp'><br><font color='green'><strong>Share</strong></font></div><div class='tr'><img class='introPic' src='trustrating_stim/white_mw013.bmp'><br><font color='red'><strong>Keep</strong></font></div></div></div>","null","ARRAY","3","trustrating_stim/white_mw010.bmp,trustrating_stim/white_mw042.bmp,trustrating_stim/white_mw013.bmp","1,1,0","noMatchFace","i","4500","","","","",""
"html-keyboard-response","107","256532","0.0-7.0-3.14","611401411bf1ede5a4d85bdc","bdp_wmem","Wed Mar 15 2023 23:22:18 GMT-0400 (Eastern Daylight Time)","571113","Match,No Match","","null","","","","","","<div class='trialBorder'><div class='vertical-center'><img src='img/fixation2_sml.jpg'</img></div></div>","null","DELAY","","","","","","","","","","",""
"html-keyboard-response","108","258277","0.0-7.0-4.14","611401411bf1ede5a4d85bdc","bdp_wmem","Wed Mar 15 2023 23:22:18 GMT-0400 (Eastern Daylight Time)","571113","Match,No Match","","1742","","","","","","<div class='trialBorder'><div class='targDiv'><div class='tc'><img class='introPic' src='trustrating_stim/white_mw040.bmp'><br><font color='green'><strong>Share</strong></font></div></div><div class='respDiv'><div class='respDivL'>Match<br>(e)</div><div class='respDivR'>No Match<br>(i)</div></div></div>","e","TARGET","3","trustrating_stim/white_mw010.bmp,trustrating_stim/white_mw042.bmp,trustrating_stim/white_mw013.bmp","1,1,0","noMatchFace","i","4500","trustrating_stim/white_mw040.bmp","green","Share","REAL","0"
"html-keyboard-response","109","258779","0.0-7.0-5.14","611401411bf1ede5a4d85bdc","bdp_wmem","Wed Mar 15 2023 23:22:18 GMT-0400 (Eastern Daylight Time)","571113","Match,No Match","","null","","","","","","<div class='trialBorder'><div class='vertical-center'><img src='img/error.jpg'></div><div class='respDiv'><div class='respDivL'><font style='color:orange'>Match<br>(e)</font></div><div class='respDivR'>No Match<br>(i)</div></div></div>","null","FEEDBACK","","","","","","","","","","",""
"html-keyboard-response","110","259281","0.0-7.0-1.15","611401411bf1ede5a4d85bdc","bdp_wmem","Wed Mar 15 2023 23:22:18 GMT-0400 (Eastern Daylight Time)","571113","Match,No Match","","null","","","","","","<div class='trialBorder'><div class='vertical-center'><img src='img/fixation2_sml.jpg'</img></div></div>","null","FIX","","","","","","","","","","",""
"html-keyboard-response","111","262285","0.0-7.0-2.15","611401411bf1ede5a4d85bdc","bdp_wmem","Wed Mar 15 2023 23:22:18 GMT-0400 (Eastern Daylight Time)","571113","Match,No Match","","null","","","","","","<div class='trialBorder'><div class='vertical-center'><img style='vertical-align:center; align:center' src='img/fixation2_sml.jpg'></div><div class='arrayDiv2'><div class='tl'><img class='introPic' src='trustrating_stim/white_mw040.bmp'><br><font color='red'><strong>Keep</strong></font></div><div class='tr'><img class='introPic' src='trustrating_stim/white_mw085.bmp'><br><font color='green'><strong>Share</strong></font></div></div></div>","null","ARRAY","2","trustrating_stim/white_mw040.bmp,trustrating_stim/white_mw085.bmp","0,1","Match","e","3000","","","","",""
"html-keyboard-response","112","266288","0.0-7.0-3.15","611401411bf1ede5a4d85bdc","bdp_wmem","Wed Mar 15 2023 23:22:18 GMT-0400 (Eastern Daylight Time)","571113","Match,No Match","","null","","","","","","<div class='trialBorder'><div class='vertical-center'><img src='img/fixation2_sml.jpg'</img></div></div>","null","DELAY","","","","","","","","","","",""
"html-keyboard-response","113","267383","0.0-7.0-4.15","611401411bf1ede5a4d85bdc","bdp_wmem","Wed Mar 15 2023 23:22:18 GMT-0400 (Eastern Daylight Time)","571113","Match,No Match","","1092","","","","","","<div class='trialBorder'><div class='targDiv'><div class='tc'><img class='introPic' src='trustrating_stim/white_mw085.bmp'><br><font color='green'><strong>Share</strong></font></div></div><div class='respDiv'><div class='respDivL'>Match<br>(e)</div><div class='respDivR'>No Match<br>(i)</div></div></div>","e","TARGET","2","trustrating_stim/white_mw040.bmp,trustrating_stim/white_mw085.bmp","0,1","Match","e","3000","trustrating_stim/white_mw085.bmp","green","Share","REAL","1"
"html-keyboard-response","114","267887","0.0-7.0-5.15","611401411bf1ede5a4d85bdc","bdp_wmem","Wed Mar 15 2023 23:22:18 GMT-0400 (Eastern Daylight Time)","571113","Match,No Match","","null","","","","","","<div class='trialBorder'><div class='vertical-center'><img src='img/correct.jpg'></div><div class='respDiv'><div class='respDivL'><font style='color:orange'>Match<br>(e)</font></div><div class='respDivR'>No Match<br>(i)</div></div></div>","null","FEEDBACK","","","","","","","","","","",""
"html-keyboard-response","115","268390","0.0-7.0-1.16","611401411bf1ede5a4d85bdc","bdp_wmem","Wed Mar 15 2023 23:22:18 GMT-0400 (Eastern Daylight Time)","571113","Match,No Match","","null","","","","","","<div class='trialBorder'><div class='vertical-center'><img src='img/fixation2_sml.jpg'</img></div></div>","null","FIX","","","","","","","","","","",""
"html-keyboard-response","116","271394","0.0-7.0-2.16","611401411bf1ede5a4d85bdc","bdp_wmem","Wed Mar 15 2023 23:22:18 GMT-0400 (Eastern Daylight Time)","571113","Match,No Match","","null","","","","","","<div class='trialBorder'><div class='vertical-center'><img style='vertical-align:center; align:center' src='img/fixation2_sml.jpg'></div><div class='arrayDiv2'><div class='tl'><img class='introPic' src='trustrating_stim/white_mw040.bmp'><br><font color='red'><strong>Keep</strong></font></div><div class='tr'><img class='introPic' src='trustrating_stim/white_mw038.bmp'><br><font color='green'><strong>Share</strong></font></div></div></div>","null","ARRAY","2","trustrating_stim/white_mw040.bmp,trustrating_stim/white_mw038.bmp","0,1","noMatchFace","i","3000","","","","",""
"html-keyboard-response","117","275397","0.0-7.0-3.16","611401411bf1ede5a4d85bdc","bdp_wmem","Wed Mar 15 2023 23:22:18 GMT-0400 (Eastern Daylight Time)","571113","Match,No Match","","null","","","","","","<div class='trialBorder'><div class='vertical-center'><img src='img/fixation2_sml.jpg'</img></div></div>","null","DELAY","","","","","","","","","","",""
"html-keyboard-response","118","276803","0.0-7.0-4.16","611401411bf1ede5a4d85bdc","bdp_wmem","Wed Mar 15 2023 23:22:18 GMT-0400 (Eastern Daylight Time)","571113","Match,No Match","","1402","","","","","","<div class='trialBorder'><div class='targDiv'><div class='tc'><img class='introPic' src='trustrating_stim/white_mw091.bmp'><br><font color='green'><strong>Share</strong></font></div></div><div class='respDiv'><div class='respDivL'>Match<br>(e)</div><div class='respDivR'>No Match<br>(i)</div></div></div>","i","TARGET","2","trustrating_stim/white_mw040.bmp,trustrating_stim/white_mw038.bmp","0,1","noMatchFace","i","3000","trustrating_stim/white_mw091.bmp","green","Share","REAL","1"
"html-keyboard-response","119","277307","0.0-7.0-5.16","611401411bf1ede5a4d85bdc","bdp_wmem","Wed Mar 15 2023 23:22:18 GMT-0400 (Eastern Daylight Time)","571113","Match,No Match","","null","","","","","","<div class='trialBorder'><div class='vertical-center'><img src='img/correct.jpg'></div><div class='respDiv'><div class='respDivL'>Match<br>(e)</div><div class='respDivR'><font style='color:orange'>No Match<br>(i)</font></div></div></div>","null","FEEDBACK","","","","","","","","","","",""
"html-keyboard-response","120","277811","0.0-7.0-1.17","611401411bf1ede5a4d85bdc","bdp_wmem","Wed Mar 15 2023 23:22:18 GMT-0400 (Eastern Daylight Time)","571113","Match,No Match","","null","","","","","","<div class='trialBorder'><div class='vertical-center'><img src='img/fixation2_sml.jpg'</img></div></div>","null","FIX","","","","","","","","","","",""
"html-keyboard-response","121","279314","0.0-7.0-2.17","611401411bf1ede5a4d85bdc","bdp_wmem","Wed Mar 15 2023 23:22:18 GMT-0400 (Eastern Daylight Time)","571113","Match,No Match","","null","","","","","","<div class='trialBorder'><div class='vertical-center'><img style='vertical-align:center; align:center' src='img/fixation2_sml.jpg'></div><div class='arrayDiv1'><div class='tc'><img class='introPic' src='trustrating_stim/white_mw091.bmp'><br><font color='green'><strong>Share</strong></font></div></div></div>","null","ARRAY","1","trustrating_stim/white_mw091.bmp","1","noMatchFace","i","1500","","","","",""
"html-keyboard-response","122","283315","0.0-7.0-3.17","611401411bf1ede5a4d85bdc","bdp_wmem","Wed Mar 15 2023 23:22:18 GMT-0400 (Eastern Daylight Time)","571113","Match,No Match","","null","","","","","","<div class='trialBorder'><div class='vertical-center'><img src='img/fixation2_sml.jpg'</img></div></div>","null","DELAY","","","","","","","","","","",""
"html-keyboard-response","123","284237","0.0-7.0-4.17","611401411bf1ede5a4d85bdc","bdp_wmem","Wed Mar 15 2023 23:22:18 GMT-0400 (Eastern Daylight Time)","571113","Match,No Match","","918","","","","","","<div class='trialBorder'><div class='targDiv'><div class='tc'><img class='introPic' src='trustrating_stim/white_mw042.bmp'><br><font color='green'><strong>Share</strong></font></div></div><div class='respDiv'><div class='respDivL'>Match<br>(e)</div><div class='respDivR'>No Match<br>(i)</div></div></div>","i","TARGET","1","trustrating_stim/white_mw091.bmp","1","noMatchFace","i","1500","trustrating_stim/white_mw042.bmp","green","Share","REAL","1"
"html-keyboard-response","124","284738","0.0-7.0-5.17","611401411bf1ede5a4d85bdc","bdp_wmem","Wed Mar 15 2023 23:22:18 GMT-0400 (Eastern Daylight Time)","571113","Match,No Match","","null","","","","","","<div class='trialBorder'><div class='vertical-center'><img src='img/correct.jpg'></div><div class='respDiv'><div class='respDivL'>Match<br>(e)</div><div class='respDivR'><font style='color:orange'>No Match<br>(i)</font></div></div></div>","null","FEEDBACK","","","","","","","","","","",""
"html-keyboard-response","125","285241","0.0-7.0-1.18","611401411bf1ede5a4d85bdc","bdp_wmem","Wed Mar 15 2023 23:22:18 GMT-0400 (Eastern Daylight Time)","571113","Match,No Match","","null","","","","","","<div class='trialBorder'><div class='vertical-center'><img src='img/fixation2_sml.jpg'</img></div></div>","null","FIX","","","","","","","","","","",""
"html-keyboard-response","126","289743","0.0-7.0-2.18","611401411bf1ede5a4d85bdc","bdp_wmem","Wed Mar 15 2023 23:22:18 GMT-0400 (Eastern Daylight Time)","571113","Match,No Match","","null","","","","","","<div class='trialBorder'><div class='vertical-center'><img style='vertical-align:center; align:center' src='img/fixation2_sml.jpg'></div><div class='arrayDiv3'><div class='tl'><img class='introPic' src='trustrating_stim/white_mw042.bmp'><br><font color='red'><strong>Keep</strong></font></div><div class='tc'><img class='introPic' src='trustrating_stim/white_mw070.bmp'><br><font color='green'><strong>Share</strong></font></div><div class='tr'><img class='introPic' src='trustrating_stim/white_mw085.bmp'><br><font color='red'><strong>Keep</strong></font></div></div></div>","null","ARRAY","3","trustrating_stim/white_mw042.bmp,trustrating_stim/white_mw070.bmp,trustrating_stim/white_mw085.bmp","0,1,0","noMatchFace","i","4500","","","","",""
"html-keyboard-response","127","293746","0.0-7.0-3.18","611401411bf1ede5a4d85bdc","bdp_wmem","Wed Mar 15 2023 23:22:18 GMT-0400 (Eastern Daylight Time)","571113","Match,No Match","","null","","","","","","<div class='trialBorder'><div class='vertical-center'><img src='img/fixation2_sml.jpg'</img></div></div>","null","DELAY","","","","","","","","","","",""
"html-keyboard-response","128","295593","0.0-7.0-4.18","611401411bf1ede5a4d85bdc","bdp_wmem","Wed Mar 15 2023 23:22:18 GMT-0400 (Eastern Daylight Time)","571113","Match,No Match","","1845","","","","","","<div class='trialBorder'><div class='targDiv'><div class='tc'><img class='introPic' src='trustrating_stim/white_mw092.bmp'><br><font color='red'><strong>Keep</strong></font></div></div><div class='respDiv'><div class='respDivL'>Match<br>(e)</div><div class='respDivR'>No Match<br>(i)</div></div></div>","e","TARGET","3","trustrating_stim/white_mw042.bmp,trustrating_stim/white_mw070.bmp,trustrating_stim/white_mw085.bmp","0,1,0","noMatchFace","i","4500","trustrating_stim/white_mw092.bmp","red","Keep","REAL","0"
"html-keyboard-response","129","296095","0.0-7.0-5.18","611401411bf1ede5a4d85bdc","bdp_wmem","Wed Mar 15 2023 23:22:18 GMT-0400 (Eastern Daylight Time)","571113","Match,No Match","","null","","","","","","<div class='trialBorder'><div class='vertical-center'><img src='img/error.jpg'></div><div class='respDiv'><div class='respDivL'><font style='color:orange'>Match<br>(e)</font></div><div class='respDivR'>No Match<br>(i)</div></div></div>","null","FEEDBACK","","","","","","","","","","",""
"html-keyboard-response","130","296597","0.0-7.0-1.19","611401411bf1ede5a4d85bdc","bdp_wmem","Wed Mar 15 2023 23:22:18 GMT-0400 (Eastern Daylight Time)","571113","Match,No Match","","null","","","","","","<div class='trialBorder'><div class='vertical-center'><img src='img/fixation2_sml.jpg'</img></div></div>","null","FIX","","","","","","","","","","",""
"html-keyboard-response","131","298100","0.0-7.0-2.19","611401411bf1ede5a4d85bdc","bdp_wmem","Wed Mar 15 2023 23:22:18 GMT-0400 (Eastern Daylight Time)","571113","Match,No Match","","null","","","","","","<div class='trialBorder'><div class='vertical-center'><img style='vertical-align:center; align:center' src='img/fixation2_sml.jpg'></div><div class='arrayDiv1'><div class='tc'><img class='introPic' src='trustrating_stim/white_mw010.bmp'><br><font color='green'><strong>Share</strong></font></div></div></div>","null","ARRAY","1","trustrating_stim/white_mw010.bmp","1","Match","e","1500","","","","",""
"html-keyboard-response","132","302102","0.0-7.0-3.19","611401411bf1ede5a4d85bdc","bdp_wmem","Wed Mar 15 2023 23:22:18 GMT-0400 (Eastern Daylight Time)","571113","Match,No Match","","null","","","","","","<div class='trialBorder'><div class='vertical-center'><img src='img/fixation2_sml.jpg'</img></div></div>","null","DELAY","","","","","","","","","","",""
"html-keyboard-response","133","303533","0.0-7.0-4.19","611401411bf1ede5a4d85bdc","bdp_wmem","Wed Mar 15 2023 23:22:18 GMT-0400 (Eastern Daylight Time)","571113","Match,No Match","","1428","","","","","","<div class='trialBorder'><div class='targDiv'><div class='tc'><img class='introPic' src='trustrating_stim/white_mw010.bmp'><br><font color='green'><strong>Share</strong></font></div></div><div class='respDiv'><div class='respDivL'>Match<br>(e)</div><div class='respDivR'>No Match<br>(i)</div></div></div>","e","TARGET","1","trustrating_stim/white_mw010.bmp","1","Match","e","1500","trustrating_stim/white_mw010.bmp","green","Share","REAL","1"
"html-keyboard-response","134","304036","0.0-7.0-5.19","611401411bf1ede5a4d85bdc","bdp_wmem","Wed Mar 15 2023 23:22:18 GMT-0400 (Eastern Daylight Time)","571113","Match,No Match","","null","","","","","","<div class='trialBorder'><div class='vertical-center'><img src='img/correct.jpg'></div><div class='respDiv'><div class='respDivL'><font style='color:orange'>Match<br>(e)</font></div><div class='respDivR'>No Match<br>(i)</div></div></div>","null","FEEDBACK","","","","","","","","","","",""
"html-keyboard-response","135","304539","0.0-7.0-1.20","611401411bf1ede5a4d85bdc","bdp_wmem","Wed Mar 15 2023 23:22:18 GMT-0400 (Eastern Daylight Time)","571113","Match,No Match","","null","","","","","","<div class='trialBorder'><div class='vertical-center'><img src='img/fixation2_sml.jpg'</img></div></div>","null","FIX","","","","","","","","","","",""
"html-keyboard-response","136","309042","0.0-7.0-2.20","611401411bf1ede5a4d85bdc","bdp_wmem","Wed Mar 15 2023 23:22:18 GMT-0400 (Eastern Daylight Time)","571113","Match,No Match","","null","","","","","","<div class='trialBorder'><div class='vertical-center'><img style='vertical-align:center; align:center' src='img/fixation2_sml.jpg'></div><div class='arrayDiv3'><div class='tl'><img class='introPic' src='trustrating_stim/white_mw012.bmp'><br><font color='green'><strong>Share</strong></font></div><div class='tc'><img class='introPic' src='trustrating_stim/white_mw040.bmp'><br><font color='green'><strong>Share</strong></font></div><div class='tr'><img class='introPic' src='trustrating_stim/white_mw003.bmp'><br><font color='red'><strong>Keep</strong></font></div></div></div>","null","ARRAY","3","trustrating_stim/white_mw012.bmp,trustrating_stim/white_mw040.bmp,trustrating_stim/white_mw003.bmp","1,1,0","Match","e","4500","","","","",""
"html-keyboard-response","137","313046","0.0-7.0-3.20","611401411bf1ede5a4d85bdc","bdp_wmem","Wed Mar 15 2023 23:22:18 GMT-0400 (Eastern Daylight Time)","571113","Match,No Match","","null","","","","","","<div class='trialBorder'><div class='vertical-center'><img src='img/fixation2_sml.jpg'</img></div></div>","null","DELAY","","","","","","","","","","",""
"html-keyboard-response","138","314148","0.0-7.0-4.20","611401411bf1ede5a4d85bdc","bdp_wmem","Wed Mar 15 2023 23:22:18 GMT-0400 (Eastern Daylight Time)","571113","Match,No Match","","1098","","","","","","<div class='trialBorder'><div class='targDiv'><div class='tc'><img class='introPic' src='trustrating_stim/white_mw040.bmp'><br><font color='green'><strong>Share</strong></font></div></div><div class='respDiv'><div class='respDivL'>Match<br>(e)</div><div class='respDivR'>No Match<br>(i)</div></div></div>","e","TARGET","3","trustrating_stim/white_mw012.bmp,trustrating_stim/white_mw040.bmp,trustrating_stim/white_mw003.bmp","1,1,0","Match","e","4500","trustrating_stim/white_mw040.bmp","green","Share","REAL","1"
"html-keyboard-response","139","314649","0.0-7.0-5.20","611401411bf1ede5a4d85bdc","bdp_wmem","Wed Mar 15 2023 23:22:18 GMT-0400 (Eastern Daylight Time)","571113","Match,No Match","","null","","","","","","<div class='trialBorder'><div class='vertical-center'><img src='img/correct.jpg'></div><div class='respDiv'><div class='respDivL'><font style='color:orange'>Match<br>(e)</font></div><div class='respDivR'>No Match<br>(i)</div></div></div>","null","FEEDBACK","","","","","","","","","","",""
"html-keyboard-response","140","315151","0.0-7.0-1.21","611401411bf1ede5a4d85bdc","bdp_wmem","Wed Mar 15 2023 23:22:18 GMT-0400 (Eastern Daylight Time)","571113","Match,No Match","","null","","","","","","<div class='trialBorder'><div class='vertical-center'><img src='img/fixation2_sml.jpg'</img></div></div>","null","FIX","","","","","","","","","","",""
"html-keyboard-response","141","316655","0.0-7.0-2.21","611401411bf1ede5a4d85bdc","bdp_wmem","Wed Mar 15 2023 23:22:18 GMT-0400 (Eastern Daylight Time)","571113","Match,No Match","","null","","","","","","<div class='trialBorder'><div class='vertical-center'><img style='vertical-align:center; align:center' src='img/fixation2_sml.jpg'></div><div class='arrayDiv1'><div class='tc'><img class='introPic' src='trustrating_stim/white_mw040.bmp'><br><font color='red'><strong>Keep</strong></font></div></div></div>","null","ARRAY","1","trustrating_stim/white_mw040.bmp","0","noMatchOutcome","i","1500","","","","",""
"html-keyboard-response","142","320658","0.0-7.0-3.21","611401411bf1ede5a4d85bdc","bdp_wmem","Wed Mar 15 2023 23:22:18 GMT-0400 (Eastern Daylight Time)","571113","Match,No Match","","null","","","","","","<div class='trialBorder'><div class='vertical-center'><img src='img/fixation2_sml.jpg'</img></div></div>","null","DELAY","","","","","","","","","","",""
"html-keyboard-response","143","321779","0.0-7.0-4.21","611401411bf1ede5a4d85bdc","bdp_wmem","Wed Mar 15 2023 23:22:18 GMT-0400 (Eastern Daylight Time)","571113","Match,No Match","","1117","","","","","","<div class='trialBorder'><div class='targDiv'><div class='tc'><img class='introPic' src='trustrating_stim/white_mw040.bmp'><br><font color='green'><strong>Share</strong></font></div></div><div class='respDiv'><div class='respDivL'>Match<br>(e)</div><div class='respDivR'>No Match<br>(i)</div></div></div>","i","TARGET","1","trustrating_stim/white_mw040.bmp","0","noMatchOutcome","i","1500","trustrating_stim/white_mw040.bmp","green","Share","REAL","1"
"html-keyboard-response","144","322281","0.0-7.0-5.21","611401411bf1ede5a4d85bdc","bdp_wmem","Wed Mar 15 2023 23:22:18 GMT-0400 (Eastern Daylight Time)","571113","Match,No Match","","null","","","","","","<div class='trialBorder'><div class='vertical-center'><img src='img/correct.jpg'></div><div class='respDiv'><div class='respDivL'>Match<br>(e)</div><div class='respDivR'><font style='color:orange'>No Match<br>(i)</font></div></div></div>","null","FEEDBACK","","","","","","","","","","",""
"html-keyboard-response","145","322783","0.0-7.0-1.22","611401411bf1ede5a4d85bdc","bdp_wmem","Wed Mar 15 2023 23:22:18 GMT-0400 (Eastern Daylight Time)","571113","Match,No Match","","null","","","","","","<div class='trialBorder'><div class='vertical-center'><img src='img/fixation2_sml.jpg'</img></div></div>","null","FIX","","","","","","","","","","",""
"html-keyboard-response","146","327287","0.0-7.0-2.22","611401411bf1ede5a4d85bdc","bdp_wmem","Wed Mar 15 2023 23:22:18 GMT-0400 (Eastern Daylight Time)","571113","Match,No Match","","null","","","","","","<div class='trialBorder'><div class='vertical-center'><img style='vertical-align:center; align:center' src='img/fixation2_sml.jpg'></div><div class='arrayDiv3'><div class='tl'><img class='introPic' src='trustrating_stim/white_mw042.bmp'><br><font color='red'><strong>Keep</strong></font></div><div class='tc'><img class='introPic' src='trustrating_stim/white_mw010.bmp'><br><font color='red'><strong>Keep</strong></font></div><div class='tr'><img class='introPic' src='trustrating_stim/white_mw013.bmp'><br><font color='green'><strong>Share</strong></font></div></div></div>","null","ARRAY","3","trustrating_stim/white_mw042.bmp,trustrating_stim/white_mw010.bmp,trustrating_stim/white_mw013.bmp","0,0,1","noMatchOutcome","i","4500","","","","",""
"html-keyboard-response","147","331289","0.0-7.0-3.22","611401411bf1ede5a4d85bdc","bdp_wmem","Wed Mar 15 2023 23:22:18 GMT-0400 (Eastern Daylight Time)","571113","Match,No Match","","null","","","","","","<div class='trialBorder'><div class='vertical-center'><img src='img/fixation2_sml.jpg'</img></div></div>","null","DELAY","","","","","","","","","","",""
"html-keyboard-response","148","333505","0.0-7.0-4.22","611401411bf1ede5a4d85bdc","bdp_wmem","Wed Mar 15 2023 23:22:18 GMT-0400 (Eastern Daylight Time)","571113","Match,No Match","","2210","","","","","","<div class='trialBorder'><div class='targDiv'><div class='tc'><img class='introPic' src='trustrating_stim/white_mw042.bmp'><br><font color='green'><strong>Share</strong></font></div></div><div class='respDiv'><div class='respDivL'>Match<br>(e)</div><div class='respDivR'>No Match<br>(i)</div></div></div>","e","TARGET","3","trustrating_stim/white_mw042.bmp,trustrating_stim/white_mw010.bmp,trustrating_stim/white_mw013.bmp","0,0,1","noMatchOutcome","i","4500","trustrating_stim/white_mw042.bmp","green","Share","REAL","0"
"html-keyboard-response","149","334008","0.0-7.0-5.22","611401411bf1ede5a4d85bdc","bdp_wmem","Wed Mar 15 2023 23:22:18 GMT-0400 (Eastern Daylight Time)","571113","Match,No Match","","null","","","","","","<div class='trialBorder'><div class='vertical-center'><img src='img/error.jpg'></div><div class='respDiv'><div class='respDivL'><font style='color:orange'>Match<br>(e)</font></div><div class='respDivR'>No Match<br>(i)</div></div></div>","null","FEEDBACK","","","","","","","","","","",""
"html-keyboard-response","150","334510","0.0-7.0-1.23","611401411bf1ede5a4d85bdc","bdp_wmem","Wed Mar 15 2023 23:22:18 GMT-0400 (Eastern Daylight Time)","571113","Match,No Match","","null","","","","","","<div class='trialBorder'><div class='vertical-center'><img src='img/fixation2_sml.jpg'</img></div></div>","null","FIX","","","","","","","","","","",""
"html-keyboard-response","151","339013","0.0-7.0-2.23","611401411bf1ede5a4d85bdc","bdp_wmem","Wed Mar 15 2023 23:22:18 GMT-0400 (Eastern Daylight Time)","571113","Match,No Match","","null","","","","","","<div class='trialBorder'><div class='vertical-center'><img style='vertical-align:center; align:center' src='img/fixation2_sml.jpg'></div><div class='arrayDiv3'><div class='tl'><img class='introPic' src='trustrating_stim/white_mw092.bmp'><br><font color='red'><strong>Keep</strong></font></div><div class='tc'><img class='introPic' src='trustrating_stim/white_mw012.bmp'><br><font color='green'><strong>Share</strong></font></div><div class='tr'><img class='introPic' src='trustrating_stim/white_mw013.bmp'><br><font color='red'><strong>Keep</strong></font></div></div></div>","null","ARRAY","3","trustrating_stim/white_mw092.bmp,trustrating_stim/white_mw012.bmp,trustrating_stim/white_mw013.bmp","0,1,0","Match","e","4500","","","","",""
"html-keyboard-response","152","343015","0.0-7.0-3.23","611401411bf1ede5a4d85bdc","bdp_wmem","Wed Mar 15 2023 23:22:18 GMT-0400 (Eastern Daylight Time)","571113","Match,No Match","","null","","","","","","<div class='trialBorder'><div class='vertical-center'><img src='img/fixation2_sml.jpg'</img></div></div>","null","DELAY","","","","","","","","","","",""
"html-keyboard-response","153","345210","0.0-7.0-4.23","611401411bf1ede5a4d85bdc","bdp_wmem","Wed Mar 15 2023 23:22:18 GMT-0400 (Eastern Daylight Time)","571113","Match,No Match","","2193","","","","","","<div class='trialBorder'><div class='targDiv'><div class='tc'><img class='introPic' src='trustrating_stim/white_mw092.bmp'><br><font color='red'><strong>Keep</strong></font></div></div><div class='respDiv'><div class='respDivL'>Match<br>(e)</div><div class='respDivR'>No Match<br>(i)</div></div></div>","e","TARGET","3","trustrating_stim/white_mw092.bmp,trustrating_stim/white_mw012.bmp,trustrating_stim/white_mw013.bmp","0,1,0","Match","e","4500","trustrating_stim/white_mw092.bmp","red","Keep","REAL","1"
"html-keyboard-response","154","345714","0.0-7.0-5.23","611401411bf1ede5a4d85bdc","bdp_wmem","Wed Mar 15 2023 23:22:18 GMT-0400 (Eastern Daylight Time)","571113","Match,No Match","","null","","","","","","<div class='trialBorder'><div class='vertical-center'><img src='img/correct.jpg'></div><div class='respDiv'><div class='respDivL'><font style='color:orange'>Match<br>(e)</font></div><div class='respDivR'>No Match<br>(i)</div></div></div>","null","FEEDBACK","","","","","","","","","","",""
"html-keyboard-response","155","346216","0.0-7.0-1.24","611401411bf1ede5a4d85bdc","bdp_wmem","Wed Mar 15 2023 23:22:18 GMT-0400 (Eastern Daylight Time)","571113","Match,No Match","","null","","","","","","<div class='trialBorder'><div class='vertical-center'><img src='img/fixation2_sml.jpg'</img></div></div>","null","FIX","","","","","","","","","","",""
"html-keyboard-response","156","349221","0.0-7.0-2.24","611401411bf1ede5a4d85bdc","bdp_wmem","Wed Mar 15 2023 23:22:18 GMT-0400 (Eastern Daylight Time)","571113","Match,No Match","","null","","","","","","<div class='trialBorder'><div class='vertical-center'><img style='vertical-align:center; align:center' src='img/fixation2_sml.jpg'></div><div class='arrayDiv2'><div class='tl'><img class='introPic' src='trustrating_stim/white_mw042.bmp'><br><font color='green'><strong>Share</strong></font></div><div class='tr'><img class='introPic' src='trustrating_stim/white_mw013.bmp'><br><font color='red'><strong>Keep</strong></font></div></div></div>","null","ARRAY","2","trustrating_stim/white_mw042.bmp,trustrating_stim/white_mw013.bmp","1,0","noMatchOutcome","i","3000","","","","",""
"html-keyboard-response","157","353224","0.0-7.0-3.24","611401411bf1ede5a4d85bdc","bdp_wmem","Wed Mar 15 2023 23:22:18 GMT-0400 (Eastern Daylight Time)","571113","Match,No Match","","null","","","","","","<div class='trialBorder'><div class='vertical-center'><img src='img/fixation2_sml.jpg'</img></div></div>","null","DELAY","","","","","","","","","","",""
"html-keyboard-response","158","354481","0.0-7.0-4.24","611401411bf1ede5a4d85bdc","bdp_wmem","Wed Mar 15 2023 23:22:18 GMT-0400 (Eastern Daylight Time)","571113","Match,No Match","","1254","","","","","","<div class='trialBorder'><div class='targDiv'><div class='tc'><img class='introPic' src='trustrating_stim/white_mw042.bmp'><br><font color='red'><strong>Keep</strong></font></div></div><div class='respDiv'><div class='respDivL'>Match<br>(e)</div><div class='respDivR'>No Match<br>(i)</div></div></div>","i","TARGET","2","trustrating_stim/white_mw042.bmp,trustrating_stim/white_mw013.bmp","1,0","noMatchOutcome","i","3000","trustrating_stim/white_mw042.bmp","red","Keep","REAL","1"
"html-keyboard-response","159","354983","0.0-7.0-5.24","611401411bf1ede5a4d85bdc","bdp_wmem","Wed Mar 15 2023 23:22:18 GMT-0400 (Eastern Daylight Time)","571113","Match,No Match","","null","","","","","","<div class='trialBorder'><div class='vertical-center'><img src='img/correct.jpg'></div><div class='respDiv'><div class='respDivL'>Match<br>(e)</div><div class='respDivR'><font style='color:orange'>No Match<br>(i)</font></div></div></div>","null","FEEDBACK","","","","","","","","","","",""
"html-keyboard-response","160","355486","0.0-7.0-1.25","611401411bf1ede5a4d85bdc","bdp_wmem","Wed Mar 15 2023 23:22:18 GMT-0400 (Eastern Daylight Time)","571113","Match,No Match","","null","","","","","","<div class='trialBorder'><div class='vertical-center'><img src='img/fixation2_sml.jpg'</img></div></div>","null","FIX","","","","","","","","","","",""
"html-keyboard-response","161","358489","0.0-7.0-2.25","611401411bf1ede5a4d85bdc","bdp_wmem","Wed Mar 15 2023 23:22:18 GMT-0400 (Eastern Daylight Time)","571113","Match,No Match","","null","","","","","","<div class='trialBorder'><div class='vertical-center'><img style='vertical-align:center; align:center' src='img/fixation2_sml.jpg'></div><div class='arrayDiv2'><div class='tl'><img class='introPic' src='trustrating_stim/white_mw040.bmp'><br><font color='green'><strong>Share</strong></font></div><div class='tr'><img class='introPic' src='trustrating_stim/white_mw092.bmp'><br><font color='red'><strong>Keep</strong></font></div></div></div>","null","ARRAY","2","trustrating_stim/white_mw040.bmp,trustrating_stim/white_mw092.bmp","1,0","noMatchOutcome","i","3000","","","","",""
"html-keyboard-response","162","362491","0.0-7.0-3.25","611401411bf1ede5a4d85bdc","bdp_wmem","Wed Mar 15 2023 23:22:18 GMT-0400 (Eastern Daylight Time)","571113","Match,No Match","","null","","","","","","<div class='trialBorder'><div class='vertical-center'><img src='img/fixation2_sml.jpg'</img></div></div>","null","DELAY","","","","","","","","","","",""
"html-keyboard-response","163","364088","0.0-7.0-4.25","611401411bf1ede5a4d85bdc","bdp_wmem","Wed Mar 15 2023 23:22:18 GMT-0400 (Eastern Daylight Time)","571113","Match,No Match","","1593","","","","","","<div class='trialBorder'><div class='targDiv'><div class='tc'><img class='introPic' src='trustrating_stim/white_mw040.bmp'><br><font color='red'><strong>Keep</strong></font></div></div><div class='respDiv'><div class='respDivL'>Match<br>(e)</div><div class='respDivR'>No Match<br>(i)</div></div></div>","i","TARGET","2","trustrating_stim/white_mw040.bmp,trustrating_stim/white_mw092.bmp","1,0","noMatchOutcome","i","3000","trustrating_stim/white_mw040.bmp","red","Keep","REAL","1"
"html-keyboard-response","164","364590","0.0-7.0-5.25","611401411bf1ede5a4d85bdc","bdp_wmem","Wed Mar 15 2023 23:22:18 GMT-0400 (Eastern Daylight Time)","571113","Match,No Match","","null","","","","","","<div class='trialBorder'><div class='vertical-center'><img src='img/correct.jpg'></div><div class='respDiv'><div class='respDivL'>Match<br>(e)</div><div class='respDivR'><font style='color:orange'>No Match<br>(i)</font></div></div></div>","null","FEEDBACK","","","","","","","","","","",""
"html-keyboard-response","165","365094","0.0-7.0-1.26","611401411bf1ede5a4d85bdc","bdp_wmem","Wed Mar 15 2023 23:22:18 GMT-0400 (Eastern Daylight Time)","571113","Match,No Match","","null","","","","","","<div class='trialBorder'><div class='vertical-center'><img src='img/fixation2_sml.jpg'</img></div></div>","null","FIX","","","","","","","","","","",""
"html-keyboard-response","166","366597","0.0-7.0-2.26","611401411bf1ede5a4d85bdc","bdp_wmem","Wed Mar 15 2023 23:22:18 GMT-0400 (Eastern Daylight Time)","571113","Match,No Match","","null","","","","","","<div class='trialBorder'><div class='vertical-center'><img style='vertical-align:center; align:center' src='img/fixation2_sml.jpg'></div><div class='arrayDiv1'><div class='tc'><img class='introPic' src='trustrating_stim/white_mw085.bmp'><br><font color='red'><strong>Keep</strong></font></div></div></div>","null","ARRAY","1","trustrating_stim/white_mw085.bmp","0","Match","e","1500","","","","",""
"html-keyboard-response","167","370601","0.0-7.0-3.26","611401411bf1ede5a4d85bdc","bdp_wmem","Wed Mar 15 2023 23:22:18 GMT-0400 (Eastern Daylight Time)","571113","Match,No Match","","null","","","","","","<div class='trialBorder'><div class='vertical-center'><img src='img/fixation2_sml.jpg'</img></div></div>","null","DELAY","","","","","","","","","","",""
"html-keyboard-response","168","371736","0.0-7.0-4.26","611401411bf1ede5a4d85bdc","bdp_wmem","Wed Mar 15 2023 23:22:18 GMT-0400 (Eastern Daylight Time)","571113","Match,No Match","","1130","","","","","","<div class='trialBorder'><div class='targDiv'><div class='tc'><img class='introPic' src='trustrating_stim/white_mw085.bmp'><br><font color='red'><strong>Keep</strong></font></div></div><div class='respDiv'><div class='respDivL'>Match<br>(e)</div><div class='respDivR'>No Match<br>(i)</div></div></div>","e","TARGET","1","trustrating_stim/white_mw085.bmp","0","Match","e","1500","trustrating_stim/white_mw085.bmp","red","Keep","REAL","1"
"html-keyboard-response","169","372239","0.0-7.0-5.26","611401411bf1ede5a4d85bdc","bdp_wmem","Wed Mar 15 2023 23:22:18 GMT-0400 (Eastern Daylight Time)","571113","Match,No Match","","null","","","","","","<div class='trialBorder'><div class='vertical-center'><img src='img/correct.jpg'></div><div class='respDiv'><div class='respDivL'><font style='color:orange'>Match<br>(e)</font></div><div class='respDivR'>No Match<br>(i)</div></div></div>","null","FEEDBACK","","","","","","","","","","",""
"html-keyboard-response","170","372742","0.0-7.0-1.27","611401411bf1ede5a4d85bdc","bdp_wmem","Wed Mar 15 2023 23:22:18 GMT-0400 (Eastern Daylight Time)","571113","Match,No Match","","null","","","","","","<div class='trialBorder'><div class='vertical-center'><img src='img/fixation2_sml.jpg'</img></div></div>","null","FIX","","","","","","","","","","",""
"html-keyboard-response","171","375745","0.0-7.0-2.27","611401411bf1ede5a4d85bdc","bdp_wmem","Wed Mar 15 2023 23:22:18 GMT-0400 (Eastern Daylight Time)","571113","Match,No Match","","null","","","","","","<div class='trialBorder'><div class='vertical-center'><img style='vertical-align:center; align:center' src='img/fixation2_sml.jpg'></div><div class='arrayDiv2'><div class='tl'><img class='introPic' src='trustrating_stim/white_mw085.bmp'><br><font color='green'><strong>Share</strong></font></div><div class='tr'><img class='introPic' src='trustrating_stim/white_mw042.bmp'><br><font color='red'><strong>Keep</strong></font></div></div></div>","null","ARRAY","2","trustrating_stim/white_mw085.bmp,trustrating_stim/white_mw042.bmp","1,0","Match","e","3000","","","","",""
"html-keyboard-response","172","379747","0.0-7.0-3.27","611401411bf1ede5a4d85bdc","bdp_wmem","Wed Mar 15 2023 23:22:18 GMT-0400 (Eastern Daylight Time)","571113","Match,No Match","","null","","","","","","<div class='trialBorder'><div class='vertical-center'><img src='img/fixation2_sml.jpg'</img></div></div>","null","DELAY","","","","","","","","","","",""
"html-keyboard-response","173","381012","0.0-7.0-4.27","611401411bf1ede5a4d85bdc","bdp_wmem","Wed Mar 15 2023 23:22:18 GMT-0400 (Eastern Daylight Time)","571113","Match,No Match","","1261","","","","","","<div class='trialBorder'><div class='targDiv'><div class='tc'><img class='introPic' src='trustrating_stim/white_mw042.bmp'><br><font color='red'><strong>Keep</strong></font></div></div><div class='respDiv'><div class='respDivL'>Match<br>(e)</div><div class='respDivR'>No Match<br>(i)</div></div></div>","e","TARGET","2","trustrating_stim/white_mw085.bmp,trustrating_stim/white_mw042.bmp","1,0","Match","e","3000","trustrating_stim/white_mw042.bmp","red","Keep","REAL","1"
"html-keyboard-response","174","381514","0.0-7.0-5.27","611401411bf1ede5a4d85bdc","bdp_wmem","Wed Mar 15 2023 23:22:18 GMT-0400 (Eastern Daylight Time)","571113","Match,No Match","","null","","","","","","<div class='trialBorder'><div class='vertical-center'><img src='img/correct.jpg'></div><div class='respDiv'><div class='respDivL'><font style='color:orange'>Match<br>(e)</font></div><div class='respDivR'>No Match<br>(i)</div></div></div>","null","FEEDBACK","","","","","","","","","","",""
"html-keyboard-response","175","382016","0.0-7.0-1.28","611401411bf1ede5a4d85bdc","bdp_wmem","Wed Mar 15 2023 23:22:18 GMT-0400 (Eastern Daylight Time)","571113","Match,No Match","","null","","","","","","<div class='trialBorder'><div class='vertical-center'><img src='img/fixation2_sml.jpg'</img></div></div>","null","FIX","","","","","","","","","","",""
"html-keyboard-response","176","383520","0.0-7.0-2.28","611401411bf1ede5a4d85bdc","bdp_wmem","Wed Mar 15 2023 23:22:18 GMT-0400 (Eastern Daylight Time)","571113","Match,No Match","","null","","","","","","<div class='trialBorder'><div class='vertical-center'><img style='vertical-align:center; align:center' src='img/fixation2_sml.jpg'></div><div class='arrayDiv1'><div class='tc'><img class='introPic' src='trustrating_stim/white_mw091.bmp'><br><font color='red'><strong>Keep</strong></font></div></div></div>","null","ARRAY","1","trustrating_stim/white_mw091.bmp","0","Match","e","1500","","","","",""
"html-keyboard-response","177","387522","0.0-7.0-3.28","611401411bf1ede5a4d85bdc","bdp_wmem","Wed Mar 15 2023 23:22:18 GMT-0400 (Eastern Daylight Time)","571113","Match,No Match","","null","","","","","","<div class='trialBorder'><div class='vertical-center'><img src='img/fixation2_sml.jpg'</img></div></div>","null","DELAY","","","","","","","","","","",""
"html-keyboard-response","178","389402","0.0-7.0-4.28","611401411bf1ede5a4d85bdc","bdp_wmem","Wed Mar 15 2023 23:22:18 GMT-0400 (Eastern Daylight Time)","571113","Match,No Match","","1876","","","","","","<div class='trialBorder'><div class='targDiv'><div class='tc'><img class='introPic' src='trustrating_stim/white_mw091.bmp'><br><font color='red'><strong>Keep</strong></font></div></div><div class='respDiv'><div class='respDivL'>Match<br>(e)</div><div class='respDivR'>No Match<br>(i)</div></div></div>","e","TARGET","1","trustrating_stim/white_mw091.bmp","0","Match","e","1500","trustrating_stim/white_mw091.bmp","red","Keep","REAL","1"
"html-keyboard-response","179","389905","0.0-7.0-5.28","611401411bf1ede5a4d85bdc","bdp_wmem","Wed Mar 15 2023 23:22:18 GMT-0400 (Eastern Daylight Time)","571113","Match,No Match","","null","","","","","","<div class='trialBorder'><div class='vertical-center'><img src='img/correct.jpg'></div><div class='respDiv'><div class='respDivL'><font style='color:orange'>Match<br>(e)</font></div><div class='respDivR'>No Match<br>(i)</div></div></div>","null","FEEDBACK","","","","","","","","","","",""
"html-keyboard-response","180","390407","0.0-7.0-1.29","611401411bf1ede5a4d85bdc","bdp_wmem","Wed Mar 15 2023 23:22:18 GMT-0400 (Eastern Daylight Time)","571113","Match,No Match","","null","","","","","","<div class='trialBorder'><div class='vertical-center'><img src='img/fixation2_sml.jpg'</img></div></div>","null","FIX","","","","","","","","","","",""
"html-keyboard-response","181","394911","0.0-7.0-2.29","611401411bf1ede5a4d85bdc","bdp_wmem","Wed Mar 15 2023 23:22:18 GMT-0400 (Eastern Daylight Time)","571113","Match,No Match","","null","","","","","","<div class='trialBorder'><div class='vertical-center'><img style='vertical-align:center; align:center' src='img/fixation2_sml.jpg'></div><div class='arrayDiv3'><div class='tl'><img class='introPic' src='trustrating_stim/white_mw010.bmp'><br><font color='red'><strong>Keep</strong></font></div><div class='tc'><img class='introPic' src='trustrating_stim/white_mw040.bmp'><br><font color='red'><strong>Keep</strong></font></div><div class='tr'><img class='introPic' src='trustrating_stim/white_mw013.bmp'><br><font color='green'><strong>Share</strong></font></div></div></div>","null","ARRAY","3","trustrating_stim/white_mw010.bmp,trustrating_stim/white_mw040.bmp,trustrating_stim/white_mw013.bmp","0,0,1","noMatchOutcome","i","4500","","","","",""
"html-keyboard-response","182","398913","0.0-7.0-3.29","611401411bf1ede5a4d85bdc","bdp_wmem","Wed Mar 15 2023 23:22:18 GMT-0400 (Eastern Daylight Time)","571113","Match,No Match","","null","","","","","","<div class='trialBorder'><div class='vertical-center'><img src='img/fixation2_sml.jpg'</img></div></div>","null","DELAY","","","","","","","","","","",""
"html-keyboard-response","183","400570","0.0-7.0-4.29","611401411bf1ede5a4d85bdc","bdp_wmem","Wed Mar 15 2023 23:22:18 GMT-0400 (Eastern Daylight Time)","571113","Match,No Match","","1655","","","","","","<div class='trialBorder'><div class='targDiv'><div class='tc'><img class='introPic' src='trustrating_stim/white_mw013.bmp'><br><font color='red'><strong>Keep</strong></font></div></div><div class='respDiv'><div class='respDivL'>Match<br>(e)</div><div class='respDivR'>No Match<br>(i)</div></div></div>","i","TARGET","3","trustrating_stim/white_mw010.bmp,trustrating_stim/white_mw040.bmp,trustrating_stim/white_mw013.bmp","0,0,1","noMatchOutcome","i","4500","trustrating_stim/white_mw013.bmp","red","Keep","REAL","1"
"html-keyboard-response","184","401075","0.0-7.0-5.29","611401411bf1ede5a4d85bdc","bdp_wmem","Wed Mar 15 2023 23:22:18 GMT-0400 (Eastern Daylight Time)","571113","Match,No Match","","null","","","","","","<div class='trialBorder'><div class='vertical-center'><img src='img/correct.jpg'></div><div class='respDiv'><div class='respDivL'>Match<br>(e)</div><div class='respDivR'><font style='color:orange'>No Match<br>(i)</font></div></div></div>","null","FEEDBACK","","","","","","","","","","",""
"html-keyboard-response","185","401578","0.0-7.0-1.30","611401411bf1ede5a4d85bdc","bdp_wmem","Wed Mar 15 2023 23:22:18 GMT-0400 (Eastern Daylight Time)","571113","Match,No Match","","null","","","","","","<div class='trialBorder'><div class='vertical-center'><img src='img/fixation2_sml.jpg'</img></div></div>","null","FIX","","","","","","","","","","",""
"html-keyboard-response","186","406083","0.0-7.0-2.30","611401411bf1ede5a4d85bdc","bdp_wmem","Wed Mar 15 2023 23:22:18 GMT-0400 (Eastern Daylight Time)","571113","Match,No Match","","null","","","","","","<div class='trialBorder'><div class='vertical-center'><img style='vertical-align:center; align:center' src='img/fixation2_sml.jpg'></div><div class='arrayDiv3'><div class='tl'><img class='introPic' src='trustrating_stim/white_mw012.bmp'><br><font color='green'><strong>Share</strong></font></div><div class='tc'><img class='introPic' src='trustrating_stim/white_mw078.bmp'><br><font color='green'><strong>Share</strong></font></div><div class='tr'><img class='introPic' src='trustrating_stim/white_mw038.bmp'><br><font color='red'><strong>Keep</strong></font></div></div></div>","null","ARRAY","3","trustrating_stim/white_mw012.bmp,trustrating_stim/white_mw078.bmp,trustrating_stim/white_mw038.bmp","1,1,0","noMatchFace","i","4500","","","","",""
"html-keyboard-response","187","410085","0.0-7.0-3.30","611401411bf1ede5a4d85bdc","bdp_wmem","Wed Mar 15 2023 23:22:18 GMT-0400 (Eastern Daylight Time)","571113","Match,No Match","","null","","","","","","<div class='trialBorder'><div class='vertical-center'><img src='img/fixation2_sml.jpg'</img></div></div>","null","DELAY","","","","","","","","","","",""
