"event","trial","time","trialtype","subject_id","task","startTime","totalTime","labels","trial_type","trial_index","time_elapsed","internal_node_id","view_history","rt","success","stimulus","key_press","stimType","arraySize","arrayFaces","arrayOutcomes","matchType","corrResp","arrayDur","targFace","targCol","targOutcome","trialType","corr"
"focus","0","0","focusevent","63f969ceb2a0b028aa612b33","bdp_wmem","Tue Mar 14 2023 21:40:16 GMT-0400 (Eastern Daylight Time)","695529","Match,No Match","","","","","","","","","","","","","","","","","","","","",""
"","","","","63f969ceb2a0b028aa612b33","bdp_wmem","Tue Mar 14 2023 21:40:16 GMT-0400 (Eastern Daylight Time)","695529","Match,No Match","pavlovia","0","6","0.0-0.0","","","","","","","","","","","","","","","","",""
"","","","","63f969ceb2a0b028aa612b33","bdp_wmem","Tue Mar 14 2023 21:40:16 GMT-0400 (Eastern Daylight Time)","695529","Match,No Match","instructions","1","4598","0.0-1.0","[{""page_index"":0,""viewing_time"":4591}]","4591","","","","","","","","","","","","","","",""
"fullscreenexit","2","9123","fullscreenexit","63f969ceb2a0b028aa612b33","bdp_wmem","Tue Mar 14 2023 21:40:16 GMT-0400 (Eastern Daylight Time)","695529","Match,No Match","","","","","","","","","","","","","","","","","","","","",""
"","","","","63f969ceb2a0b028aa612b33","bdp_wmem","Tue Mar 14 2023 21:40:16 GMT-0400 (Eastern Daylight Time)","695529","Match,No Match","fullscreen","2","9879","0.0-2.0","","","true","","","","","","","","","","","","","",""
"","","","fullscreenfail","63f969ceb2a0b028aa612b33","bdp_wmem","Tue Mar 14 2023 21:40:16 GMT-0400 (Eastern Daylight Time)","695529","Match,No Match","image-keyboard-response","3","12287","0.0-3.0-0.0","","2404","","","32","","","","","","","","","","","",""
"","","","","63f969ceb2a0b028aa612b33","bdp_wmem","Tue Mar 14 2023 21:40:16 GMT-0400 (Eastern Daylight Time)","695529","Match,No Match","instructions","4","133622","0.0-4.0","[{""page_index"":0,""viewing_time"":39308},{""page_index"":1,""viewing_time"":47430},{""page_index"":2,""viewing_time"":19422},{""page_index"":3,""viewing_time"":10888},{""page_index"":4,""viewing_time"":4034}]","121082","","","","","","","","","","","","","","",""
"","","","","63f969ceb2a0b028aa612b33","bdp_wmem","Tue Mar 14 2023 21:40:16 GMT-0400 (Eastern Daylight Time)","695529","Match,No Match","html-keyboard-response","5","134127","0.0-5.0-1.0","","null","","<div class='trialBorder'><div class='vertical-center'><img src='img/fixation2_sml.jpg'</img></div></div>","null","FIX","","","","","","","","","","",""
"","","","","63f969ceb2a0b028aa612b33","bdp_wmem","Tue Mar 14 2023 21:40:16 GMT-0400 (Eastern Daylight Time)","695529","Match,No Match","html-keyboard-response","6","135639","0.0-5.0-2.0","","null","","<div class='trialBorder'><div class='vertical-center'><img style='vertical-align:center; align:center' src='img/fixation2_sml.jpg'></div><div class='arrayDiv1'><div class='tc'><img class='introPic' src='trustrating_stim/white_mw092.bmp'><br><font color='red'><strong>Keep</strong></font></div></div></div>","null","ARRAY","1","trustrating_stim/white_mw092.bmp","0","Match","e","1500","","","","",""
"","","","","63f969ceb2a0b028aa612b33","bdp_wmem","Tue Mar 14 2023 21:40:16 GMT-0400 (Eastern Daylight Time)","695529","Match,No Match","html-keyboard-response","7","139656","0.0-5.0-3.0","","null","","<div class='trialBorder'><div class='vertical-center'><img src='img/fixation2_sml.jpg'</img></div></div>","null","DELAY","","","","","","","","","","",""
"","","","","63f969ceb2a0b028aa612b33","bdp_wmem","Tue Mar 14 2023 21:40:16 GMT-0400 (Eastern Daylight Time)","695529","Match,No Match","html-keyboard-response","8","143403","0.0-5.0-4.0","","3745","","<div class='trialBorder'><div class='targDiv'><div class='tc'><img class='introPic' src='trustrating_stim/white_mw092.bmp'><br><font color='red'><strong>Keep</strong></font></div></div><div class='respDiv'><div class='respDivL'>Match<br>(e)</div><div class='respDivR'>No Match<br>(i)</div></div></div>","e","TARGET","1","trustrating_stim/white_mw092.bmp","0","Match","e","1500","trustrating_stim/white_mw092.bmp","red","Keep","PRACTICE","1"
"","","","","63f969ceb2a0b028aa612b33","bdp_wmem","Tue Mar 14 2023 21:40:16 GMT-0400 (Eastern Daylight Time)","695529","Match,No Match","html-keyboard-response","9","143910","0.0-5.0-5.0","","null","","<div class='trialBorder'><div class='vertical-center'><img src='img/correct.jpg'></div><div class='respDiv'><div class='respDivL'><font style='color:orange'>Match<br>(e)</font></div><div class='respDivR'>No Match<br>(i)</div></div></div>","null","FEEDBACK","","","","","","","","","","",""
"","","","","63f969ceb2a0b028aa612b33","bdp_wmem","Tue Mar 14 2023 21:40:16 GMT-0400 (Eastern Daylight Time)","695529","Match,No Match","html-keyboard-response","10","144418","0.0-5.0-1.1","","null","","<div class='trialBorder'><div class='vertical-center'><img src='img/fixation2_sml.jpg'</img></div></div>","null","FIX","","","","","","","","","","",""
"","","","","63f969ceb2a0b028aa612b33","bdp_wmem","Tue Mar 14 2023 21:40:16 GMT-0400 (Eastern Daylight Time)","695529","Match,No Match","html-keyboard-response","11","148933","0.0-5.0-2.1","","null","","<div class='trialBorder'><div class='vertical-center'><img style='vertical-align:center; align:center' src='img/fixation2_sml.jpg'></div><div class='arrayDiv3'><div class='tl'><img class='introPic' src='trustrating_stim/white_mw085.bmp'><br><font color='green'><strong>Share</strong></font></div><div class='tc'><img class='introPic' src='trustrating_stim/white_mw038.bmp'><br><font color='red'><strong>Keep</strong></font></div><div class='tr'><img class='introPic' src='trustrating_stim/white_mw091.bmp'><br><font color='green'><strong>Share</strong></font></div></div></div>","null","ARRAY","3","trustrating_stim/white_mw085.bmp,trustrating_stim/white_mw038.bmp,trustrating_stim/white_mw091.bmp","1,0,1","noMatchOutcome","i","4500","","","","",""
"","","","","63f969ceb2a0b028aa612b33","bdp_wmem","Tue Mar 14 2023 21:40:16 GMT-0400 (Eastern Daylight Time)","695529","Match,No Match","html-keyboard-response","12","152953","0.0-5.0-3.1","","null","","<div class='trialBorder'><div class='vertical-center'><img src='img/fixation2_sml.jpg'</img></div></div>","null","DELAY","","","","","","","","","","",""
"","","","","63f969ceb2a0b028aa612b33","bdp_wmem","Tue Mar 14 2023 21:40:16 GMT-0400 (Eastern Daylight Time)","695529","Match,No Match","html-keyboard-response","13","156247","0.0-5.0-4.1","","3293","","<div class='trialBorder'><div class='targDiv'><div class='tc'><img class='introPic' src='trustrating_stim/white_mw091.bmp'><br><font color='red'><strong>Keep</strong></font></div></div><div class='respDiv'><div class='respDivL'>Match<br>(e)</div><div class='respDivR'>No Match<br>(i)</div></div></div>","e","TARGET","3","trustrating_stim/white_mw085.bmp,trustrating_stim/white_mw038.bmp,trustrating_stim/white_mw091.bmp","1,0,1","noMatchOutcome","i","4500","trustrating_stim/white_mw091.bmp","red","Keep","PRACTICE","0"
"","","","","63f969ceb2a0b028aa612b33","bdp_wmem","Tue Mar 14 2023 21:40:16 GMT-0400 (Eastern Daylight Time)","695529","Match,No Match","html-keyboard-response","14","156761","0.0-5.0-5.1","","null","","<div class='trialBorder'><div class='vertical-center'><img src='img/error.jpg'></div><div class='respDiv'><div class='respDivL'><font style='color:orange'>Match<br>(e)</font></div><div class='respDivR'>No Match<br>(i)</div></div></div>","null","FEEDBACK","","","","","","","","","","",""
"","","","","63f969ceb2a0b028aa612b33","bdp_wmem","Tue Mar 14 2023 21:40:16 GMT-0400 (Eastern Daylight Time)","695529","Match,No Match","html-keyboard-response","15","157277","0.0-5.0-1.2","","null","","<div class='trialBorder'><div class='vertical-center'><img src='img/fixation2_sml.jpg'</img></div></div>","null","FIX","","","","","","","","","","",""
"","","","","63f969ceb2a0b028aa612b33","bdp_wmem","Tue Mar 14 2023 21:40:16 GMT-0400 (Eastern Daylight Time)","695529","Match,No Match","html-keyboard-response","16","160286","0.0-5.0-2.2","","null","","<div class='trialBorder'><div class='vertical-center'><img style='vertical-align:center; align:center' src='img/fixation2_sml.jpg'></div><div class='arrayDiv2'><div class='tl'><img class='introPic' src='trustrating_stim/white_mw012.bmp'><br><font color='green'><strong>Share</strong></font></div><div class='tr'><img class='introPic' src='trustrating_stim/white_mw010.bmp'><br><font color='red'><strong>Keep</strong></font></div></div></div>","null","ARRAY","2","trustrating_stim/white_mw012.bmp,trustrating_stim/white_mw010.bmp","1,0","Match","e","3000","","","","",""
"","","","","63f969ceb2a0b028aa612b33","bdp_wmem","Tue Mar 14 2023 21:40:16 GMT-0400 (Eastern Daylight Time)","695529","Match,No Match","html-keyboard-response","17","164293","0.0-5.0-3.2","","null","","<div class='trialBorder'><div class='vertical-center'><img src='img/fixation2_sml.jpg'</img></div></div>","null","DELAY","","","","","","","","","","",""
"","","","","63f969ceb2a0b028aa612b33","bdp_wmem","Tue Mar 14 2023 21:40:16 GMT-0400 (Eastern Daylight Time)","695529","Match,No Match","html-keyboard-response","18","167879","0.0-5.0-4.2","","3583","","<div class='trialBorder'><div class='targDiv'><div class='tc'><img class='introPic' src='trustrating_stim/white_mw010.bmp'><br><font color='red'><strong>Keep</strong></font></div></div><div class='respDiv'><div class='respDivL'>Match<br>(e)</div><div class='respDivR'>No Match<br>(i)</div></div></div>","e","TARGET","2","trustrating_stim/white_mw012.bmp,trustrating_stim/white_mw010.bmp","1,0","Match","e","3000","trustrating_stim/white_mw010.bmp","red","Keep","PRACTICE","1"
"","","","","63f969ceb2a0b028aa612b33","bdp_wmem","Tue Mar 14 2023 21:40:16 GMT-0400 (Eastern Daylight Time)","695529","Match,No Match","html-keyboard-response","19","168388","0.0-5.0-5.2","","null","","<div class='trialBorder'><div class='vertical-center'><img src='img/correct.jpg'></div><div class='respDiv'><div class='respDivL'><font style='color:orange'>Match<br>(e)</font></div><div class='respDivR'>No Match<br>(i)</div></div></div>","null","FEEDBACK","","","","","","","","","","",""
"","","","","63f969ceb2a0b028aa612b33","bdp_wmem","Tue Mar 14 2023 21:40:16 GMT-0400 (Eastern Daylight Time)","695529","Match,No Match","html-keyboard-response","20","168898","0.0-5.0-1.3","","null","","<div class='trialBorder'><div class='vertical-center'><img src='img/fixation2_sml.jpg'</img></div></div>","null","FIX","","","","","","","","","","",""
"","","","","63f969ceb2a0b028aa612b33","bdp_wmem","Tue Mar 14 2023 21:40:16 GMT-0400 (Eastern Daylight Time)","695529","Match,No Match","html-keyboard-response","21","173412","0.0-5.0-2.3","","null","","<div class='trialBorder'><div class='vertical-center'><img style='vertical-align:center; align:center' src='img/fixation2_sml.jpg'></div><div class='arrayDiv3'><div class='tl'><img class='introPic' src='trustrating_stim/white_mw013.bmp'><br><font color='red'><strong>Keep</strong></font></div><div class='tc'><img class='introPic' src='trustrating_stim/white_mw038.bmp'><br><font color='green'><strong>Share</strong></font></div><div class='tr'><img class='introPic' src='trustrating_stim/white_mw070.bmp'><br><font color='green'><strong>Share</strong></font></div></div></div>","null","ARRAY","3","trustrating_stim/white_mw013.bmp,trustrating_stim/white_mw038.bmp,trustrating_stim/white_mw070.bmp","0,1,1","Match","e","4500","","","","",""
"","","","","63f969ceb2a0b028aa612b33","bdp_wmem","Tue Mar 14 2023 21:40:16 GMT-0400 (Eastern Daylight Time)","695529","Match,No Match","html-keyboard-response","22","177422","0.0-5.0-3.3","","null","","<div class='trialBorder'><div class='vertical-center'><img src='img/fixation2_sml.jpg'</img></div></div>","null","DELAY","","","","","","","","","","",""
"","","","","63f969ceb2a0b028aa612b33","bdp_wmem","Tue Mar 14 2023 21:40:16 GMT-0400 (Eastern Daylight Time)","695529","Match,No Match","html-keyboard-response","23","179914","0.0-5.0-4.3","","2490","","<div class='trialBorder'><div class='targDiv'><div class='tc'><img class='introPic' src='trustrating_stim/white_mw038.bmp'><br><font color='green'><strong>Share</strong></font></div></div><div class='respDiv'><div class='respDivL'>Match<br>(e)</div><div class='respDivR'>No Match<br>(i)</div></div></div>","e","TARGET","3","trustrating_stim/white_mw013.bmp,trustrating_stim/white_mw038.bmp,trustrating_stim/white_mw070.bmp","0,1,1","Match","e","4500","trustrating_stim/white_mw038.bmp","green","Share","PRACTICE","1"
"","","","","63f969ceb2a0b028aa612b33","bdp_wmem","Tue Mar 14 2023 21:40:16 GMT-0400 (Eastern Daylight Time)","695529","Match,No Match","html-keyboard-response","24","180422","0.0-5.0-5.3","","null","","<div class='trialBorder'><div class='vertical-center'><img src='img/correct.jpg'></div><div class='respDiv'><div class='respDivL'><font style='color:orange'>Match<br>(e)</font></div><div class='respDivR'>No Match<br>(i)</div></div></div>","null","FEEDBACK","","","","","","","","","","",""
"","","","","63f969ceb2a0b028aa612b33","bdp_wmem","Tue Mar 14 2023 21:40:16 GMT-0400 (Eastern Daylight Time)","695529","Match,No Match","html-keyboard-response","25","180933","0.0-5.0-1.4","","null","","<div class='trialBorder'><div class='vertical-center'><img src='img/fixation2_sml.jpg'</img></div></div>","null","FIX","","","","","","","","","","",""
"","","","","63f969ceb2a0b028aa612b33","bdp_wmem","Tue Mar 14 2023 21:40:16 GMT-0400 (Eastern Daylight Time)","695529","Match,No Match","html-keyboard-response","26","182440","0.0-5.0-2.4","","null","","<div class='trialBorder'><div class='vertical-center'><img style='vertical-align:center; align:center' src='img/fixation2_sml.jpg'></div><div class='arrayDiv1'><div class='tc'><img class='introPic' src='trustrating_stim/white_mw085.bmp'><br><font color='green'><strong>Share</strong></font></div></div></div>","null","ARRAY","1","trustrating_stim/white_mw085.bmp","1","noMatchFace","i","1500","","","","",""
"","","","","63f969ceb2a0b028aa612b33","bdp_wmem","Tue Mar 14 2023 21:40:16 GMT-0400 (Eastern Daylight Time)","695529","Match,No Match","html-keyboard-response","27","186453","0.0-5.0-3.4","","null","","<div class='trialBorder'><div class='vertical-center'><img src='img/fixation2_sml.jpg'</img></div></div>","null","DELAY","","","","","","","","","","",""
"","","","","63f969ceb2a0b028aa612b33","bdp_wmem","Tue Mar 14 2023 21:40:16 GMT-0400 (Eastern Daylight Time)","695529","Match,No Match","html-keyboard-response","28","188740","0.0-5.0-4.4","","2287","","<div class='trialBorder'><div class='targDiv'><div class='tc'><img class='introPic' src='trustrating_stim/white_mw078.bmp'><br><font color='green'><strong>Share</strong></font></div></div><div class='respDiv'><div class='respDivL'>Match<br>(e)</div><div class='respDivR'>No Match<br>(i)</div></div></div>","i","TARGET","1","trustrating_stim/white_mw085.bmp","1","noMatchFace","i","1500","trustrating_stim/white_mw078.bmp","green","Share","PRACTICE","1"
"","","","","63f969ceb2a0b028aa612b33","bdp_wmem","Tue Mar 14 2023 21:40:16 GMT-0400 (Eastern Daylight Time)","695529","Match,No Match","html-keyboard-response","29","189248","0.0-5.0-5.4","","null","","<div class='trialBorder'><div class='vertical-center'><img src='img/correct.jpg'></div><div class='respDiv'><div class='respDivL'>Match<br>(e)</div><div class='respDivR'><font style='color:orange'>No Match<br>(i)</font></div></div></div>","null","FEEDBACK","","","","","","","","","","",""
"","","","","63f969ceb2a0b028aa612b33","bdp_wmem","Tue Mar 14 2023 21:40:16 GMT-0400 (Eastern Daylight Time)","695529","Match,No Match","html-keyboard-response","30","189758","0.0-5.0-1.5","","null","","<div class='trialBorder'><div class='vertical-center'><img src='img/fixation2_sml.jpg'</img></div></div>","null","FIX","","","","","","","","","","",""
"","","","","63f969ceb2a0b028aa612b33","bdp_wmem","Tue Mar 14 2023 21:40:16 GMT-0400 (Eastern Daylight Time)","695529","Match,No Match","html-keyboard-response","31","192767","0.0-5.0-2.5","","null","","<div class='trialBorder'><div class='vertical-center'><img style='vertical-align:center; align:center' src='img/fixation2_sml.jpg'></div><div class='arrayDiv2'><div class='tl'><img class='introPic' src='trustrating_stim/white_mw078.bmp'><br><font color='green'><strong>Share</strong></font></div><div class='tr'><img class='introPic' src='trustrating_stim/white_mw003.bmp'><br><font color='red'><strong>Keep</strong></font></div></div></div>","null","ARRAY","2","trustrating_stim/white_mw078.bmp,trustrating_stim/white_mw003.bmp","1,0","noMatchOutcome","i","3000","","","","",""
"","","","","63f969ceb2a0b028aa612b33","bdp_wmem","Tue Mar 14 2023 21:40:16 GMT-0400 (Eastern Daylight Time)","695529","Match,No Match","html-keyboard-response","32","196779","0.0-5.0-3.5","","null","","<div class='trialBorder'><div class='vertical-center'><img src='img/fixation2_sml.jpg'</img></div></div>","null","DELAY","","","","","","","","","","",""
"","","","","63f969ceb2a0b028aa612b33","bdp_wmem","Tue Mar 14 2023 21:40:16 GMT-0400 (Eastern Daylight Time)","695529","Match,No Match","html-keyboard-response","33","199033","0.0-5.0-4.5","","2253","","<div class='trialBorder'><div class='targDiv'><div class='tc'><img class='introPic' src='trustrating_stim/white_mw003.bmp'><br><font color='green'><strong>Share</strong></font></div></div><div class='respDiv'><div class='respDivL'>Match<br>(e)</div><div class='respDivR'>No Match<br>(i)</div></div></div>","i","TARGET","2","trustrating_stim/white_mw078.bmp,trustrating_stim/white_mw003.bmp","1,0","noMatchOutcome","i","3000","trustrating_stim/white_mw003.bmp","green","Share","PRACTICE","1"
"","","","","63f969ceb2a0b028aa612b33","bdp_wmem","Tue Mar 14 2023 21:40:16 GMT-0400 (Eastern Daylight Time)","695529","Match,No Match","html-keyboard-response","34","199546","0.0-5.0-5.5","","null","","<div class='trialBorder'><div class='vertical-center'><img src='img/correct.jpg'></div><div class='respDiv'><div class='respDivL'>Match<br>(e)</div><div class='respDivR'><font style='color:orange'>No Match<br>(i)</font></div></div></div>","null","FEEDBACK","","","","","","","","","","",""
"","","","","63f969ceb2a0b028aa612b33","bdp_wmem","Tue Mar 14 2023 21:40:16 GMT-0400 (Eastern Daylight Time)","695529","Match,No Match","instructions","35","205458","0.0-6.0","[{""page_index"":0,""viewing_time"":5911}]","5911","","","","","","","","","","","","","","",""
"","","","","63f969ceb2a0b028aa612b33","bdp_wmem","Tue Mar 14 2023 21:40:16 GMT-0400 (Eastern Daylight Time)","695529","Match,No Match","html-keyboard-response","36","205962","0.0-7.0-1.0","","null","","<div class='trialBorder'><div class='vertical-center'><img src='img/fixation2_sml.jpg'</img></div></div>","null","FIX","","","","","","","","","","",""
"","","","","63f969ceb2a0b028aa612b33","bdp_wmem","Tue Mar 14 2023 21:40:16 GMT-0400 (Eastern Daylight Time)","695529","Match,No Match","html-keyboard-response","37","208966","0.0-7.0-2.0","","null","","<div class='trialBorder'><div class='vertical-center'><img style='vertical-align:center; align:center' src='img/fixation2_sml.jpg'></div><div class='arrayDiv2'><div class='tl'><img class='introPic' src='trustrating_stim/white_mw010.bmp'><br><font color='green'><strong>Share</strong></font></div><div class='tr'><img class='introPic' src='trustrating_stim/white_mw042.bmp'><br><font color='red'><strong>Keep</strong></font></div></div></div>","null","ARRAY","2","trustrating_stim/white_mw010.bmp,trustrating_stim/white_mw042.bmp","1,0","noMatchOutcome","i","3000","","","","",""
"","","","","63f969ceb2a0b028aa612b33","bdp_wmem","Tue Mar 14 2023 21:40:16 GMT-0400 (Eastern Daylight Time)","695529","Match,No Match","html-keyboard-response","38","212978","0.0-7.0-3.0","","null","","<div class='trialBorder'><div class='vertical-center'><img src='img/fixation2_sml.jpg'</img></div></div>","null","DELAY","","","","","","","","","","",""
"","","","","63f969ceb2a0b028aa612b33","bdp_wmem","Tue Mar 14 2023 21:40:16 GMT-0400 (Eastern Daylight Time)","695529","Match,No Match","html-keyboard-response","39","215867","0.0-7.0-4.0","","2888","","<div class='trialBorder'><div class='targDiv'><div class='tc'><img class='introPic' src='trustrating_stim/white_mw042.bmp'><br><font color='green'><strong>Share</strong></font></div></div><div class='respDiv'><div class='respDivL'>Match<br>(e)</div><div class='respDivR'>No Match<br>(i)</div></div></div>","e","TARGET","2","trustrating_stim/white_mw010.bmp,trustrating_stim/white_mw042.bmp","1,0","noMatchOutcome","i","3000","trustrating_stim/white_mw042.bmp","green","Share","REAL","0"
"","","","","63f969ceb2a0b028aa612b33","bdp_wmem","Tue Mar 14 2023 21:40:16 GMT-0400 (Eastern Daylight Time)","695529","Match,No Match","html-keyboard-response","40","216381","0.0-7.0-5.0","","null","","<div class='trialBorder'><div class='vertical-center'><img src='img/error.jpg'></div><div class='respDiv'><div class='respDivL'><font style='color:orange'>Match<br>(e)</font></div><div class='respDivR'>No Match<br>(i)</div></div></div>","null","FEEDBACK","","","","","","","","","","",""
"","","","","63f969ceb2a0b028aa612b33","bdp_wmem","Tue Mar 14 2023 21:40:16 GMT-0400 (Eastern Daylight Time)","695529","Match,No Match","html-keyboard-response","41","216885","0.0-7.0-1.1","","null","","<div class='trialBorder'><div class='vertical-center'><img src='img/fixation2_sml.jpg'</img></div></div>","null","FIX","","","","","","","","","","",""
"","","","","63f969ceb2a0b028aa612b33","bdp_wmem","Tue Mar 14 2023 21:40:16 GMT-0400 (Eastern Daylight Time)","695529","Match,No Match","html-keyboard-response","42","218392","0.0-7.0-2.1","","null","","<div class='trialBorder'><div class='vertical-center'><img style='vertical-align:center; align:center' src='img/fixation2_sml.jpg'></div><div class='arrayDiv1'><div class='tc'><img class='introPic' src='trustrating_stim/white_mw092.bmp'><br><font color='red'><strong>Keep</strong></font></div></div></div>","null","ARRAY","1","trustrating_stim/white_mw092.bmp","0","Match","e","1500","","","","",""
"","","","","63f969ceb2a0b028aa612b33","bdp_wmem","Tue Mar 14 2023 21:40:16 GMT-0400 (Eastern Daylight Time)","695529","Match,No Match","html-keyboard-response","43","222403","0.0-7.0-3.1","","null","","<div class='trialBorder'><div class='vertical-center'><img src='img/fixation2_sml.jpg'</img></div></div>","null","DELAY","","","","","","","","","","",""
"","","","","63f969ceb2a0b028aa612b33","bdp_wmem","Tue Mar 14 2023 21:40:16 GMT-0400 (Eastern Daylight Time)","695529","Match,No Match","html-keyboard-response","44","225315","0.0-7.0-4.1","","2911","","<div class='trialBorder'><div class='targDiv'><div class='tc'><img class='introPic' src='trustrating_stim/white_mw092.bmp'><br><font color='red'><strong>Keep</strong></font></div></div><div class='respDiv'><div class='respDivL'>Match<br>(e)</div><div class='respDivR'>No Match<br>(i)</div></div></div>","e","TARGET","1","trustrating_stim/white_mw092.bmp","0","Match","e","1500","trustrating_stim/white_mw092.bmp","red","Keep","REAL","1"
"","","","","63f969ceb2a0b028aa612b33","bdp_wmem","Tue Mar 14 2023 21:40:16 GMT-0400 (Eastern Daylight Time)","695529","Match,No Match","html-keyboard-response","45","225822","0.0-7.0-5.1","","null","","<div class='trialBorder'><div class='vertical-center'><img src='img/correct.jpg'></div><div class='respDiv'><div class='respDivL'><font style='color:orange'>Match<br>(e)</font></div><div class='respDivR'>No Match<br>(i)</div></div></div>","null","FEEDBACK","","","","","","","","","","",""
"","","","","63f969ceb2a0b028aa612b33","bdp_wmem","Tue Mar 14 2023 21:40:16 GMT-0400 (Eastern Daylight Time)","695529","Match,No Match","html-keyboard-response","46","226327","0.0-7.0-1.2","","null","","<div class='trialBorder'><div class='vertical-center'><img src='img/fixation2_sml.jpg'</img></div></div>","null","FIX","","","","","","","","","","",""
"","","","","63f969ceb2a0b028aa612b33","bdp_wmem","Tue Mar 14 2023 21:40:16 GMT-0400 (Eastern Daylight Time)","695529","Match,No Match","html-keyboard-response","47","230842","0.0-7.0-2.2","","null","","<div class='trialBorder'><div class='vertical-center'><img style='vertical-align:center; align:center' src='img/fixation2_sml.jpg'></div><div class='arrayDiv3'><div class='tl'><img class='introPic' src='trustrating_stim/white_mw085.bmp'><br><font color='red'><strong>Keep</strong></font></div><div class='tc'><img class='introPic' src='trustrating_stim/white_mw003.bmp'><br><font color='red'><strong>Keep</strong></font></div><div class='tr'><img class='introPic' src='trustrating_stim/white_mw040.bmp'><br><font color='green'><strong>Share</strong></font></div></div></div>","null","ARRAY","3","trustrating_stim/white_mw085.bmp,trustrating_stim/white_mw003.bmp,trustrating_stim/white_mw040.bmp","0,0,1","Match","e","4500","","","","",""
"","","","","63f969ceb2a0b028aa612b33","bdp_wmem","Tue Mar 14 2023 21:40:16 GMT-0400 (Eastern Daylight Time)","695529","Match,No Match","html-keyboard-response","48","234859","0.0-7.0-3.2","","null","","<div class='trialBorder'><div class='vertical-center'><img src='img/fixation2_sml.jpg'</img></div></div>","null","DELAY","","","","","","","","","","",""
"","","","","63f969ceb2a0b028aa612b33","bdp_wmem","Tue Mar 14 2023 21:40:16 GMT-0400 (Eastern Daylight Time)","695529","Match,No Match","html-keyboard-response","49","237719","0.0-7.0-4.2","","2860","","<div class='trialBorder'><div class='targDiv'><div class='tc'><img class='introPic' src='trustrating_stim/white_mw003.bmp'><br><font color='red'><strong>Keep</strong></font></div></div><div class='respDiv'><div class='respDivL'>Match<br>(e)</div><div class='respDivR'>No Match<br>(i)</div></div></div>","i","TARGET","3","trustrating_stim/white_mw085.bmp,trustrating_stim/white_mw003.bmp,trustrating_stim/white_mw040.bmp","0,0,1","Match","e","4500","trustrating_stim/white_mw003.bmp","red","Keep","REAL","0"
"","","","","63f969ceb2a0b028aa612b33","bdp_wmem","Tue Mar 14 2023 21:40:16 GMT-0400 (Eastern Daylight Time)","695529","Match,No Match","html-keyboard-response","50","238228","0.0-7.0-5.2","","null","","<div class='trialBorder'><div class='vertical-center'><img src='img/error.jpg'></div><div class='respDiv'><div class='respDivL'>Match<br>(e)</div><div class='respDivR'><font style='color:orange'>No Match<br>(i)</font></div></div></div>","null","FEEDBACK","","","","","","","","","","",""
"","","","","63f969ceb2a0b028aa612b33","bdp_wmem","Tue Mar 14 2023 21:40:16 GMT-0400 (Eastern Daylight Time)","695529","Match,No Match","html-keyboard-response","51","238741","0.0-7.0-1.3","","null","","<div class='trialBorder'><div class='vertical-center'><img src='img/fixation2_sml.jpg'</img></div></div>","null","FIX","","","","","","","","","","",""
"","","","","63f969ceb2a0b028aa612b33","bdp_wmem","Tue Mar 14 2023 21:40:16 GMT-0400 (Eastern Daylight Time)","695529","Match,No Match","html-keyboard-response","52","241746","0.0-7.0-2.3","","null","","<div class='trialBorder'><div class='vertical-center'><img style='vertical-align:center; align:center' src='img/fixation2_sml.jpg'></div><div class='arrayDiv2'><div class='tl'><img class='introPic' src='trustrating_stim/white_mw070.bmp'><br><font color='green'><strong>Share</strong></font></div><div class='tr'><img class='introPic' src='trustrating_stim/white_mw091.bmp'><br><font color='red'><strong>Keep</strong></font></div></div></div>","null","ARRAY","2","trustrating_stim/white_mw070.bmp,trustrating_stim/white_mw091.bmp","1,0","noMatchOutcome","i","3000","","","","",""
"","","","","63f969ceb2a0b028aa612b33","bdp_wmem","Tue Mar 14 2023 21:40:16 GMT-0400 (Eastern Daylight Time)","695529","Match,No Match","html-keyboard-response","53","245752","0.0-7.0-3.3","","null","","<div class='trialBorder'><div class='vertical-center'><img src='img/fixation2_sml.jpg'</img></div></div>","null","DELAY","","","","","","","","","","",""
"","","","","63f969ceb2a0b028aa612b33","bdp_wmem","Tue Mar 14 2023 21:40:16 GMT-0400 (Eastern Daylight Time)","695529","Match,No Match","html-keyboard-response","54","247406","0.0-7.0-4.3","","1652","","<div class='trialBorder'><div class='targDiv'><div class='tc'><img class='introPic' src='trustrating_stim/white_mw070.bmp'><br><font color='red'><strong>Keep</strong></font></div></div><div class='respDiv'><div class='respDivL'>Match<br>(e)</div><div class='respDivR'>No Match<br>(i)</div></div></div>","e","TARGET","2","trustrating_stim/white_mw070.bmp,trustrating_stim/white_mw091.bmp","1,0","noMatchOutcome","i","3000","trustrating_stim/white_mw070.bmp","red","Keep","REAL","0"
"","","","","63f969ceb2a0b028aa612b33","bdp_wmem","Tue Mar 14 2023 21:40:16 GMT-0400 (Eastern Daylight Time)","695529","Match,No Match","html-keyboard-response","55","247916","0.0-7.0-5.3","","null","","<div class='trialBorder'><div class='vertical-center'><img src='img/error.jpg'></div><div class='respDiv'><div class='respDivL'><font style='color:orange'>Match<br>(e)</font></div><div class='respDivR'>No Match<br>(i)</div></div></div>","null","FEEDBACK","","","","","","","","","","",""
"","","","","63f969ceb2a0b028aa612b33","bdp_wmem","Tue Mar 14 2023 21:40:16 GMT-0400 (Eastern Daylight Time)","695529","Match,No Match","html-keyboard-response","56","248420","0.0-7.0-1.4","","null","","<div class='trialBorder'><div class='vertical-center'><img src='img/fixation2_sml.jpg'</img></div></div>","null","FIX","","","","","","","","","","",""
"","","","","63f969ceb2a0b028aa612b33","bdp_wmem","Tue Mar 14 2023 21:40:16 GMT-0400 (Eastern Daylight Time)","695529","Match,No Match","html-keyboard-response","57","252933","0.0-7.0-2.4","","null","","<div class='trialBorder'><div class='vertical-center'><img style='vertical-align:center; align:center' src='img/fixation2_sml.jpg'></div><div class='arrayDiv3'><div class='tl'><img class='introPic' src='trustrating_stim/white_mw085.bmp'><br><font color='red'><strong>Keep</strong></font></div><div class='tc'><img class='introPic' src='trustrating_stim/white_mw091.bmp'><br><font color='green'><strong>Share</strong></font></div><div class='tr'><img class='introPic' src='trustrating_stim/white_mw040.bmp'><br><font color='green'><strong>Share</strong></font></div></div></div>","null","ARRAY","3","trustrating_stim/white_mw085.bmp,trustrating_stim/white_mw091.bmp,trustrating_stim/white_mw040.bmp","0,1,1","Match","e","4500","","","","",""
"","","","","63f969ceb2a0b028aa612b33","bdp_wmem","Tue Mar 14 2023 21:40:16 GMT-0400 (Eastern Daylight Time)","695529","Match,No Match","html-keyboard-response","58","256944","0.0-7.0-3.4","","null","","<div class='trialBorder'><div class='vertical-center'><img src='img/fixation2_sml.jpg'</img></div></div>","null","DELAY","","","","","","","","","","",""
"","","","","63f969ceb2a0b028aa612b33","bdp_wmem","Tue Mar 14 2023 21:40:16 GMT-0400 (Eastern Daylight Time)","695529","Match,No Match","html-keyboard-response","59","258924","0.0-7.0-4.4","","1980","","<div class='trialBorder'><div class='targDiv'><div class='tc'><img class='introPic' src='trustrating_stim/white_mw040.bmp'><br><font color='green'><strong>Share</strong></font></div></div><div class='respDiv'><div class='respDivL'>Match<br>(e)</div><div class='respDivR'>No Match<br>(i)</div></div></div>","e","TARGET","3","trustrating_stim/white_mw085.bmp,trustrating_stim/white_mw091.bmp,trustrating_stim/white_mw040.bmp","0,1,1","Match","e","4500","trustrating_stim/white_mw040.bmp","green","Share","REAL","1"
"","","","","63f969ceb2a0b028aa612b33","bdp_wmem","Tue Mar 14 2023 21:40:16 GMT-0400 (Eastern Daylight Time)","695529","Match,No Match","html-keyboard-response","60","259439","0.0-7.0-5.4","","null","","<div class='trialBorder'><div class='vertical-center'><img src='img/correct.jpg'></div><div class='respDiv'><div class='respDivL'><font style='color:orange'>Match<br>(e)</font></div><div class='respDivR'>No Match<br>(i)</div></div></div>","null","FEEDBACK","","","","","","","","","","",""
"","","","","63f969ceb2a0b028aa612b33","bdp_wmem","Tue Mar 14 2023 21:40:16 GMT-0400 (Eastern Daylight Time)","695529","Match,No Match","html-keyboard-response","61","259944","0.0-7.0-1.5","","null","","<div class='trialBorder'><div class='vertical-center'><img src='img/fixation2_sml.jpg'</img></div></div>","null","FIX","","","","","","","","","","",""
"","","","","63f969ceb2a0b028aa612b33","bdp_wmem","Tue Mar 14 2023 21:40:16 GMT-0400 (Eastern Daylight Time)","695529","Match,No Match","html-keyboard-response","62","264455","0.0-7.0-2.5","","null","","<div class='trialBorder'><div class='vertical-center'><img style='vertical-align:center; align:center' src='img/fixation2_sml.jpg'></div><div class='arrayDiv3'><div class='tl'><img class='introPic' src='trustrating_stim/white_mw091.bmp'><br><font color='red'><strong>Keep</strong></font></div><div class='tc'><img class='introPic' src='trustrating_stim/white_mw042.bmp'><br><font color='red'><strong>Keep</strong></font></div><div class='tr'><img class='introPic' src='trustrating_stim/white_mw092.bmp'><br><font color='green'><strong>Share</strong></font></div></div></div>","null","ARRAY","3","trustrating_stim/white_mw091.bmp,trustrating_stim/white_mw042.bmp,trustrating_stim/white_mw092.bmp","0,0,1","noMatchFace","i","4500","","","","",""
"","","","","63f969ceb2a0b028aa612b33","bdp_wmem","Tue Mar 14 2023 21:40:16 GMT-0400 (Eastern Daylight Time)","695529","Match,No Match","html-keyboard-response","63","268465","0.0-7.0-3.5","","null","","<div class='trialBorder'><div class='vertical-center'><img src='img/fixation2_sml.jpg'</img></div></div>","null","DELAY","","","","","","","","","","",""
"","","","","63f969ceb2a0b028aa612b33","bdp_wmem","Tue Mar 14 2023 21:40:16 GMT-0400 (Eastern Daylight Time)","695529","Match,No Match","html-keyboard-response","64","270581","0.0-7.0-4.5","","2114","","<div class='trialBorder'><div class='targDiv'><div class='tc'><img class='introPic' src='trustrating_stim/white_mw085.bmp'><br><font color='red'><strong>Keep</strong></font></div></div><div class='respDiv'><div class='respDivL'>Match<br>(e)</div><div class='respDivR'>No Match<br>(i)</div></div></div>","e","TARGET","3","trustrating_stim/white_mw091.bmp,trustrating_stim/white_mw042.bmp,trustrating_stim/white_mw092.bmp","0,0,1","noMatchFace","i","4500","trustrating_stim/white_mw085.bmp","red","Keep","REAL","0"
"","","","","63f969ceb2a0b028aa612b33","bdp_wmem","Tue Mar 14 2023 21:40:16 GMT-0400 (Eastern Daylight Time)","695529","Match,No Match","html-keyboard-response","65","271091","0.0-7.0-5.5","","null","","<div class='trialBorder'><div class='vertical-center'><img src='img/error.jpg'></div><div class='respDiv'><div class='respDivL'><font style='color:orange'>Match<br>(e)</font></div><div class='respDivR'>No Match<br>(i)</div></div></div>","null","FEEDBACK","","","","","","","","","","",""
"","","","","63f969ceb2a0b028aa612b33","bdp_wmem","Tue Mar 14 2023 21:40:16 GMT-0400 (Eastern Daylight Time)","695529","Match,No Match","html-keyboard-response","66","271603","0.0-7.0-1.6","","null","","<div class='trialBorder'><div class='vertical-center'><img src='img/fixation2_sml.jpg'</img></div></div>","null","FIX","","","","","","","","","","",""
"","","","","63f969ceb2a0b028aa612b33","bdp_wmem","Tue Mar 14 2023 21:40:16 GMT-0400 (Eastern Daylight Time)","695529","Match,No Match","html-keyboard-response","67","273116","0.0-7.0-2.6","","null","","<div class='trialBorder'><div class='vertical-center'><img style='vertical-align:center; align:center' src='img/fixation2_sml.jpg'></div><div class='arrayDiv1'><div class='tc'><img class='introPic' src='trustrating_stim/white_mw042.bmp'><br><font color='green'><strong>Share</strong></font></div></div></div>","null","ARRAY","1","trustrating_stim/white_mw042.bmp","1","noMatchFace","i","1500","","","","",""
"","","","","63f969ceb2a0b028aa612b33","bdp_wmem","Tue Mar 14 2023 21:40:16 GMT-0400 (Eastern Daylight Time)","695529","Match,No Match","html-keyboard-response","68","277127","0.0-7.0-3.6","","null","","<div class='trialBorder'><div class='vertical-center'><img src='img/fixation2_sml.jpg'</img></div></div>","null","DELAY","","","","","","","","","","",""
"","","","","63f969ceb2a0b028aa612b33","bdp_wmem","Tue Mar 14 2023 21:40:16 GMT-0400 (Eastern Daylight Time)","695529","Match,No Match","html-keyboard-response","69","279071","0.0-7.0-4.6","","1941","","<div class='trialBorder'><div class='targDiv'><div class='tc'><img class='introPic' src='trustrating_stim/white_mw003.bmp'><br><font color='green'><strong>Share</strong></font></div></div><div class='respDiv'><div class='respDivL'>Match<br>(e)</div><div class='respDivR'>No Match<br>(i)</div></div></div>","e","TARGET","1","trustrating_stim/white_mw042.bmp","1","noMatchFace","i","1500","trustrating_stim/white_mw003.bmp","green","Share","REAL","0"
"","","","","63f969ceb2a0b028aa612b33","bdp_wmem","Tue Mar 14 2023 21:40:16 GMT-0400 (Eastern Daylight Time)","695529","Match,No Match","html-keyboard-response","70","279585","0.0-7.0-5.6","","null","","<div class='trialBorder'><div class='vertical-center'><img src='img/error.jpg'></div><div class='respDiv'><div class='respDivL'><font style='color:orange'>Match<br>(e)</font></div><div class='respDivR'>No Match<br>(i)</div></div></div>","null","FEEDBACK","","","","","","","","","","",""
"","","","","63f969ceb2a0b028aa612b33","bdp_wmem","Tue Mar 14 2023 21:40:16 GMT-0400 (Eastern Daylight Time)","695529","Match,No Match","html-keyboard-response","71","280100","0.0-7.0-1.7","","null","","<div class='trialBorder'><div class='vertical-center'><img src='img/fixation2_sml.jpg'</img></div></div>","null","FIX","","","","","","","","","","",""
"","","","","63f969ceb2a0b028aa612b33","bdp_wmem","Tue Mar 14 2023 21:40:16 GMT-0400 (Eastern Daylight Time)","695529","Match,No Match","html-keyboard-response","72","283114","0.0-7.0-2.7","","null","","<div class='trialBorder'><div class='vertical-center'><img style='vertical-align:center; align:center' src='img/fixation2_sml.jpg'></div><div class='arrayDiv2'><div class='tl'><img class='introPic' src='trustrating_stim/white_mw012.bmp'><br><font color='green'><strong>Share</strong></font></div><div class='tr'><img class='introPic' src='trustrating_stim/white_mw042.bmp'><br><font color='red'><strong>Keep</strong></font></div></div></div>","null","ARRAY","2","trustrating_stim/white_mw012.bmp,trustrating_stim/white_mw042.bmp","1,0","noMatchFace","i","3000","","","","",""
"","","","","63f969ceb2a0b028aa612b33","bdp_wmem","Tue Mar 14 2023 21:40:16 GMT-0400 (Eastern Daylight Time)","695529","Match,No Match","html-keyboard-response","73","287118","0.0-7.0-3.7","","null","","<div class='trialBorder'><div class='vertical-center'><img src='img/fixation2_sml.jpg'</img></div></div>","null","DELAY","","","","","","","","","","",""
"","","","","63f969ceb2a0b028aa612b33","bdp_wmem","Tue Mar 14 2023 21:40:16 GMT-0400 (Eastern Daylight Time)","695529","Match,No Match","html-keyboard-response","74","290237","0.0-7.0-4.7","","3119","","<div class='trialBorder'><div class='targDiv'><div class='tc'><img class='introPic' src='trustrating_stim/white_mw092.bmp'><br><font color='red'><strong>Keep</strong></font></div></div><div class='respDiv'><div class='respDivL'>Match<br>(e)</div><div class='respDivR'>No Match<br>(i)</div></div></div>","e","TARGET","2","trustrating_stim/white_mw012.bmp,trustrating_stim/white_mw042.bmp","1,0","noMatchFace","i","3000","trustrating_stim/white_mw092.bmp","red","Keep","REAL","0"
"","","","","63f969ceb2a0b028aa612b33","bdp_wmem","Tue Mar 14 2023 21:40:16 GMT-0400 (Eastern Daylight Time)","695529","Match,No Match","html-keyboard-response","75","290751","0.0-7.0-5.7","","null","","<div class='trialBorder'><div class='vertical-center'><img src='img/error.jpg'></div><div class='respDiv'><div class='respDivL'><font style='color:orange'>Match<br>(e)</font></div><div class='respDivR'>No Match<br>(i)</div></div></div>","null","FEEDBACK","","","","","","","","","","",""
"","","","","63f969ceb2a0b028aa612b33","bdp_wmem","Tue Mar 14 2023 21:40:16 GMT-0400 (Eastern Daylight Time)","695529","Match,No Match","html-keyboard-response","76","291254","0.0-7.0-1.8","","null","","<div class='trialBorder'><div class='vertical-center'><img src='img/fixation2_sml.jpg'</img></div></div>","null","FIX","","","","","","","","","","",""
"","","","","63f969ceb2a0b028aa612b33","bdp_wmem","Tue Mar 14 2023 21:40:16 GMT-0400 (Eastern Daylight Time)","695529","Match,No Match","html-keyboard-response","77","292765","0.0-7.0-2.8","","null","","<div class='trialBorder'><div class='vertical-center'><img style='vertical-align:center; align:center' src='img/fixation2_sml.jpg'></div><div class='arrayDiv1'><div class='tc'><img class='introPic' src='trustrating_stim/white_mw003.bmp'><br><font color='red'><strong>Keep</strong></font></div></div></div>","null","ARRAY","1","trustrating_stim/white_mw003.bmp","0","Match","e","1500","","","","",""
"","","","","63f969ceb2a0b028aa612b33","bdp_wmem","Tue Mar 14 2023 21:40:16 GMT-0400 (Eastern Daylight Time)","695529","Match,No Match","html-keyboard-response","78","296774","0.0-7.0-3.8","","null","","<div class='trialBorder'><div class='vertical-center'><img src='img/fixation2_sml.jpg'</img></div></div>","null","DELAY","","","","","","","","","","",""
"","","","","63f969ceb2a0b028aa612b33","bdp_wmem","Tue Mar 14 2023 21:40:16 GMT-0400 (Eastern Daylight Time)","695529","Match,No Match","html-keyboard-response","79","298230","0.0-7.0-4.8","","1455","","<div class='trialBorder'><div class='targDiv'><div class='tc'><img class='introPic' src='trustrating_stim/white_mw003.bmp'><br><font color='red'><strong>Keep</strong></font></div></div><div class='respDiv'><div class='respDivL'>Match<br>(e)</div><div class='respDivR'>No Match<br>(i)</div></div></div>","e","TARGET","1","trustrating_stim/white_mw003.bmp","0","Match","e","1500","trustrating_stim/white_mw003.bmp","red","Keep","REAL","1"
"","","","","63f969ceb2a0b028aa612b33","bdp_wmem","Tue Mar 14 2023 21:40:16 GMT-0400 (Eastern Daylight Time)","695529","Match,No Match","html-keyboard-response","80","298733","0.0-7.0-5.8","","null","","<div class='trialBorder'><div class='vertical-center'><img src='img/correct.jpg'></div><div class='respDiv'><div class='respDivL'><font style='color:orange'>Match<br>(e)</font></div><div class='respDivR'>No Match<br>(i)</div></div></div>","null","FEEDBACK","","","","","","","","","","",""
"","","","","63f969ceb2a0b028aa612b33","bdp_wmem","Tue Mar 14 2023 21:40:16 GMT-0400 (Eastern Daylight Time)","695529","Match,No Match","html-keyboard-response","81","299239","0.0-7.0-1.9","","null","","<div class='trialBorder'><div class='vertical-center'><img src='img/fixation2_sml.jpg'</img></div></div>","null","FIX","","","","","","","","","","",""
"","","","","63f969ceb2a0b028aa612b33","bdp_wmem","Tue Mar 14 2023 21:40:16 GMT-0400 (Eastern Daylight Time)","695529","Match,No Match","html-keyboard-response","82","300745","0.0-7.0-2.9","","null","","<div class='trialBorder'><div class='vertical-center'><img style='vertical-align:center; align:center' src='img/fixation2_sml.jpg'></div><div class='arrayDiv1'><div class='tc'><img class='introPic' src='trustrating_stim/white_mw013.bmp'><br><font color='red'><strong>Keep</strong></font></div></div></div>","null","ARRAY","1","trustrating_stim/white_mw013.bmp","0","Match","e","1500","","","","",""
"","","","","63f969ceb2a0b028aa612b33","bdp_wmem","Tue Mar 14 2023 21:40:16 GMT-0400 (Eastern Daylight Time)","695529","Match,No Match","html-keyboard-response","83","304753","0.0-7.0-3.9","","null","","<div class='trialBorder'><div class='vertical-center'><img src='img/fixation2_sml.jpg'</img></div></div>","null","DELAY","","","","","","","","","","",""
"","","","","63f969ceb2a0b028aa612b33","bdp_wmem","Tue Mar 14 2023 21:40:16 GMT-0400 (Eastern Daylight Time)","695529","Match,No Match","html-keyboard-response","84","306535","0.0-7.0-4.9","","1782","","<div class='trialBorder'><div class='targDiv'><div class='tc'><img class='introPic' src='trustrating_stim/white_mw013.bmp'><br><font color='red'><strong>Keep</strong></font></div></div><div class='respDiv'><div class='respDivL'>Match<br>(e)</div><div class='respDivR'>No Match<br>(i)</div></div></div>","e","TARGET","1","trustrating_stim/white_mw013.bmp","0","Match","e","1500","trustrating_stim/white_mw013.bmp","red","Keep","REAL","1"
"","","","","63f969ceb2a0b028aa612b33","bdp_wmem","Tue Mar 14 2023 21:40:16 GMT-0400 (Eastern Daylight Time)","695529","Match,No Match","html-keyboard-response","85","307046","0.0-7.0-5.9","","null","","<div class='trialBorder'><div class='vertical-center'><img src='img/correct.jpg'></div><div class='respDiv'><div class='respDivL'><font style='color:orange'>Match<br>(e)</font></div><div class='respDivR'>No Match<br>(i)</div></div></div>","null","FEEDBACK","","","","","","","","","","",""
"","","","","63f969ceb2a0b028aa612b33","bdp_wmem","Tue Mar 14 2023 21:40:16 GMT-0400 (Eastern Daylight Time)","695529","Match,No Match","html-keyboard-response","86","307553","0.0-7.0-1.10","","null","","<div class='trialBorder'><div class='vertical-center'><img src='img/fixation2_sml.jpg'</img></div></div>","null","FIX","","","","","","","","","","",""
"","","","","63f969ceb2a0b028aa612b33","bdp_wmem","Tue Mar 14 2023 21:40:16 GMT-0400 (Eastern Daylight Time)","695529","Match,No Match","html-keyboard-response","87","312057","0.0-7.0-2.10","","null","","<div class='trialBorder'><div class='vertical-center'><img style='vertical-align:center; align:center' src='img/fixation2_sml.jpg'></div><div class='arrayDiv3'><div class='tl'><img class='introPic' src='trustrating_stim/white_mw042.bmp'><br><font color='red'><strong>Keep</strong></font></div><div class='tc'><img class='introPic' src='trustrating_stim/white_mw012.bmp'><br><font color='green'><strong>Share</strong></font></div><div class='tr'><img class='introPic' src='trustrating_stim/white_mw003.bmp'><br><font color='green'><strong>Share</strong></font></div></div></div>","null","ARRAY","3","trustrating_stim/white_mw042.bmp,trustrating_stim/white_mw012.bmp,trustrating_stim/white_mw003.bmp","0,1,1","Match","e","4500","","","","",""
"","","","","63f969ceb2a0b028aa612b33","bdp_wmem","Tue Mar 14 2023 21:40:16 GMT-0400 (Eastern Daylight Time)","695529","Match,No Match","html-keyboard-response","88","316070","0.0-7.0-3.10","","null","","<div class='trialBorder'><div class='vertical-center'><img src='img/fixation2_sml.jpg'</img></div></div>","null","DELAY","","","","","","","","","","",""
"","","","","63f969ceb2a0b028aa612b33","bdp_wmem","Tue Mar 14 2023 21:40:16 GMT-0400 (Eastern Daylight Time)","695529","Match,No Match","html-keyboard-response","89","318889","0.0-7.0-4.10","","2817","","<div class='trialBorder'><div class='targDiv'><div class='tc'><img class='introPic' src='trustrating_stim/white_mw003.bmp'><br><font color='green'><strong>Share</strong></font></div></div><div class='respDiv'><div class='respDivL'>Match<br>(e)</div><div class='respDivR'>No Match<br>(i)</div></div></div>","i","TARGET","3","trustrating_stim/white_mw042.bmp,trustrating_stim/white_mw012.bmp,trustrating_stim/white_mw003.bmp","0,1,1","Match","e","4500","trustrating_stim/white_mw003.bmp","green","Share","REAL","0"
"","","","","63f969ceb2a0b028aa612b33","bdp_wmem","Tue Mar 14 2023 21:40:16 GMT-0400 (Eastern Daylight Time)","695529","Match,No Match","html-keyboard-response","90","319396","0.0-7.0-5.10","","null","","<div class='trialBorder'><div class='vertical-center'><img src='img/error.jpg'></div><div class='respDiv'><div class='respDivL'>Match<br>(e)</div><div class='respDivR'><font style='color:orange'>No Match<br>(i)</font></div></div></div>","null","FEEDBACK","","","","","","","","","","",""
"","","","","63f969ceb2a0b028aa612b33","bdp_wmem","Tue Mar 14 2023 21:40:16 GMT-0400 (Eastern Daylight Time)","695529","Match,No Match","html-keyboard-response","91","319904","0.0-7.0-1.11","","null","","<div class='trialBorder'><div class='vertical-center'><img src='img/fixation2_sml.jpg'</img></div></div>","null","FIX","","","","","","","","","","",""
"","","","","63f969ceb2a0b028aa612b33","bdp_wmem","Tue Mar 14 2023 21:40:16 GMT-0400 (Eastern Daylight Time)","695529","Match,No Match","html-keyboard-response","92","324412","0.0-7.0-2.11","","null","","<div class='trialBorder'><div class='vertical-center'><img style='vertical-align:center; align:center' src='img/fixation2_sml.jpg'></div><div class='arrayDiv3'><div class='tl'><img class='introPic' src='trustrating_stim/white_mw085.bmp'><br><font color='green'><strong>Share</strong></font></div><div class='tc'><img class='introPic' src='trustrating_stim/white_mw091.bmp'><br><font color='red'><strong>Keep</strong></font></div><div class='tr'><img class='introPic' src='trustrating_stim/white_mw070.bmp'><br><font color='green'><strong>Share</strong></font></div></div></div>","null","ARRAY","3","trustrating_stim/white_mw085.bmp,trustrating_stim/white_mw091.bmp,trustrating_stim/white_mw070.bmp","1,0,1","noMatchOutcome","i","4500","","","","",""
"","","","","63f969ceb2a0b028aa612b33","bdp_wmem","Tue Mar 14 2023 21:40:16 GMT-0400 (Eastern Daylight Time)","695529","Match,No Match","html-keyboard-response","93","328427","0.0-7.0-3.11","","null","","<div class='trialBorder'><div class='vertical-center'><img src='img/fixation2_sml.jpg'</img></div></div>","null","DELAY","","","","","","","","","","",""
"","","","","63f969ceb2a0b028aa612b33","bdp_wmem","Tue Mar 14 2023 21:40:16 GMT-0400 (Eastern Daylight Time)","695529","Match,No Match","html-keyboard-response","94","330250","0.0-7.0-4.11","","1823","","<div class='trialBorder'><div class='targDiv'><div class='tc'><img class='introPic' src='trustrating_stim/white_mw091.bmp'><br><font color='green'><strong>Share</strong></font></div></div><div class='respDiv'><div class='respDivL'>Match<br>(e)</div><div class='respDivR'>No Match<br>(i)</div></div></div>","i","TARGET","3","trustrating_stim/white_mw085.bmp,trustrating_stim/white_mw091.bmp,trustrating_stim/white_mw070.bmp","1,0,1","noMatchOutcome","i","4500","trustrating_stim/white_mw091.bmp","green","Share","REAL","1"
"","","","","63f969ceb2a0b028aa612b33","bdp_wmem","Tue Mar 14 2023 21:40:16 GMT-0400 (Eastern Daylight Time)","695529","Match,No Match","html-keyboard-response","95","330761","0.0-7.0-5.11","","null","","<div class='trialBorder'><div class='vertical-center'><img src='img/correct.jpg'></div><div class='respDiv'><div class='respDivL'>Match<br>(e)</div><div class='respDivR'><font style='color:orange'>No Match<br>(i)</font></div></div></div>","null","FEEDBACK","","","","","","","","","","",""
"","","","","63f969ceb2a0b028aa612b33","bdp_wmem","Tue Mar 14 2023 21:40:16 GMT-0400 (Eastern Daylight Time)","695529","Match,No Match","html-keyboard-response","96","331272","0.0-7.0-1.12","","null","","<div class='trialBorder'><div class='vertical-center'><img src='img/fixation2_sml.jpg'</img></div></div>","null","FIX","","","","","","","","","","",""
"","","","","63f969ceb2a0b028aa612b33","bdp_wmem","Tue Mar 14 2023 21:40:16 GMT-0400 (Eastern Daylight Time)","695529","Match,No Match","html-keyboard-response","97","334287","0.0-7.0-2.12","","null","","<div class='trialBorder'><div class='vertical-center'><img style='vertical-align:center; align:center' src='img/fixation2_sml.jpg'></div><div class='arrayDiv2'><div class='tl'><img class='introPic' src='trustrating_stim/white_mw010.bmp'><br><font color='green'><strong>Share</strong></font></div><div class='tr'><img class='introPic' src='trustrating_stim/white_mw012.bmp'><br><font color='red'><strong>Keep</strong></font></div></div></div>","null","ARRAY","2","trustrating_stim/white_mw010.bmp,trustrating_stim/white_mw012.bmp","1,0","Match","e","3000","","","","",""
"","","","","63f969ceb2a0b028aa612b33","bdp_wmem","Tue Mar 14 2023 21:40:16 GMT-0400 (Eastern Daylight Time)","695529","Match,No Match","html-keyboard-response","98","338289","0.0-7.0-3.12","","null","","<div class='trialBorder'><div class='vertical-center'><img src='img/fixation2_sml.jpg'</img></div></div>","null","DELAY","","","","","","","","","","",""
"","","","","63f969ceb2a0b028aa612b33","bdp_wmem","Tue Mar 14 2023 21:40:16 GMT-0400 (Eastern Daylight Time)","695529","Match,No Match","html-keyboard-response","99","340113","0.0-7.0-4.12","","1822","","<div class='trialBorder'><div class='targDiv'><div class='tc'><img class='introPic' src='trustrating_stim/white_mw010.bmp'><br><font color='green'><strong>Share</strong></font></div></div><div class='respDiv'><div class='respDivL'>Match<br>(e)</div><div class='respDivR'>No Match<br>(i)</div></div></div>","e","TARGET","2","trustrating_stim/white_mw010.bmp,trustrating_stim/white_mw012.bmp","1,0","Match","e","3000","trustrating_stim/white_mw010.bmp","green","Share","REAL","1"
"","","","","63f969ceb2a0b028aa612b33","bdp_wmem","Tue Mar 14 2023 21:40:16 GMT-0400 (Eastern Daylight Time)","695529","Match,No Match","html-keyboard-response","100","340619","0.0-7.0-5.12","","null","","<div class='trialBorder'><div class='vertical-center'><img src='img/correct.jpg'></div><div class='respDiv'><div class='respDivL'><font style='color:orange'>Match<br>(e)</font></div><div class='respDivR'>No Match<br>(i)</div></div></div>","null","FEEDBACK","","","","","","","","","","",""
"","","","","63f969ceb2a0b028aa612b33","bdp_wmem","Tue Mar 14 2023 21:40:16 GMT-0400 (Eastern Daylight Time)","695529","Match,No Match","html-keyboard-response","101","341129","0.0-7.0-1.13","","null","","<div class='trialBorder'><div class='vertical-center'><img src='img/fixation2_sml.jpg'</img></div></div>","null","FIX","","","","","","","","","","",""
"","","","","63f969ceb2a0b028aa612b33","bdp_wmem","Tue Mar 14 2023 21:40:16 GMT-0400 (Eastern Daylight Time)","695529","Match,No Match","html-keyboard-response","102","342646","0.0-7.0-2.13","","null","","<div class='trialBorder'><div class='vertical-center'><img style='vertical-align:center; align:center' src='img/fixation2_sml.jpg'></div><div class='arrayDiv1'><div class='tc'><img class='introPic' src='trustrating_stim/white_mw091.bmp'><br><font color='red'><strong>Keep</strong></font></div></div></div>","null","ARRAY","1","trustrating_stim/white_mw091.bmp","0","noMatchOutcome","i","1500","","","","",""
"","","","","63f969ceb2a0b028aa612b33","bdp_wmem","Tue Mar 14 2023 21:40:16 GMT-0400 (Eastern Daylight Time)","695529","Match,No Match","html-keyboard-response","103","346654","0.0-7.0-3.13","","null","","<div class='trialBorder'><div class='vertical-center'><img src='img/fixation2_sml.jpg'</img></div></div>","null","DELAY","","","","","","","","","","",""
"","","","","63f969ceb2a0b028aa612b33","bdp_wmem","Tue Mar 14 2023 21:40:16 GMT-0400 (Eastern Daylight Time)","695529","Match,No Match","html-keyboard-response","104","348222","0.0-7.0-4.13","","1567","","<div class='trialBorder'><div class='targDiv'><div class='tc'><img class='introPic' src='trustrating_stim/white_mw091.bmp'><br><font color='green'><strong>Share</strong></font></div></div><div class='respDiv'><div class='respDivL'>Match<br>(e)</div><div class='respDivR'>No Match<br>(i)</div></div></div>","i","TARGET","1","trustrating_stim/white_mw091.bmp","0","noMatchOutcome","i","1500","trustrating_stim/white_mw091.bmp","green","Share","REAL","1"
"","","","","63f969ceb2a0b028aa612b33","bdp_wmem","Tue Mar 14 2023 21:40:16 GMT-0400 (Eastern Daylight Time)","695529","Match,No Match","html-keyboard-response","105","348735","0.0-7.0-5.13","","null","","<div class='trialBorder'><div class='vertical-center'><img src='img/correct.jpg'></div><div class='respDiv'><div class='respDivL'>Match<br>(e)</div><div class='respDivR'><font style='color:orange'>No Match<br>(i)</font></div></div></div>","null","FEEDBACK","","","","","","","","","","",""
"","","","","63f969ceb2a0b028aa612b33","bdp_wmem","Tue Mar 14 2023 21:40:16 GMT-0400 (Eastern Daylight Time)","695529","Match,No Match","html-keyboard-response","106","349246","0.0-7.0-1.14","","null","","<div class='trialBorder'><div class='vertical-center'><img src='img/fixation2_sml.jpg'</img></div></div>","null","FIX","","","","","","","","","","",""
"","","","","63f969ceb2a0b028aa612b33","bdp_wmem","Tue Mar 14 2023 21:40:16 GMT-0400 (Eastern Daylight Time)","695529","Match,No Match","html-keyboard-response","107","353760","0.0-7.0-2.14","","null","","<div class='trialBorder'><div class='vertical-center'><img style='vertical-align:center; align:center' src='img/fixation2_sml.jpg'></div><div class='arrayDiv3'><div class='tl'><img class='introPic' src='trustrating_stim/white_mw003.bmp'><br><font color='red'><strong>Keep</strong></font></div><div class='tc'><img class='introPic' src='trustrating_stim/white_mw085.bmp'><br><font color='red'><strong>Keep</strong></font></div><div class='tr'><img class='introPic' src='trustrating_stim/white_mw010.bmp'><br><font color='green'><strong>Share</strong></font></div></div></div>","null","ARRAY","3","trustrating_stim/white_mw003.bmp,trustrating_stim/white_mw085.bmp,trustrating_stim/white_mw010.bmp","0,0,1","Match","e","4500","","","","",""
"","","","","63f969ceb2a0b028aa612b33","bdp_wmem","Tue Mar 14 2023 21:40:16 GMT-0400 (Eastern Daylight Time)","695529","Match,No Match","html-keyboard-response","108","357772","0.0-7.0-3.14","","null","","<div class='trialBorder'><div class='vertical-center'><img src='img/fixation2_sml.jpg'</img></div></div>","null","DELAY","","","","","","","","","","",""
"","","","","63f969ceb2a0b028aa612b33","bdp_wmem","Tue Mar 14 2023 21:40:16 GMT-0400 (Eastern Daylight Time)","695529","Match,No Match","html-keyboard-response","109","360562","0.0-7.0-4.14","","2789","","<div class='trialBorder'><div class='targDiv'><div class='tc'><img class='introPic' src='trustrating_stim/white_mw085.bmp'><br><font color='red'><strong>Keep</strong></font></div></div><div class='respDiv'><div class='respDivL'>Match<br>(e)</div><div class='respDivR'>No Match<br>(i)</div></div></div>","e","TARGET","3","trustrating_stim/white_mw003.bmp,trustrating_stim/white_mw085.bmp,trustrating_stim/white_mw010.bmp","0,0,1","Match","e","4500","trustrating_stim/white_mw085.bmp","red","Keep","REAL","1"
"","","","","63f969ceb2a0b028aa612b33","bdp_wmem","Tue Mar 14 2023 21:40:16 GMT-0400 (Eastern Daylight Time)","695529","Match,No Match","html-keyboard-response","110","361063","0.0-7.0-5.14","","null","","<div class='trialBorder'><div class='vertical-center'><img src='img/correct.jpg'></div><div class='respDiv'><div class='respDivL'><font style='color:orange'>Match<br>(e)</font></div><div class='respDivR'>No Match<br>(i)</div></div></div>","null","FEEDBACK","","","","","","","","","","",""
"","","","","63f969ceb2a0b028aa612b33","bdp_wmem","Tue Mar 14 2023 21:40:16 GMT-0400 (Eastern Daylight Time)","695529","Match,No Match","html-keyboard-response","111","361573","0.0-7.0-1.15","","null","","<div class='trialBorder'><div class='vertical-center'><img src='img/fixation2_sml.jpg'</img></div></div>","null","FIX","","","","","","","","","","",""
"","","","","63f969ceb2a0b028aa612b33","bdp_wmem","Tue Mar 14 2023 21:40:16 GMT-0400 (Eastern Daylight Time)","695529","Match,No Match","html-keyboard-response","112","364581","0.0-7.0-2.15","","null","","<div class='trialBorder'><div class='vertical-center'><img style='vertical-align:center; align:center' src='img/fixation2_sml.jpg'></div><div class='arrayDiv2'><div class='tl'><img class='introPic' src='trustrating_stim/white_mw012.bmp'><br><font color='red'><strong>Keep</strong></font></div><div class='tr'><img class='introPic' src='trustrating_stim/white_mw070.bmp'><br><font color='green'><strong>Share</strong></font></div></div></div>","null","ARRAY","2","trustrating_stim/white_mw012.bmp,trustrating_stim/white_mw070.bmp","0,1","noMatchOutcome","i","3000","","","","",""
"","","","","63f969ceb2a0b028aa612b33","bdp_wmem","Tue Mar 14 2023 21:40:16 GMT-0400 (Eastern Daylight Time)","695529","Match,No Match","html-keyboard-response","113","368591","0.0-7.0-3.15","","null","","<div class='trialBorder'><div class='vertical-center'><img src='img/fixation2_sml.jpg'</img></div></div>","null","DELAY","","","","","","","","","","",""
"","","","","63f969ceb2a0b028aa612b33","bdp_wmem","Tue Mar 14 2023 21:40:16 GMT-0400 (Eastern Daylight Time)","695529","Match,No Match","html-keyboard-response","114","372107","0.0-7.0-4.15","","3516","","<div class='trialBorder'><div class='targDiv'><div class='tc'><img class='introPic' src='trustrating_stim/white_mw070.bmp'><br><font color='red'><strong>Keep</strong></font></div></div><div class='respDiv'><div class='respDivL'>Match<br>(e)</div><div class='respDivR'>No Match<br>(i)</div></div></div>","e","TARGET","2","trustrating_stim/white_mw012.bmp,trustrating_stim/white_mw070.bmp","0,1","noMatchOutcome","i","3000","trustrating_stim/white_mw070.bmp","red","Keep","REAL","0"
"","","","","63f969ceb2a0b028aa612b33","bdp_wmem","Tue Mar 14 2023 21:40:16 GMT-0400 (Eastern Daylight Time)","695529","Match,No Match","html-keyboard-response","115","372613","0.0-7.0-5.15","","null","","<div class='trialBorder'><div class='vertical-center'><img src='img/error.jpg'></div><div class='respDiv'><div class='respDivL'><font style='color:orange'>Match<br>(e)</font></div><div class='respDivR'>No Match<br>(i)</div></div></div>","null","FEEDBACK","","","","","","","","","","",""
"","","","","63f969ceb2a0b028aa612b33","bdp_wmem","Tue Mar 14 2023 21:40:16 GMT-0400 (Eastern Daylight Time)","695529","Match,No Match","html-keyboard-response","116","373124","0.0-7.0-1.16","","null","","<div class='trialBorder'><div class='vertical-center'><img src='img/fixation2_sml.jpg'</img></div></div>","null","FIX","","","","","","","","","","",""
"","","","","63f969ceb2a0b028aa612b33","bdp_wmem","Tue Mar 14 2023 21:40:16 GMT-0400 (Eastern Daylight Time)","695529","Match,No Match","html-keyboard-response","117","374631","0.0-7.0-2.16","","null","","<div class='trialBorder'><div class='vertical-center'><img style='vertical-align:center; align:center' src='img/fixation2_sml.jpg'></div><div class='arrayDiv1'><div class='tc'><img class='introPic' src='trustrating_stim/white_mw013.bmp'><br><font color='green'><strong>Share</strong></font></div></div></div>","null","ARRAY","1","trustrating_stim/white_mw013.bmp","1","noMatchOutcome","i","1500","","","","",""
"","","","","63f969ceb2a0b028aa612b33","bdp_wmem","Tue Mar 14 2023 21:40:16 GMT-0400 (Eastern Daylight Time)","695529","Match,No Match","html-keyboard-response","118","378645","0.0-7.0-3.16","","null","","<div class='trialBorder'><div class='vertical-center'><img src='img/fixation2_sml.jpg'</img></div></div>","null","DELAY","","","","","","","","","","",""
"","","","","63f969ceb2a0b028aa612b33","bdp_wmem","Tue Mar 14 2023 21:40:16 GMT-0400 (Eastern Daylight Time)","695529","Match,No Match","html-keyboard-response","119","380247","0.0-7.0-4.16","","1601","","<div class='trialBorder'><div class='targDiv'><div class='tc'><img class='introPic' src='trustrating_stim/white_mw013.bmp'><br><font color='red'><strong>Keep</strong></font></div></div><div class='respDiv'><div class='respDivL'>Match<br>(e)</div><div class='respDivR'>No Match<br>(i)</div></div></div>","i","TARGET","1","trustrating_stim/white_mw013.bmp","1","noMatchOutcome","i","1500","trustrating_stim/white_mw013.bmp","red","Keep","REAL","1"
"","","","","63f969ceb2a0b028aa612b33","bdp_wmem","Tue Mar 14 2023 21:40:16 GMT-0400 (Eastern Daylight Time)","695529","Match,No Match","html-keyboard-response","120","380751","0.0-7.0-5.16","","null","","<div class='trialBorder'><div class='vertical-center'><img src='img/correct.jpg'></div><div class='respDiv'><div class='respDivL'>Match<br>(e)</div><div class='respDivR'><font style='color:orange'>No Match<br>(i)</font></div></div></div>","null","FEEDBACK","","","","","","","","","","",""
"","","","","63f969ceb2a0b028aa612b33","bdp_wmem","Tue Mar 14 2023 21:40:16 GMT-0400 (Eastern Daylight Time)","695529","Match,No Match","html-keyboard-response","121","381258","0.0-7.0-1.17","","null","","<div class='trialBorder'><div class='vertical-center'><img src='img/fixation2_sml.jpg'</img></div></div>","null","FIX","","","","","","","","","","",""
"","","","","63f969ceb2a0b028aa612b33","bdp_wmem","Tue Mar 14 2023 21:40:16 GMT-0400 (Eastern Daylight Time)","695529","Match,No Match","html-keyboard-response","122","382774","0.0-7.0-2.17","","null","","<div class='trialBorder'><div class='vertical-center'><img style='vertical-align:center; align:center' src='img/fixation2_sml.jpg'></div><div class='arrayDiv1'><div class='tc'><img class='introPic' src='trustrating_stim/white_mw013.bmp'><br><font color='red'><strong>Keep</strong></font></div></div></div>","null","ARRAY","1","trustrating_stim/white_mw013.bmp","0","Match","e","1500","","","","",""
"","","","","63f969ceb2a0b028aa612b33","bdp_wmem","Tue Mar 14 2023 21:40:16 GMT-0400 (Eastern Daylight Time)","695529","Match,No Match","html-keyboard-response","123","386784","0.0-7.0-3.17","","null","","<div class='trialBorder'><div class='vertical-center'><img src='img/fixation2_sml.jpg'</img></div></div>","null","DELAY","","","","","","","","","","",""
"","","","","63f969ceb2a0b028aa612b33","bdp_wmem","Tue Mar 14 2023 21:40:16 GMT-0400 (Eastern Daylight Time)","695529","Match,No Match","html-keyboard-response","124","388223","0.0-7.0-4.17","","1438","","<div class='trialBorder'><div class='targDiv'><div class='tc'><img class='introPic' src='trustrating_stim/white_mw013.bmp'><br><font color='red'><strong>Keep</strong></font></div></div><div class='respDiv'><div class='respDivL'>Match<br>(e)</div><div class='respDivR'>No Match<br>(i)</div></div></div>","e","TARGET","1","trustrating_stim/white_mw013.bmp","0","Match","e","1500","trustrating_stim/white_mw013.bmp","red","Keep","REAL","1"
"","","","","63f969ceb2a0b028aa612b33","bdp_wmem","Tue Mar 14 2023 21:40:16 GMT-0400 (Eastern Daylight Time)","695529","Match,No Match","html-keyboard-response","125","388734","0.0-7.0-5.17","","null","","<div class='trialBorder'><div class='vertical-center'><img src='img/correct.jpg'></div><div class='respDiv'><div class='respDivL'><font style='color:orange'>Match<br>(e)</font></div><div class='respDivR'>No Match<br>(i)</div></div></div>","null","FEEDBACK","","","","","","","","","","",""
"","","","","63f969ceb2a0b028aa612b33","bdp_wmem","Tue Mar 14 2023 21:40:16 GMT-0400 (Eastern Daylight Time)","695529","Match,No Match","html-keyboard-response","126","389244","0.0-7.0-1.18","","null","","<div class='trialBorder'><div class='vertical-center'><img src='img/fixation2_sml.jpg'</img></div></div>","null","FIX","","","","","","","","","","",""
"","","","","63f969ceb2a0b028aa612b33","bdp_wmem","Tue Mar 14 2023 21:40:16 GMT-0400 (Eastern Daylight Time)","695529","Match,No Match","html-keyboard-response","127","392248","0.0-7.0-2.18","","null","","<div class='trialBorder'><div class='vertical-center'><img style='vertical-align:center; align:center' src='img/fixation2_sml.jpg'></div><div class='arrayDiv2'><div class='tl'><img class='introPic' src='trustrating_stim/white_mw040.bmp'><br><font color='red'><strong>Keep</strong></font></div><div class='tr'><img class='introPic' src='trustrating_stim/white_mw091.bmp'><br><font color='green'><strong>Share</strong></font></div></div></div>","null","ARRAY","2","trustrating_stim/white_mw040.bmp,trustrating_stim/white_mw091.bmp","0,1","noMatchOutcome","i","3000","","","","",""
"","","","","63f969ceb2a0b028aa612b33","bdp_wmem","Tue Mar 14 2023 21:40:16 GMT-0400 (Eastern Daylight Time)","695529","Match,No Match","html-keyboard-response","128","396258","0.0-7.0-3.18","","null","","<div class='trialBorder'><div class='vertical-center'><img src='img/fixation2_sml.jpg'</img></div></div>","null","DELAY","","","","","","","","","","",""
"","","","","63f969ceb2a0b028aa612b33","bdp_wmem","Tue Mar 14 2023 21:40:16 GMT-0400 (Eastern Daylight Time)","695529","Match,No Match","html-keyboard-response","129","398164","0.0-7.0-4.18","","1905","","<div class='trialBorder'><div class='targDiv'><div class='tc'><img class='introPic' src='trustrating_stim/white_mw040.bmp'><br><font color='green'><strong>Share</strong></font></div></div><div class='respDiv'><div class='respDivL'>Match<br>(e)</div><div class='respDivR'>No Match<br>(i)</div></div></div>","i","TARGET","2","trustrating_stim/white_mw040.bmp,trustrating_stim/white_mw091.bmp","0,1","noMatchOutcome","i","3000","trustrating_stim/white_mw040.bmp","green","Share","REAL","1"
"","","","","63f969ceb2a0b028aa612b33","bdp_wmem","Tue Mar 14 2023 21:40:16 GMT-0400 (Eastern Daylight Time)","695529","Match,No Match","html-keyboard-response","130","398677","0.0-7.0-5.18","","null","","<div class='trialBorder'><div class='vertical-center'><img src='img/correct.jpg'></div><div class='respDiv'><div class='respDivL'>Match<br>(e)</div><div class='respDivR'><font style='color:orange'>No Match<br>(i)</font></div></div></div>","null","FEEDBACK","","","","","","","","","","",""
"","","","","63f969ceb2a0b028aa612b33","bdp_wmem","Tue Mar 14 2023 21:40:16 GMT-0400 (Eastern Daylight Time)","695529","Match,No Match","html-keyboard-response","131","399182","0.0-7.0-1.19","","null","","<div class='trialBorder'><div class='vertical-center'><img src='img/fixation2_sml.jpg'</img></div></div>","null","FIX","","","","","","","","","","",""
"","","","","63f969ceb2a0b028aa612b33","bdp_wmem","Tue Mar 14 2023 21:40:16 GMT-0400 (Eastern Daylight Time)","695529","Match,No Match","html-keyboard-response","132","400693","0.0-7.0-2.19","","null","","<div class='trialBorder'><div class='vertical-center'><img style='vertical-align:center; align:center' src='img/fixation2_sml.jpg'></div><div class='arrayDiv1'><div class='tc'><img class='introPic' src='trustrating_stim/white_mw010.bmp'><br><font color='green'><strong>Share</strong></font></div></div></div>","null","ARRAY","1","trustrating_stim/white_mw010.bmp","1","Match","e","1500","","","","",""
"","","","","63f969ceb2a0b028aa612b33","bdp_wmem","Tue Mar 14 2023 21:40:16 GMT-0400 (Eastern Daylight Time)","695529","Match,No Match","html-keyboard-response","133","404699","0.0-7.0-3.19","","null","","<div class='trialBorder'><div class='vertical-center'><img src='img/fixation2_sml.jpg'</img></div></div>","null","DELAY","","","","","","","","","","",""
"","","","","63f969ceb2a0b028aa612b33","bdp_wmem","Tue Mar 14 2023 21:40:16 GMT-0400 (Eastern Daylight Time)","695529","Match,No Match","html-keyboard-response","134","406213","0.0-7.0-4.19","","1514","","<div class='trialBorder'><div class='targDiv'><div class='tc'><img class='introPic' src='trustrating_stim/white_mw010.bmp'><br><font color='green'><strong>Share</strong></font></div></div><div class='respDiv'><div class='respDivL'>Match<br>(e)</div><div class='respDivR'>No Match<br>(i)</div></div></div>","e","TARGET","1","trustrating_stim/white_mw010.bmp","1","Match","e","1500","trustrating_stim/white_mw010.bmp","green","Share","REAL","1"
"","","","","63f969ceb2a0b028aa612b33","bdp_wmem","Tue Mar 14 2023 21:40:16 GMT-0400 (Eastern Daylight Time)","695529","Match,No Match","html-keyboard-response","135","406719","0.0-7.0-5.19","","null","","<div class='trialBorder'><div class='vertical-center'><img src='img/correct.jpg'></div><div class='respDiv'><div class='respDivL'><font style='color:orange'>Match<br>(e)</font></div><div class='respDivR'>No Match<br>(i)</div></div></div>","null","FEEDBACK","","","","","","","","","","",""
"","","","","63f969ceb2a0b028aa612b33","bdp_wmem","Tue Mar 14 2023 21:40:16 GMT-0400 (Eastern Daylight Time)","695529","Match,No Match","html-keyboard-response","136","407223","0.0-7.0-1.20","","null","","<div class='trialBorder'><div class='vertical-center'><img src='img/fixation2_sml.jpg'</img></div></div>","null","FIX","","","","","","","","","","",""
"","","","","63f969ceb2a0b028aa612b33","bdp_wmem","Tue Mar 14 2023 21:40:16 GMT-0400 (Eastern Daylight Time)","695529","Match,No Match","html-keyboard-response","137","410228","0.0-7.0-2.20","","null","","<div class='trialBorder'><div class='vertical-center'><img style='vertical-align:center; align:center' src='img/fixation2_sml.jpg'></div><div class='arrayDiv2'><div class='tl'><img class='introPic' src='trustrating_stim/white_mw013.bmp'><br><font color='red'><strong>Keep</strong></font></div><div class='tr'><img class='introPic' src='trustrating_stim/white_mw003.bmp'><br><font color='green'><strong>Share</strong></font></div></div></div>","null","ARRAY","2","trustrating_stim/white_mw013.bmp,trustrating_stim/white_mw003.bmp","0,1","noMatchFace","i","3000","","","","",""
"","","","","63f969ceb2a0b028aa612b33","bdp_wmem","Tue Mar 14 2023 21:40:16 GMT-0400 (Eastern Daylight Time)","695529","Match,No Match","html-keyboard-response","138","414233","0.0-7.0-3.20","","null","","<div class='trialBorder'><div class='vertical-center'><img src='img/fixation2_sml.jpg'</img></div></div>","null","DELAY","","","","","","","","","","",""
"","","","","63f969ceb2a0b028aa612b33","bdp_wmem","Tue Mar 14 2023 21:40:16 GMT-0400 (Eastern Daylight Time)","695529","Match,No Match","html-keyboard-response","139","416385","0.0-7.0-4.20","","2150","","<div class='trialBorder'><div class='targDiv'><div class='tc'><img class='introPic' src='trustrating_stim/white_mw070.bmp'><br><font color='green'><strong>Share</strong></font></div></div><div class='respDiv'><div class='respDivL'>Match<br>(e)</div><div class='respDivR'>No Match<br>(i)</div></div></div>","e","TARGET","2","trustrating_stim/white_mw013.bmp,trustrating_stim/white_mw003.bmp","0,1","noMatchFace","i","3000","trustrating_stim/white_mw070.bmp","green","Share","REAL","0"
"","","","","63f969ceb2a0b028aa612b33","bdp_wmem","Tue Mar 14 2023 21:40:16 GMT-0400 (Eastern Daylight Time)","695529","Match,No Match","html-keyboard-response","140","416890","0.0-7.0-5.20","","null","","<div class='trialBorder'><div class='vertical-center'><img src='img/error.jpg'></div><div class='respDiv'><div class='respDivL'><font style='color:orange'>Match<br>(e)</font></div><div class='respDivR'>No Match<br>(i)</div></div></div>","null","FEEDBACK","","","","","","","","","","",""
"","","","","63f969ceb2a0b028aa612b33","bdp_wmem","Tue Mar 14 2023 21:40:16 GMT-0400 (Eastern Daylight Time)","695529","Match,No Match","html-keyboard-response","141","417394","0.0-7.0-1.21","","null","","<div class='trialBorder'><div class='vertical-center'><img src='img/fixation2_sml.jpg'</img></div></div>","null","FIX","","","","","","","","","","",""
"","","","","63f969ceb2a0b028aa612b33","bdp_wmem","Tue Mar 14 2023 21:40:16 GMT-0400 (Eastern Daylight Time)","695529","Match,No Match","html-keyboard-response","142","420399","0.0-7.0-2.21","","null","","<div class='trialBorder'><div class='vertical-center'><img style='vertical-align:center; align:center' src='img/fixation2_sml.jpg'></div><div class='arrayDiv2'><div class='tl'><img class='introPic' src='trustrating_stim/white_mw013.bmp'><br><font color='red'><strong>Keep</strong></font></div><div class='tr'><img class='introPic' src='trustrating_stim/white_mw070.bmp'><br><font color='green'><strong>Share</strong></font></div></div></div>","null","ARRAY","2","trustrating_stim/white_mw013.bmp,trustrating_stim/white_mw070.bmp","0,1","Match","e","3000","","","","",""
"","","","","63f969ceb2a0b028aa612b33","bdp_wmem","Tue Mar 14 2023 21:40:16 GMT-0400 (Eastern Daylight Time)","695529","Match,No Match","html-keyboard-response","143","424403","0.0-7.0-3.21","","null","","<div class='trialBorder'><div class='vertical-center'><img src='img/fixation2_sml.jpg'</img></div></div>","null","DELAY","","","","","","","","","","",""
"","","","","63f969ceb2a0b028aa612b33","bdp_wmem","Tue Mar 14 2023 21:40:16 GMT-0400 (Eastern Daylight Time)","695529","Match,No Match","html-keyboard-response","144","425994","0.0-7.0-4.21","","1590","","<div class='trialBorder'><div class='targDiv'><div class='tc'><img class='introPic' src='trustrating_stim/white_mw013.bmp'><br><font color='red'><strong>Keep</strong></font></div></div><div class='respDiv'><div class='respDivL'>Match<br>(e)</div><div class='respDivR'>No Match<br>(i)</div></div></div>","e","TARGET","2","trustrating_stim/white_mw013.bmp,trustrating_stim/white_mw070.bmp","0,1","Match","e","3000","trustrating_stim/white_mw013.bmp","red","Keep","REAL","1"
"","","","","63f969ceb2a0b028aa612b33","bdp_wmem","Tue Mar 14 2023 21:40:16 GMT-0400 (Eastern Daylight Time)","695529","Match,No Match","html-keyboard-response","145","426507","0.0-7.0-5.21","","null","","<div class='trialBorder'><div class='vertical-center'><img src='img/correct.jpg'></div><div class='respDiv'><div class='respDivL'><font style='color:orange'>Match<br>(e)</font></div><div class='respDivR'>No Match<br>(i)</div></div></div>","null","FEEDBACK","","","","","","","","","","",""
"","","","","63f969ceb2a0b028aa612b33","bdp_wmem","Tue Mar 14 2023 21:40:16 GMT-0400 (Eastern Daylight Time)","695529","Match,No Match","html-keyboard-response","146","427023","0.0-7.0-1.22","","null","","<div class='trialBorder'><div class='vertical-center'><img src='img/fixation2_sml.jpg'</img></div></div>","null","FIX","","","","","","","","","","",""
"","","","","63f969ceb2a0b028aa612b33","bdp_wmem","Tue Mar 14 2023 21:40:16 GMT-0400 (Eastern Daylight Time)","695529","Match,No Match","html-keyboard-response","147","431536","0.0-7.0-2.22","","null","","<div class='trialBorder'><div class='vertical-center'><img style='vertical-align:center; align:center' src='img/fixation2_sml.jpg'></div><div class='arrayDiv3'><div class='tl'><img class='introPic' src='trustrating_stim/white_mw003.bmp'><br><font color='red'><strong>Keep</strong></font></div><div class='tc'><img class='introPic' src='trustrating_stim/white_mw013.bmp'><br><font color='green'><strong>Share</strong></font></div><div class='tr'><img class='introPic' src='trustrating_stim/white_mw091.bmp'><br><font color='red'><strong>Keep</strong></font></div></div></div>","null","ARRAY","3","trustrating_stim/white_mw003.bmp,trustrating_stim/white_mw013.bmp,trustrating_stim/white_mw091.bmp","0,1,0","noMatchOutcome","i","4500","","","","",""
"","","","","63f969ceb2a0b028aa612b33","bdp_wmem","Tue Mar 14 2023 21:40:16 GMT-0400 (Eastern Daylight Time)","695529","Match,No Match","html-keyboard-response","148","435543","0.0-7.0-3.22","","null","","<div class='trialBorder'><div class='vertical-center'><img src='img/fixation2_sml.jpg'</img></div></div>","null","DELAY","","","","","","","","","","",""
"","","","","63f969ceb2a0b028aa612b33","bdp_wmem","Tue Mar 14 2023 21:40:16 GMT-0400 (Eastern Daylight Time)","695529","Match,No Match","html-keyboard-response","149","439041","0.0-7.0-4.22","","3497","","<div class='trialBorder'><div class='targDiv'><div class='tc'><img class='introPic' src='trustrating_stim/white_mw091.bmp'><br><font color='green'><strong>Share</strong></font></div></div><div class='respDiv'><div class='respDivL'>Match<br>(e)</div><div class='respDivR'>No Match<br>(i)</div></div></div>","i","TARGET","3","trustrating_stim/white_mw003.bmp,trustrating_stim/white_mw013.bmp,trustrating_stim/white_mw091.bmp","0,1,0","noMatchOutcome","i","4500","trustrating_stim/white_mw091.bmp","green","Share","REAL","1"
"","","","","63f969ceb2a0b028aa612b33","bdp_wmem","Tue Mar 14 2023 21:40:16 GMT-0400 (Eastern Daylight Time)","695529","Match,No Match","html-keyboard-response","150","439554","0.0-7.0-5.22","","null","","<div class='trialBorder'><div class='vertical-center'><img src='img/correct.jpg'></div><div class='respDiv'><div class='respDivL'>Match<br>(e)</div><div class='respDivR'><font style='color:orange'>No Match<br>(i)</font></div></div></div>","null","FEEDBACK","","","","","","","","","","",""
"","","","","63f969ceb2a0b028aa612b33","bdp_wmem","Tue Mar 14 2023 21:40:16 GMT-0400 (Eastern Daylight Time)","695529","Match,No Match","html-keyboard-response","151","440063","0.0-7.0-1.23","","null","","<div class='trialBorder'><div class='vertical-center'><img src='img/fixation2_sml.jpg'</img></div></div>","null","FIX","","","","","","","","","","",""
"","","","","63f969ceb2a0b028aa612b33","bdp_wmem","Tue Mar 14 2023 21:40:16 GMT-0400 (Eastern Daylight Time)","695529","Match,No Match","html-keyboard-response","152","444574","0.0-7.0-2.23","","null","","<div class='trialBorder'><div class='vertical-center'><img style='vertical-align:center; align:center' src='img/fixation2_sml.jpg'></div><div class='arrayDiv3'><div class='tl'><img class='introPic' src='trustrating_stim/white_mw038.bmp'><br><font color='green'><strong>Share</strong></font></div><div class='tc'><img class='introPic' src='trustrating_stim/white_mw070.bmp'><br><font color='red'><strong>Keep</strong></font></div><div class='tr'><img class='introPic' src='trustrating_stim/white_mw092.bmp'><br><font color='green'><strong>Share</strong></font></div></div></div>","null","ARRAY","3","trustrating_stim/white_mw038.bmp,trustrating_stim/white_mw070.bmp,trustrating_stim/white_mw092.bmp","1,0,1","noMatchFace","i","4500","","","","",""
"","","","","63f969ceb2a0b028aa612b33","bdp_wmem","Tue Mar 14 2023 21:40:16 GMT-0400 (Eastern Daylight Time)","695529","Match,No Match","html-keyboard-response","153","448575","0.0-7.0-3.23","","null","","<div class='trialBorder'><div class='vertical-center'><img src='img/fixation2_sml.jpg'</img></div></div>","null","DELAY","","","","","","","","","","",""
"","","","","63f969ceb2a0b028aa612b33","bdp_wmem","Tue Mar 14 2023 21:40:16 GMT-0400 (Eastern Daylight Time)","695529","Match,No Match","html-keyboard-response","154","450377","0.0-7.0-4.23","","1802","","<div class='trialBorder'><div class='targDiv'><div class='tc'><img class='introPic' src='trustrating_stim/white_mw012.bmp'><br><font color='red'><strong>Keep</strong></font></div></div><div class='respDiv'><div class='respDivL'>Match<br>(e)</div><div class='respDivR'>No Match<br>(i)</div></div></div>","i","TARGET","3","trustrating_stim/white_mw038.bmp,trustrating_stim/white_mw070.bmp,trustrating_stim/white_mw092.bmp","1,0,1","noMatchFace","i","4500","trustrating_stim/white_mw012.bmp","red","Keep","REAL","1"
"","","","","63f969ceb2a0b028aa612b33","bdp_wmem","Tue Mar 14 2023 21:40:16 GMT-0400 (Eastern Daylight Time)","695529","Match,No Match","html-keyboard-response","155","450894","0.0-7.0-5.23","","null","","<div class='trialBorder'><div class='vertical-center'><img src='img/correct.jpg'></div><div class='respDiv'><div class='respDivL'>Match<br>(e)</div><div class='respDivR'><font style='color:orange'>No Match<br>(i)</font></div></div></div>","null","FEEDBACK","","","","","","","","","","",""
"","","","","63f969ceb2a0b028aa612b33","bdp_wmem","Tue Mar 14 2023 21:40:16 GMT-0400 (Eastern Daylight Time)","695529","Match,No Match","html-keyboard-response","156","451398","0.0-7.0-1.24","","null","","<div class='trialBorder'><div class='vertical-center'><img src='img/fixation2_sml.jpg'</img></div></div>","null","FIX","","","","","","","","","","",""
"","","","","63f969ceb2a0b028aa612b33","bdp_wmem","Tue Mar 14 2023 21:40:16 GMT-0400 (Eastern Daylight Time)","695529","Match,No Match","html-keyboard-response","157","454408","0.0-7.0-2.24","","null","","<div class='trialBorder'><div class='vertical-center'><img style='vertical-align:center; align:center' src='img/fixation2_sml.jpg'></div><div class='arrayDiv2'><div class='tl'><img class='introPic' src='trustrating_stim/white_mw091.bmp'><br><font color='green'><strong>Share</strong></font></div><div class='tr'><img class='introPic' src='trustrating_stim/white_mw070.bmp'><br><font color='red'><strong>Keep</strong></font></div></div></div>","null","ARRAY","2","trustrating_stim/white_mw091.bmp,trustrating_stim/white_mw070.bmp","1,0","Match","e","3000","","","","",""
"","","","","63f969ceb2a0b028aa612b33","bdp_wmem","Tue Mar 14 2023 21:40:16 GMT-0400 (Eastern Daylight Time)","695529","Match,No Match","html-keyboard-response","158","458410","0.0-7.0-3.24","","null","","<div class='trialBorder'><div class='vertical-center'><img src='img/fixation2_sml.jpg'</img></div></div>","null","DELAY","","","","","","","","","","",""
"","","","","63f969ceb2a0b028aa612b33","bdp_wmem","Tue Mar 14 2023 21:40:16 GMT-0400 (Eastern Daylight Time)","695529","Match,No Match","html-keyboard-response","159","459810","0.0-7.0-4.24","","1399","","<div class='trialBorder'><div class='targDiv'><div class='tc'><img class='introPic' src='trustrating_stim/white_mw091.bmp'><br><font color='green'><strong>Share</strong></font></div></div><div class='respDiv'><div class='respDivL'>Match<br>(e)</div><div class='respDivR'>No Match<br>(i)</div></div></div>","e","TARGET","2","trustrating_stim/white_mw091.bmp,trustrating_stim/white_mw070.bmp","1,0","Match","e","3000","trustrating_stim/white_mw091.bmp","green","Share","REAL","1"
"","","","","63f969ceb2a0b028aa612b33","bdp_wmem","Tue Mar 14 2023 21:40:16 GMT-0400 (Eastern Daylight Time)","695529","Match,No Match","html-keyboard-response","160","460320","0.0-7.0-5.24","","null","","<div class='trialBorder'><div class='vertical-center'><img src='img/correct.jpg'></div><div class='respDiv'><div class='respDivL'><font style='color:orange'>Match<br>(e)</font></div><div class='respDivR'>No Match<br>(i)</div></div></div>","null","FEEDBACK","","","","","","","","","","",""
"","","","","63f969ceb2a0b028aa612b33","bdp_wmem","Tue Mar 14 2023 21:40:16 GMT-0400 (Eastern Daylight Time)","695529","Match,No Match","html-keyboard-response","161","460829","0.0-7.0-1.25","","null","","<div class='trialBorder'><div class='vertical-center'><img src='img/fixation2_sml.jpg'</img></div></div>","null","FIX","","","","","","","","","","",""
"","","","","63f969ceb2a0b028aa612b33","bdp_wmem","Tue Mar 14 2023 21:40:16 GMT-0400 (Eastern Daylight Time)","695529","Match,No Match","html-keyboard-response","162","462331","0.0-7.0-2.25","","null","","<div class='trialBorder'><div class='vertical-center'><img style='vertical-align:center; align:center' src='img/fixation2_sml.jpg'></div><div class='arrayDiv1'><div class='tc'><img class='introPic' src='trustrating_stim/white_mw013.bmp'><br><font color='red'><strong>Keep</strong></font></div></div></div>","null","ARRAY","1","trustrating_stim/white_mw013.bmp","0","Match","e","1500","","","","",""
"","","","","63f969ceb2a0b028aa612b33","bdp_wmem","Tue Mar 14 2023 21:40:16 GMT-0400 (Eastern Daylight Time)","695529","Match,No Match","html-keyboard-response","163","466337","0.0-7.0-3.25","","null","","<div class='trialBorder'><div class='vertical-center'><img src='img/fixation2_sml.jpg'</img></div></div>","null","DELAY","","","","","","","","","","",""
"","","","","63f969ceb2a0b028aa612b33","bdp_wmem","Tue Mar 14 2023 21:40:16 GMT-0400 (Eastern Daylight Time)","695529","Match,No Match","html-keyboard-response","164","467625","0.0-7.0-4.25","","1287","","<div class='trialBorder'><div class='targDiv'><div class='tc'><img class='introPic' src='trustrating_stim/white_mw013.bmp'><br><font color='red'><strong>Keep</strong></font></div></div><div class='respDiv'><div class='respDivL'>Match<br>(e)</div><div class='respDivR'>No Match<br>(i)</div></div></div>","e","TARGET","1","trustrating_stim/white_mw013.bmp","0","Match","e","1500","trustrating_stim/white_mw013.bmp","red","Keep","REAL","1"
"","","","","63f969ceb2a0b028aa612b33","bdp_wmem","Tue Mar 14 2023 21:40:16 GMT-0400 (Eastern Daylight Time)","695529","Match,No Match","html-keyboard-response","165","468128","0.0-7.0-5.25","","null","","<div class='trialBorder'><div class='vertical-center'><img src='img/correct.jpg'></div><div class='respDiv'><div class='respDivL'><font style='color:orange'>Match<br>(e)</font></div><div class='respDivR'>No Match<br>(i)</div></div></div>","null","FEEDBACK","","","","","","","","","","",""
"","","","","63f969ceb2a0b028aa612b33","bdp_wmem","Tue Mar 14 2023 21:40:16 GMT-0400 (Eastern Daylight Time)","695529","Match,No Match","html-keyboard-response","166","468634","0.0-7.0-1.26","","null","","<div class='trialBorder'><div class='vertical-center'><img src='img/fixation2_sml.jpg'</img></div></div>","null","FIX","","","","","","","","","","",""
"","","","","63f969ceb2a0b028aa612b33","bdp_wmem","Tue Mar 14 2023 21:40:16 GMT-0400 (Eastern Daylight Time)","695529","Match,No Match","html-keyboard-response","167","471646","0.0-7.0-2.26","","null","","<div class='trialBorder'><div class='vertical-center'><img style='vertical-align:center; align:center' src='img/fixation2_sml.jpg'></div><div class='arrayDiv2'><div class='tl'><img class='introPic' src='trustrating_stim/white_mw085.bmp'><br><font color='red'><strong>Keep</strong></font></div><div class='tr'><img class='introPic' src='trustrating_stim/white_mw012.bmp'><br><font color='green'><strong>Share</strong></font></div></div></div>","null","ARRAY","2","trustrating_stim/white_mw085.bmp,trustrating_stim/white_mw012.bmp","0,1","Match","e","3000","","","","",""
"","","","","63f969ceb2a0b028aa612b33","bdp_wmem","Tue Mar 14 2023 21:40:16 GMT-0400 (Eastern Daylight Time)","695529","Match,No Match","html-keyboard-response","168","475658","0.0-7.0-3.26","","null","","<div class='trialBorder'><div class='vertical-center'><img src='img/fixation2_sml.jpg'</img></div></div>","null","DELAY","","","","","","","","","","",""
"","","","","63f969ceb2a0b028aa612b33","bdp_wmem","Tue Mar 14 2023 21:40:16 GMT-0400 (Eastern Daylight Time)","695529","Match,No Match","html-keyboard-response","169","477469","0.0-7.0-4.26","","1810","","<div class='trialBorder'><div class='targDiv'><div class='tc'><img class='introPic' src='trustrating_stim/white_mw012.bmp'><br><font color='green'><strong>Share</strong></font></div></div><div class='respDiv'><div class='respDivL'>Match<br>(e)</div><div class='respDivR'>No Match<br>(i)</div></div></div>","e","TARGET","2","trustrating_stim/white_mw085.bmp,trustrating_stim/white_mw012.bmp","0,1","Match","e","3000","trustrating_stim/white_mw012.bmp","green","Share","REAL","1"
"","","","","63f969ceb2a0b028aa612b33","bdp_wmem","Tue Mar 14 2023 21:40:16 GMT-0400 (Eastern Daylight Time)","695529","Match,No Match","html-keyboard-response","170","477982","0.0-7.0-5.26","","null","","<div class='trialBorder'><div class='vertical-center'><img src='img/correct.jpg'></div><div class='respDiv'><div class='respDivL'><font style='color:orange'>Match<br>(e)</font></div><div class='respDivR'>No Match<br>(i)</div></div></div>","null","FEEDBACK","","","","","","","","","","",""
"","","","","63f969ceb2a0b028aa612b33","bdp_wmem","Tue Mar 14 2023 21:40:16 GMT-0400 (Eastern Daylight Time)","695529","Match,No Match","html-keyboard-response","171","478490","0.0-7.0-1.27","","null","","<div class='trialBorder'><div class='vertical-center'><img src='img/fixation2_sml.jpg'</img></div></div>","null","FIX","","","","","","","","","","",""
"","","","","63f969ceb2a0b028aa612b33","bdp_wmem","Tue Mar 14 2023 21:40:16 GMT-0400 (Eastern Daylight Time)","695529","Match,No Match","html-keyboard-response","172","482997","0.0-7.0-2.27","","null","","<div class='trialBorder'><div class='vertical-center'><img style='vertical-align:center; align:center' src='img/fixation2_sml.jpg'></div><div class='arrayDiv3'><div class='tl'><img class='introPic' src='trustrating_stim/white_mw013.bmp'><br><font color='green'><strong>Share</strong></font></div><div class='tc'><img class='introPic' src='trustrating_stim/white_mw042.bmp'><br><font color='green'><strong>Share</strong></font></div><div class='tr'><img class='introPic' src='trustrating_stim/white_mw010.bmp'><br><font color='red'><strong>Keep</strong></font></div></div></div>","null","ARRAY","3","trustrating_stim/white_mw013.bmp,trustrating_stim/white_mw042.bmp,trustrating_stim/white_mw010.bmp","1,1,0","noMatchOutcome","i","4500","","","","",""
"","","","","63f969ceb2a0b028aa612b33","bdp_wmem","Tue Mar 14 2023 21:40:16 GMT-0400 (Eastern Daylight Time)","695529","Match,No Match","html-keyboard-response","173","487013","0.0-7.0-3.27","","null","","<div class='trialBorder'><div class='vertical-center'><img src='img/fixation2_sml.jpg'</img></div></div>","null","DELAY","","","","","","","","","","",""
"","","","","63f969ceb2a0b028aa612b33","bdp_wmem","Tue Mar 14 2023 21:40:16 GMT-0400 (Eastern Daylight Time)","695529","Match,No Match","html-keyboard-response","174","489145","0.0-7.0-4.27","","2130","","<div class='trialBorder'><div class='targDiv'><div class='tc'><img class='introPic' src='trustrating_stim/white_mw010.bmp'><br><font color='green'><strong>Share</strong></font></div></div><div class='respDiv'><div class='respDivL'>Match<br>(e)</div><div class='respDivR'>No Match<br>(i)</div></div></div>","i","TARGET","3","trustrating_stim/white_mw013.bmp,trustrating_stim/white_mw042.bmp,trustrating_stim/white_mw010.bmp","1,1,0","noMatchOutcome","i","4500","trustrating_stim/white_mw010.bmp","green","Share","REAL","1"
"","","","","63f969ceb2a0b028aa612b33","bdp_wmem","Tue Mar 14 2023 21:40:16 GMT-0400 (Eastern Daylight Time)","695529","Match,No Match","html-keyboard-response","175","489647","0.0-7.0-5.27","","null","","<div class='trialBorder'><div class='vertical-center'><img src='img/correct.jpg'></div><div class='respDiv'><div class='respDivL'>Match<br>(e)</div><div class='respDivR'><font style='color:orange'>No Match<br>(i)</font></div></div></div>","null","FEEDBACK","","","","","","","","","","",""
"","","","","63f969ceb2a0b028aa612b33","bdp_wmem","Tue Mar 14 2023 21:40:16 GMT-0400 (Eastern Daylight Time)","695529","Match,No Match","html-keyboard-response","176","490153","0.0-7.0-1.28","","null","","<div class='trialBorder'><div class='vertical-center'><img src='img/fixation2_sml.jpg'</img></div></div>","null","FIX","","","","","","","","","","",""
"","","","","63f969ceb2a0b028aa612b33","bdp_wmem","Tue Mar 14 2023 21:40:16 GMT-0400 (Eastern Daylight Time)","695529","Match,No Match","html-keyboard-response","177","491668","0.0-7.0-2.28","","null","","<div class='trialBorder'><div class='vertical-center'><img style='vertical-align:center; align:center' src='img/fixation2_sml.jpg'></div><div class='arrayDiv1'><div class='tc'><img class='introPic' src='trustrating_stim/white_mw070.bmp'><br><font color='red'><strong>Keep</strong></font></div></div></div>","null","ARRAY","1","trustrating_stim/white_mw070.bmp","0","noMatchFace","i","1500","","","","",""
"","","","","63f969ceb2a0b028aa612b33","bdp_wmem","Tue Mar 14 2023 21:40:16 GMT-0400 (Eastern Daylight Time)","695529","Match,No Match","html-keyboard-response","178","495684","0.0-7.0-3.28","","null","","<div class='trialBorder'><div class='vertical-center'><img src='img/fixation2_sml.jpg'</img></div></div>","null","DELAY","","","","","","","","","","",""
"","","","","63f969ceb2a0b028aa612b33","bdp_wmem","Tue Mar 14 2023 21:40:16 GMT-0400 (Eastern Daylight Time)","695529","Match,No Match","html-keyboard-response","179","497501","0.0-7.0-4.28","","1817","","<div class='trialBorder'><div class='targDiv'><div class='tc'><img class='introPic' src='trustrating_stim/white_mw013.bmp'><br><font color='red'><strong>Keep</strong></font></div></div><div class='respDiv'><div class='respDivL'>Match<br>(e)</div><div class='respDivR'>No Match<br>(i)</div></div></div>","i","TARGET","1","trustrating_stim/white_mw070.bmp","0","noMatchFace","i","1500","trustrating_stim/white_mw013.bmp","red","Keep","REAL","1"
"","","","","63f969ceb2a0b028aa612b33","bdp_wmem","Tue Mar 14 2023 21:40:16 GMT-0400 (Eastern Daylight Time)","695529","Match,No Match","html-keyboard-response","180","498012","0.0-7.0-5.28","","null","","<div class='trialBorder'><div class='vertical-center'><img src='img/correct.jpg'></div><div class='respDiv'><div class='respDivL'>Match<br>(e)</div><div class='respDivR'><font style='color:orange'>No Match<br>(i)</font></div></div></div>","null","FEEDBACK","","","","","","","","","","",""
"","","","","63f969ceb2a0b028aa612b33","bdp_wmem","Tue Mar 14 2023 21:40:16 GMT-0400 (Eastern Daylight Time)","695529","Match,No Match","html-keyboard-response","181","498516","0.0-7.0-1.29","","null","","<div class='trialBorder'><div class='vertical-center'><img src='img/fixation2_sml.jpg'</img></div></div>","null","FIX","","","","","","","","","","",""
"","","","","63f969ceb2a0b028aa612b33","bdp_wmem","Tue Mar 14 2023 21:40:16 GMT-0400 (Eastern Daylight Time)","695529","Match,No Match","html-keyboard-response","182","501527","0.0-7.0-2.29","","null","","<div class='trialBorder'><div class='vertical-center'><img style='vertical-align:center; align:center' src='img/fixation2_sml.jpg'></div><div class='arrayDiv2'><div class='tl'><img class='introPic' src='trustrating_stim/white_mw092.bmp'><br><font color='red'><strong>Keep</strong></font></div><div class='tr'><img class='introPic' src='trustrating_stim/white_mw042.bmp'><br><font color='green'><strong>Share</strong></font></div></div></div>","null","ARRAY","2","trustrating_stim/white_mw092.bmp,trustrating_stim/white_mw042.bmp","0,1","noMatchFace","i","3000","","","","",""
"","","","","63f969ceb2a0b028aa612b33","bdp_wmem","Tue Mar 14 2023 21:40:16 GMT-0400 (Eastern Daylight Time)","695529","Match,No Match","html-keyboard-response","183","505539","0.0-7.0-3.29","","null","","<div class='trialBorder'><div class='vertical-center'><img src='img/fixation2_sml.jpg'</img></div></div>","null","DELAY","","","","","","","","","","",""
"","","","","63f969ceb2a0b028aa612b33","bdp_wmem","Tue Mar 14 2023 21:40:16 GMT-0400 (Eastern Daylight Time)","695529","Match,No Match","html-keyboard-response","184","507706","0.0-7.0-4.29","","2165","","<div class='trialBorder'><div class='targDiv'><div class='tc'><img class='introPic' src='trustrating_stim/white_mw003.bmp'><br><font color='green'><strong>Share</strong></font></div></div><div class='respDiv'><div class='respDivL'>Match<br>(e)</div><div class='respDivR'>No Match<br>(i)</div></div></div>","i","TARGET","2","trustrating_stim/white_mw092.bmp,trustrating_stim/white_mw042.bmp","0,1","noMatchFace","i","3000","trustrating_stim/white_mw003.bmp","green","Share","REAL","1"
"","","","","63f969ceb2a0b028aa612b33","bdp_wmem","Tue Mar 14 2023 21:40:16 GMT-0400 (Eastern Daylight Time)","695529","Match,No Match","html-keyboard-response","185","508221","0.0-7.0-5.29","","null","","<div class='trialBorder'><div class='vertical-center'><img src='img/correct.jpg'></div><div class='respDiv'><div class='respDivL'>Match<br>(e)</div><div class='respDivR'><font style='color:orange'>No Match<br>(i)</font></div></div></div>","null","FEEDBACK","","","","","","","","","","",""
"","","","","63f969ceb2a0b028aa612b33","bdp_wmem","Tue Mar 14 2023 21:40:16 GMT-0400 (Eastern Daylight Time)","695529","Match,No Match","html-keyboard-response","186","508727","0.0-7.0-1.30","","null","","<div class='trialBorder'><div class='vertical-center'><img src='img/fixation2_sml.jpg'</img></div></div>","null","FIX","","","","","","","","","","",""
"","","","","63f969ceb2a0b028aa612b33","bdp_wmem","Tue Mar 14 2023 21:40:16 GMT-0400 (Eastern Daylight Time)","695529","Match,No Match","html-keyboard-response","187","513240","0.0-7.0-2.30","","null","","<div class='trialBorder'><div class='vertical-center'><img style='vertical-align:center; align:center' src='img/fixation2_sml.jpg'></div><div class='arrayDiv3'><div class='tl'><img class='introPic' src='trustrating_stim/white_mw042.bmp'><br><font color='red'><strong>Keep</strong></font></div><div class='tc'><img class='introPic' src='trustrating_stim/white_mw078.bmp'><br><font color='red'><strong>Keep</strong></font></div><div class='tr'><img class='introPic' src='trustrating_stim/white_mw040.bmp'><br><font color='green'><strong>Share</strong></font></div></div></div>","null","ARRAY","3","trustrating_stim/white_mw042.bmp,trustrating_stim/white_mw078.bmp,trustrating_stim/white_mw040.bmp","0,0,1","Match","e","4500","","","","",""
