"trial_type","trial_index","time_elapsed","internal_node_id","subject_id","task","startTime","totalTime","labels","event","trial","time","trialtype","numBlurs","view_history","rt","success","stimulus","key_press","stimType","arraySize","arrayFaces","arrayOutcomes","matchType","corrResp","arrayDur","targFace","targCol","targOutcome","trialType","corr"
"pavlovia","0","8","0.0-0.0","5f934f7fdc89a111b5712011","bdp_wmem","Tue Mar 14 2023 20:45:51 GMT-0400 (Eastern Daylight Time)","572079","Match,No Match","","","","","","","","","","","","","","","","","","","","","",""
"","","","","5f934f7fdc89a111b5712011","bdp_wmem","Tue Mar 14 2023 20:45:51 GMT-0400 (Eastern Daylight Time)","572079","Match,No Match","blur","1","440","blurevent","1","","","","","","","","","","","","","","","","",""
"","","","","5f934f7fdc89a111b5712011","bdp_wmem","Tue Mar 14 2023 20:45:51 GMT-0400 (Eastern Daylight Time)","572079","Match,No Match","focus","1","2829","focusevent","","","","","","","","","","","","","","","","","",""
"instructions","1","4392","0.0-1.0","5f934f7fdc89a111b5712011","bdp_wmem","Tue Mar 14 2023 20:45:51 GMT-0400 (Eastern Daylight Time)","572079","Match,No Match","","","","","","[{""page_index"":0,""viewing_time"":4382}]","4383","","","","","","","","","","","","","","",""
"","","","","5f934f7fdc89a111b5712011","bdp_wmem","Tue Mar 14 2023 20:45:51 GMT-0400 (Eastern Daylight Time)","572079","Match,No Match","fullscreenenter","2","6244","fullscreenenter","","","","","","","","","","","","","","","","","",""
"fullscreen","2","7234","0.0-2.0","5f934f7fdc89a111b5712011","bdp_wmem","Tue Mar 14 2023 20:45:51 GMT-0400 (Eastern Daylight Time)","572079","Match,No Match","","","","","","","","true","","","","","","","","","","","","","",""
"instructions","3","40575","0.0-4.0","5f934f7fdc89a111b5712011","bdp_wmem","Tue Mar 14 2023 20:45:51 GMT-0400 (Eastern Daylight Time)","572079","Match,No Match","","","","","","[{""page_index"":0,""viewing_time"":7918},{""page_index"":1,""viewing_time"":14685},{""page_index"":2,""viewing_time"":3049},{""page_index"":3,""viewing_time"":4155},{""page_index"":4,""viewing_time"":3531}]","33339","","","","","","","","","","","","","","",""
"html-keyboard-response","4","41086","0.0-5.0-1.0","5f934f7fdc89a111b5712011","bdp_wmem","Tue Mar 14 2023 20:45:51 GMT-0400 (Eastern Daylight Time)","572079","Match,No Match","","","","","","","null","","<div class='trialBorder'><div class='vertical-center'><img src='img/fixation2_sml.jpg'</img></div></div>","null","FIX","","","","","","","","","","",""
"html-keyboard-response","5","45597","0.0-5.0-2.0","5f934f7fdc89a111b5712011","bdp_wmem","Tue Mar 14 2023 20:45:51 GMT-0400 (Eastern Daylight Time)","572079","Match,No Match","","","","","","","null","","<div class='trialBorder'><div class='vertical-center'><img style='vertical-align:center; align:center' src='img/fixation2_sml.jpg'></div><div class='arrayDiv3'><div class='tl'><img class='introPic' src='trustrating_stim/white_mw010.bmp'><br><font color='green'><strong>Share</strong></font></div><div class='tc'><img class='introPic' src='trustrating_stim/white_mw042.bmp'><br><font color='green'><strong>Share</strong></font></div><div class='tr'><img class='introPic' src='trustrating_stim/white_mw003.bmp'><br><font color='red'><strong>Keep</strong></font></div></div></div>","null","ARRAY","3","trustrating_stim/white_mw010.bmp,trustrating_stim/white_mw042.bmp,trustrating_stim/white_mw003.bmp","1,1,0","Match","e","4500","","","","",""
"html-keyboard-response","6","49602","0.0-5.0-3.0","5f934f7fdc89a111b5712011","bdp_wmem","Tue Mar 14 2023 20:45:51 GMT-0400 (Eastern Daylight Time)","572079","Match,No Match","","","","","","","null","","<div class='trialBorder'><div class='vertical-center'><img src='img/fixation2_sml.jpg'</img></div></div>","null","DELAY","","","","","","","","","","",""
"html-keyboard-response","7","50750","0.0-5.0-4.0","5f934f7fdc89a111b5712011","bdp_wmem","Tue Mar 14 2023 20:45:51 GMT-0400 (Eastern Daylight Time)","572079","Match,No Match","","","","","","","1146","","<div class='trialBorder'><div class='targDiv'><div class='tc'><img class='introPic' src='trustrating_stim/white_mw042.bmp'><br><font color='green'><strong>Share</strong></font></div></div><div class='respDiv'><div class='respDivL'>Match<br>(e)</div><div class='respDivR'>No Match<br>(i)</div></div></div>","e","TARGET","3","trustrating_stim/white_mw010.bmp,trustrating_stim/white_mw042.bmp,trustrating_stim/white_mw003.bmp","1,1,0","Match","e","4500","trustrating_stim/white_mw042.bmp","green","Share","PRACTICE","1"
"html-keyboard-response","8","51261","0.0-5.0-5.0","5f934f7fdc89a111b5712011","bdp_wmem","Tue Mar 14 2023 20:45:51 GMT-0400 (Eastern Daylight Time)","572079","Match,No Match","","","","","","","null","","<div class='trialBorder'><div class='vertical-center'><img src='img/correct.jpg'></div><div class='respDiv'><div class='respDivL'><font style='color:orange'>Match<br>(e)</font></div><div class='respDivR'>No Match<br>(i)</div></div></div>","null","FEEDBACK","","","","","","","","","","",""
"html-keyboard-response","9","51773","0.0-5.0-1.1","5f934f7fdc89a111b5712011","bdp_wmem","Tue Mar 14 2023 20:45:51 GMT-0400 (Eastern Daylight Time)","572079","Match,No Match","","","","","","","null","","<div class='trialBorder'><div class='vertical-center'><img src='img/fixation2_sml.jpg'</img></div></div>","null","FIX","","","","","","","","","","",""
"html-keyboard-response","10","54781","0.0-5.0-2.1","5f934f7fdc89a111b5712011","bdp_wmem","Tue Mar 14 2023 20:45:51 GMT-0400 (Eastern Daylight Time)","572079","Match,No Match","","","","","","","null","","<div class='trialBorder'><div class='vertical-center'><img style='vertical-align:center; align:center' src='img/fixation2_sml.jpg'></div><div class='arrayDiv2'><div class='tl'><img class='introPic' src='trustrating_stim/white_mw038.bmp'><br><font color='red'><strong>Keep</strong></font></div><div class='tr'><img class='introPic' src='trustrating_stim/white_mw091.bmp'><br><font color='green'><strong>Share</strong></font></div></div></div>","null","ARRAY","2","trustrating_stim/white_mw038.bmp,trustrating_stim/white_mw091.bmp","0,1","noMatchFace","i","3000","","","","",""
"html-keyboard-response","11","58786","0.0-5.0-3.1","5f934f7fdc89a111b5712011","bdp_wmem","Tue Mar 14 2023 20:45:51 GMT-0400 (Eastern Daylight Time)","572079","Match,No Match","","","","","","","null","","<div class='trialBorder'><div class='vertical-center'><img src='img/fixation2_sml.jpg'</img></div></div>","null","DELAY","","","","","","","","","","",""
"html-keyboard-response","12","60058","0.0-5.0-4.1","5f934f7fdc89a111b5712011","bdp_wmem","Tue Mar 14 2023 20:45:51 GMT-0400 (Eastern Daylight Time)","572079","Match,No Match","","","","","","","1269","","<div class='trialBorder'><div class='targDiv'><div class='tc'><img class='introPic' src='trustrating_stim/white_mw085.bmp'><br><font color='red'><strong>Keep</strong></font></div></div><div class='respDiv'><div class='respDivL'>Match<br>(e)</div><div class='respDivR'>No Match<br>(i)</div></div></div>","i","TARGET","2","trustrating_stim/white_mw038.bmp,trustrating_stim/white_mw091.bmp","0,1","noMatchFace","i","3000","trustrating_stim/white_mw085.bmp","red","Keep","PRACTICE","1"
"html-keyboard-response","13","60563","0.0-5.0-5.1","5f934f7fdc89a111b5712011","bdp_wmem","Tue Mar 14 2023 20:45:51 GMT-0400 (Eastern Daylight Time)","572079","Match,No Match","","","","","","","null","","<div class='trialBorder'><div class='vertical-center'><img src='img/correct.jpg'></div><div class='respDiv'><div class='respDivL'>Match<br>(e)</div><div class='respDivR'><font style='color:orange'>No Match<br>(i)</font></div></div></div>","null","FEEDBACK","","","","","","","","","","",""
"html-keyboard-response","14","61069","0.0-5.0-1.2","5f934f7fdc89a111b5712011","bdp_wmem","Tue Mar 14 2023 20:45:51 GMT-0400 (Eastern Daylight Time)","572079","Match,No Match","","","","","","","null","","<div class='trialBorder'><div class='vertical-center'><img src='img/fixation2_sml.jpg'</img></div></div>","null","FIX","","","","","","","","","","",""
"html-keyboard-response","15","65581","0.0-5.0-2.2","5f934f7fdc89a111b5712011","bdp_wmem","Tue Mar 14 2023 20:45:51 GMT-0400 (Eastern Daylight Time)","572079","Match,No Match","","","","","","","null","","<div class='trialBorder'><div class='vertical-center'><img style='vertical-align:center; align:center' src='img/fixation2_sml.jpg'></div><div class='arrayDiv3'><div class='tl'><img class='introPic' src='trustrating_stim/white_mw042.bmp'><br><font color='red'><strong>Keep</strong></font></div><div class='tc'><img class='introPic' src='trustrating_stim/white_mw078.bmp'><br><font color='green'><strong>Share</strong></font></div><div class='tr'><img class='introPic' src='trustrating_stim/white_mw085.bmp'><br><font color='green'><strong>Share</strong></font></div></div></div>","null","ARRAY","3","trustrating_stim/white_mw042.bmp,trustrating_stim/white_mw078.bmp,trustrating_stim/white_mw085.bmp","0,1,1","noMatchOutcome","i","4500","","","","",""
"html-keyboard-response","16","69587","0.0-5.0-3.2","5f934f7fdc89a111b5712011","bdp_wmem","Tue Mar 14 2023 20:45:51 GMT-0400 (Eastern Daylight Time)","572079","Match,No Match","","","","","","","null","","<div class='trialBorder'><div class='vertical-center'><img src='img/fixation2_sml.jpg'</img></div></div>","null","DELAY","","","","","","","","","","",""
"html-keyboard-response","17","70967","0.0-5.0-4.2","5f934f7fdc89a111b5712011","bdp_wmem","Tue Mar 14 2023 20:45:51 GMT-0400 (Eastern Daylight Time)","572079","Match,No Match","","","","","","","1378","","<div class='trialBorder'><div class='targDiv'><div class='tc'><img class='introPic' src='trustrating_stim/white_mw085.bmp'><br><font color='red'><strong>Keep</strong></font></div></div><div class='respDiv'><div class='respDivL'>Match<br>(e)</div><div class='respDivR'>No Match<br>(i)</div></div></div>","i","TARGET","3","trustrating_stim/white_mw042.bmp,trustrating_stim/white_mw078.bmp,trustrating_stim/white_mw085.bmp","0,1,1","noMatchOutcome","i","4500","trustrating_stim/white_mw085.bmp","red","Keep","PRACTICE","1"
"html-keyboard-response","18","71475","0.0-5.0-5.2","5f934f7fdc89a111b5712011","bdp_wmem","Tue Mar 14 2023 20:45:51 GMT-0400 (Eastern Daylight Time)","572079","Match,No Match","","","","","","","null","","<div class='trialBorder'><div class='vertical-center'><img src='img/correct.jpg'></div><div class='respDiv'><div class='respDivL'>Match<br>(e)</div><div class='respDivR'><font style='color:orange'>No Match<br>(i)</font></div></div></div>","null","FEEDBACK","","","","","","","","","","",""
"html-keyboard-response","19","71981","0.0-5.0-1.3","5f934f7fdc89a111b5712011","bdp_wmem","Tue Mar 14 2023 20:45:51 GMT-0400 (Eastern Daylight Time)","572079","Match,No Match","","","","","","","null","","<div class='trialBorder'><div class='vertical-center'><img src='img/fixation2_sml.jpg'</img></div></div>","null","FIX","","","","","","","","","","",""
"html-keyboard-response","20","74989","0.0-5.0-2.3","5f934f7fdc89a111b5712011","bdp_wmem","Tue Mar 14 2023 20:45:51 GMT-0400 (Eastern Daylight Time)","572079","Match,No Match","","","","","","","null","","<div class='trialBorder'><div class='vertical-center'><img style='vertical-align:center; align:center' src='img/fixation2_sml.jpg'></div><div class='arrayDiv2'><div class='tl'><img class='introPic' src='trustrating_stim/white_mw091.bmp'><br><font color='red'><strong>Keep</strong></font></div><div class='tr'><img class='introPic' src='trustrating_stim/white_mw010.bmp'><br><font color='green'><strong>Share</strong></font></div></div></div>","null","ARRAY","2","trustrating_stim/white_mw091.bmp,trustrating_stim/white_mw010.bmp","0,1","Match","e","3000","","","","",""
"html-keyboard-response","21","78997","0.0-5.0-3.3","5f934f7fdc89a111b5712011","bdp_wmem","Tue Mar 14 2023 20:45:51 GMT-0400 (Eastern Daylight Time)","572079","Match,No Match","","","","","","","null","","<div class='trialBorder'><div class='vertical-center'><img src='img/fixation2_sml.jpg'</img></div></div>","null","DELAY","","","","","","","","","","",""
"html-keyboard-response","22","80711","0.0-5.0-4.3","5f934f7fdc89a111b5712011","bdp_wmem","Tue Mar 14 2023 20:45:51 GMT-0400 (Eastern Daylight Time)","572079","Match,No Match","","","","","","","1712","","<div class='trialBorder'><div class='targDiv'><div class='tc'><img class='introPic' src='trustrating_stim/white_mw091.bmp'><br><font color='red'><strong>Keep</strong></font></div></div><div class='respDiv'><div class='respDivL'>Match<br>(e)</div><div class='respDivR'>No Match<br>(i)</div></div></div>","i","TARGET","2","trustrating_stim/white_mw091.bmp,trustrating_stim/white_mw010.bmp","0,1","Match","e","3000","trustrating_stim/white_mw091.bmp","red","Keep","PRACTICE","0"
"html-keyboard-response","23","81219","0.0-5.0-5.3","5f934f7fdc89a111b5712011","bdp_wmem","Tue Mar 14 2023 20:45:51 GMT-0400 (Eastern Daylight Time)","572079","Match,No Match","","","","","","","null","","<div class='trialBorder'><div class='vertical-center'><img src='img/error.jpg'></div><div class='respDiv'><div class='respDivL'>Match<br>(e)</div><div class='respDivR'><font style='color:orange'>No Match<br>(i)</font></div></div></div>","null","FEEDBACK","","","","","","","","","","",""
"html-keyboard-response","24","81726","0.0-5.0-1.4","5f934f7fdc89a111b5712011","bdp_wmem","Tue Mar 14 2023 20:45:51 GMT-0400 (Eastern Daylight Time)","572079","Match,No Match","","","","","","","null","","<div class='trialBorder'><div class='vertical-center'><img src='img/fixation2_sml.jpg'</img></div></div>","null","FIX","","","","","","","","","","",""
"html-keyboard-response","25","83235","0.0-5.0-2.4","5f934f7fdc89a111b5712011","bdp_wmem","Tue Mar 14 2023 20:45:51 GMT-0400 (Eastern Daylight Time)","572079","Match,No Match","","","","","","","null","","<div class='trialBorder'><div class='vertical-center'><img style='vertical-align:center; align:center' src='img/fixation2_sml.jpg'></div><div class='arrayDiv1'><div class='tc'><img class='introPic' src='trustrating_stim/white_mw040.bmp'><br><font color='red'><strong>Keep</strong></font></div></div></div>","null","ARRAY","1","trustrating_stim/white_mw040.bmp","0","noMatchFace","i","1500","","","","",""
"html-keyboard-response","26","87246","0.0-5.0-3.4","5f934f7fdc89a111b5712011","bdp_wmem","Tue Mar 14 2023 20:45:51 GMT-0400 (Eastern Daylight Time)","572079","Match,No Match","","","","","","","null","","<div class='trialBorder'><div class='vertical-center'><img src='img/fixation2_sml.jpg'</img></div></div>","null","DELAY","","","","","","","","","","",""
"html-keyboard-response","27","88910","0.0-5.0-4.4","5f934f7fdc89a111b5712011","bdp_wmem","Tue Mar 14 2023 20:45:51 GMT-0400 (Eastern Daylight Time)","572079","Match,No Match","","","","","","","1662","","<div class='trialBorder'><div class='targDiv'><div class='tc'><img class='introPic' src='trustrating_stim/white_mw012.bmp'><br><font color='red'><strong>Keep</strong></font></div></div><div class='respDiv'><div class='respDivL'>Match<br>(e)</div><div class='respDivR'>No Match<br>(i)</div></div></div>","e","TARGET","1","trustrating_stim/white_mw040.bmp","0","noMatchFace","i","1500","trustrating_stim/white_mw012.bmp","red","Keep","PRACTICE","0"
"html-keyboard-response","28","89422","0.0-5.0-5.4","5f934f7fdc89a111b5712011","bdp_wmem","Tue Mar 14 2023 20:45:51 GMT-0400 (Eastern Daylight Time)","572079","Match,No Match","","","","","","","null","","<div class='trialBorder'><div class='vertical-center'><img src='img/error.jpg'></div><div class='respDiv'><div class='respDivL'><font style='color:orange'>Match<br>(e)</font></div><div class='respDivR'>No Match<br>(i)</div></div></div>","null","FEEDBACK","","","","","","","","","","",""
"html-keyboard-response","29","89934","0.0-5.0-1.5","5f934f7fdc89a111b5712011","bdp_wmem","Tue Mar 14 2023 20:45:51 GMT-0400 (Eastern Daylight Time)","572079","Match,No Match","","","","","","","null","","<div class='trialBorder'><div class='vertical-center'><img src='img/fixation2_sml.jpg'</img></div></div>","null","FIX","","","","","","","","","","",""
"html-keyboard-response","30","91443","0.0-5.0-2.5","5f934f7fdc89a111b5712011","bdp_wmem","Tue Mar 14 2023 20:45:51 GMT-0400 (Eastern Daylight Time)","572079","Match,No Match","","","","","","","null","","<div class='trialBorder'><div class='vertical-center'><img style='vertical-align:center; align:center' src='img/fixation2_sml.jpg'></div><div class='arrayDiv1'><div class='tc'><img class='introPic' src='trustrating_stim/white_mw040.bmp'><br><font color='green'><strong>Share</strong></font></div></div></div>","null","ARRAY","1","trustrating_stim/white_mw040.bmp","1","Match","e","1500","","","","",""
"html-keyboard-response","31","95454","0.0-5.0-3.5","5f934f7fdc89a111b5712011","bdp_wmem","Tue Mar 14 2023 20:45:51 GMT-0400 (Eastern Daylight Time)","572079","Match,No Match","","","","","","","null","","<div class='trialBorder'><div class='vertical-center'><img src='img/fixation2_sml.jpg'</img></div></div>","null","DELAY","","","","","","","","","","",""
"html-keyboard-response","32","96375","0.0-5.0-4.5","5f934f7fdc89a111b5712011","bdp_wmem","Tue Mar 14 2023 20:45:51 GMT-0400 (Eastern Daylight Time)","572079","Match,No Match","","","","","","","918","","<div class='trialBorder'><div class='targDiv'><div class='tc'><img class='introPic' src='trustrating_stim/white_mw040.bmp'><br><font color='green'><strong>Share</strong></font></div></div><div class='respDiv'><div class='respDivL'>Match<br>(e)</div><div class='respDivR'>No Match<br>(i)</div></div></div>","e","TARGET","1","trustrating_stim/white_mw040.bmp","1","Match","e","1500","trustrating_stim/white_mw040.bmp","green","Share","PRACTICE","1"
"html-keyboard-response","33","96878","0.0-5.0-5.5","5f934f7fdc89a111b5712011","bdp_wmem","Tue Mar 14 2023 20:45:51 GMT-0400 (Eastern Daylight Time)","572079","Match,No Match","","","","","","","null","","<div class='trialBorder'><div class='vertical-center'><img src='img/correct.jpg'></div><div class='respDiv'><div class='respDivL'><font style='color:orange'>Match<br>(e)</font></div><div class='respDivR'>No Match<br>(i)</div></div></div>","null","FEEDBACK","","","","","","","","","","",""
"instructions","34","129998","0.0-6.0","5f934f7fdc89a111b5712011","bdp_wmem","Tue Mar 14 2023 20:45:51 GMT-0400 (Eastern Daylight Time)","572079","Match,No Match","","","","","","[{""page_index"":0,""viewing_time"":33120}]","33120","","","","","","","","","","","","","","",""
"html-keyboard-response","35","130500","0.0-7.0-1.0","5f934f7fdc89a111b5712011","bdp_wmem","Tue Mar 14 2023 20:45:51 GMT-0400 (Eastern Daylight Time)","572079","Match,No Match","","","","","","","null","","<div class='trialBorder'><div class='vertical-center'><img src='img/fixation2_sml.jpg'</img></div></div>","null","FIX","","","","","","","","","","",""
"html-keyboard-response","36","133508","0.0-7.0-2.0","5f934f7fdc89a111b5712011","bdp_wmem","Tue Mar 14 2023 20:45:51 GMT-0400 (Eastern Daylight Time)","572079","Match,No Match","","","","","","","null","","<div class='trialBorder'><div class='vertical-center'><img style='vertical-align:center; align:center' src='img/fixation2_sml.jpg'></div><div class='arrayDiv2'><div class='tl'><img class='introPic' src='trustrating_stim/white_mw078.bmp'><br><font color='green'><strong>Share</strong></font></div><div class='tr'><img class='introPic' src='trustrating_stim/white_mw003.bmp'><br><font color='red'><strong>Keep</strong></font></div></div></div>","null","ARRAY","2","trustrating_stim/white_mw078.bmp,trustrating_stim/white_mw003.bmp","1,0","Match","e","3000","","","","",""
"html-keyboard-response","37","137519","0.0-7.0-3.0","5f934f7fdc89a111b5712011","bdp_wmem","Tue Mar 14 2023 20:45:51 GMT-0400 (Eastern Daylight Time)","572079","Match,No Match","","","","","","","null","","<div class='trialBorder'><div class='vertical-center'><img src='img/fixation2_sml.jpg'</img></div></div>","null","DELAY","","","","","","","","","","",""
"html-keyboard-response","38","138611","0.0-7.0-4.0","5f934f7fdc89a111b5712011","bdp_wmem","Tue Mar 14 2023 20:45:51 GMT-0400 (Eastern Daylight Time)","572079","Match,No Match","","","","","","","1090","","<div class='trialBorder'><div class='targDiv'><div class='tc'><img class='introPic' src='trustrating_stim/white_mw078.bmp'><br><font color='green'><strong>Share</strong></font></div></div><div class='respDiv'><div class='respDivL'>Match<br>(e)</div><div class='respDivR'>No Match<br>(i)</div></div></div>","e","TARGET","2","trustrating_stim/white_mw078.bmp,trustrating_stim/white_mw003.bmp","1,0","Match","e","3000","trustrating_stim/white_mw078.bmp","green","Share","REAL","1"
"html-keyboard-response","39","139119","0.0-7.0-5.0","5f934f7fdc89a111b5712011","bdp_wmem","Tue Mar 14 2023 20:45:51 GMT-0400 (Eastern Daylight Time)","572079","Match,No Match","","","","","","","null","","<div class='trialBorder'><div class='vertical-center'><img src='img/correct.jpg'></div><div class='respDiv'><div class='respDivL'><font style='color:orange'>Match<br>(e)</font></div><div class='respDivR'>No Match<br>(i)</div></div></div>","null","FEEDBACK","","","","","","","","","","",""
"html-keyboard-response","40","139630","0.0-7.0-1.1","5f934f7fdc89a111b5712011","bdp_wmem","Tue Mar 14 2023 20:45:51 GMT-0400 (Eastern Daylight Time)","572079","Match,No Match","","","","","","","null","","<div class='trialBorder'><div class='vertical-center'><img src='img/fixation2_sml.jpg'</img></div></div>","null","FIX","","","","","","","","","","",""
"html-keyboard-response","41","142639","0.0-7.0-2.1","5f934f7fdc89a111b5712011","bdp_wmem","Tue Mar 14 2023 20:45:51 GMT-0400 (Eastern Daylight Time)","572079","Match,No Match","","","","","","","null","","<div class='trialBorder'><div class='vertical-center'><img style='vertical-align:center; align:center' src='img/fixation2_sml.jpg'></div><div class='arrayDiv2'><div class='tl'><img class='introPic' src='trustrating_stim/white_mw092.bmp'><br><font color='red'><strong>Keep</strong></font></div><div class='tr'><img class='introPic' src='trustrating_stim/white_mw070.bmp'><br><font color='green'><strong>Share</strong></font></div></div></div>","null","ARRAY","2","trustrating_stim/white_mw092.bmp,trustrating_stim/white_mw070.bmp","0,1","noMatchFace","i","3000","","","","",""
"html-keyboard-response","42","146644","0.0-7.0-3.1","5f934f7fdc89a111b5712011","bdp_wmem","Tue Mar 14 2023 20:45:51 GMT-0400 (Eastern Daylight Time)","572079","Match,No Match","","","","","","","null","","<div class='trialBorder'><div class='vertical-center'><img src='img/fixation2_sml.jpg'</img></div></div>","null","DELAY","","","","","","","","","","",""
"html-keyboard-response","43","147774","0.0-7.0-4.1","5f934f7fdc89a111b5712011","bdp_wmem","Tue Mar 14 2023 20:45:51 GMT-0400 (Eastern Daylight Time)","572079","Match,No Match","","","","","","","1129","","<div class='trialBorder'><div class='targDiv'><div class='tc'><img class='introPic' src='trustrating_stim/white_mw040.bmp'><br><font color='red'><strong>Keep</strong></font></div></div><div class='respDiv'><div class='respDivL'>Match<br>(e)</div><div class='respDivR'>No Match<br>(i)</div></div></div>","e","TARGET","2","trustrating_stim/white_mw092.bmp,trustrating_stim/white_mw070.bmp","0,1","noMatchFace","i","3000","trustrating_stim/white_mw040.bmp","red","Keep","REAL","0"
"html-keyboard-response","44","148276","0.0-7.0-5.1","5f934f7fdc89a111b5712011","bdp_wmem","Tue Mar 14 2023 20:45:51 GMT-0400 (Eastern Daylight Time)","572079","Match,No Match","","","","","","","null","","<div class='trialBorder'><div class='vertical-center'><img src='img/error.jpg'></div><div class='respDiv'><div class='respDivL'><font style='color:orange'>Match<br>(e)</font></div><div class='respDivR'>No Match<br>(i)</div></div></div>","null","FEEDBACK","","","","","","","","","","",""
"html-keyboard-response","45","148783","0.0-7.0-1.2","5f934f7fdc89a111b5712011","bdp_wmem","Tue Mar 14 2023 20:45:51 GMT-0400 (Eastern Daylight Time)","572079","Match,No Match","","","","","","","null","","<div class='trialBorder'><div class='vertical-center'><img src='img/fixation2_sml.jpg'</img></div></div>","null","FIX","","","","","","","","","","",""
"html-keyboard-response","46","150292","0.0-7.0-2.2","5f934f7fdc89a111b5712011","bdp_wmem","Tue Mar 14 2023 20:45:51 GMT-0400 (Eastern Daylight Time)","572079","Match,No Match","","","","","","","null","","<div class='trialBorder'><div class='vertical-center'><img style='vertical-align:center; align:center' src='img/fixation2_sml.jpg'></div><div class='arrayDiv1'><div class='tc'><img class='introPic' src='trustrating_stim/white_mw010.bmp'><br><font color='red'><strong>Keep</strong></font></div></div></div>","null","ARRAY","1","trustrating_stim/white_mw010.bmp","0","noMatchFace","i","1500","","","","",""
"html-keyboard-response","47","154303","0.0-7.0-3.2","5f934f7fdc89a111b5712011","bdp_wmem","Tue Mar 14 2023 20:45:51 GMT-0400 (Eastern Daylight Time)","572079","Match,No Match","","","","","","","null","","<div class='trialBorder'><div class='vertical-center'><img src='img/fixation2_sml.jpg'</img></div></div>","null","DELAY","","","","","","","","","","",""
"html-keyboard-response","48","155621","0.0-7.0-4.2","5f934f7fdc89a111b5712011","bdp_wmem","Tue Mar 14 2023 20:45:51 GMT-0400 (Eastern Daylight Time)","572079","Match,No Match","","","","","","","1316","","<div class='trialBorder'><div class='targDiv'><div class='tc'><img class='introPic' src='trustrating_stim/white_mw070.bmp'><br><font color='red'><strong>Keep</strong></font></div></div><div class='respDiv'><div class='respDivL'>Match<br>(e)</div><div class='respDivR'>No Match<br>(i)</div></div></div>","i","TARGET","1","trustrating_stim/white_mw010.bmp","0","noMatchFace","i","1500","trustrating_stim/white_mw070.bmp","red","Keep","REAL","1"
"html-keyboard-response","49","156127","0.0-7.0-5.2","5f934f7fdc89a111b5712011","bdp_wmem","Tue Mar 14 2023 20:45:51 GMT-0400 (Eastern Daylight Time)","572079","Match,No Match","","","","","","","null","","<div class='trialBorder'><div class='vertical-center'><img src='img/correct.jpg'></div><div class='respDiv'><div class='respDivL'>Match<br>(e)</div><div class='respDivR'><font style='color:orange'>No Match<br>(i)</font></div></div></div>","null","FEEDBACK","","","","","","","","","","",""
"html-keyboard-response","50","156639","0.0-7.0-1.3","5f934f7fdc89a111b5712011","bdp_wmem","Tue Mar 14 2023 20:45:51 GMT-0400 (Eastern Daylight Time)","572079","Match,No Match","","","","","","","null","","<div class='trialBorder'><div class='vertical-center'><img src='img/fixation2_sml.jpg'</img></div></div>","null","FIX","","","","","","","","","","",""
"html-keyboard-response","51","159647","0.0-7.0-2.3","5f934f7fdc89a111b5712011","bdp_wmem","Tue Mar 14 2023 20:45:51 GMT-0400 (Eastern Daylight Time)","572079","Match,No Match","","","","","","","null","","<div class='trialBorder'><div class='vertical-center'><img style='vertical-align:center; align:center' src='img/fixation2_sml.jpg'></div><div class='arrayDiv2'><div class='tl'><img class='introPic' src='trustrating_stim/white_mw003.bmp'><br><font color='red'><strong>Keep</strong></font></div><div class='tr'><img class='introPic' src='trustrating_stim/white_mw012.bmp'><br><font color='green'><strong>Share</strong></font></div></div></div>","null","ARRAY","2","trustrating_stim/white_mw003.bmp,trustrating_stim/white_mw012.bmp","0,1","noMatchOutcome","i","3000","","","","",""
"html-keyboard-response","52","163653","0.0-7.0-3.3","5f934f7fdc89a111b5712011","bdp_wmem","Tue Mar 14 2023 20:45:51 GMT-0400 (Eastern Daylight Time)","572079","Match,No Match","","","","","","","null","","<div class='trialBorder'><div class='vertical-center'><img src='img/fixation2_sml.jpg'</img></div></div>","null","DELAY","","","","","","","","","","",""
"html-keyboard-response","53","164887","0.0-7.0-4.3","5f934f7fdc89a111b5712011","bdp_wmem","Tue Mar 14 2023 20:45:51 GMT-0400 (Eastern Daylight Time)","572079","Match,No Match","","","","","","","1232","","<div class='trialBorder'><div class='targDiv'><div class='tc'><img class='introPic' src='trustrating_stim/white_mw003.bmp'><br><font color='green'><strong>Share</strong></font></div></div><div class='respDiv'><div class='respDivL'>Match<br>(e)</div><div class='respDivR'>No Match<br>(i)</div></div></div>","i","TARGET","2","trustrating_stim/white_mw003.bmp,trustrating_stim/white_mw012.bmp","0,1","noMatchOutcome","i","3000","trustrating_stim/white_mw003.bmp","green","Share","REAL","1"
"html-keyboard-response","54","165391","0.0-7.0-5.3","5f934f7fdc89a111b5712011","bdp_wmem","Tue Mar 14 2023 20:45:51 GMT-0400 (Eastern Daylight Time)","572079","Match,No Match","","","","","","","null","","<div class='trialBorder'><div class='vertical-center'><img src='img/correct.jpg'></div><div class='respDiv'><div class='respDivL'>Match<br>(e)</div><div class='respDivR'><font style='color:orange'>No Match<br>(i)</font></div></div></div>","null","FEEDBACK","","","","","","","","","","",""
"html-keyboard-response","55","165904","0.0-7.0-1.4","5f934f7fdc89a111b5712011","bdp_wmem","Tue Mar 14 2023 20:45:51 GMT-0400 (Eastern Daylight Time)","572079","Match,No Match","","","","","","","null","","<div class='trialBorder'><div class='vertical-center'><img src='img/fixation2_sml.jpg'</img></div></div>","null","FIX","","","","","","","","","","",""
"html-keyboard-response","56","170416","0.0-7.0-2.4","5f934f7fdc89a111b5712011","bdp_wmem","Tue Mar 14 2023 20:45:51 GMT-0400 (Eastern Daylight Time)","572079","Match,No Match","","","","","","","null","","<div class='trialBorder'><div class='vertical-center'><img style='vertical-align:center; align:center' src='img/fixation2_sml.jpg'></div><div class='arrayDiv3'><div class='tl'><img class='introPic' src='trustrating_stim/white_mw012.bmp'><br><font color='green'><strong>Share</strong></font></div><div class='tc'><img class='introPic' src='trustrating_stim/white_mw038.bmp'><br><font color='green'><strong>Share</strong></font></div><div class='tr'><img class='introPic' src='trustrating_stim/white_mw085.bmp'><br><font color='red'><strong>Keep</strong></font></div></div></div>","null","ARRAY","3","trustrating_stim/white_mw012.bmp,trustrating_stim/white_mw038.bmp,trustrating_stim/white_mw085.bmp","1,1,0","Match","e","4500","","","","",""
"html-keyboard-response","57","174421","0.0-7.0-3.4","5f934f7fdc89a111b5712011","bdp_wmem","Tue Mar 14 2023 20:45:51 GMT-0400 (Eastern Daylight Time)","572079","Match,No Match","","","","","","","null","","<div class='trialBorder'><div class='vertical-center'><img src='img/fixation2_sml.jpg'</img></div></div>","null","DELAY","","","","","","","","","","",""
"html-keyboard-response","58","176035","0.0-7.0-4.4","5f934f7fdc89a111b5712011","bdp_wmem","Tue Mar 14 2023 20:45:51 GMT-0400 (Eastern Daylight Time)","572079","Match,No Match","","","","","","","1612","","<div class='trialBorder'><div class='targDiv'><div class='tc'><img class='introPic' src='trustrating_stim/white_mw012.bmp'><br><font color='green'><strong>Share</strong></font></div></div><div class='respDiv'><div class='respDivL'>Match<br>(e)</div><div class='respDivR'>No Match<br>(i)</div></div></div>","i","TARGET","3","trustrating_stim/white_mw012.bmp,trustrating_stim/white_mw038.bmp,trustrating_stim/white_mw085.bmp","1,1,0","Match","e","4500","trustrating_stim/white_mw012.bmp","green","Share","REAL","0"
"html-keyboard-response","59","176544","0.0-7.0-5.4","5f934f7fdc89a111b5712011","bdp_wmem","Tue Mar 14 2023 20:45:51 GMT-0400 (Eastern Daylight Time)","572079","Match,No Match","","","","","","","null","","<div class='trialBorder'><div class='vertical-center'><img src='img/error.jpg'></div><div class='respDiv'><div class='respDivL'>Match<br>(e)</div><div class='respDivR'><font style='color:orange'>No Match<br>(i)</font></div></div></div>","null","FEEDBACK","","","","","","","","","","",""
"html-keyboard-response","60","177056","0.0-7.0-1.5","5f934f7fdc89a111b5712011","bdp_wmem","Tue Mar 14 2023 20:45:51 GMT-0400 (Eastern Daylight Time)","572079","Match,No Match","","","","","","","null","","<div class='trialBorder'><div class='vertical-center'><img src='img/fixation2_sml.jpg'</img></div></div>","null","FIX","","","","","","","","","","",""
"html-keyboard-response","61","180064","0.0-7.0-2.5","5f934f7fdc89a111b5712011","bdp_wmem","Tue Mar 14 2023 20:45:51 GMT-0400 (Eastern Daylight Time)","572079","Match,No Match","","","","","","","null","","<div class='trialBorder'><div class='vertical-center'><img style='vertical-align:center; align:center' src='img/fixation2_sml.jpg'></div><div class='arrayDiv2'><div class='tl'><img class='introPic' src='trustrating_stim/white_mw078.bmp'><br><font color='green'><strong>Share</strong></font></div><div class='tr'><img class='introPic' src='trustrating_stim/white_mw070.bmp'><br><font color='red'><strong>Keep</strong></font></div></div></div>","null","ARRAY","2","trustrating_stim/white_mw078.bmp,trustrating_stim/white_mw070.bmp","1,0","noMatchFace","i","3000","","","","",""
"html-keyboard-response","62","184069","0.0-7.0-3.5","5f934f7fdc89a111b5712011","bdp_wmem","Tue Mar 14 2023 20:45:51 GMT-0400 (Eastern Daylight Time)","572079","Match,No Match","","","","","","","null","","<div class='trialBorder'><div class='vertical-center'><img src='img/fixation2_sml.jpg'</img></div></div>","null","DELAY","","","","","","","","","","",""
"html-keyboard-response","63","186177","0.0-7.0-4.5","5f934f7fdc89a111b5712011","bdp_wmem","Tue Mar 14 2023 20:45:51 GMT-0400 (Eastern Daylight Time)","572079","Match,No Match","","","","","","","2105","","<div class='trialBorder'><div class='targDiv'><div class='tc'><img class='introPic' src='trustrating_stim/white_mw038.bmp'><br><font color='green'><strong>Share</strong></font></div></div><div class='respDiv'><div class='respDivL'>Match<br>(e)</div><div class='respDivR'>No Match<br>(i)</div></div></div>","e","TARGET","2","trustrating_stim/white_mw078.bmp,trustrating_stim/white_mw070.bmp","1,0","noMatchFace","i","3000","trustrating_stim/white_mw038.bmp","green","Share","REAL","0"
"html-keyboard-response","64","186688","0.0-7.0-5.5","5f934f7fdc89a111b5712011","bdp_wmem","Tue Mar 14 2023 20:45:51 GMT-0400 (Eastern Daylight Time)","572079","Match,No Match","","","","","","","null","","<div class='trialBorder'><div class='vertical-center'><img src='img/error.jpg'></div><div class='respDiv'><div class='respDivL'><font style='color:orange'>Match<br>(e)</font></div><div class='respDivR'>No Match<br>(i)</div></div></div>","null","FEEDBACK","","","","","","","","","","",""
"html-keyboard-response","65","187189","0.0-7.0-1.6","5f934f7fdc89a111b5712011","bdp_wmem","Tue Mar 14 2023 20:45:51 GMT-0400 (Eastern Daylight Time)","572079","Match,No Match","","","","","","","null","","<div class='trialBorder'><div class='vertical-center'><img src='img/fixation2_sml.jpg'</img></div></div>","null","FIX","","","","","","","","","","",""
"html-keyboard-response","66","191696","0.0-7.0-2.6","5f934f7fdc89a111b5712011","bdp_wmem","Tue Mar 14 2023 20:45:51 GMT-0400 (Eastern Daylight Time)","572079","Match,No Match","","","","","","","null","","<div class='trialBorder'><div class='vertical-center'><img style='vertical-align:center; align:center' src='img/fixation2_sml.jpg'></div><div class='arrayDiv3'><div class='tl'><img class='introPic' src='trustrating_stim/white_mw003.bmp'><br><font color='red'><strong>Keep</strong></font></div><div class='tc'><img class='introPic' src='trustrating_stim/white_mw078.bmp'><br><font color='green'><strong>Share</strong></font></div><div class='tr'><img class='introPic' src='trustrating_stim/white_mw013.bmp'><br><font color='green'><strong>Share</strong></font></div></div></div>","null","ARRAY","3","trustrating_stim/white_mw003.bmp,trustrating_stim/white_mw078.bmp,trustrating_stim/white_mw013.bmp","0,1,1","Match","e","4500","","","","",""
"html-keyboard-response","67","195702","0.0-7.0-3.6","5f934f7fdc89a111b5712011","bdp_wmem","Tue Mar 14 2023 20:45:51 GMT-0400 (Eastern Daylight Time)","572079","Match,No Match","","","","","","","null","","<div class='trialBorder'><div class='vertical-center'><img src='img/fixation2_sml.jpg'</img></div></div>","null","DELAY","","","","","","","","","","",""
"html-keyboard-response","68","197133","0.0-7.0-4.6","5f934f7fdc89a111b5712011","bdp_wmem","Tue Mar 14 2023 20:45:51 GMT-0400 (Eastern Daylight Time)","572079","Match,No Match","","","","","","","1429","","<div class='trialBorder'><div class='targDiv'><div class='tc'><img class='introPic' src='trustrating_stim/white_mw003.bmp'><br><font color='red'><strong>Keep</strong></font></div></div><div class='respDiv'><div class='respDivL'>Match<br>(e)</div><div class='respDivR'>No Match<br>(i)</div></div></div>","e","TARGET","3","trustrating_stim/white_mw003.bmp,trustrating_stim/white_mw078.bmp,trustrating_stim/white_mw013.bmp","0,1,1","Match","e","4500","trustrating_stim/white_mw003.bmp","red","Keep","REAL","1"
"html-keyboard-response","69","197637","0.0-7.0-5.6","5f934f7fdc89a111b5712011","bdp_wmem","Tue Mar 14 2023 20:45:51 GMT-0400 (Eastern Daylight Time)","572079","Match,No Match","","","","","","","null","","<div class='trialBorder'><div class='vertical-center'><img src='img/correct.jpg'></div><div class='respDiv'><div class='respDivL'><font style='color:orange'>Match<br>(e)</font></div><div class='respDivR'>No Match<br>(i)</div></div></div>","null","FEEDBACK","","","","","","","","","","",""
"html-keyboard-response","70","198144","0.0-7.0-1.7","5f934f7fdc89a111b5712011","bdp_wmem","Tue Mar 14 2023 20:45:51 GMT-0400 (Eastern Daylight Time)","572079","Match,No Match","","","","","","","null","","<div class='trialBorder'><div class='vertical-center'><img src='img/fixation2_sml.jpg'</img></div></div>","null","FIX","","","","","","","","","","",""
"html-keyboard-response","71","202656","0.0-7.0-2.7","5f934f7fdc89a111b5712011","bdp_wmem","Tue Mar 14 2023 20:45:51 GMT-0400 (Eastern Daylight Time)","572079","Match,No Match","","","","","","","null","","<div class='trialBorder'><div class='vertical-center'><img style='vertical-align:center; align:center' src='img/fixation2_sml.jpg'></div><div class='arrayDiv3'><div class='tl'><img class='introPic' src='trustrating_stim/white_mw092.bmp'><br><font color='red'><strong>Keep</strong></font></div><div class='tc'><img class='introPic' src='trustrating_stim/white_mw091.bmp'><br><font color='green'><strong>Share</strong></font></div><div class='tr'><img class='introPic' src='trustrating_stim/white_mw003.bmp'><br><font color='green'><strong>Share</strong></font></div></div></div>","null","ARRAY","3","trustrating_stim/white_mw092.bmp,trustrating_stim/white_mw091.bmp,trustrating_stim/white_mw003.bmp","0,1,1","noMatchFace","i","4500","","","","",""
"html-keyboard-response","72","206662","0.0-7.0-3.7","5f934f7fdc89a111b5712011","bdp_wmem","Tue Mar 14 2023 20:45:51 GMT-0400 (Eastern Daylight Time)","572079","Match,No Match","","","","","","","null","","<div class='trialBorder'><div class='vertical-center'><img src='img/fixation2_sml.jpg'</img></div></div>","null","DELAY","","","","","","","","","","",""
"html-keyboard-response","73","207920","0.0-7.0-4.7","5f934f7fdc89a111b5712011","bdp_wmem","Tue Mar 14 2023 20:45:51 GMT-0400 (Eastern Daylight Time)","572079","Match,No Match","","","","","","","1256","","<div class='trialBorder'><div class='targDiv'><div class='tc'><img class='introPic' src='trustrating_stim/white_mw040.bmp'><br><font color='green'><strong>Share</strong></font></div></div><div class='respDiv'><div class='respDivL'>Match<br>(e)</div><div class='respDivR'>No Match<br>(i)</div></div></div>","i","TARGET","3","trustrating_stim/white_mw092.bmp,trustrating_stim/white_mw091.bmp,trustrating_stim/white_mw003.bmp","0,1,1","noMatchFace","i","4500","trustrating_stim/white_mw040.bmp","green","Share","REAL","1"
"html-keyboard-response","74","208421","0.0-7.0-5.7","5f934f7fdc89a111b5712011","bdp_wmem","Tue Mar 14 2023 20:45:51 GMT-0400 (Eastern Daylight Time)","572079","Match,No Match","","","","","","","null","","<div class='trialBorder'><div class='vertical-center'><img src='img/correct.jpg'></div><div class='respDiv'><div class='respDivL'>Match<br>(e)</div><div class='respDivR'><font style='color:orange'>No Match<br>(i)</font></div></div></div>","null","FEEDBACK","","","","","","","","","","",""
"html-keyboard-response","75","208928","0.0-7.0-1.8","5f934f7fdc89a111b5712011","bdp_wmem","Tue Mar 14 2023 20:45:51 GMT-0400 (Eastern Daylight Time)","572079","Match,No Match","","","","","","","null","","<div class='trialBorder'><div class='vertical-center'><img src='img/fixation2_sml.jpg'</img></div></div>","null","FIX","","","","","","","","","","",""
"html-keyboard-response","76","210438","0.0-7.0-2.8","5f934f7fdc89a111b5712011","bdp_wmem","Tue Mar 14 2023 20:45:51 GMT-0400 (Eastern Daylight Time)","572079","Match,No Match","","","","","","","null","","<div class='trialBorder'><div class='vertical-center'><img style='vertical-align:center; align:center' src='img/fixation2_sml.jpg'></div><div class='arrayDiv1'><div class='tc'><img class='introPic' src='trustrating_stim/white_mw042.bmp'><br><font color='green'><strong>Share</strong></font></div></div></div>","null","ARRAY","1","trustrating_stim/white_mw042.bmp","1","noMatchFace","i","1500","","","","",""
"html-keyboard-response","77","214449","0.0-7.0-3.8","5f934f7fdc89a111b5712011","bdp_wmem","Tue Mar 14 2023 20:45:51 GMT-0400 (Eastern Daylight Time)","572079","Match,No Match","","","","","","","null","","<div class='trialBorder'><div class='vertical-center'><img src='img/fixation2_sml.jpg'</img></div></div>","null","DELAY","","","","","","","","","","",""
"html-keyboard-response","78","215325","0.0-7.0-4.8","5f934f7fdc89a111b5712011","bdp_wmem","Tue Mar 14 2023 20:45:51 GMT-0400 (Eastern Daylight Time)","572079","Match,No Match","","","","","","","875","","<div class='trialBorder'><div class='targDiv'><div class='tc'><img class='introPic' src='trustrating_stim/white_mw012.bmp'><br><font color='green'><strong>Share</strong></font></div></div><div class='respDiv'><div class='respDivL'>Match<br>(e)</div><div class='respDivR'>No Match<br>(i)</div></div></div>","i","TARGET","1","trustrating_stim/white_mw042.bmp","1","noMatchFace","i","1500","trustrating_stim/white_mw012.bmp","green","Share","REAL","1"
"html-keyboard-response","79","215830","0.0-7.0-5.8","5f934f7fdc89a111b5712011","bdp_wmem","Tue Mar 14 2023 20:45:51 GMT-0400 (Eastern Daylight Time)","572079","Match,No Match","","","","","","","null","","<div class='trialBorder'><div class='vertical-center'><img src='img/correct.jpg'></div><div class='respDiv'><div class='respDivL'>Match<br>(e)</div><div class='respDivR'><font style='color:orange'>No Match<br>(i)</font></div></div></div>","null","FEEDBACK","","","","","","","","","","",""
"html-keyboard-response","80","216337","0.0-7.0-1.9","5f934f7fdc89a111b5712011","bdp_wmem","Tue Mar 14 2023 20:45:51 GMT-0400 (Eastern Daylight Time)","572079","Match,No Match","","","","","","","null","","<div class='trialBorder'><div class='vertical-center'><img src='img/fixation2_sml.jpg'</img></div></div>","null","FIX","","","","","","","","","","",""
"html-keyboard-response","81","217846","0.0-7.0-2.9","5f934f7fdc89a111b5712011","bdp_wmem","Tue Mar 14 2023 20:45:51 GMT-0400 (Eastern Daylight Time)","572079","Match,No Match","","","","","","","null","","<div class='trialBorder'><div class='vertical-center'><img style='vertical-align:center; align:center' src='img/fixation2_sml.jpg'></div><div class='arrayDiv1'><div class='tc'><img class='introPic' src='trustrating_stim/white_mw085.bmp'><br><font color='red'><strong>Keep</strong></font></div></div></div>","null","ARRAY","1","trustrating_stim/white_mw085.bmp","0","noMatchOutcome","i","1500","","","","",""
"html-keyboard-response","82","221857","0.0-7.0-3.9","5f934f7fdc89a111b5712011","bdp_wmem","Tue Mar 14 2023 20:45:51 GMT-0400 (Eastern Daylight Time)","572079","Match,No Match","","","","","","","null","","<div class='trialBorder'><div class='vertical-center'><img src='img/fixation2_sml.jpg'</img></div></div>","null","DELAY","","","","","","","","","","",""
"html-keyboard-response","83","223375","0.0-7.0-4.9","5f934f7fdc89a111b5712011","bdp_wmem","Tue Mar 14 2023 20:45:51 GMT-0400 (Eastern Daylight Time)","572079","Match,No Match","","","","","","","1516","","<div class='trialBorder'><div class='targDiv'><div class='tc'><img class='introPic' src='trustrating_stim/white_mw085.bmp'><br><font color='green'><strong>Share</strong></font></div></div><div class='respDiv'><div class='respDivL'>Match<br>(e)</div><div class='respDivR'>No Match<br>(i)</div></div></div>","i","TARGET","1","trustrating_stim/white_mw085.bmp","0","noMatchOutcome","i","1500","trustrating_stim/white_mw085.bmp","green","Share","REAL","1"
"html-keyboard-response","84","223878","0.0-7.0-5.9","5f934f7fdc89a111b5712011","bdp_wmem","Tue Mar 14 2023 20:45:51 GMT-0400 (Eastern Daylight Time)","572079","Match,No Match","","","","","","","null","","<div class='trialBorder'><div class='vertical-center'><img src='img/correct.jpg'></div><div class='respDiv'><div class='respDivL'>Match<br>(e)</div><div class='respDivR'><font style='color:orange'>No Match<br>(i)</font></div></div></div>","null","FEEDBACK","","","","","","","","","","",""
"html-keyboard-response","85","224382","0.0-7.0-1.10","5f934f7fdc89a111b5712011","bdp_wmem","Tue Mar 14 2023 20:45:51 GMT-0400 (Eastern Daylight Time)","572079","Match,No Match","","","","","","","null","","<div class='trialBorder'><div class='vertical-center'><img src='img/fixation2_sml.jpg'</img></div></div>","null","FIX","","","","","","","","","","",""
"html-keyboard-response","86","227393","0.0-7.0-2.10","5f934f7fdc89a111b5712011","bdp_wmem","Tue Mar 14 2023 20:45:51 GMT-0400 (Eastern Daylight Time)","572079","Match,No Match","","","","","","","null","","<div class='trialBorder'><div class='vertical-center'><img style='vertical-align:center; align:center' src='img/fixation2_sml.jpg'></div><div class='arrayDiv2'><div class='tl'><img class='introPic' src='trustrating_stim/white_mw010.bmp'><br><font color='red'><strong>Keep</strong></font></div><div class='tr'><img class='introPic' src='trustrating_stim/white_mw040.bmp'><br><font color='green'><strong>Share</strong></font></div></div></div>","null","ARRAY","2","trustrating_stim/white_mw010.bmp,trustrating_stim/white_mw040.bmp","0,1","Match","e","3000","","","","",""
"html-keyboard-response","87","231398","0.0-7.0-3.10","5f934f7fdc89a111b5712011","bdp_wmem","Tue Mar 14 2023 20:45:51 GMT-0400 (Eastern Daylight Time)","572079","Match,No Match","","","","","","","null","","<div class='trialBorder'><div class='vertical-center'><img src='img/fixation2_sml.jpg'</img></div></div>","null","DELAY","","","","","","","","","","",""
"html-keyboard-response","88","233197","0.0-7.0-4.10","5f934f7fdc89a111b5712011","bdp_wmem","Tue Mar 14 2023 20:45:51 GMT-0400 (Eastern Daylight Time)","572079","Match,No Match","","","","","","","1798","","<div class='trialBorder'><div class='targDiv'><div class='tc'><img class='introPic' src='trustrating_stim/white_mw040.bmp'><br><font color='green'><strong>Share</strong></font></div></div><div class='respDiv'><div class='respDivL'>Match<br>(e)</div><div class='respDivR'>No Match<br>(i)</div></div></div>","i","TARGET","2","trustrating_stim/white_mw010.bmp,trustrating_stim/white_mw040.bmp","0,1","Match","e","3000","trustrating_stim/white_mw040.bmp","green","Share","REAL","0"
"html-keyboard-response","89","233702","0.0-7.0-5.10","5f934f7fdc89a111b5712011","bdp_wmem","Tue Mar 14 2023 20:45:51 GMT-0400 (Eastern Daylight Time)","572079","Match,No Match","","","","","","","null","","<div class='trialBorder'><div class='vertical-center'><img src='img/error.jpg'></div><div class='respDiv'><div class='respDivL'>Match<br>(e)</div><div class='respDivR'><font style='color:orange'>No Match<br>(i)</font></div></div></div>","null","FEEDBACK","","","","","","","","","","",""
"html-keyboard-response","90","234209","0.0-7.0-1.11","5f934f7fdc89a111b5712011","bdp_wmem","Tue Mar 14 2023 20:45:51 GMT-0400 (Eastern Daylight Time)","572079","Match,No Match","","","","","","","null","","<div class='trialBorder'><div class='vertical-center'><img src='img/fixation2_sml.jpg'</img></div></div>","null","FIX","","","","","","","","","","",""
"html-keyboard-response","91","237217","0.0-7.0-2.11","5f934f7fdc89a111b5712011","bdp_wmem","Tue Mar 14 2023 20:45:51 GMT-0400 (Eastern Daylight Time)","572079","Match,No Match","","","","","","","null","","<div class='trialBorder'><div class='vertical-center'><img style='vertical-align:center; align:center' src='img/fixation2_sml.jpg'></div><div class='arrayDiv2'><div class='tl'><img class='introPic' src='trustrating_stim/white_mw091.bmp'><br><font color='green'><strong>Share</strong></font></div><div class='tr'><img class='introPic' src='trustrating_stim/white_mw078.bmp'><br><font color='red'><strong>Keep</strong></font></div></div></div>","null","ARRAY","2","trustrating_stim/white_mw091.bmp,trustrating_stim/white_mw078.bmp","1,0","Match","e","3000","","","","",""
"html-keyboard-response","92","241223","0.0-7.0-3.11","5f934f7fdc89a111b5712011","bdp_wmem","Tue Mar 14 2023 20:45:51 GMT-0400 (Eastern Daylight Time)","572079","Match,No Match","","","","","","","null","","<div class='trialBorder'><div class='vertical-center'><img src='img/fixation2_sml.jpg'</img></div></div>","null","DELAY","","","","","","","","","","",""
"html-keyboard-response","93","242216","0.0-7.0-4.11","5f934f7fdc89a111b5712011","bdp_wmem","Tue Mar 14 2023 20:45:51 GMT-0400 (Eastern Daylight Time)","572079","Match,No Match","","","","","","","991","","<div class='trialBorder'><div class='targDiv'><div class='tc'><img class='introPic' src='trustrating_stim/white_mw078.bmp'><br><font color='red'><strong>Keep</strong></font></div></div><div class='respDiv'><div class='respDivL'>Match<br>(e)</div><div class='respDivR'>No Match<br>(i)</div></div></div>","e","TARGET","2","trustrating_stim/white_mw091.bmp,trustrating_stim/white_mw078.bmp","1,0","Match","e","3000","trustrating_stim/white_mw078.bmp","red","Keep","REAL","1"
"html-keyboard-response","94","242722","0.0-7.0-5.11","5f934f7fdc89a111b5712011","bdp_wmem","Tue Mar 14 2023 20:45:51 GMT-0400 (Eastern Daylight Time)","572079","Match,No Match","","","","","","","null","","<div class='trialBorder'><div class='vertical-center'><img src='img/correct.jpg'></div><div class='respDiv'><div class='respDivL'><font style='color:orange'>Match<br>(e)</font></div><div class='respDivR'>No Match<br>(i)</div></div></div>","null","FEEDBACK","","","","","","","","","","",""
"html-keyboard-response","95","243233","0.0-7.0-1.12","5f934f7fdc89a111b5712011","bdp_wmem","Tue Mar 14 2023 20:45:51 GMT-0400 (Eastern Daylight Time)","572079","Match,No Match","","","","","","","null","","<div class='trialBorder'><div class='vertical-center'><img src='img/fixation2_sml.jpg'</img></div></div>","null","FIX","","","","","","","","","","",""
"html-keyboard-response","96","246241","0.0-7.0-2.12","5f934f7fdc89a111b5712011","bdp_wmem","Tue Mar 14 2023 20:45:51 GMT-0400 (Eastern Daylight Time)","572079","Match,No Match","","","","","","","null","","<div class='trialBorder'><div class='vertical-center'><img style='vertical-align:center; align:center' src='img/fixation2_sml.jpg'></div><div class='arrayDiv2'><div class='tl'><img class='introPic' src='trustrating_stim/white_mw003.bmp'><br><font color='red'><strong>Keep</strong></font></div><div class='tr'><img class='introPic' src='trustrating_stim/white_mw042.bmp'><br><font color='green'><strong>Share</strong></font></div></div></div>","null","ARRAY","2","trustrating_stim/white_mw003.bmp,trustrating_stim/white_mw042.bmp","0,1","Match","e","3000","","","","",""
"html-keyboard-response","97","250246","0.0-7.0-3.12","5f934f7fdc89a111b5712011","bdp_wmem","Tue Mar 14 2023 20:45:51 GMT-0400 (Eastern Daylight Time)","572079","Match,No Match","","","","","","","null","","<div class='trialBorder'><div class='vertical-center'><img src='img/fixation2_sml.jpg'</img></div></div>","null","DELAY","","","","","","","","","","",""
"html-keyboard-response","98","251429","0.0-7.0-4.12","5f934f7fdc89a111b5712011","bdp_wmem","Tue Mar 14 2023 20:45:51 GMT-0400 (Eastern Daylight Time)","572079","Match,No Match","","","","","","","1180","","<div class='trialBorder'><div class='targDiv'><div class='tc'><img class='introPic' src='trustrating_stim/white_mw003.bmp'><br><font color='red'><strong>Keep</strong></font></div></div><div class='respDiv'><div class='respDivL'>Match<br>(e)</div><div class='respDivR'>No Match<br>(i)</div></div></div>","i","TARGET","2","trustrating_stim/white_mw003.bmp,trustrating_stim/white_mw042.bmp","0,1","Match","e","3000","trustrating_stim/white_mw003.bmp","red","Keep","REAL","0"
"html-keyboard-response","99","251937","0.0-7.0-5.12","5f934f7fdc89a111b5712011","bdp_wmem","Tue Mar 14 2023 20:45:51 GMT-0400 (Eastern Daylight Time)","572079","Match,No Match","","","","","","","null","","<div class='trialBorder'><div class='vertical-center'><img src='img/error.jpg'></div><div class='respDiv'><div class='respDivL'>Match<br>(e)</div><div class='respDivR'><font style='color:orange'>No Match<br>(i)</font></div></div></div>","null","FEEDBACK","","","","","","","","","","",""
"html-keyboard-response","100","252449","0.0-7.0-1.13","5f934f7fdc89a111b5712011","bdp_wmem","Tue Mar 14 2023 20:45:51 GMT-0400 (Eastern Daylight Time)","572079","Match,No Match","","","","","","","null","","<div class='trialBorder'><div class='vertical-center'><img src='img/fixation2_sml.jpg'</img></div></div>","null","FIX","","","","","","","","","","",""
"html-keyboard-response","101","253959","0.0-7.0-2.13","5f934f7fdc89a111b5712011","bdp_wmem","Tue Mar 14 2023 20:45:51 GMT-0400 (Eastern Daylight Time)","572079","Match,No Match","","","","","","","null","","<div class='trialBorder'><div class='vertical-center'><img style='vertical-align:center; align:center' src='img/fixation2_sml.jpg'></div><div class='arrayDiv1'><div class='tc'><img class='introPic' src='trustrating_stim/white_mw040.bmp'><br><font color='green'><strong>Share</strong></font></div></div></div>","null","ARRAY","1","trustrating_stim/white_mw040.bmp","1","noMatchOutcome","i","1500","","","","",""
"html-keyboard-response","102","257969","0.0-7.0-3.13","5f934f7fdc89a111b5712011","bdp_wmem","Tue Mar 14 2023 20:45:51 GMT-0400 (Eastern Daylight Time)","572079","Match,No Match","","","","","","","null","","<div class='trialBorder'><div class='vertical-center'><img src='img/fixation2_sml.jpg'</img></div></div>","null","DELAY","","","","","","","","","","",""
"html-keyboard-response","103","259489","0.0-7.0-4.13","5f934f7fdc89a111b5712011","bdp_wmem","Tue Mar 14 2023 20:45:51 GMT-0400 (Eastern Daylight Time)","572079","Match,No Match","","","","","","","1518","","<div class='trialBorder'><div class='targDiv'><div class='tc'><img class='introPic' src='trustrating_stim/white_mw040.bmp'><br><font color='red'><strong>Keep</strong></font></div></div><div class='respDiv'><div class='respDivL'>Match<br>(e)</div><div class='respDivR'>No Match<br>(i)</div></div></div>","i","TARGET","1","trustrating_stim/white_mw040.bmp","1","noMatchOutcome","i","1500","trustrating_stim/white_mw040.bmp","red","Keep","REAL","1"
"html-keyboard-response","104","259991","0.0-7.0-5.13","5f934f7fdc89a111b5712011","bdp_wmem","Tue Mar 14 2023 20:45:51 GMT-0400 (Eastern Daylight Time)","572079","Match,No Match","","","","","","","null","","<div class='trialBorder'><div class='vertical-center'><img src='img/correct.jpg'></div><div class='respDiv'><div class='respDivL'>Match<br>(e)</div><div class='respDivR'><font style='color:orange'>No Match<br>(i)</font></div></div></div>","null","FEEDBACK","","","","","","","","","","",""
"html-keyboard-response","105","260498","0.0-7.0-1.14","5f934f7fdc89a111b5712011","bdp_wmem","Tue Mar 14 2023 20:45:51 GMT-0400 (Eastern Daylight Time)","572079","Match,No Match","","","","","","","null","","<div class='trialBorder'><div class='vertical-center'><img src='img/fixation2_sml.jpg'</img></div></div>","null","FIX","","","","","","","","","","",""
"html-keyboard-response","106","263506","0.0-7.0-2.14","5f934f7fdc89a111b5712011","bdp_wmem","Tue Mar 14 2023 20:45:51 GMT-0400 (Eastern Daylight Time)","572079","Match,No Match","","","","","","","null","","<div class='trialBorder'><div class='vertical-center'><img style='vertical-align:center; align:center' src='img/fixation2_sml.jpg'></div><div class='arrayDiv2'><div class='tl'><img class='introPic' src='trustrating_stim/white_mw013.bmp'><br><font color='red'><strong>Keep</strong></font></div><div class='tr'><img class='introPic' src='trustrating_stim/white_mw012.bmp'><br><font color='green'><strong>Share</strong></font></div></div></div>","null","ARRAY","2","trustrating_stim/white_mw013.bmp,trustrating_stim/white_mw012.bmp","0,1","noMatchOutcome","i","3000","","","","",""
"html-keyboard-response","107","267511","0.0-7.0-3.14","5f934f7fdc89a111b5712011","bdp_wmem","Tue Mar 14 2023 20:45:51 GMT-0400 (Eastern Daylight Time)","572079","Match,No Match","","","","","","","null","","<div class='trialBorder'><div class='vertical-center'><img src='img/fixation2_sml.jpg'</img></div></div>","null","DELAY","","","","","","","","","","",""
"html-keyboard-response","108","268445","0.0-7.0-4.14","5f934f7fdc89a111b5712011","bdp_wmem","Tue Mar 14 2023 20:45:51 GMT-0400 (Eastern Daylight Time)","572079","Match,No Match","","","","","","","932","","<div class='trialBorder'><div class='targDiv'><div class='tc'><img class='introPic' src='trustrating_stim/white_mw013.bmp'><br><font color='green'><strong>Share</strong></font></div></div><div class='respDiv'><div class='respDivL'>Match<br>(e)</div><div class='respDivR'>No Match<br>(i)</div></div></div>","i","TARGET","2","trustrating_stim/white_mw013.bmp,trustrating_stim/white_mw012.bmp","0,1","noMatchOutcome","i","3000","trustrating_stim/white_mw013.bmp","green","Share","REAL","1"
"html-keyboard-response","109","268951","0.0-7.0-5.14","5f934f7fdc89a111b5712011","bdp_wmem","Tue Mar 14 2023 20:45:51 GMT-0400 (Eastern Daylight Time)","572079","Match,No Match","","","","","","","null","","<div class='trialBorder'><div class='vertical-center'><img src='img/correct.jpg'></div><div class='respDiv'><div class='respDivL'>Match<br>(e)</div><div class='respDivR'><font style='color:orange'>No Match<br>(i)</font></div></div></div>","null","FEEDBACK","","","","","","","","","","",""
"html-keyboard-response","110","269458","0.0-7.0-1.15","5f934f7fdc89a111b5712011","bdp_wmem","Tue Mar 14 2023 20:45:51 GMT-0400 (Eastern Daylight Time)","572079","Match,No Match","","","","","","","null","","<div class='trialBorder'><div class='vertical-center'><img src='img/fixation2_sml.jpg'</img></div></div>","null","FIX","","","","","","","","","","",""
"html-keyboard-response","111","270967","0.0-7.0-2.15","5f934f7fdc89a111b5712011","bdp_wmem","Tue Mar 14 2023 20:45:51 GMT-0400 (Eastern Daylight Time)","572079","Match,No Match","","","","","","","null","","<div class='trialBorder'><div class='vertical-center'><img style='vertical-align:center; align:center' src='img/fixation2_sml.jpg'></div><div class='arrayDiv1'><div class='tc'><img class='introPic' src='trustrating_stim/white_mw012.bmp'><br><font color='green'><strong>Share</strong></font></div></div></div>","null","ARRAY","1","trustrating_stim/white_mw012.bmp","1","noMatchOutcome","i","1500","","","","",""
"html-keyboard-response","112","274978","0.0-7.0-3.15","5f934f7fdc89a111b5712011","bdp_wmem","Tue Mar 14 2023 20:45:51 GMT-0400 (Eastern Daylight Time)","572079","Match,No Match","","","","","","","null","","<div class='trialBorder'><div class='vertical-center'><img src='img/fixation2_sml.jpg'</img></div></div>","null","DELAY","","","","","","","","","","",""
"html-keyboard-response","113","275811","0.0-7.0-4.15","5f934f7fdc89a111b5712011","bdp_wmem","Tue Mar 14 2023 20:45:51 GMT-0400 (Eastern Daylight Time)","572079","Match,No Match","","","","","","","830","","<div class='trialBorder'><div class='targDiv'><div class='tc'><img class='introPic' src='trustrating_stim/white_mw012.bmp'><br><font color='red'><strong>Keep</strong></font></div></div><div class='respDiv'><div class='respDivL'>Match<br>(e)</div><div class='respDivR'>No Match<br>(i)</div></div></div>","i","TARGET","1","trustrating_stim/white_mw012.bmp","1","noMatchOutcome","i","1500","trustrating_stim/white_mw012.bmp","red","Keep","REAL","1"
"html-keyboard-response","114","276320","0.0-7.0-5.15","5f934f7fdc89a111b5712011","bdp_wmem","Tue Mar 14 2023 20:45:51 GMT-0400 (Eastern Daylight Time)","572079","Match,No Match","","","","","","","null","","<div class='trialBorder'><div class='vertical-center'><img src='img/correct.jpg'></div><div class='respDiv'><div class='respDivL'>Match<br>(e)</div><div class='respDivR'><font style='color:orange'>No Match<br>(i)</font></div></div></div>","null","FEEDBACK","","","","","","","","","","",""
"html-keyboard-response","115","276823","0.0-7.0-1.16","5f934f7fdc89a111b5712011","bdp_wmem","Tue Mar 14 2023 20:45:51 GMT-0400 (Eastern Daylight Time)","572079","Match,No Match","","","","","","","null","","<div class='trialBorder'><div class='vertical-center'><img src='img/fixation2_sml.jpg'</img></div></div>","null","FIX","","","","","","","","","","",""
"html-keyboard-response","116","281330","0.0-7.0-2.16","5f934f7fdc89a111b5712011","bdp_wmem","Tue Mar 14 2023 20:45:51 GMT-0400 (Eastern Daylight Time)","572079","Match,No Match","","","","","","","null","","<div class='trialBorder'><div class='vertical-center'><img style='vertical-align:center; align:center' src='img/fixation2_sml.jpg'></div><div class='arrayDiv3'><div class='tl'><img class='introPic' src='trustrating_stim/white_mw091.bmp'><br><font color='green'><strong>Share</strong></font></div><div class='tc'><img class='introPic' src='trustrating_stim/white_mw012.bmp'><br><font color='red'><strong>Keep</strong></font></div><div class='tr'><img class='introPic' src='trustrating_stim/white_mw040.bmp'><br><font color='green'><strong>Share</strong></font></div></div></div>","null","ARRAY","3","trustrating_stim/white_mw091.bmp,trustrating_stim/white_mw012.bmp,trustrating_stim/white_mw040.bmp","1,0,1","noMatchFace","i","4500","","","","",""
"html-keyboard-response","117","285335","0.0-7.0-3.16","5f934f7fdc89a111b5712011","bdp_wmem","Tue Mar 14 2023 20:45:51 GMT-0400 (Eastern Daylight Time)","572079","Match,No Match","","","","","","","null","","<div class='trialBorder'><div class='vertical-center'><img src='img/fixation2_sml.jpg'</img></div></div>","null","DELAY","","","","","","","","","","",""
"html-keyboard-response","118","286255","0.0-7.0-4.16","5f934f7fdc89a111b5712011","bdp_wmem","Tue Mar 14 2023 20:45:51 GMT-0400 (Eastern Daylight Time)","572079","Match,No Match","","","","","","","918","","<div class='trialBorder'><div class='targDiv'><div class='tc'><img class='introPic' src='trustrating_stim/white_mw038.bmp'><br><font color='red'><strong>Keep</strong></font></div></div><div class='respDiv'><div class='respDivL'>Match<br>(e)</div><div class='respDivR'>No Match<br>(i)</div></div></div>","e","TARGET","3","trustrating_stim/white_mw091.bmp,trustrating_stim/white_mw012.bmp,trustrating_stim/white_mw040.bmp","1,0,1","noMatchFace","i","4500","trustrating_stim/white_mw038.bmp","red","Keep","REAL","0"
"html-keyboard-response","119","286760","0.0-7.0-5.16","5f934f7fdc89a111b5712011","bdp_wmem","Tue Mar 14 2023 20:45:51 GMT-0400 (Eastern Daylight Time)","572079","Match,No Match","","","","","","","null","","<div class='trialBorder'><div class='vertical-center'><img src='img/error.jpg'></div><div class='respDiv'><div class='respDivL'><font style='color:orange'>Match<br>(e)</font></div><div class='respDivR'>No Match<br>(i)</div></div></div>","null","FEEDBACK","","","","","","","","","","",""
"html-keyboard-response","120","287266","0.0-7.0-1.17","5f934f7fdc89a111b5712011","bdp_wmem","Tue Mar 14 2023 20:45:51 GMT-0400 (Eastern Daylight Time)","572079","Match,No Match","","","","","","","null","","<div class='trialBorder'><div class='vertical-center'><img src='img/fixation2_sml.jpg'</img></div></div>","null","FIX","","","","","","","","","","",""
"html-keyboard-response","121","291778","0.0-7.0-2.17","5f934f7fdc89a111b5712011","bdp_wmem","Tue Mar 14 2023 20:45:51 GMT-0400 (Eastern Daylight Time)","572079","Match,No Match","","","","","","","null","","<div class='trialBorder'><div class='vertical-center'><img style='vertical-align:center; align:center' src='img/fixation2_sml.jpg'></div><div class='arrayDiv3'><div class='tl'><img class='introPic' src='trustrating_stim/white_mw038.bmp'><br><font color='green'><strong>Share</strong></font></div><div class='tc'><img class='introPic' src='trustrating_stim/white_mw091.bmp'><br><font color='green'><strong>Share</strong></font></div><div class='tr'><img class='introPic' src='trustrating_stim/white_mw070.bmp'><br><font color='red'><strong>Keep</strong></font></div></div></div>","null","ARRAY","3","trustrating_stim/white_mw038.bmp,trustrating_stim/white_mw091.bmp,trustrating_stim/white_mw070.bmp","1,1,0","noMatchOutcome","i","4500","","","","",""
"html-keyboard-response","122","295784","0.0-7.0-3.17","5f934f7fdc89a111b5712011","bdp_wmem","Tue Mar 14 2023 20:45:51 GMT-0400 (Eastern Daylight Time)","572079","Match,No Match","","","","","","","null","","<div class='trialBorder'><div class='vertical-center'><img src='img/fixation2_sml.jpg'</img></div></div>","null","DELAY","","","","","","","","","","",""
"html-keyboard-response","123","297197","0.0-7.0-4.17","5f934f7fdc89a111b5712011","bdp_wmem","Tue Mar 14 2023 20:45:51 GMT-0400 (Eastern Daylight Time)","572079","Match,No Match","","","","","","","1411","","<div class='trialBorder'><div class='targDiv'><div class='tc'><img class='introPic' src='trustrating_stim/white_mw038.bmp'><br><font color='red'><strong>Keep</strong></font></div></div><div class='respDiv'><div class='respDivL'>Match<br>(e)</div><div class='respDivR'>No Match<br>(i)</div></div></div>","i","TARGET","3","trustrating_stim/white_mw038.bmp,trustrating_stim/white_mw091.bmp,trustrating_stim/white_mw070.bmp","1,1,0","noMatchOutcome","i","4500","trustrating_stim/white_mw038.bmp","red","Keep","REAL","1"
"html-keyboard-response","124","297704","0.0-7.0-5.17","5f934f7fdc89a111b5712011","bdp_wmem","Tue Mar 14 2023 20:45:51 GMT-0400 (Eastern Daylight Time)","572079","Match,No Match","","","","","","","null","","<div class='trialBorder'><div class='vertical-center'><img src='img/correct.jpg'></div><div class='respDiv'><div class='respDivL'>Match<br>(e)</div><div class='respDivR'><font style='color:orange'>No Match<br>(i)</font></div></div></div>","null","FEEDBACK","","","","","","","","","","",""
"html-keyboard-response","125","298210","0.0-7.0-1.18","5f934f7fdc89a111b5712011","bdp_wmem","Tue Mar 14 2023 20:45:51 GMT-0400 (Eastern Daylight Time)","572079","Match,No Match","","","","","","","null","","<div class='trialBorder'><div class='vertical-center'><img src='img/fixation2_sml.jpg'</img></div></div>","null","FIX","","","","","","","","","","",""
"html-keyboard-response","126","301219","0.0-7.0-2.18","5f934f7fdc89a111b5712011","bdp_wmem","Tue Mar 14 2023 20:45:51 GMT-0400 (Eastern Daylight Time)","572079","Match,No Match","","","","","","","null","","<div class='trialBorder'><div class='vertical-center'><img style='vertical-align:center; align:center' src='img/fixation2_sml.jpg'></div><div class='arrayDiv2'><div class='tl'><img class='introPic' src='trustrating_stim/white_mw092.bmp'><br><font color='green'><strong>Share</strong></font></div><div class='tr'><img class='introPic' src='trustrating_stim/white_mw040.bmp'><br><font color='red'><strong>Keep</strong></font></div></div></div>","null","ARRAY","2","trustrating_stim/white_mw092.bmp,trustrating_stim/white_mw040.bmp","1,0","Match","e","3000","","","","",""
"html-keyboard-response","127","305224","0.0-7.0-3.18","5f934f7fdc89a111b5712011","bdp_wmem","Tue Mar 14 2023 20:45:51 GMT-0400 (Eastern Daylight Time)","572079","Match,No Match","","","","","","","null","","<div class='trialBorder'><div class='vertical-center'><img src='img/fixation2_sml.jpg'</img></div></div>","null","DELAY","","","","","","","","","","",""
"html-keyboard-response","128","306362","0.0-7.0-4.18","5f934f7fdc89a111b5712011","bdp_wmem","Tue Mar 14 2023 20:45:51 GMT-0400 (Eastern Daylight Time)","572079","Match,No Match","","","","","","","1135","","<div class='trialBorder'><div class='targDiv'><div class='tc'><img class='introPic' src='trustrating_stim/white_mw040.bmp'><br><font color='red'><strong>Keep</strong></font></div></div><div class='respDiv'><div class='respDivL'>Match<br>(e)</div><div class='respDivR'>No Match<br>(i)</div></div></div>","i","TARGET","2","trustrating_stim/white_mw092.bmp,trustrating_stim/white_mw040.bmp","1,0","Match","e","3000","trustrating_stim/white_mw040.bmp","red","Keep","REAL","0"
"html-keyboard-response","129","306867","0.0-7.0-5.18","5f934f7fdc89a111b5712011","bdp_wmem","Tue Mar 14 2023 20:45:51 GMT-0400 (Eastern Daylight Time)","572079","Match,No Match","","","","","","","null","","<div class='trialBorder'><div class='vertical-center'><img src='img/error.jpg'></div><div class='respDiv'><div class='respDivL'>Match<br>(e)</div><div class='respDivR'><font style='color:orange'>No Match<br>(i)</font></div></div></div>","null","FEEDBACK","","","","","","","","","","",""
"html-keyboard-response","130","307379","0.0-7.0-1.19","5f934f7fdc89a111b5712011","bdp_wmem","Tue Mar 14 2023 20:45:51 GMT-0400 (Eastern Daylight Time)","572079","Match,No Match","","","","","","","null","","<div class='trialBorder'><div class='vertical-center'><img src='img/fixation2_sml.jpg'</img></div></div>","null","FIX","","","","","","","","","","",""
"html-keyboard-response","131","310386","0.0-7.0-2.19","5f934f7fdc89a111b5712011","bdp_wmem","Tue Mar 14 2023 20:45:51 GMT-0400 (Eastern Daylight Time)","572079","Match,No Match","","","","","","","null","","<div class='trialBorder'><div class='vertical-center'><img style='vertical-align:center; align:center' src='img/fixation2_sml.jpg'></div><div class='arrayDiv2'><div class='tl'><img class='introPic' src='trustrating_stim/white_mw010.bmp'><br><font color='green'><strong>Share</strong></font></div><div class='tr'><img class='introPic' src='trustrating_stim/white_mw091.bmp'><br><font color='red'><strong>Keep</strong></font></div></div></div>","null","ARRAY","2","trustrating_stim/white_mw010.bmp,trustrating_stim/white_mw091.bmp","1,0","noMatchFace","i","3000","","","","",""
"html-keyboard-response","132","314391","0.0-7.0-3.19","5f934f7fdc89a111b5712011","bdp_wmem","Tue Mar 14 2023 20:45:51 GMT-0400 (Eastern Daylight Time)","572079","Match,No Match","","","","","","","null","","<div class='trialBorder'><div class='vertical-center'><img src='img/fixation2_sml.jpg'</img></div></div>","null","DELAY","","","","","","","","","","",""
"html-keyboard-response","133","315565","0.0-7.0-4.19","5f934f7fdc89a111b5712011","bdp_wmem","Tue Mar 14 2023 20:45:51 GMT-0400 (Eastern Daylight Time)","572079","Match,No Match","","","","","","","1172","","<div class='trialBorder'><div class='targDiv'><div class='tc'><img class='introPic' src='trustrating_stim/white_mw085.bmp'><br><font color='green'><strong>Share</strong></font></div></div><div class='respDiv'><div class='respDivL'>Match<br>(e)</div><div class='respDivR'>No Match<br>(i)</div></div></div>","i","TARGET","2","trustrating_stim/white_mw010.bmp,trustrating_stim/white_mw091.bmp","1,0","noMatchFace","i","3000","trustrating_stim/white_mw085.bmp","green","Share","REAL","1"
"html-keyboard-response","134","316072","0.0-7.0-5.19","5f934f7fdc89a111b5712011","bdp_wmem","Tue Mar 14 2023 20:45:51 GMT-0400 (Eastern Daylight Time)","572079","Match,No Match","","","","","","","null","","<div class='trialBorder'><div class='vertical-center'><img src='img/correct.jpg'></div><div class='respDiv'><div class='respDivL'>Match<br>(e)</div><div class='respDivR'><font style='color:orange'>No Match<br>(i)</font></div></div></div>","null","FEEDBACK","","","","","","","","","","",""
"html-keyboard-response","135","316579","0.0-7.0-1.20","5f934f7fdc89a111b5712011","bdp_wmem","Tue Mar 14 2023 20:45:51 GMT-0400 (Eastern Daylight Time)","572079","Match,No Match","","","","","","","null","","<div class='trialBorder'><div class='vertical-center'><img src='img/fixation2_sml.jpg'</img></div></div>","null","FIX","","","","","","","","","","",""
"html-keyboard-response","136","321091","0.0-7.0-2.20","5f934f7fdc89a111b5712011","bdp_wmem","Tue Mar 14 2023 20:45:51 GMT-0400 (Eastern Daylight Time)","572079","Match,No Match","","","","","","","null","","<div class='trialBorder'><div class='vertical-center'><img style='vertical-align:center; align:center' src='img/fixation2_sml.jpg'></div><div class='arrayDiv3'><div class='tl'><img class='introPic' src='trustrating_stim/white_mw012.bmp'><br><font color='green'><strong>Share</strong></font></div><div class='tc'><img class='introPic' src='trustrating_stim/white_mw003.bmp'><br><font color='green'><strong>Share</strong></font></div><div class='tr'><img class='introPic' src='trustrating_stim/white_mw040.bmp'><br><font color='red'><strong>Keep</strong></font></div></div></div>","null","ARRAY","3","trustrating_stim/white_mw012.bmp,trustrating_stim/white_mw003.bmp,trustrating_stim/white_mw040.bmp","1,1,0","noMatchOutcome","i","4500","","","","",""
"html-keyboard-response","137","325096","0.0-7.0-3.20","5f934f7fdc89a111b5712011","bdp_wmem","Tue Mar 14 2023 20:45:51 GMT-0400 (Eastern Daylight Time)","572079","Match,No Match","","","","","","","null","","<div class='trialBorder'><div class='vertical-center'><img src='img/fixation2_sml.jpg'</img></div></div>","null","DELAY","","","","","","","","","","",""
"html-keyboard-response","138","326017","0.0-7.0-4.20","5f934f7fdc89a111b5712011","bdp_wmem","Tue Mar 14 2023 20:45:51 GMT-0400 (Eastern Daylight Time)","572079","Match,No Match","","","","","","","919","","<div class='trialBorder'><div class='targDiv'><div class='tc'><img class='introPic' src='trustrating_stim/white_mw003.bmp'><br><font color='red'><strong>Keep</strong></font></div></div><div class='respDiv'><div class='respDivL'>Match<br>(e)</div><div class='respDivR'>No Match<br>(i)</div></div></div>","e","TARGET","3","trustrating_stim/white_mw012.bmp,trustrating_stim/white_mw003.bmp,trustrating_stim/white_mw040.bmp","1,1,0","noMatchOutcome","i","4500","trustrating_stim/white_mw003.bmp","red","Keep","REAL","0"
"html-keyboard-response","139","326520","0.0-7.0-5.20","5f934f7fdc89a111b5712011","bdp_wmem","Tue Mar 14 2023 20:45:51 GMT-0400 (Eastern Daylight Time)","572079","Match,No Match","","","","","","","null","","<div class='trialBorder'><div class='vertical-center'><img src='img/error.jpg'></div><div class='respDiv'><div class='respDivL'><font style='color:orange'>Match<br>(e)</font></div><div class='respDivR'>No Match<br>(i)</div></div></div>","null","FEEDBACK","","","","","","","","","","",""
"html-keyboard-response","140","327027","0.0-7.0-1.21","5f934f7fdc89a111b5712011","bdp_wmem","Tue Mar 14 2023 20:45:51 GMT-0400 (Eastern Daylight Time)","572079","Match,No Match","","","","","","","null","","<div class='trialBorder'><div class='vertical-center'><img src='img/fixation2_sml.jpg'</img></div></div>","null","FIX","","","","","","","","","","",""
"html-keyboard-response","141","331539","0.0-7.0-2.21","5f934f7fdc89a111b5712011","bdp_wmem","Tue Mar 14 2023 20:45:51 GMT-0400 (Eastern Daylight Time)","572079","Match,No Match","","","","","","","null","","<div class='trialBorder'><div class='vertical-center'><img style='vertical-align:center; align:center' src='img/fixation2_sml.jpg'></div><div class='arrayDiv3'><div class='tl'><img class='introPic' src='trustrating_stim/white_mw010.bmp'><br><font color='green'><strong>Share</strong></font></div><div class='tc'><img class='introPic' src='trustrating_stim/white_mw092.bmp'><br><font color='green'><strong>Share</strong></font></div><div class='tr'><img class='introPic' src='trustrating_stim/white_mw038.bmp'><br><font color='red'><strong>Keep</strong></font></div></div></div>","null","ARRAY","3","trustrating_stim/white_mw010.bmp,trustrating_stim/white_mw092.bmp,trustrating_stim/white_mw038.bmp","1,1,0","noMatchFace","i","4500","","","","",""
"html-keyboard-response","142","335545","0.0-7.0-3.21","5f934f7fdc89a111b5712011","bdp_wmem","Tue Mar 14 2023 20:45:51 GMT-0400 (Eastern Daylight Time)","572079","Match,No Match","","","","","","","null","","<div class='trialBorder'><div class='vertical-center'><img src='img/fixation2_sml.jpg'</img></div></div>","null","DELAY","","","","","","","","","","",""
"html-keyboard-response","143","336402","0.0-7.0-4.21","5f934f7fdc89a111b5712011","bdp_wmem","Tue Mar 14 2023 20:45:51 GMT-0400 (Eastern Daylight Time)","572079","Match,No Match","","","","","","","856","","<div class='trialBorder'><div class='targDiv'><div class='tc'><img class='introPic' src='trustrating_stim/white_mw003.bmp'><br><font color='green'><strong>Share</strong></font></div></div><div class='respDiv'><div class='respDivL'>Match<br>(e)</div><div class='respDivR'>No Match<br>(i)</div></div></div>","e","TARGET","3","trustrating_stim/white_mw010.bmp,trustrating_stim/white_mw092.bmp,trustrating_stim/white_mw038.bmp","1,1,0","noMatchFace","i","4500","trustrating_stim/white_mw003.bmp","green","Share","REAL","0"
"html-keyboard-response","144","336904","0.0-7.0-5.21","5f934f7fdc89a111b5712011","bdp_wmem","Tue Mar 14 2023 20:45:51 GMT-0400 (Eastern Daylight Time)","572079","Match,No Match","","","","","","","null","","<div class='trialBorder'><div class='vertical-center'><img src='img/error.jpg'></div><div class='respDiv'><div class='respDivL'><font style='color:orange'>Match<br>(e)</font></div><div class='respDivR'>No Match<br>(i)</div></div></div>","null","FEEDBACK","","","","","","","","","","",""
"html-keyboard-response","145","337411","0.0-7.0-1.22","5f934f7fdc89a111b5712011","bdp_wmem","Tue Mar 14 2023 20:45:51 GMT-0400 (Eastern Daylight Time)","572079","Match,No Match","","","","","","","null","","<div class='trialBorder'><div class='vertical-center'><img src='img/fixation2_sml.jpg'</img></div></div>","null","FIX","","","","","","","","","","",""
"html-keyboard-response","146","341923","0.0-7.0-2.22","5f934f7fdc89a111b5712011","bdp_wmem","Tue Mar 14 2023 20:45:51 GMT-0400 (Eastern Daylight Time)","572079","Match,No Match","","","","","","","null","","<div class='trialBorder'><div class='vertical-center'><img style='vertical-align:center; align:center' src='img/fixation2_sml.jpg'></div><div class='arrayDiv3'><div class='tl'><img class='introPic' src='trustrating_stim/white_mw013.bmp'><br><font color='red'><strong>Keep</strong></font></div><div class='tc'><img class='introPic' src='trustrating_stim/white_mw042.bmp'><br><font color='red'><strong>Keep</strong></font></div><div class='tr'><img class='introPic' src='trustrating_stim/white_mw010.bmp'><br><font color='green'><strong>Share</strong></font></div></div></div>","null","ARRAY","3","trustrating_stim/white_mw013.bmp,trustrating_stim/white_mw042.bmp,trustrating_stim/white_mw010.bmp","0,0,1","Match","e","4500","","","","",""
"html-keyboard-response","147","345929","0.0-7.0-3.22","5f934f7fdc89a111b5712011","bdp_wmem","Tue Mar 14 2023 20:45:51 GMT-0400 (Eastern Daylight Time)","572079","Match,No Match","","","","","","","null","","<div class='trialBorder'><div class='vertical-center'><img src='img/fixation2_sml.jpg'</img></div></div>","null","DELAY","","","","","","","","","","",""
"html-keyboard-response","148","347078","0.0-7.0-4.22","5f934f7fdc89a111b5712011","bdp_wmem","Tue Mar 14 2023 20:45:51 GMT-0400 (Eastern Daylight Time)","572079","Match,No Match","","","","","","","1147","","<div class='trialBorder'><div class='targDiv'><div class='tc'><img class='introPic' src='trustrating_stim/white_mw042.bmp'><br><font color='red'><strong>Keep</strong></font></div></div><div class='respDiv'><div class='respDivL'>Match<br>(e)</div><div class='respDivR'>No Match<br>(i)</div></div></div>","e","TARGET","3","trustrating_stim/white_mw013.bmp,trustrating_stim/white_mw042.bmp,trustrating_stim/white_mw010.bmp","0,0,1","Match","e","4500","trustrating_stim/white_mw042.bmp","red","Keep","REAL","1"
"html-keyboard-response","149","347585","0.0-7.0-5.22","5f934f7fdc89a111b5712011","bdp_wmem","Tue Mar 14 2023 20:45:51 GMT-0400 (Eastern Daylight Time)","572079","Match,No Match","","","","","","","null","","<div class='trialBorder'><div class='vertical-center'><img src='img/correct.jpg'></div><div class='respDiv'><div class='respDivL'><font style='color:orange'>Match<br>(e)</font></div><div class='respDivR'>No Match<br>(i)</div></div></div>","null","FEEDBACK","","","","","","","","","","",""
"html-keyboard-response","150","348089","0.0-7.0-1.23","5f934f7fdc89a111b5712011","bdp_wmem","Tue Mar 14 2023 20:45:51 GMT-0400 (Eastern Daylight Time)","572079","Match,No Match","","","","","","","null","","<div class='trialBorder'><div class='vertical-center'><img src='img/fixation2_sml.jpg'</img></div></div>","null","FIX","","","","","","","","","","",""
"html-keyboard-response","151","349593","0.0-7.0-2.23","5f934f7fdc89a111b5712011","bdp_wmem","Tue Mar 14 2023 20:45:51 GMT-0400 (Eastern Daylight Time)","572079","Match,No Match","","","","","","","null","","<div class='trialBorder'><div class='vertical-center'><img style='vertical-align:center; align:center' src='img/fixation2_sml.jpg'></div><div class='arrayDiv1'><div class='tc'><img class='introPic' src='trustrating_stim/white_mw085.bmp'><br><font color='green'><strong>Share</strong></font></div></div></div>","null","ARRAY","1","trustrating_stim/white_mw085.bmp","1","Match","e","1500","","","","",""
"html-keyboard-response","152","353604","0.0-7.0-3.23","5f934f7fdc89a111b5712011","bdp_wmem","Tue Mar 14 2023 20:45:51 GMT-0400 (Eastern Daylight Time)","572079","Match,No Match","","","","","","","null","","<div class='trialBorder'><div class='vertical-center'><img src='img/fixation2_sml.jpg'</img></div></div>","null","DELAY","","","","","","","","","","",""
"html-keyboard-response","153","354753","0.0-7.0-4.23","5f934f7fdc89a111b5712011","bdp_wmem","Tue Mar 14 2023 20:45:51 GMT-0400 (Eastern Daylight Time)","572079","Match,No Match","","","","","","","1147","","<div class='trialBorder'><div class='targDiv'><div class='tc'><img class='introPic' src='trustrating_stim/white_mw085.bmp'><br><font color='green'><strong>Share</strong></font></div></div><div class='respDiv'><div class='respDivL'>Match<br>(e)</div><div class='respDivR'>No Match<br>(i)</div></div></div>","e","TARGET","1","trustrating_stim/white_mw085.bmp","1","Match","e","1500","trustrating_stim/white_mw085.bmp","green","Share","REAL","1"
"html-keyboard-response","154","355257","0.0-7.0-5.23","5f934f7fdc89a111b5712011","bdp_wmem","Tue Mar 14 2023 20:45:51 GMT-0400 (Eastern Daylight Time)","572079","Match,No Match","","","","","","","null","","<div class='trialBorder'><div class='vertical-center'><img src='img/correct.jpg'></div><div class='respDiv'><div class='respDivL'><font style='color:orange'>Match<br>(e)</font></div><div class='respDivR'>No Match<br>(i)</div></div></div>","null","FEEDBACK","","","","","","","","","","",""
"html-keyboard-response","155","355764","0.0-7.0-1.24","5f934f7fdc89a111b5712011","bdp_wmem","Tue Mar 14 2023 20:45:51 GMT-0400 (Eastern Daylight Time)","572079","Match,No Match","","","","","","","null","","<div class='trialBorder'><div class='vertical-center'><img src='img/fixation2_sml.jpg'</img></div></div>","null","FIX","","","","","","","","","","",""
"html-keyboard-response","156","360276","0.0-7.0-2.24","5f934f7fdc89a111b5712011","bdp_wmem","Tue Mar 14 2023 20:45:51 GMT-0400 (Eastern Daylight Time)","572079","Match,No Match","","","","","","","null","","<div class='trialBorder'><div class='vertical-center'><img style='vertical-align:center; align:center' src='img/fixation2_sml.jpg'></div><div class='arrayDiv3'><div class='tl'><img class='introPic' src='trustrating_stim/white_mw010.bmp'><br><font color='red'><strong>Keep</strong></font></div><div class='tc'><img class='introPic' src='trustrating_stim/white_mw040.bmp'><br><font color='green'><strong>Share</strong></font></div><div class='tr'><img class='introPic' src='trustrating_stim/white_mw092.bmp'><br><font color='green'><strong>Share</strong></font></div></div></div>","null","ARRAY","3","trustrating_stim/white_mw010.bmp,trustrating_stim/white_mw040.bmp,trustrating_stim/white_mw092.bmp","0,1,1","noMatchFace","i","4500","","","","",""
"html-keyboard-response","157","364281","0.0-7.0-3.24","5f934f7fdc89a111b5712011","bdp_wmem","Tue Mar 14 2023 20:45:51 GMT-0400 (Eastern Daylight Time)","572079","Match,No Match","","","","","","","null","","<div class='trialBorder'><div class='vertical-center'><img src='img/fixation2_sml.jpg'</img></div></div>","null","DELAY","","","","","","","","","","",""
"html-keyboard-response","158","365202","0.0-7.0-4.24","5f934f7fdc89a111b5712011","bdp_wmem","Tue Mar 14 2023 20:45:51 GMT-0400 (Eastern Daylight Time)","572079","Match,No Match","","","","","","","918","","<div class='trialBorder'><div class='targDiv'><div class='tc'><img class='introPic' src='trustrating_stim/white_mw070.bmp'><br><font color='green'><strong>Share</strong></font></div></div><div class='respDiv'><div class='respDivL'>Match<br>(e)</div><div class='respDivR'>No Match<br>(i)</div></div></div>","i","TARGET","3","trustrating_stim/white_mw010.bmp,trustrating_stim/white_mw040.bmp,trustrating_stim/white_mw092.bmp","0,1,1","noMatchFace","i","4500","trustrating_stim/white_mw070.bmp","green","Share","REAL","1"
"html-keyboard-response","159","365705","0.0-7.0-5.24","5f934f7fdc89a111b5712011","bdp_wmem","Tue Mar 14 2023 20:45:51 GMT-0400 (Eastern Daylight Time)","572079","Match,No Match","","","","","","","null","","<div class='trialBorder'><div class='vertical-center'><img src='img/correct.jpg'></div><div class='respDiv'><div class='respDivL'>Match<br>(e)</div><div class='respDivR'><font style='color:orange'>No Match<br>(i)</font></div></div></div>","null","FEEDBACK","","","","","","","","","","",""
"html-keyboard-response","160","366212","0.0-7.0-1.25","5f934f7fdc89a111b5712011","bdp_wmem","Tue Mar 14 2023 20:45:51 GMT-0400 (Eastern Daylight Time)","572079","Match,No Match","","","","","","","null","","<div class='trialBorder'><div class='vertical-center'><img src='img/fixation2_sml.jpg'</img></div></div>","null","FIX","","","","","","","","","","",""
"html-keyboard-response","161","367721","0.0-7.0-2.25","5f934f7fdc89a111b5712011","bdp_wmem","Tue Mar 14 2023 20:45:51 GMT-0400 (Eastern Daylight Time)","572079","Match,No Match","","","","","","","null","","<div class='trialBorder'><div class='vertical-center'><img style='vertical-align:center; align:center' src='img/fixation2_sml.jpg'></div><div class='arrayDiv1'><div class='tc'><img class='introPic' src='trustrating_stim/white_mw012.bmp'><br><font color='red'><strong>Keep</strong></font></div></div></div>","null","ARRAY","1","trustrating_stim/white_mw012.bmp","0","Match","e","1500","","","","",""
"html-keyboard-response","162","371732","0.0-7.0-3.25","5f934f7fdc89a111b5712011","bdp_wmem","Tue Mar 14 2023 20:45:51 GMT-0400 (Eastern Daylight Time)","572079","Match,No Match","","","","","","","null","","<div class='trialBorder'><div class='vertical-center'><img src='img/fixation2_sml.jpg'</img></div></div>","null","DELAY","","","","","","","","","","",""
"html-keyboard-response","163","372626","0.0-7.0-4.25","5f934f7fdc89a111b5712011","bdp_wmem","Tue Mar 14 2023 20:45:51 GMT-0400 (Eastern Daylight Time)","572079","Match,No Match","","","","","","","892","","<div class='trialBorder'><div class='targDiv'><div class='tc'><img class='introPic' src='trustrating_stim/white_mw012.bmp'><br><font color='red'><strong>Keep</strong></font></div></div><div class='respDiv'><div class='respDivL'>Match<br>(e)</div><div class='respDivR'>No Match<br>(i)</div></div></div>","e","TARGET","1","trustrating_stim/white_mw012.bmp","0","Match","e","1500","trustrating_stim/white_mw012.bmp","red","Keep","REAL","1"
"html-keyboard-response","164","373129","0.0-7.0-5.25","5f934f7fdc89a111b5712011","bdp_wmem","Tue Mar 14 2023 20:45:51 GMT-0400 (Eastern Daylight Time)","572079","Match,No Match","","","","","","","null","","<div class='trialBorder'><div class='vertical-center'><img src='img/correct.jpg'></div><div class='respDiv'><div class='respDivL'><font style='color:orange'>Match<br>(e)</font></div><div class='respDivR'>No Match<br>(i)</div></div></div>","null","FEEDBACK","","","","","","","","","","",""
"html-keyboard-response","165","373636","0.0-7.0-1.26","5f934f7fdc89a111b5712011","bdp_wmem","Tue Mar 14 2023 20:45:51 GMT-0400 (Eastern Daylight Time)","572079","Match,No Match","","","","","","","null","","<div class='trialBorder'><div class='vertical-center'><img src='img/fixation2_sml.jpg'</img></div></div>","null","FIX","","","","","","","","","","",""
"html-keyboard-response","166","375145","0.0-7.0-2.26","5f934f7fdc89a111b5712011","bdp_wmem","Tue Mar 14 2023 20:45:51 GMT-0400 (Eastern Daylight Time)","572079","Match,No Match","","","","","","","null","","<div class='trialBorder'><div class='vertical-center'><img style='vertical-align:center; align:center' src='img/fixation2_sml.jpg'></div><div class='arrayDiv1'><div class='tc'><img class='introPic' src='trustrating_stim/white_mw092.bmp'><br><font color='green'><strong>Share</strong></font></div></div></div>","null","ARRAY","1","trustrating_stim/white_mw092.bmp","1","Match","e","1500","","","","",""
"html-keyboard-response","167","379156","0.0-7.0-3.26","5f934f7fdc89a111b5712011","bdp_wmem","Tue Mar 14 2023 20:45:51 GMT-0400 (Eastern Daylight Time)","572079","Match,No Match","","","","","","","null","","<div class='trialBorder'><div class='vertical-center'><img src='img/fixation2_sml.jpg'</img></div></div>","null","DELAY","","","","","","","","","","",""
"html-keyboard-response","168","379972","0.0-7.0-4.26","5f934f7fdc89a111b5712011","bdp_wmem","Tue Mar 14 2023 20:45:51 GMT-0400 (Eastern Daylight Time)","572079","Match,No Match","","","","","","","813","","<div class='trialBorder'><div class='targDiv'><div class='tc'><img class='introPic' src='trustrating_stim/white_mw092.bmp'><br><font color='green'><strong>Share</strong></font></div></div><div class='respDiv'><div class='respDivL'>Match<br>(e)</div><div class='respDivR'>No Match<br>(i)</div></div></div>","e","TARGET","1","trustrating_stim/white_mw092.bmp","1","Match","e","1500","trustrating_stim/white_mw092.bmp","green","Share","REAL","1"
"html-keyboard-response","169","380474","0.0-7.0-5.26","5f934f7fdc89a111b5712011","bdp_wmem","Tue Mar 14 2023 20:45:51 GMT-0400 (Eastern Daylight Time)","572079","Match,No Match","","","","","","","null","","<div class='trialBorder'><div class='vertical-center'><img src='img/correct.jpg'></div><div class='respDiv'><div class='respDivL'><font style='color:orange'>Match<br>(e)</font></div><div class='respDivR'>No Match<br>(i)</div></div></div>","null","FEEDBACK","","","","","","","","","","",""
"html-keyboard-response","170","380980","0.0-7.0-1.27","5f934f7fdc89a111b5712011","bdp_wmem","Tue Mar 14 2023 20:45:51 GMT-0400 (Eastern Daylight Time)","572079","Match,No Match","","","","","","","null","","<div class='trialBorder'><div class='vertical-center'><img src='img/fixation2_sml.jpg'</img></div></div>","null","FIX","","","","","","","","","","",""
"html-keyboard-response","171","383988","0.0-7.0-2.27","5f934f7fdc89a111b5712011","bdp_wmem","Tue Mar 14 2023 20:45:51 GMT-0400 (Eastern Daylight Time)","572079","Match,No Match","","","","","","","null","","<div class='trialBorder'><div class='vertical-center'><img style='vertical-align:center; align:center' src='img/fixation2_sml.jpg'></div><div class='arrayDiv2'><div class='tl'><img class='introPic' src='trustrating_stim/white_mw040.bmp'><br><font color='green'><strong>Share</strong></font></div><div class='tr'><img class='introPic' src='trustrating_stim/white_mw042.bmp'><br><font color='red'><strong>Keep</strong></font></div></div></div>","null","ARRAY","2","trustrating_stim/white_mw040.bmp,trustrating_stim/white_mw042.bmp","1,0","Match","e","3000","","","","",""
"html-keyboard-response","172","387994","0.0-7.0-3.27","5f934f7fdc89a111b5712011","bdp_wmem","Tue Mar 14 2023 20:45:51 GMT-0400 (Eastern Daylight Time)","572079","Match,No Match","","","","","","","null","","<div class='trialBorder'><div class='vertical-center'><img src='img/fixation2_sml.jpg'</img></div></div>","null","DELAY","","","","","","","","","","",""
"html-keyboard-response","173","389564","0.0-7.0-4.27","5f934f7fdc89a111b5712011","bdp_wmem","Tue Mar 14 2023 20:45:51 GMT-0400 (Eastern Daylight Time)","572079","Match,No Match","","","","","","","1568","","<div class='trialBorder'><div class='targDiv'><div class='tc'><img class='introPic' src='trustrating_stim/white_mw042.bmp'><br><font color='red'><strong>Keep</strong></font></div></div><div class='respDiv'><div class='respDivL'>Match<br>(e)</div><div class='respDivR'>No Match<br>(i)</div></div></div>","e","TARGET","2","trustrating_stim/white_mw040.bmp,trustrating_stim/white_mw042.bmp","1,0","Match","e","3000","trustrating_stim/white_mw042.bmp","red","Keep","REAL","1"
"html-keyboard-response","174","390069","0.0-7.0-5.27","5f934f7fdc89a111b5712011","bdp_wmem","Tue Mar 14 2023 20:45:51 GMT-0400 (Eastern Daylight Time)","572079","Match,No Match","","","","","","","null","","<div class='trialBorder'><div class='vertical-center'><img src='img/correct.jpg'></div><div class='respDiv'><div class='respDivL'><font style='color:orange'>Match<br>(e)</font></div><div class='respDivR'>No Match<br>(i)</div></div></div>","null","FEEDBACK","","","","","","","","","","",""
"html-keyboard-response","175","390580","0.0-7.0-1.28","5f934f7fdc89a111b5712011","bdp_wmem","Tue Mar 14 2023 20:45:51 GMT-0400 (Eastern Daylight Time)","572079","Match,No Match","","","","","","","null","","<div class='trialBorder'><div class='vertical-center'><img src='img/fixation2_sml.jpg'</img></div></div>","null","FIX","","","","","","","","","","",""
"html-keyboard-response","176","393589","0.0-7.0-2.28","5f934f7fdc89a111b5712011","bdp_wmem","Tue Mar 14 2023 20:45:51 GMT-0400 (Eastern Daylight Time)","572079","Match,No Match","","","","","","","null","","<div class='trialBorder'><div class='vertical-center'><img style='vertical-align:center; align:center' src='img/fixation2_sml.jpg'></div><div class='arrayDiv2'><div class='tl'><img class='introPic' src='trustrating_stim/white_mw085.bmp'><br><font color='green'><strong>Share</strong></font></div><div class='tr'><img class='introPic' src='trustrating_stim/white_mw010.bmp'><br><font color='red'><strong>Keep</strong></font></div></div></div>","null","ARRAY","2","trustrating_stim/white_mw085.bmp,trustrating_stim/white_mw010.bmp","1,0","noMatchOutcome","i","3000","","","","",""
"html-keyboard-response","177","397594","0.0-7.0-3.28","5f934f7fdc89a111b5712011","bdp_wmem","Tue Mar 14 2023 20:45:51 GMT-0400 (Eastern Daylight Time)","572079","Match,No Match","","","","","","","null","","<div class='trialBorder'><div class='vertical-center'><img src='img/fixation2_sml.jpg'</img></div></div>","null","DELAY","","","","","","","","","","",""
"html-keyboard-response","178","398684","0.0-7.0-4.28","5f934f7fdc89a111b5712011","bdp_wmem","Tue Mar 14 2023 20:45:51 GMT-0400 (Eastern Daylight Time)","572079","Match,No Match","","","","","","","1088","","<div class='trialBorder'><div class='targDiv'><div class='tc'><img class='introPic' src='trustrating_stim/white_mw085.bmp'><br><font color='red'><strong>Keep</strong></font></div></div><div class='respDiv'><div class='respDivL'>Match<br>(e)</div><div class='respDivR'>No Match<br>(i)</div></div></div>","i","TARGET","2","trustrating_stim/white_mw085.bmp,trustrating_stim/white_mw010.bmp","1,0","noMatchOutcome","i","3000","trustrating_stim/white_mw085.bmp","red","Keep","REAL","1"
"html-keyboard-response","179","399189","0.0-7.0-5.28","5f934f7fdc89a111b5712011","bdp_wmem","Tue Mar 14 2023 20:45:51 GMT-0400 (Eastern Daylight Time)","572079","Match,No Match","","","","","","","null","","<div class='trialBorder'><div class='vertical-center'><img src='img/correct.jpg'></div><div class='respDiv'><div class='respDivL'>Match<br>(e)</div><div class='respDivR'><font style='color:orange'>No Match<br>(i)</font></div></div></div>","null","FEEDBACK","","","","","","","","","","",""
"html-keyboard-response","180","399701","0.0-7.0-1.29","5f934f7fdc89a111b5712011","bdp_wmem","Tue Mar 14 2023 20:45:51 GMT-0400 (Eastern Daylight Time)","572079","Match,No Match","","","","","","","null","","<div class='trialBorder'><div class='vertical-center'><img src='img/fixation2_sml.jpg'</img></div></div>","null","FIX","","","","","","","","","","",""
"html-keyboard-response","181","401210","0.0-7.0-2.29","5f934f7fdc89a111b5712011","bdp_wmem","Tue Mar 14 2023 20:45:51 GMT-0400 (Eastern Daylight Time)","572079","Match,No Match","","","","","","","null","","<div class='trialBorder'><div class='vertical-center'><img style='vertical-align:center; align:center' src='img/fixation2_sml.jpg'></div><div class='arrayDiv1'><div class='tc'><img class='introPic' src='trustrating_stim/white_mw085.bmp'><br><font color='green'><strong>Share</strong></font></div></div></div>","null","ARRAY","1","trustrating_stim/white_mw085.bmp","1","Match","e","1500","","","","",""
"html-keyboard-response","182","405221","0.0-7.0-3.29","5f934f7fdc89a111b5712011","bdp_wmem","Tue Mar 14 2023 20:45:51 GMT-0400 (Eastern Daylight Time)","572079","Match,No Match","","","","","","","null","","<div class='trialBorder'><div class='vertical-center'><img src='img/fixation2_sml.jpg'</img></div></div>","null","DELAY","","","","","","","","","","",""
"html-keyboard-response","183","405867","0.0-7.0-4.29","5f934f7fdc89a111b5712011","bdp_wmem","Tue Mar 14 2023 20:45:51 GMT-0400 (Eastern Daylight Time)","572079","Match,No Match","","","","","","","645","","<div class='trialBorder'><div class='targDiv'><div class='tc'><img class='introPic' src='trustrating_stim/white_mw085.bmp'><br><font color='green'><strong>Share</strong></font></div></div><div class='respDiv'><div class='respDivL'>Match<br>(e)</div><div class='respDivR'>No Match<br>(i)</div></div></div>","e","TARGET","1","trustrating_stim/white_mw085.bmp","1","Match","e","1500","trustrating_stim/white_mw085.bmp","green","Share","REAL","1"
"html-keyboard-response","184","406373","0.0-7.0-5.29","5f934f7fdc89a111b5712011","bdp_wmem","Tue Mar 14 2023 20:45:51 GMT-0400 (Eastern Daylight Time)","572079","Match,No Match","","","","","","","null","","<div class='trialBorder'><div class='vertical-center'><img src='img/correct.jpg'></div><div class='respDiv'><div class='respDivL'><font style='color:orange'>Match<br>(e)</font></div><div class='respDivR'>No Match<br>(i)</div></div></div>","null","FEEDBACK","","","","","","","","","","",""
"html-keyboard-response","185","406884","0.0-7.0-1.30","5f934f7fdc89a111b5712011","bdp_wmem","Tue Mar 14 2023 20:45:51 GMT-0400 (Eastern Daylight Time)","572079","Match,No Match","","","","","","","null","","<div class='trialBorder'><div class='vertical-center'><img src='img/fixation2_sml.jpg'</img></div></div>","null","FIX","","","","","","","","","","",""
