"trial_type","trial_index","time_elapsed","internal_node_id","subject_id","task","startTime","totalTime","labels","view_history","rt","event","trial","time","trialtype","success","stimulus","key_press","stimType","arraySize","arrayFaces","arrayOutcomes","matchType","corrResp","arrayDur","targFace","targCol","targOutcome","trialType","corr"
"pavlovia","0","2","0.0-0.0","60fcf7102d7c9907d95a0920","bdp_wmem","Sat Apr 08 2023 10:08:42 GMT-0700 (PDT)","549764","Match,No Match","","","","","","","","","","","","","","","","","","","","",""
"instructions","1","2579","0.0-1.0","60fcf7102d7c9907d95a0920","bdp_wmem","Sat Apr 08 2023 10:08:42 GMT-0700 (PDT)","549764","Match,No Match","[{""page_index"":0,""viewing_time"":2577}]","2577","","","","","","","","","","","","","","","","","","",""
"","","","","60fcf7102d7c9907d95a0920","bdp_wmem","Sat Apr 08 2023 10:08:42 GMT-0700 (PDT)","549764","Match,No Match","","","fullscreenenter","2","4243","fullscreenenter","","","","","","","","","","","","","","",""
"fullscreen","2","5205","0.0-2.0","60fcf7102d7c9907d95a0920","bdp_wmem","Sat Apr 08 2023 10:08:42 GMT-0700 (PDT)","549764","Match,No Match","","","","","","","true","","","","","","","","","","","","","",""
"instructions","3","72362","0.0-4.0","60fcf7102d7c9907d95a0920","bdp_wmem","Sat Apr 08 2023 10:08:42 GMT-0700 (PDT)","549764","Match,No Match","[{""page_index"":0,""viewing_time"":22699},{""page_index"":1,""viewing_time"":20877},{""page_index"":2,""viewing_time"":13272},{""page_index"":3,""viewing_time"":2887},{""page_index"":4,""viewing_time"":7419}]","67155","","","","","","","","","","","","","","","","","","",""
"html-keyboard-response","4","72866","0.0-5.0-1.0","60fcf7102d7c9907d95a0920","bdp_wmem","Sat Apr 08 2023 10:08:42 GMT-0700 (PDT)","549764","Match,No Match","","null","","","","","","<div class='trialBorder'><div class='vertical-center'><img src='img/fixation2_sml.jpg'</img></div></div>","null","FIX","","","","","","","","","","",""
"html-keyboard-response","5","75870","0.0-5.0-2.0","60fcf7102d7c9907d95a0920","bdp_wmem","Sat Apr 08 2023 10:08:42 GMT-0700 (PDT)","549764","Match,No Match","","null","","","","","","<div class='trialBorder'><div class='vertical-center'><img style='vertical-align:center; align:center' src='img/fixation2_sml.jpg'></div><div class='arrayDiv2'><div class='tl'><img class='introPic' src='trustrating_stim/white_mw038.bmp'><br><font color='red'><strong>Keep</strong></font></div><div class='tr'><img class='introPic' src='trustrating_stim/white_mw092.bmp'><br><font color='green'><strong>Share</strong></font></div></div></div>","null","ARRAY","2","trustrating_stim/white_mw038.bmp,trustrating_stim/white_mw092.bmp","0,1","Match","e","3000","","","","",""
"html-keyboard-response","6","79872","0.0-5.0-3.0","60fcf7102d7c9907d95a0920","bdp_wmem","Sat Apr 08 2023 10:08:42 GMT-0700 (PDT)","549764","Match,No Match","","null","","","","","","<div class='trialBorder'><div class='vertical-center'><img src='img/fixation2_sml.jpg'</img></div></div>","null","DELAY","","","","","","","","","","",""
"html-keyboard-response","7","81441","0.0-5.0-4.0","60fcf7102d7c9907d95a0920","bdp_wmem","Sat Apr 08 2023 10:08:42 GMT-0700 (PDT)","549764","Match,No Match","","1567","","","","","","<div class='trialBorder'><div class='targDiv'><div class='tc'><img class='introPic' src='trustrating_stim/white_mw038.bmp'><br><font color='red'><strong>Keep</strong></font></div></div><div class='respDiv'><div class='respDivL'>Match<br>(e)</div><div class='respDivR'>No Match<br>(i)</div></div></div>","e","TARGET","2","trustrating_stim/white_mw038.bmp,trustrating_stim/white_mw092.bmp","0,1","Match","e","3000","trustrating_stim/white_mw038.bmp","red","Keep","PRACTICE","1"
"html-keyboard-response","8","81943","0.0-5.0-5.0","60fcf7102d7c9907d95a0920","bdp_wmem","Sat Apr 08 2023 10:08:42 GMT-0700 (PDT)","549764","Match,No Match","","null","","","","","","<div class='trialBorder'><div class='vertical-center'><img src='img/correct.jpg'></div><div class='respDiv'><div class='respDivL'><font style='color:orange'>Match<br>(e)</font></div><div class='respDivR'>No Match<br>(i)</div></div></div>","null","FEEDBACK","","","","","","","","","","",""
"html-keyboard-response","9","82445","0.0-5.0-1.1","60fcf7102d7c9907d95a0920","bdp_wmem","Sat Apr 08 2023 10:08:42 GMT-0700 (PDT)","549764","Match,No Match","","null","","","","","","<div class='trialBorder'><div class='vertical-center'><img src='img/fixation2_sml.jpg'</img></div></div>","null","FIX","","","","","","","","","","",""
"html-keyboard-response","10","85448","0.0-5.0-2.1","60fcf7102d7c9907d95a0920","bdp_wmem","Sat Apr 08 2023 10:08:42 GMT-0700 (PDT)","549764","Match,No Match","","null","","","","","","<div class='trialBorder'><div class='vertical-center'><img style='vertical-align:center; align:center' src='img/fixation2_sml.jpg'></div><div class='arrayDiv2'><div class='tl'><img class='introPic' src='trustrating_stim/white_mw012.bmp'><br><font color='green'><strong>Share</strong></font></div><div class='tr'><img class='introPic' src='trustrating_stim/white_mw091.bmp'><br><font color='red'><strong>Keep</strong></font></div></div></div>","null","ARRAY","2","trustrating_stim/white_mw012.bmp,trustrating_stim/white_mw091.bmp","1,0","noMatchFace","i","3000","","","","",""
"html-keyboard-response","11","89450","0.0-5.0-3.1","60fcf7102d7c9907d95a0920","bdp_wmem","Sat Apr 08 2023 10:08:42 GMT-0700 (PDT)","549764","Match,No Match","","null","","","","","","<div class='trialBorder'><div class='vertical-center'><img src='img/fixation2_sml.jpg'</img></div></div>","null","DELAY","","","","","","","","","","",""
"html-keyboard-response","12","90947","0.0-5.0-4.1","60fcf7102d7c9907d95a0920","bdp_wmem","Sat Apr 08 2023 10:08:42 GMT-0700 (PDT)","549764","Match,No Match","","1496","","","","","","<div class='trialBorder'><div class='targDiv'><div class='tc'><img class='introPic' src='trustrating_stim/white_mw010.bmp'><br><font color='red'><strong>Keep</strong></font></div></div><div class='respDiv'><div class='respDivL'>Match<br>(e)</div><div class='respDivR'>No Match<br>(i)</div></div></div>","i","TARGET","2","trustrating_stim/white_mw012.bmp,trustrating_stim/white_mw091.bmp","1,0","noMatchFace","i","3000","trustrating_stim/white_mw010.bmp","red","Keep","PRACTICE","1"
"html-keyboard-response","13","91449","0.0-5.0-5.1","60fcf7102d7c9907d95a0920","bdp_wmem","Sat Apr 08 2023 10:08:42 GMT-0700 (PDT)","549764","Match,No Match","","null","","","","","","<div class='trialBorder'><div class='vertical-center'><img src='img/correct.jpg'></div><div class='respDiv'><div class='respDivL'>Match<br>(e)</div><div class='respDivR'><font style='color:orange'>No Match<br>(i)</font></div></div></div>","null","FEEDBACK","","","","","","","","","","",""
"html-keyboard-response","14","91952","0.0-5.0-1.2","60fcf7102d7c9907d95a0920","bdp_wmem","Sat Apr 08 2023 10:08:42 GMT-0700 (PDT)","549764","Match,No Match","","null","","","","","","<div class='trialBorder'><div class='vertical-center'><img src='img/fixation2_sml.jpg'</img></div></div>","null","FIX","","","","","","","","","","",""
"html-keyboard-response","15","93454","0.0-5.0-2.2","60fcf7102d7c9907d95a0920","bdp_wmem","Sat Apr 08 2023 10:08:42 GMT-0700 (PDT)","549764","Match,No Match","","null","","","","","","<div class='trialBorder'><div class='vertical-center'><img style='vertical-align:center; align:center' src='img/fixation2_sml.jpg'></div><div class='arrayDiv1'><div class='tc'><img class='introPic' src='trustrating_stim/white_mw040.bmp'><br><font color='green'><strong>Share</strong></font></div></div></div>","null","ARRAY","1","trustrating_stim/white_mw040.bmp","1","Match","e","1500","","","","",""
"html-keyboard-response","16","97456","0.0-5.0-3.2","60fcf7102d7c9907d95a0920","bdp_wmem","Sat Apr 08 2023 10:08:42 GMT-0700 (PDT)","549764","Match,No Match","","null","","","","","","<div class='trialBorder'><div class='vertical-center'><img src='img/fixation2_sml.jpg'</img></div></div>","null","DELAY","","","","","","","","","","",""
"html-keyboard-response","17","98370","0.0-5.0-4.2","60fcf7102d7c9907d95a0920","bdp_wmem","Sat Apr 08 2023 10:08:42 GMT-0700 (PDT)","549764","Match,No Match","","912","","","","","","<div class='trialBorder'><div class='targDiv'><div class='tc'><img class='introPic' src='trustrating_stim/white_mw040.bmp'><br><font color='green'><strong>Share</strong></font></div></div><div class='respDiv'><div class='respDivL'>Match<br>(e)</div><div class='respDivR'>No Match<br>(i)</div></div></div>","e","TARGET","1","trustrating_stim/white_mw040.bmp","1","Match","e","1500","trustrating_stim/white_mw040.bmp","green","Share","PRACTICE","1"
"html-keyboard-response","18","98873","0.0-5.0-5.2","60fcf7102d7c9907d95a0920","bdp_wmem","Sat Apr 08 2023 10:08:42 GMT-0700 (PDT)","549764","Match,No Match","","null","","","","","","<div class='trialBorder'><div class='vertical-center'><img src='img/correct.jpg'></div><div class='respDiv'><div class='respDivL'><font style='color:orange'>Match<br>(e)</font></div><div class='respDivR'>No Match<br>(i)</div></div></div>","null","FEEDBACK","","","","","","","","","","",""
"html-keyboard-response","19","99375","0.0-5.0-1.3","60fcf7102d7c9907d95a0920","bdp_wmem","Sat Apr 08 2023 10:08:42 GMT-0700 (PDT)","549764","Match,No Match","","null","","","","","","<div class='trialBorder'><div class='vertical-center'><img src='img/fixation2_sml.jpg'</img></div></div>","null","FIX","","","","","","","","","","",""
"html-keyboard-response","20","100877","0.0-5.0-2.3","60fcf7102d7c9907d95a0920","bdp_wmem","Sat Apr 08 2023 10:08:42 GMT-0700 (PDT)","549764","Match,No Match","","null","","","","","","<div class='trialBorder'><div class='vertical-center'><img style='vertical-align:center; align:center' src='img/fixation2_sml.jpg'></div><div class='arrayDiv1'><div class='tc'><img class='introPic' src='trustrating_stim/white_mw085.bmp'><br><font color='red'><strong>Keep</strong></font></div></div></div>","null","ARRAY","1","trustrating_stim/white_mw085.bmp","0","noMatchFace","i","1500","","","","",""
"html-keyboard-response","21","104880","0.0-5.0-3.3","60fcf7102d7c9907d95a0920","bdp_wmem","Sat Apr 08 2023 10:08:42 GMT-0700 (PDT)","549764","Match,No Match","","null","","","","","","<div class='trialBorder'><div class='vertical-center'><img src='img/fixation2_sml.jpg'</img></div></div>","null","DELAY","","","","","","","","","","",""
"html-keyboard-response","22","105794","0.0-5.0-4.3","60fcf7102d7c9907d95a0920","bdp_wmem","Sat Apr 08 2023 10:08:42 GMT-0700 (PDT)","549764","Match,No Match","","910","","","","","","<div class='trialBorder'><div class='targDiv'><div class='tc'><img class='introPic' src='trustrating_stim/white_mw078.bmp'><br><font color='red'><strong>Keep</strong></font></div></div><div class='respDiv'><div class='respDivL'>Match<br>(e)</div><div class='respDivR'>No Match<br>(i)</div></div></div>","i","TARGET","1","trustrating_stim/white_mw085.bmp","0","noMatchFace","i","1500","trustrating_stim/white_mw078.bmp","red","Keep","PRACTICE","1"
"html-keyboard-response","23","106296","0.0-5.0-5.3","60fcf7102d7c9907d95a0920","bdp_wmem","Sat Apr 08 2023 10:08:42 GMT-0700 (PDT)","549764","Match,No Match","","null","","","","","","<div class='trialBorder'><div class='vertical-center'><img src='img/correct.jpg'></div><div class='respDiv'><div class='respDivL'>Match<br>(e)</div><div class='respDivR'><font style='color:orange'>No Match<br>(i)</font></div></div></div>","null","FEEDBACK","","","","","","","","","","",""
"html-keyboard-response","24","106798","0.0-5.0-1.4","60fcf7102d7c9907d95a0920","bdp_wmem","Sat Apr 08 2023 10:08:42 GMT-0700 (PDT)","549764","Match,No Match","","null","","","","","","<div class='trialBorder'><div class='vertical-center'><img src='img/fixation2_sml.jpg'</img></div></div>","null","FIX","","","","","","","","","","",""
"html-keyboard-response","25","111301","0.0-5.0-2.4","60fcf7102d7c9907d95a0920","bdp_wmem","Sat Apr 08 2023 10:08:42 GMT-0700 (PDT)","549764","Match,No Match","","null","","","","","","<div class='trialBorder'><div class='vertical-center'><img style='vertical-align:center; align:center' src='img/fixation2_sml.jpg'></div><div class='arrayDiv3'><div class='tl'><img class='introPic' src='trustrating_stim/white_mw038.bmp'><br><font color='green'><strong>Share</strong></font></div><div class='tc'><img class='introPic' src='trustrating_stim/white_mw012.bmp'><br><font color='green'><strong>Share</strong></font></div><div class='tr'><img class='introPic' src='trustrating_stim/white_mw091.bmp'><br><font color='red'><strong>Keep</strong></font></div></div></div>","null","ARRAY","3","trustrating_stim/white_mw038.bmp,trustrating_stim/white_mw012.bmp,trustrating_stim/white_mw091.bmp","1,1,0","Match","e","4500","","","","",""
"html-keyboard-response","26","115303","0.0-5.0-3.4","60fcf7102d7c9907d95a0920","bdp_wmem","Sat Apr 08 2023 10:08:42 GMT-0700 (PDT)","549764","Match,No Match","","null","","","","","","<div class='trialBorder'><div class='vertical-center'><img src='img/fixation2_sml.jpg'</img></div></div>","null","DELAY","","","","","","","","","","",""
"html-keyboard-response","27","116185","0.0-5.0-4.4","60fcf7102d7c9907d95a0920","bdp_wmem","Sat Apr 08 2023 10:08:42 GMT-0700 (PDT)","549764","Match,No Match","","880","","","","","","<div class='trialBorder'><div class='targDiv'><div class='tc'><img class='introPic' src='trustrating_stim/white_mw038.bmp'><br><font color='green'><strong>Share</strong></font></div></div><div class='respDiv'><div class='respDivL'>Match<br>(e)</div><div class='respDivR'>No Match<br>(i)</div></div></div>","e","TARGET","3","trustrating_stim/white_mw038.bmp,trustrating_stim/white_mw012.bmp,trustrating_stim/white_mw091.bmp","1,1,0","Match","e","4500","trustrating_stim/white_mw038.bmp","green","Share","PRACTICE","1"
"html-keyboard-response","28","116687","0.0-5.0-5.4","60fcf7102d7c9907d95a0920","bdp_wmem","Sat Apr 08 2023 10:08:42 GMT-0700 (PDT)","549764","Match,No Match","","null","","","","","","<div class='trialBorder'><div class='vertical-center'><img src='img/correct.jpg'></div><div class='respDiv'><div class='respDivL'><font style='color:orange'>Match<br>(e)</font></div><div class='respDivR'>No Match<br>(i)</div></div></div>","null","FEEDBACK","","","","","","","","","","",""
"html-keyboard-response","29","117190","0.0-5.0-1.5","60fcf7102d7c9907d95a0920","bdp_wmem","Sat Apr 08 2023 10:08:42 GMT-0700 (PDT)","549764","Match,No Match","","null","","","","","","<div class='trialBorder'><div class='vertical-center'><img src='img/fixation2_sml.jpg'</img></div></div>","null","FIX","","","","","","","","","","",""
"html-keyboard-response","30","121692","0.0-5.0-2.5","60fcf7102d7c9907d95a0920","bdp_wmem","Sat Apr 08 2023 10:08:42 GMT-0700 (PDT)","549764","Match,No Match","","null","","","","","","<div class='trialBorder'><div class='vertical-center'><img style='vertical-align:center; align:center' src='img/fixation2_sml.jpg'></div><div class='arrayDiv3'><div class='tl'><img class='introPic' src='trustrating_stim/white_mw010.bmp'><br><font color='red'><strong>Keep</strong></font></div><div class='tc'><img class='introPic' src='trustrating_stim/white_mw038.bmp'><br><font color='green'><strong>Share</strong></font></div><div class='tr'><img class='introPic' src='trustrating_stim/white_mw092.bmp'><br><font color='green'><strong>Share</strong></font></div></div></div>","null","ARRAY","3","trustrating_stim/white_mw010.bmp,trustrating_stim/white_mw038.bmp,trustrating_stim/white_mw092.bmp","0,1,1","noMatchOutcome","i","4500","","","","",""
"html-keyboard-response","31","125695","0.0-5.0-3.5","60fcf7102d7c9907d95a0920","bdp_wmem","Sat Apr 08 2023 10:08:42 GMT-0700 (PDT)","549764","Match,No Match","","null","","","","","","<div class='trialBorder'><div class='vertical-center'><img src='img/fixation2_sml.jpg'</img></div></div>","null","DELAY","","","","","","","","","","",""
"html-keyboard-response","32","126884","0.0-5.0-4.5","60fcf7102d7c9907d95a0920","bdp_wmem","Sat Apr 08 2023 10:08:42 GMT-0700 (PDT)","549764","Match,No Match","","1186","","","","","","<div class='trialBorder'><div class='targDiv'><div class='tc'><img class='introPic' src='trustrating_stim/white_mw092.bmp'><br><font color='red'><strong>Keep</strong></font></div></div><div class='respDiv'><div class='respDivL'>Match<br>(e)</div><div class='respDivR'>No Match<br>(i)</div></div></div>","i","TARGET","3","trustrating_stim/white_mw010.bmp,trustrating_stim/white_mw038.bmp,trustrating_stim/white_mw092.bmp","0,1,1","noMatchOutcome","i","4500","trustrating_stim/white_mw092.bmp","red","Keep","PRACTICE","1"
"html-keyboard-response","33","127387","0.0-5.0-5.5","60fcf7102d7c9907d95a0920","bdp_wmem","Sat Apr 08 2023 10:08:42 GMT-0700 (PDT)","549764","Match,No Match","","null","","","","","","<div class='trialBorder'><div class='vertical-center'><img src='img/correct.jpg'></div><div class='respDiv'><div class='respDivL'>Match<br>(e)</div><div class='respDivR'><font style='color:orange'>No Match<br>(i)</font></div></div></div>","null","FEEDBACK","","","","","","","","","","",""
"instructions","34","130412","0.0-6.0","60fcf7102d7c9907d95a0920","bdp_wmem","Sat Apr 08 2023 10:08:42 GMT-0700 (PDT)","549764","Match,No Match","[{""page_index"":0,""viewing_time"":3024}]","3024","","","","","","","","","","","","","","","","","","",""
"html-keyboard-response","35","130915","0.0-7.0-1.0","60fcf7102d7c9907d95a0920","bdp_wmem","Sat Apr 08 2023 10:08:42 GMT-0700 (PDT)","549764","Match,No Match","","null","","","","","","<div class='trialBorder'><div class='vertical-center'><img src='img/fixation2_sml.jpg'</img></div></div>","null","FIX","","","","","","","","","","",""
"html-keyboard-response","36","132416","0.0-7.0-2.0","60fcf7102d7c9907d95a0920","bdp_wmem","Sat Apr 08 2023 10:08:42 GMT-0700 (PDT)","549764","Match,No Match","","null","","","","","","<div class='trialBorder'><div class='vertical-center'><img style='vertical-align:center; align:center' src='img/fixation2_sml.jpg'></div><div class='arrayDiv1'><div class='tc'><img class='introPic' src='trustrating_stim/white_mw040.bmp'><br><font color='green'><strong>Share</strong></font></div></div></div>","null","ARRAY","1","trustrating_stim/white_mw040.bmp","1","Match","e","1500","","","","",""
"html-keyboard-response","37","136418","0.0-7.0-3.0","60fcf7102d7c9907d95a0920","bdp_wmem","Sat Apr 08 2023 10:08:42 GMT-0700 (PDT)","549764","Match,No Match","","null","","","","","","<div class='trialBorder'><div class='vertical-center'><img src='img/fixation2_sml.jpg'</img></div></div>","null","DELAY","","","","","","","","","","",""
"html-keyboard-response","38","136966","0.0-7.0-4.0","60fcf7102d7c9907d95a0920","bdp_wmem","Sat Apr 08 2023 10:08:42 GMT-0700 (PDT)","549764","Match,No Match","","546","","","","","","<div class='trialBorder'><div class='targDiv'><div class='tc'><img class='introPic' src='trustrating_stim/white_mw040.bmp'><br><font color='green'><strong>Share</strong></font></div></div><div class='respDiv'><div class='respDivL'>Match<br>(e)</div><div class='respDivR'>No Match<br>(i)</div></div></div>","e","TARGET","1","trustrating_stim/white_mw040.bmp","1","Match","e","1500","trustrating_stim/white_mw040.bmp","green","Share","REAL","1"
"html-keyboard-response","39","137468","0.0-7.0-5.0","60fcf7102d7c9907d95a0920","bdp_wmem","Sat Apr 08 2023 10:08:42 GMT-0700 (PDT)","549764","Match,No Match","","null","","","","","","<div class='trialBorder'><div class='vertical-center'><img src='img/correct.jpg'></div><div class='respDiv'><div class='respDivL'><font style='color:orange'>Match<br>(e)</font></div><div class='respDivR'>No Match<br>(i)</div></div></div>","null","FEEDBACK","","","","","","","","","","",""
"html-keyboard-response","40","137971","0.0-7.0-1.1","60fcf7102d7c9907d95a0920","bdp_wmem","Sat Apr 08 2023 10:08:42 GMT-0700 (PDT)","549764","Match,No Match","","null","","","","","","<div class='trialBorder'><div class='vertical-center'><img src='img/fixation2_sml.jpg'</img></div></div>","null","FIX","","","","","","","","","","",""
"html-keyboard-response","41","142473","0.0-7.0-2.1","60fcf7102d7c9907d95a0920","bdp_wmem","Sat Apr 08 2023 10:08:42 GMT-0700 (PDT)","549764","Match,No Match","","null","","","","","","<div class='trialBorder'><div class='vertical-center'><img style='vertical-align:center; align:center' src='img/fixation2_sml.jpg'></div><div class='arrayDiv3'><div class='tl'><img class='introPic' src='trustrating_stim/white_mw013.bmp'><br><font color='red'><strong>Keep</strong></font></div><div class='tc'><img class='introPic' src='trustrating_stim/white_mw078.bmp'><br><font color='green'><strong>Share</strong></font></div><div class='tr'><img class='introPic' src='trustrating_stim/white_mw038.bmp'><br><font color='red'><strong>Keep</strong></font></div></div></div>","null","ARRAY","3","trustrating_stim/white_mw013.bmp,trustrating_stim/white_mw078.bmp,trustrating_stim/white_mw038.bmp","0,1,0","Match","e","4500","","","","",""
"html-keyboard-response","42","146475","0.0-7.0-3.1","60fcf7102d7c9907d95a0920","bdp_wmem","Sat Apr 08 2023 10:08:42 GMT-0700 (PDT)","549764","Match,No Match","","null","","","","","","<div class='trialBorder'><div class='vertical-center'><img src='img/fixation2_sml.jpg'</img></div></div>","null","DELAY","","","","","","","","","","",""
"html-keyboard-response","43","147542","0.0-7.0-4.1","60fcf7102d7c9907d95a0920","bdp_wmem","Sat Apr 08 2023 10:08:42 GMT-0700 (PDT)","549764","Match,No Match","","1066","","","","","","<div class='trialBorder'><div class='targDiv'><div class='tc'><img class='introPic' src='trustrating_stim/white_mw013.bmp'><br><font color='red'><strong>Keep</strong></font></div></div><div class='respDiv'><div class='respDivL'>Match<br>(e)</div><div class='respDivR'>No Match<br>(i)</div></div></div>","i","TARGET","3","trustrating_stim/white_mw013.bmp,trustrating_stim/white_mw078.bmp,trustrating_stim/white_mw038.bmp","0,1,0","Match","e","4500","trustrating_stim/white_mw013.bmp","red","Keep","REAL","0"
"html-keyboard-response","44","148044","0.0-7.0-5.1","60fcf7102d7c9907d95a0920","bdp_wmem","Sat Apr 08 2023 10:08:42 GMT-0700 (PDT)","549764","Match,No Match","","null","","","","","","<div class='trialBorder'><div class='vertical-center'><img src='img/error.jpg'></div><div class='respDiv'><div class='respDivL'>Match<br>(e)</div><div class='respDivR'><font style='color:orange'>No Match<br>(i)</font></div></div></div>","null","FEEDBACK","","","","","","","","","","",""
"html-keyboard-response","45","148546","0.0-7.0-1.2","60fcf7102d7c9907d95a0920","bdp_wmem","Sat Apr 08 2023 10:08:42 GMT-0700 (PDT)","549764","Match,No Match","","null","","","","","","<div class='trialBorder'><div class='vertical-center'><img src='img/fixation2_sml.jpg'</img></div></div>","null","FIX","","","","","","","","","","",""
"html-keyboard-response","46","153048","0.0-7.0-2.2","60fcf7102d7c9907d95a0920","bdp_wmem","Sat Apr 08 2023 10:08:42 GMT-0700 (PDT)","549764","Match,No Match","","null","","","","","","<div class='trialBorder'><div class='vertical-center'><img style='vertical-align:center; align:center' src='img/fixation2_sml.jpg'></div><div class='arrayDiv3'><div class='tl'><img class='introPic' src='trustrating_stim/white_mw038.bmp'><br><font color='green'><strong>Share</strong></font></div><div class='tc'><img class='introPic' src='trustrating_stim/white_mw091.bmp'><br><font color='green'><strong>Share</strong></font></div><div class='tr'><img class='introPic' src='trustrating_stim/white_mw010.bmp'><br><font color='red'><strong>Keep</strong></font></div></div></div>","null","ARRAY","3","trustrating_stim/white_mw038.bmp,trustrating_stim/white_mw091.bmp,trustrating_stim/white_mw010.bmp","1,1,0","Match","e","4500","","","","",""
"html-keyboard-response","47","157049","0.0-7.0-3.2","60fcf7102d7c9907d95a0920","bdp_wmem","Sat Apr 08 2023 10:08:42 GMT-0700 (PDT)","549764","Match,No Match","","null","","","","","","<div class='trialBorder'><div class='vertical-center'><img src='img/fixation2_sml.jpg'</img></div></div>","null","DELAY","","","","","","","","","","",""
"html-keyboard-response","48","157711","0.0-7.0-4.2","60fcf7102d7c9907d95a0920","bdp_wmem","Sat Apr 08 2023 10:08:42 GMT-0700 (PDT)","549764","Match,No Match","","659","","","","","","<div class='trialBorder'><div class='targDiv'><div class='tc'><img class='introPic' src='trustrating_stim/white_mw091.bmp'><br><font color='green'><strong>Share</strong></font></div></div><div class='respDiv'><div class='respDivL'>Match<br>(e)</div><div class='respDivR'>No Match<br>(i)</div></div></div>","e","TARGET","3","trustrating_stim/white_mw038.bmp,trustrating_stim/white_mw091.bmp,trustrating_stim/white_mw010.bmp","1,1,0","Match","e","4500","trustrating_stim/white_mw091.bmp","green","Share","REAL","1"
"html-keyboard-response","49","158214","0.0-7.0-5.2","60fcf7102d7c9907d95a0920","bdp_wmem","Sat Apr 08 2023 10:08:42 GMT-0700 (PDT)","549764","Match,No Match","","null","","","","","","<div class='trialBorder'><div class='vertical-center'><img src='img/correct.jpg'></div><div class='respDiv'><div class='respDivL'><font style='color:orange'>Match<br>(e)</font></div><div class='respDivR'>No Match<br>(i)</div></div></div>","null","FEEDBACK","","","","","","","","","","",""
"html-keyboard-response","50","158716","0.0-7.0-1.3","60fcf7102d7c9907d95a0920","bdp_wmem","Sat Apr 08 2023 10:08:42 GMT-0700 (PDT)","549764","Match,No Match","","null","","","","","","<div class='trialBorder'><div class='vertical-center'><img src='img/fixation2_sml.jpg'</img></div></div>","null","FIX","","","","","","","","","","",""
"html-keyboard-response","51","163219","0.0-7.0-2.3","60fcf7102d7c9907d95a0920","bdp_wmem","Sat Apr 08 2023 10:08:42 GMT-0700 (PDT)","549764","Match,No Match","","null","","","","","","<div class='trialBorder'><div class='vertical-center'><img style='vertical-align:center; align:center' src='img/fixation2_sml.jpg'></div><div class='arrayDiv3'><div class='tl'><img class='introPic' src='trustrating_stim/white_mw092.bmp'><br><font color='green'><strong>Share</strong></font></div><div class='tc'><img class='introPic' src='trustrating_stim/white_mw085.bmp'><br><font color='green'><strong>Share</strong></font></div><div class='tr'><img class='introPic' src='trustrating_stim/white_mw012.bmp'><br><font color='red'><strong>Keep</strong></font></div></div></div>","null","ARRAY","3","trustrating_stim/white_mw092.bmp,trustrating_stim/white_mw085.bmp,trustrating_stim/white_mw012.bmp","1,1,0","noMatchOutcome","i","4500","","","","",""
"html-keyboard-response","52","167221","0.0-7.0-3.3","60fcf7102d7c9907d95a0920","bdp_wmem","Sat Apr 08 2023 10:08:42 GMT-0700 (PDT)","549764","Match,No Match","","null","","","","","","<div class='trialBorder'><div class='vertical-center'><img src='img/fixation2_sml.jpg'</img></div></div>","null","DELAY","","","","","","","","","","",""
"html-keyboard-response","53","168161","0.0-7.0-4.3","60fcf7102d7c9907d95a0920","bdp_wmem","Sat Apr 08 2023 10:08:42 GMT-0700 (PDT)","549764","Match,No Match","","938","","","","","","<div class='trialBorder'><div class='targDiv'><div class='tc'><img class='introPic' src='trustrating_stim/white_mw012.bmp'><br><font color='green'><strong>Share</strong></font></div></div><div class='respDiv'><div class='respDivL'>Match<br>(e)</div><div class='respDivR'>No Match<br>(i)</div></div></div>","i","TARGET","3","trustrating_stim/white_mw092.bmp,trustrating_stim/white_mw085.bmp,trustrating_stim/white_mw012.bmp","1,1,0","noMatchOutcome","i","4500","trustrating_stim/white_mw012.bmp","green","Share","REAL","1"
"html-keyboard-response","54","168663","0.0-7.0-5.3","60fcf7102d7c9907d95a0920","bdp_wmem","Sat Apr 08 2023 10:08:42 GMT-0700 (PDT)","549764","Match,No Match","","null","","","","","","<div class='trialBorder'><div class='vertical-center'><img src='img/correct.jpg'></div><div class='respDiv'><div class='respDivL'>Match<br>(e)</div><div class='respDivR'><font style='color:orange'>No Match<br>(i)</font></div></div></div>","null","FEEDBACK","","","","","","","","","","",""
"html-keyboard-response","55","169165","0.0-7.0-1.4","60fcf7102d7c9907d95a0920","bdp_wmem","Sat Apr 08 2023 10:08:42 GMT-0700 (PDT)","549764","Match,No Match","","null","","","","","","<div class='trialBorder'><div class='vertical-center'><img src='img/fixation2_sml.jpg'</img></div></div>","null","FIX","","","","","","","","","","",""
"html-keyboard-response","56","172167","0.0-7.0-2.4","60fcf7102d7c9907d95a0920","bdp_wmem","Sat Apr 08 2023 10:08:42 GMT-0700 (PDT)","549764","Match,No Match","","null","","","","","","<div class='trialBorder'><div class='vertical-center'><img style='vertical-align:center; align:center' src='img/fixation2_sml.jpg'></div><div class='arrayDiv2'><div class='tl'><img class='introPic' src='trustrating_stim/white_mw078.bmp'><br><font color='red'><strong>Keep</strong></font></div><div class='tr'><img class='introPic' src='trustrating_stim/white_mw012.bmp'><br><font color='green'><strong>Share</strong></font></div></div></div>","null","ARRAY","2","trustrating_stim/white_mw078.bmp,trustrating_stim/white_mw012.bmp","0,1","noMatchOutcome","i","3000","","","","",""
"html-keyboard-response","57","176177","0.0-7.0-3.4","60fcf7102d7c9907d95a0920","bdp_wmem","Sat Apr 08 2023 10:08:42 GMT-0700 (PDT)","549764","Match,No Match","","null","","","","","","<div class='trialBorder'><div class='vertical-center'><img src='img/fixation2_sml.jpg'</img></div></div>","null","DELAY","","","","","","","","","","",""
"html-keyboard-response","58","177073","0.0-7.0-4.4","60fcf7102d7c9907d95a0920","bdp_wmem","Sat Apr 08 2023 10:08:42 GMT-0700 (PDT)","549764","Match,No Match","","893","","","","","","<div class='trialBorder'><div class='targDiv'><div class='tc'><img class='introPic' src='trustrating_stim/white_mw012.bmp'><br><font color='red'><strong>Keep</strong></font></div></div><div class='respDiv'><div class='respDivL'>Match<br>(e)</div><div class='respDivR'>No Match<br>(i)</div></div></div>","e","TARGET","2","trustrating_stim/white_mw078.bmp,trustrating_stim/white_mw012.bmp","0,1","noMatchOutcome","i","3000","trustrating_stim/white_mw012.bmp","red","Keep","REAL","0"
"html-keyboard-response","59","177575","0.0-7.0-5.4","60fcf7102d7c9907d95a0920","bdp_wmem","Sat Apr 08 2023 10:08:42 GMT-0700 (PDT)","549764","Match,No Match","","null","","","","","","<div class='trialBorder'><div class='vertical-center'><img src='img/error.jpg'></div><div class='respDiv'><div class='respDivL'><font style='color:orange'>Match<br>(e)</font></div><div class='respDivR'>No Match<br>(i)</div></div></div>","null","FEEDBACK","","","","","","","","","","",""
"html-keyboard-response","60","178077","0.0-7.0-1.5","60fcf7102d7c9907d95a0920","bdp_wmem","Sat Apr 08 2023 10:08:42 GMT-0700 (PDT)","549764","Match,No Match","","null","","","","","","<div class='trialBorder'><div class='vertical-center'><img src='img/fixation2_sml.jpg'</img></div></div>","null","FIX","","","","","","","","","","",""
"html-keyboard-response","61","181080","0.0-7.0-2.5","60fcf7102d7c9907d95a0920","bdp_wmem","Sat Apr 08 2023 10:08:42 GMT-0700 (PDT)","549764","Match,No Match","","null","","","","","","<div class='trialBorder'><div class='vertical-center'><img style='vertical-align:center; align:center' src='img/fixation2_sml.jpg'></div><div class='arrayDiv2'><div class='tl'><img class='introPic' src='trustrating_stim/white_mw085.bmp'><br><font color='green'><strong>Share</strong></font></div><div class='tr'><img class='introPic' src='trustrating_stim/white_mw040.bmp'><br><font color='red'><strong>Keep</strong></font></div></div></div>","null","ARRAY","2","trustrating_stim/white_mw085.bmp,trustrating_stim/white_mw040.bmp","1,0","noMatchOutcome","i","3000","","","","",""
"html-keyboard-response","62","185082","0.0-7.0-3.5","60fcf7102d7c9907d95a0920","bdp_wmem","Sat Apr 08 2023 10:08:42 GMT-0700 (PDT)","549764","Match,No Match","","null","","","","","","<div class='trialBorder'><div class='vertical-center'><img src='img/fixation2_sml.jpg'</img></div></div>","null","DELAY","","","","","","","","","","",""
"html-keyboard-response","63","185736","0.0-7.0-4.5","60fcf7102d7c9907d95a0920","bdp_wmem","Sat Apr 08 2023 10:08:42 GMT-0700 (PDT)","549764","Match,No Match","","652","","","","","","<div class='trialBorder'><div class='targDiv'><div class='tc'><img class='introPic' src='trustrating_stim/white_mw040.bmp'><br><font color='green'><strong>Share</strong></font></div></div><div class='respDiv'><div class='respDivL'>Match<br>(e)</div><div class='respDivR'>No Match<br>(i)</div></div></div>","i","TARGET","2","trustrating_stim/white_mw085.bmp,trustrating_stim/white_mw040.bmp","1,0","noMatchOutcome","i","3000","trustrating_stim/white_mw040.bmp","green","Share","REAL","1"
"html-keyboard-response","64","186238","0.0-7.0-5.5","60fcf7102d7c9907d95a0920","bdp_wmem","Sat Apr 08 2023 10:08:42 GMT-0700 (PDT)","549764","Match,No Match","","null","","","","","","<div class='trialBorder'><div class='vertical-center'><img src='img/correct.jpg'></div><div class='respDiv'><div class='respDivL'>Match<br>(e)</div><div class='respDivR'><font style='color:orange'>No Match<br>(i)</font></div></div></div>","null","FEEDBACK","","","","","","","","","","",""
"html-keyboard-response","65","186740","0.0-7.0-1.6","60fcf7102d7c9907d95a0920","bdp_wmem","Sat Apr 08 2023 10:08:42 GMT-0700 (PDT)","549764","Match,No Match","","null","","","","","","<div class='trialBorder'><div class='vertical-center'><img src='img/fixation2_sml.jpg'</img></div></div>","null","FIX","","","","","","","","","","",""
"html-keyboard-response","66","191242","0.0-7.0-2.6","60fcf7102d7c9907d95a0920","bdp_wmem","Sat Apr 08 2023 10:08:42 GMT-0700 (PDT)","549764","Match,No Match","","null","","","","","","<div class='trialBorder'><div class='vertical-center'><img style='vertical-align:center; align:center' src='img/fixation2_sml.jpg'></div><div class='arrayDiv3'><div class='tl'><img class='introPic' src='trustrating_stim/white_mw042.bmp'><br><font color='red'><strong>Keep</strong></font></div><div class='tc'><img class='introPic' src='trustrating_stim/white_mw040.bmp'><br><font color='green'><strong>Share</strong></font></div><div class='tr'><img class='introPic' src='trustrating_stim/white_mw013.bmp'><br><font color='green'><strong>Share</strong></font></div></div></div>","null","ARRAY","3","trustrating_stim/white_mw042.bmp,trustrating_stim/white_mw040.bmp,trustrating_stim/white_mw013.bmp","0,1,1","Match","e","4500","","","","",""
"html-keyboard-response","67","195245","0.0-7.0-3.6","60fcf7102d7c9907d95a0920","bdp_wmem","Sat Apr 08 2023 10:08:42 GMT-0700 (PDT)","549764","Match,No Match","","null","","","","","","<div class='trialBorder'><div class='vertical-center'><img src='img/fixation2_sml.jpg'</img></div></div>","null","DELAY","","","","","","","","","","",""
"html-keyboard-response","68","195896","0.0-7.0-4.6","60fcf7102d7c9907d95a0920","bdp_wmem","Sat Apr 08 2023 10:08:42 GMT-0700 (PDT)","549764","Match,No Match","","649","","","","","","<div class='trialBorder'><div class='targDiv'><div class='tc'><img class='introPic' src='trustrating_stim/white_mw040.bmp'><br><font color='green'><strong>Share</strong></font></div></div><div class='respDiv'><div class='respDivL'>Match<br>(e)</div><div class='respDivR'>No Match<br>(i)</div></div></div>","e","TARGET","3","trustrating_stim/white_mw042.bmp,trustrating_stim/white_mw040.bmp,trustrating_stim/white_mw013.bmp","0,1,1","Match","e","4500","trustrating_stim/white_mw040.bmp","green","Share","REAL","1"
"html-keyboard-response","69","196398","0.0-7.0-5.6","60fcf7102d7c9907d95a0920","bdp_wmem","Sat Apr 08 2023 10:08:42 GMT-0700 (PDT)","549764","Match,No Match","","null","","","","","","<div class='trialBorder'><div class='vertical-center'><img src='img/correct.jpg'></div><div class='respDiv'><div class='respDivL'><font style='color:orange'>Match<br>(e)</font></div><div class='respDivR'>No Match<br>(i)</div></div></div>","null","FEEDBACK","","","","","","","","","","",""
"html-keyboard-response","70","196900","0.0-7.0-1.7","60fcf7102d7c9907d95a0920","bdp_wmem","Sat Apr 08 2023 10:08:42 GMT-0700 (PDT)","549764","Match,No Match","","null","","","","","","<div class='trialBorder'><div class='vertical-center'><img src='img/fixation2_sml.jpg'</img></div></div>","null","FIX","","","","","","","","","","",""
"html-keyboard-response","71","198402","0.0-7.0-2.7","60fcf7102d7c9907d95a0920","bdp_wmem","Sat Apr 08 2023 10:08:42 GMT-0700 (PDT)","549764","Match,No Match","","null","","","","","","<div class='trialBorder'><div class='vertical-center'><img style='vertical-align:center; align:center' src='img/fixation2_sml.jpg'></div><div class='arrayDiv1'><div class='tc'><img class='introPic' src='trustrating_stim/white_mw085.bmp'><br><font color='green'><strong>Share</strong></font></div></div></div>","null","ARRAY","1","trustrating_stim/white_mw085.bmp","1","noMatchFace","i","1500","","","","",""
"html-keyboard-response","72","202405","0.0-7.0-3.7","60fcf7102d7c9907d95a0920","bdp_wmem","Sat Apr 08 2023 10:08:42 GMT-0700 (PDT)","549764","Match,No Match","","null","","","","","","<div class='trialBorder'><div class='vertical-center'><img src='img/fixation2_sml.jpg'</img></div></div>","null","DELAY","","","","","","","","","","",""
"html-keyboard-response","73","202960","0.0-7.0-4.7","60fcf7102d7c9907d95a0920","bdp_wmem","Sat Apr 08 2023 10:08:42 GMT-0700 (PDT)","549764","Match,No Match","","552","","","","","","<div class='trialBorder'><div class='targDiv'><div class='tc'><img class='introPic' src='trustrating_stim/white_mw042.bmp'><br><font color='green'><strong>Share</strong></font></div></div><div class='respDiv'><div class='respDivL'>Match<br>(e)</div><div class='respDivR'>No Match<br>(i)</div></div></div>","e","TARGET","1","trustrating_stim/white_mw085.bmp","1","noMatchFace","i","1500","trustrating_stim/white_mw042.bmp","green","Share","REAL","0"
"html-keyboard-response","74","203462","0.0-7.0-5.7","60fcf7102d7c9907d95a0920","bdp_wmem","Sat Apr 08 2023 10:08:42 GMT-0700 (PDT)","549764","Match,No Match","","null","","","","","","<div class='trialBorder'><div class='vertical-center'><img src='img/error.jpg'></div><div class='respDiv'><div class='respDivL'><font style='color:orange'>Match<br>(e)</font></div><div class='respDivR'>No Match<br>(i)</div></div></div>","null","FEEDBACK","","","","","","","","","","",""
"html-keyboard-response","75","203964","0.0-7.0-1.8","60fcf7102d7c9907d95a0920","bdp_wmem","Sat Apr 08 2023 10:08:42 GMT-0700 (PDT)","549764","Match,No Match","","null","","","","","","<div class='trialBorder'><div class='vertical-center'><img src='img/fixation2_sml.jpg'</img></div></div>","null","FIX","","","","","","","","","","",""
"html-keyboard-response","76","205466","0.0-7.0-2.8","60fcf7102d7c9907d95a0920","bdp_wmem","Sat Apr 08 2023 10:08:42 GMT-0700 (PDT)","549764","Match,No Match","","null","","","","","","<div class='trialBorder'><div class='vertical-center'><img style='vertical-align:center; align:center' src='img/fixation2_sml.jpg'></div><div class='arrayDiv1'><div class='tc'><img class='introPic' src='trustrating_stim/white_mw013.bmp'><br><font color='green'><strong>Share</strong></font></div></div></div>","null","ARRAY","1","trustrating_stim/white_mw013.bmp","1","noMatchFace","i","1500","","","","",""
"html-keyboard-response","77","209468","0.0-7.0-3.8","60fcf7102d7c9907d95a0920","bdp_wmem","Sat Apr 08 2023 10:08:42 GMT-0700 (PDT)","549764","Match,No Match","","null","","","","","","<div class='trialBorder'><div class='vertical-center'><img src='img/fixation2_sml.jpg'</img></div></div>","null","DELAY","","","","","","","","","","",""
"html-keyboard-response","78","210154","0.0-7.0-4.8","60fcf7102d7c9907d95a0920","bdp_wmem","Sat Apr 08 2023 10:08:42 GMT-0700 (PDT)","549764","Match,No Match","","684","","","","","","<div class='trialBorder'><div class='targDiv'><div class='tc'><img class='introPic' src='trustrating_stim/white_mw012.bmp'><br><font color='green'><strong>Share</strong></font></div></div><div class='respDiv'><div class='respDivL'>Match<br>(e)</div><div class='respDivR'>No Match<br>(i)</div></div></div>","i","TARGET","1","trustrating_stim/white_mw013.bmp","1","noMatchFace","i","1500","trustrating_stim/white_mw012.bmp","green","Share","REAL","1"
"html-keyboard-response","79","210659","0.0-7.0-5.8","60fcf7102d7c9907d95a0920","bdp_wmem","Sat Apr 08 2023 10:08:42 GMT-0700 (PDT)","549764","Match,No Match","","null","","","","","","<div class='trialBorder'><div class='vertical-center'><img src='img/correct.jpg'></div><div class='respDiv'><div class='respDivL'>Match<br>(e)</div><div class='respDivR'><font style='color:orange'>No Match<br>(i)</font></div></div></div>","null","FEEDBACK","","","","","","","","","","",""
"html-keyboard-response","80","211162","0.0-7.0-1.9","60fcf7102d7c9907d95a0920","bdp_wmem","Sat Apr 08 2023 10:08:42 GMT-0700 (PDT)","549764","Match,No Match","","null","","","","","","<div class='trialBorder'><div class='vertical-center'><img src='img/fixation2_sml.jpg'</img></div></div>","null","FIX","","","","","","","","","","",""
"html-keyboard-response","81","214164","0.0-7.0-2.9","60fcf7102d7c9907d95a0920","bdp_wmem","Sat Apr 08 2023 10:08:42 GMT-0700 (PDT)","549764","Match,No Match","","null","","","","","","<div class='trialBorder'><div class='vertical-center'><img style='vertical-align:center; align:center' src='img/fixation2_sml.jpg'></div><div class='arrayDiv2'><div class='tl'><img class='introPic' src='trustrating_stim/white_mw070.bmp'><br><font color='green'><strong>Share</strong></font></div><div class='tr'><img class='introPic' src='trustrating_stim/white_mw078.bmp'><br><font color='red'><strong>Keep</strong></font></div></div></div>","null","ARRAY","2","trustrating_stim/white_mw070.bmp,trustrating_stim/white_mw078.bmp","1,0","Match","e","3000","","","","",""
"html-keyboard-response","82","218166","0.0-7.0-3.9","60fcf7102d7c9907d95a0920","bdp_wmem","Sat Apr 08 2023 10:08:42 GMT-0700 (PDT)","549764","Match,No Match","","null","","","","","","<div class='trialBorder'><div class='vertical-center'><img src='img/fixation2_sml.jpg'</img></div></div>","null","DELAY","","","","","","","","","","",""
"html-keyboard-response","83","219151","0.0-7.0-4.9","60fcf7102d7c9907d95a0920","bdp_wmem","Sat Apr 08 2023 10:08:42 GMT-0700 (PDT)","549764","Match,No Match","","983","","","","","","<div class='trialBorder'><div class='targDiv'><div class='tc'><img class='introPic' src='trustrating_stim/white_mw078.bmp'><br><font color='red'><strong>Keep</strong></font></div></div><div class='respDiv'><div class='respDivL'>Match<br>(e)</div><div class='respDivR'>No Match<br>(i)</div></div></div>","e","TARGET","2","trustrating_stim/white_mw070.bmp,trustrating_stim/white_mw078.bmp","1,0","Match","e","3000","trustrating_stim/white_mw078.bmp","red","Keep","REAL","1"
"html-keyboard-response","84","219654","0.0-7.0-5.9","60fcf7102d7c9907d95a0920","bdp_wmem","Sat Apr 08 2023 10:08:42 GMT-0700 (PDT)","549764","Match,No Match","","null","","","","","","<div class='trialBorder'><div class='vertical-center'><img src='img/correct.jpg'></div><div class='respDiv'><div class='respDivL'><font style='color:orange'>Match<br>(e)</font></div><div class='respDivR'>No Match<br>(i)</div></div></div>","null","FEEDBACK","","","","","","","","","","",""
"html-keyboard-response","85","220155","0.0-7.0-1.10","60fcf7102d7c9907d95a0920","bdp_wmem","Sat Apr 08 2023 10:08:42 GMT-0700 (PDT)","549764","Match,No Match","","null","","","","","","<div class='trialBorder'><div class='vertical-center'><img src='img/fixation2_sml.jpg'</img></div></div>","null","FIX","","","","","","","","","","",""
"html-keyboard-response","86","224658","0.0-7.0-2.10","60fcf7102d7c9907d95a0920","bdp_wmem","Sat Apr 08 2023 10:08:42 GMT-0700 (PDT)","549764","Match,No Match","","null","","","","","","<div class='trialBorder'><div class='vertical-center'><img style='vertical-align:center; align:center' src='img/fixation2_sml.jpg'></div><div class='arrayDiv3'><div class='tl'><img class='introPic' src='trustrating_stim/white_mw010.bmp'><br><font color='green'><strong>Share</strong></font></div><div class='tc'><img class='introPic' src='trustrating_stim/white_mw003.bmp'><br><font color='red'><strong>Keep</strong></font></div><div class='tr'><img class='introPic' src='trustrating_stim/white_mw091.bmp'><br><font color='red'><strong>Keep</strong></font></div></div></div>","null","ARRAY","3","trustrating_stim/white_mw010.bmp,trustrating_stim/white_mw003.bmp,trustrating_stim/white_mw091.bmp","1,0,0","Match","e","4500","","","","",""
"html-keyboard-response","87","228660","0.0-7.0-3.10","60fcf7102d7c9907d95a0920","bdp_wmem","Sat Apr 08 2023 10:08:42 GMT-0700 (PDT)","549764","Match,No Match","","null","","","","","","<div class='trialBorder'><div class='vertical-center'><img src='img/fixation2_sml.jpg'</img></div></div>","null","DELAY","","","","","","","","","","",""
"html-keyboard-response","88","229241","0.0-7.0-4.10","60fcf7102d7c9907d95a0920","bdp_wmem","Sat Apr 08 2023 10:08:42 GMT-0700 (PDT)","549764","Match,No Match","","580","","","","","","<div class='trialBorder'><div class='targDiv'><div class='tc'><img class='introPic' src='trustrating_stim/white_mw091.bmp'><br><font color='red'><strong>Keep</strong></font></div></div><div class='respDiv'><div class='respDivL'>Match<br>(e)</div><div class='respDivR'>No Match<br>(i)</div></div></div>","e","TARGET","3","trustrating_stim/white_mw010.bmp,trustrating_stim/white_mw003.bmp,trustrating_stim/white_mw091.bmp","1,0,0","Match","e","4500","trustrating_stim/white_mw091.bmp","red","Keep","REAL","1"
"html-keyboard-response","89","229743","0.0-7.0-5.10","60fcf7102d7c9907d95a0920","bdp_wmem","Sat Apr 08 2023 10:08:42 GMT-0700 (PDT)","549764","Match,No Match","","null","","","","","","<div class='trialBorder'><div class='vertical-center'><img src='img/correct.jpg'></div><div class='respDiv'><div class='respDivL'><font style='color:orange'>Match<br>(e)</font></div><div class='respDivR'>No Match<br>(i)</div></div></div>","null","FEEDBACK","","","","","","","","","","",""
"html-keyboard-response","90","230245","0.0-7.0-1.11","60fcf7102d7c9907d95a0920","bdp_wmem","Sat Apr 08 2023 10:08:42 GMT-0700 (PDT)","549764","Match,No Match","","null","","","","","","<div class='trialBorder'><div class='vertical-center'><img src='img/fixation2_sml.jpg'</img></div></div>","null","FIX","","","","","","","","","","",""
"html-keyboard-response","91","231747","0.0-7.0-2.11","60fcf7102d7c9907d95a0920","bdp_wmem","Sat Apr 08 2023 10:08:42 GMT-0700 (PDT)","549764","Match,No Match","","null","","","","","","<div class='trialBorder'><div class='vertical-center'><img style='vertical-align:center; align:center' src='img/fixation2_sml.jpg'></div><div class='arrayDiv1'><div class='tc'><img class='introPic' src='trustrating_stim/white_mw092.bmp'><br><font color='red'><strong>Keep</strong></font></div></div></div>","null","ARRAY","1","trustrating_stim/white_mw092.bmp","0","Match","e","1500","","","","",""
"html-keyboard-response","92","235749","0.0-7.0-3.11","60fcf7102d7c9907d95a0920","bdp_wmem","Sat Apr 08 2023 10:08:42 GMT-0700 (PDT)","549764","Match,No Match","","null","","","","","","<div class='trialBorder'><div class='vertical-center'><img src='img/fixation2_sml.jpg'</img></div></div>","null","DELAY","","","","","","","","","","",""
"html-keyboard-response","93","236267","0.0-7.0-4.11","60fcf7102d7c9907d95a0920","bdp_wmem","Sat Apr 08 2023 10:08:42 GMT-0700 (PDT)","549764","Match,No Match","","516","","","","","","<div class='trialBorder'><div class='targDiv'><div class='tc'><img class='introPic' src='trustrating_stim/white_mw092.bmp'><br><font color='red'><strong>Keep</strong></font></div></div><div class='respDiv'><div class='respDivL'>Match<br>(e)</div><div class='respDivR'>No Match<br>(i)</div></div></div>","e","TARGET","1","trustrating_stim/white_mw092.bmp","0","Match","e","1500","trustrating_stim/white_mw092.bmp","red","Keep","REAL","1"
"html-keyboard-response","94","236769","0.0-7.0-5.11","60fcf7102d7c9907d95a0920","bdp_wmem","Sat Apr 08 2023 10:08:42 GMT-0700 (PDT)","549764","Match,No Match","","null","","","","","","<div class='trialBorder'><div class='vertical-center'><img src='img/correct.jpg'></div><div class='respDiv'><div class='respDivL'><font style='color:orange'>Match<br>(e)</font></div><div class='respDivR'>No Match<br>(i)</div></div></div>","null","FEEDBACK","","","","","","","","","","",""
"html-keyboard-response","95","237271","0.0-7.0-1.12","60fcf7102d7c9907d95a0920","bdp_wmem","Sat Apr 08 2023 10:08:42 GMT-0700 (PDT)","549764","Match,No Match","","null","","","","","","<div class='trialBorder'><div class='vertical-center'><img src='img/fixation2_sml.jpg'</img></div></div>","null","FIX","","","","","","","","","","",""
"html-keyboard-response","96","241774","0.0-7.0-2.12","60fcf7102d7c9907d95a0920","bdp_wmem","Sat Apr 08 2023 10:08:42 GMT-0700 (PDT)","549764","Match,No Match","","null","","","","","","<div class='trialBorder'><div class='vertical-center'><img style='vertical-align:center; align:center' src='img/fixation2_sml.jpg'></div><div class='arrayDiv3'><div class='tl'><img class='introPic' src='trustrating_stim/white_mw010.bmp'><br><font color='green'><strong>Share</strong></font></div><div class='tc'><img class='introPic' src='trustrating_stim/white_mw070.bmp'><br><font color='red'><strong>Keep</strong></font></div><div class='tr'><img class='introPic' src='trustrating_stim/white_mw078.bmp'><br><font color='red'><strong>Keep</strong></font></div></div></div>","null","ARRAY","3","trustrating_stim/white_mw010.bmp,trustrating_stim/white_mw070.bmp,trustrating_stim/white_mw078.bmp","1,0,0","noMatchFace","i","4500","","","","",""
"html-keyboard-response","97","245776","0.0-7.0-3.12","60fcf7102d7c9907d95a0920","bdp_wmem","Sat Apr 08 2023 10:08:42 GMT-0700 (PDT)","549764","Match,No Match","","null","","","","","","<div class='trialBorder'><div class='vertical-center'><img src='img/fixation2_sml.jpg'</img></div></div>","null","DELAY","","","","","","","","","","",""
"html-keyboard-response","98","246679","0.0-7.0-4.12","60fcf7102d7c9907d95a0920","bdp_wmem","Sat Apr 08 2023 10:08:42 GMT-0700 (PDT)","549764","Match,No Match","","901","","","","","","<div class='trialBorder'><div class='targDiv'><div class='tc'><img class='introPic' src='trustrating_stim/white_mw038.bmp'><br><font color='green'><strong>Share</strong></font></div></div><div class='respDiv'><div class='respDivL'>Match<br>(e)</div><div class='respDivR'>No Match<br>(i)</div></div></div>","i","TARGET","3","trustrating_stim/white_mw010.bmp,trustrating_stim/white_mw070.bmp,trustrating_stim/white_mw078.bmp","1,0,0","noMatchFace","i","4500","trustrating_stim/white_mw038.bmp","green","Share","REAL","1"
"html-keyboard-response","99","247180","0.0-7.0-5.12","60fcf7102d7c9907d95a0920","bdp_wmem","Sat Apr 08 2023 10:08:42 GMT-0700 (PDT)","549764","Match,No Match","","null","","","","","","<div class='trialBorder'><div class='vertical-center'><img src='img/correct.jpg'></div><div class='respDiv'><div class='respDivL'>Match<br>(e)</div><div class='respDivR'><font style='color:orange'>No Match<br>(i)</font></div></div></div>","null","FEEDBACK","","","","","","","","","","",""
"html-keyboard-response","100","247682","0.0-7.0-1.13","60fcf7102d7c9907d95a0920","bdp_wmem","Sat Apr 08 2023 10:08:42 GMT-0700 (PDT)","549764","Match,No Match","","null","","","","","","<div class='trialBorder'><div class='vertical-center'><img src='img/fixation2_sml.jpg'</img></div></div>","null","FIX","","","","","","","","","","",""
"html-keyboard-response","101","252184","0.0-7.0-2.13","60fcf7102d7c9907d95a0920","bdp_wmem","Sat Apr 08 2023 10:08:42 GMT-0700 (PDT)","549764","Match,No Match","","null","","","","","","<div class='trialBorder'><div class='vertical-center'><img style='vertical-align:center; align:center' src='img/fixation2_sml.jpg'></div><div class='arrayDiv3'><div class='tl'><img class='introPic' src='trustrating_stim/white_mw040.bmp'><br><font color='green'><strong>Share</strong></font></div><div class='tc'><img class='introPic' src='trustrating_stim/white_mw091.bmp'><br><font color='green'><strong>Share</strong></font></div><div class='tr'><img class='introPic' src='trustrating_stim/white_mw078.bmp'><br><font color='red'><strong>Keep</strong></font></div></div></div>","null","ARRAY","3","trustrating_stim/white_mw040.bmp,trustrating_stim/white_mw091.bmp,trustrating_stim/white_mw078.bmp","1,1,0","noMatchFace","i","4500","","","","",""
"html-keyboard-response","102","256186","0.0-7.0-3.13","60fcf7102d7c9907d95a0920","bdp_wmem","Sat Apr 08 2023 10:08:42 GMT-0700 (PDT)","549764","Match,No Match","","null","","","","","","<div class='trialBorder'><div class='vertical-center'><img src='img/fixation2_sml.jpg'</img></div></div>","null","DELAY","","","","","","","","","","",""
"html-keyboard-response","103","257037","0.0-7.0-4.13","60fcf7102d7c9907d95a0920","bdp_wmem","Sat Apr 08 2023 10:08:42 GMT-0700 (PDT)","549764","Match,No Match","","849","","","","","","<div class='trialBorder'><div class='targDiv'><div class='tc'><img class='introPic' src='trustrating_stim/white_mw010.bmp'><br><font color='green'><strong>Share</strong></font></div></div><div class='respDiv'><div class='respDivL'>Match<br>(e)</div><div class='respDivR'>No Match<br>(i)</div></div></div>","i","TARGET","3","trustrating_stim/white_mw040.bmp,trustrating_stim/white_mw091.bmp,trustrating_stim/white_mw078.bmp","1,1,0","noMatchFace","i","4500","trustrating_stim/white_mw010.bmp","green","Share","REAL","1"
"html-keyboard-response","104","257539","0.0-7.0-5.13","60fcf7102d7c9907d95a0920","bdp_wmem","Sat Apr 08 2023 10:08:42 GMT-0700 (PDT)","549764","Match,No Match","","null","","","","","","<div class='trialBorder'><div class='vertical-center'><img src='img/correct.jpg'></div><div class='respDiv'><div class='respDivL'>Match<br>(e)</div><div class='respDivR'><font style='color:orange'>No Match<br>(i)</font></div></div></div>","null","FEEDBACK","","","","","","","","","","",""
"html-keyboard-response","105","258040","0.0-7.0-1.14","60fcf7102d7c9907d95a0920","bdp_wmem","Sat Apr 08 2023 10:08:42 GMT-0700 (PDT)","549764","Match,No Match","","null","","","","","","<div class='trialBorder'><div class='vertical-center'><img src='img/fixation2_sml.jpg'</img></div></div>","null","FIX","","","","","","","","","","",""
"html-keyboard-response","106","261043","0.0-7.0-2.14","60fcf7102d7c9907d95a0920","bdp_wmem","Sat Apr 08 2023 10:08:42 GMT-0700 (PDT)","549764","Match,No Match","","null","","","","","","<div class='trialBorder'><div class='vertical-center'><img style='vertical-align:center; align:center' src='img/fixation2_sml.jpg'></div><div class='arrayDiv2'><div class='tl'><img class='introPic' src='trustrating_stim/white_mw078.bmp'><br><font color='red'><strong>Keep</strong></font></div><div class='tr'><img class='introPic' src='trustrating_stim/white_mw003.bmp'><br><font color='green'><strong>Share</strong></font></div></div></div>","null","ARRAY","2","trustrating_stim/white_mw078.bmp,trustrating_stim/white_mw003.bmp","0,1","noMatchOutcome","i","3000","","","","",""
"html-keyboard-response","107","265045","0.0-7.0-3.14","60fcf7102d7c9907d95a0920","bdp_wmem","Sat Apr 08 2023 10:08:42 GMT-0700 (PDT)","549764","Match,No Match","","null","","","","","","<div class='trialBorder'><div class='vertical-center'><img src='img/fixation2_sml.jpg'</img></div></div>","null","DELAY","","","","","","","","","","",""
"html-keyboard-response","108","265671","0.0-7.0-4.14","60fcf7102d7c9907d95a0920","bdp_wmem","Sat Apr 08 2023 10:08:42 GMT-0700 (PDT)","549764","Match,No Match","","624","","","","","","<div class='trialBorder'><div class='targDiv'><div class='tc'><img class='introPic' src='trustrating_stim/white_mw078.bmp'><br><font color='green'><strong>Share</strong></font></div></div><div class='respDiv'><div class='respDivL'>Match<br>(e)</div><div class='respDivR'>No Match<br>(i)</div></div></div>","e","TARGET","2","trustrating_stim/white_mw078.bmp,trustrating_stim/white_mw003.bmp","0,1","noMatchOutcome","i","3000","trustrating_stim/white_mw078.bmp","green","Share","REAL","0"
"html-keyboard-response","109","266173","0.0-7.0-5.14","60fcf7102d7c9907d95a0920","bdp_wmem","Sat Apr 08 2023 10:08:42 GMT-0700 (PDT)","549764","Match,No Match","","null","","","","","","<div class='trialBorder'><div class='vertical-center'><img src='img/error.jpg'></div><div class='respDiv'><div class='respDivL'><font style='color:orange'>Match<br>(e)</font></div><div class='respDivR'>No Match<br>(i)</div></div></div>","null","FEEDBACK","","","","","","","","","","",""
"html-keyboard-response","110","266675","0.0-7.0-1.15","60fcf7102d7c9907d95a0920","bdp_wmem","Sat Apr 08 2023 10:08:42 GMT-0700 (PDT)","549764","Match,No Match","","null","","","","","","<div class='trialBorder'><div class='vertical-center'><img src='img/fixation2_sml.jpg'</img></div></div>","null","FIX","","","","","","","","","","",""
"html-keyboard-response","111","269677","0.0-7.0-2.15","60fcf7102d7c9907d95a0920","bdp_wmem","Sat Apr 08 2023 10:08:42 GMT-0700 (PDT)","549764","Match,No Match","","null","","","","","","<div class='trialBorder'><div class='vertical-center'><img style='vertical-align:center; align:center' src='img/fixation2_sml.jpg'></div><div class='arrayDiv2'><div class='tl'><img class='introPic' src='trustrating_stim/white_mw012.bmp'><br><font color='red'><strong>Keep</strong></font></div><div class='tr'><img class='introPic' src='trustrating_stim/white_mw040.bmp'><br><font color='green'><strong>Share</strong></font></div></div></div>","null","ARRAY","2","trustrating_stim/white_mw012.bmp,trustrating_stim/white_mw040.bmp","0,1","Match","e","3000","","","","",""
"html-keyboard-response","112","273679","0.0-7.0-3.15","60fcf7102d7c9907d95a0920","bdp_wmem","Sat Apr 08 2023 10:08:42 GMT-0700 (PDT)","549764","Match,No Match","","null","","","","","","<div class='trialBorder'><div class='vertical-center'><img src='img/fixation2_sml.jpg'</img></div></div>","null","DELAY","","","","","","","","","","",""
"html-keyboard-response","113","274256","0.0-7.0-4.15","60fcf7102d7c9907d95a0920","bdp_wmem","Sat Apr 08 2023 10:08:42 GMT-0700 (PDT)","549764","Match,No Match","","575","","","","","","<div class='trialBorder'><div class='targDiv'><div class='tc'><img class='introPic' src='trustrating_stim/white_mw012.bmp'><br><font color='red'><strong>Keep</strong></font></div></div><div class='respDiv'><div class='respDivL'>Match<br>(e)</div><div class='respDivR'>No Match<br>(i)</div></div></div>","i","TARGET","2","trustrating_stim/white_mw012.bmp,trustrating_stim/white_mw040.bmp","0,1","Match","e","3000","trustrating_stim/white_mw012.bmp","red","Keep","REAL","0"
"html-keyboard-response","114","274758","0.0-7.0-5.15","60fcf7102d7c9907d95a0920","bdp_wmem","Sat Apr 08 2023 10:08:42 GMT-0700 (PDT)","549764","Match,No Match","","null","","","","","","<div class='trialBorder'><div class='vertical-center'><img src='img/error.jpg'></div><div class='respDiv'><div class='respDivL'>Match<br>(e)</div><div class='respDivR'><font style='color:orange'>No Match<br>(i)</font></div></div></div>","null","FEEDBACK","","","","","","","","","","",""
"html-keyboard-response","115","275260","0.0-7.0-1.16","60fcf7102d7c9907d95a0920","bdp_wmem","Sat Apr 08 2023 10:08:42 GMT-0700 (PDT)","549764","Match,No Match","","null","","","","","","<div class='trialBorder'><div class='vertical-center'><img src='img/fixation2_sml.jpg'</img></div></div>","null","FIX","","","","","","","","","","",""
"html-keyboard-response","116","278262","0.0-7.0-2.16","60fcf7102d7c9907d95a0920","bdp_wmem","Sat Apr 08 2023 10:08:42 GMT-0700 (PDT)","549764","Match,No Match","","null","","","","","","<div class='trialBorder'><div class='vertical-center'><img style='vertical-align:center; align:center' src='img/fixation2_sml.jpg'></div><div class='arrayDiv2'><div class='tl'><img class='introPic' src='trustrating_stim/white_mw042.bmp'><br><font color='green'><strong>Share</strong></font></div><div class='tr'><img class='introPic' src='trustrating_stim/white_mw038.bmp'><br><font color='red'><strong>Keep</strong></font></div></div></div>","null","ARRAY","2","trustrating_stim/white_mw042.bmp,trustrating_stim/white_mw038.bmp","1,0","Match","e","3000","","","","",""
"html-keyboard-response","117","282264","0.0-7.0-3.16","60fcf7102d7c9907d95a0920","bdp_wmem","Sat Apr 08 2023 10:08:42 GMT-0700 (PDT)","549764","Match,No Match","","null","","","","","","<div class='trialBorder'><div class='vertical-center'><img src='img/fixation2_sml.jpg'</img></div></div>","null","DELAY","","","","","","","","","","",""
"html-keyboard-response","118","282803","0.0-7.0-4.16","60fcf7102d7c9907d95a0920","bdp_wmem","Sat Apr 08 2023 10:08:42 GMT-0700 (PDT)","549764","Match,No Match","","537","","","","","","<div class='trialBorder'><div class='targDiv'><div class='tc'><img class='introPic' src='trustrating_stim/white_mw038.bmp'><br><font color='red'><strong>Keep</strong></font></div></div><div class='respDiv'><div class='respDivL'>Match<br>(e)</div><div class='respDivR'>No Match<br>(i)</div></div></div>","e","TARGET","2","trustrating_stim/white_mw042.bmp,trustrating_stim/white_mw038.bmp","1,0","Match","e","3000","trustrating_stim/white_mw038.bmp","red","Keep","REAL","1"
"html-keyboard-response","119","283305","0.0-7.0-5.16","60fcf7102d7c9907d95a0920","bdp_wmem","Sat Apr 08 2023 10:08:42 GMT-0700 (PDT)","549764","Match,No Match","","null","","","","","","<div class='trialBorder'><div class='vertical-center'><img src='img/correct.jpg'></div><div class='respDiv'><div class='respDivL'><font style='color:orange'>Match<br>(e)</font></div><div class='respDivR'>No Match<br>(i)</div></div></div>","null","FEEDBACK","","","","","","","","","","",""
"html-keyboard-response","120","283807","0.0-7.0-1.17","60fcf7102d7c9907d95a0920","bdp_wmem","Sat Apr 08 2023 10:08:42 GMT-0700 (PDT)","549764","Match,No Match","","null","","","","","","<div class='trialBorder'><div class='vertical-center'><img src='img/fixation2_sml.jpg'</img></div></div>","null","FIX","","","","","","","","","","",""
"html-keyboard-response","121","285309","0.0-7.0-2.17","60fcf7102d7c9907d95a0920","bdp_wmem","Sat Apr 08 2023 10:08:42 GMT-0700 (PDT)","549764","Match,No Match","","null","","","","","","<div class='trialBorder'><div class='vertical-center'><img style='vertical-align:center; align:center' src='img/fixation2_sml.jpg'></div><div class='arrayDiv1'><div class='tc'><img class='introPic' src='trustrating_stim/white_mw012.bmp'><br><font color='red'><strong>Keep</strong></font></div></div></div>","null","ARRAY","1","trustrating_stim/white_mw012.bmp","0","noMatchOutcome","i","1500","","","","",""
"html-keyboard-response","122","289310","0.0-7.0-3.17","60fcf7102d7c9907d95a0920","bdp_wmem","Sat Apr 08 2023 10:08:42 GMT-0700 (PDT)","549764","Match,No Match","","null","","","","","","<div class='trialBorder'><div class='vertical-center'><img src='img/fixation2_sml.jpg'</img></div></div>","null","DELAY","","","","","","","","","","",""
"html-keyboard-response","123","290108","0.0-7.0-4.17","60fcf7102d7c9907d95a0920","bdp_wmem","Sat Apr 08 2023 10:08:42 GMT-0700 (PDT)","549764","Match,No Match","","797","","","","","","<div class='trialBorder'><div class='targDiv'><div class='tc'><img class='introPic' src='trustrating_stim/white_mw012.bmp'><br><font color='green'><strong>Share</strong></font></div></div><div class='respDiv'><div class='respDivL'>Match<br>(e)</div><div class='respDivR'>No Match<br>(i)</div></div></div>","i","TARGET","1","trustrating_stim/white_mw012.bmp","0","noMatchOutcome","i","1500","trustrating_stim/white_mw012.bmp","green","Share","REAL","1"
"html-keyboard-response","124","290611","0.0-7.0-5.17","60fcf7102d7c9907d95a0920","bdp_wmem","Sat Apr 08 2023 10:08:42 GMT-0700 (PDT)","549764","Match,No Match","","null","","","","","","<div class='trialBorder'><div class='vertical-center'><img src='img/correct.jpg'></div><div class='respDiv'><div class='respDivL'>Match<br>(e)</div><div class='respDivR'><font style='color:orange'>No Match<br>(i)</font></div></div></div>","null","FEEDBACK","","","","","","","","","","",""
"html-keyboard-response","125","291113","0.0-7.0-1.18","60fcf7102d7c9907d95a0920","bdp_wmem","Sat Apr 08 2023 10:08:42 GMT-0700 (PDT)","549764","Match,No Match","","null","","","","","","<div class='trialBorder'><div class='vertical-center'><img src='img/fixation2_sml.jpg'</img></div></div>","null","FIX","","","","","","","","","","",""
"html-keyboard-response","126","295615","0.0-7.0-2.18","60fcf7102d7c9907d95a0920","bdp_wmem","Sat Apr 08 2023 10:08:42 GMT-0700 (PDT)","549764","Match,No Match","","null","","","","","","<div class='trialBorder'><div class='vertical-center'><img style='vertical-align:center; align:center' src='img/fixation2_sml.jpg'></div><div class='arrayDiv3'><div class='tl'><img class='introPic' src='trustrating_stim/white_mw078.bmp'><br><font color='red'><strong>Keep</strong></font></div><div class='tc'><img class='introPic' src='trustrating_stim/white_mw012.bmp'><br><font color='red'><strong>Keep</strong></font></div><div class='tr'><img class='introPic' src='trustrating_stim/white_mw038.bmp'><br><font color='green'><strong>Share</strong></font></div></div></div>","null","ARRAY","3","trustrating_stim/white_mw078.bmp,trustrating_stim/white_mw012.bmp,trustrating_stim/white_mw038.bmp","0,0,1","Match","e","4500","","","","",""
"html-keyboard-response","127","299617","0.0-7.0-3.18","60fcf7102d7c9907d95a0920","bdp_wmem","Sat Apr 08 2023 10:08:42 GMT-0700 (PDT)","549764","Match,No Match","","null","","","","","","<div class='trialBorder'><div class='vertical-center'><img src='img/fixation2_sml.jpg'</img></div></div>","null","DELAY","","","","","","","","","","",""
"html-keyboard-response","128","300804","0.0-7.0-4.18","60fcf7102d7c9907d95a0920","bdp_wmem","Sat Apr 08 2023 10:08:42 GMT-0700 (PDT)","549764","Match,No Match","","1185","","","","","","<div class='trialBorder'><div class='targDiv'><div class='tc'><img class='introPic' src='trustrating_stim/white_mw038.bmp'><br><font color='green'><strong>Share</strong></font></div></div><div class='respDiv'><div class='respDivL'>Match<br>(e)</div><div class='respDivR'>No Match<br>(i)</div></div></div>","e","TARGET","3","trustrating_stim/white_mw078.bmp,trustrating_stim/white_mw012.bmp,trustrating_stim/white_mw038.bmp","0,0,1","Match","e","4500","trustrating_stim/white_mw038.bmp","green","Share","REAL","1"
"html-keyboard-response","129","301306","0.0-7.0-5.18","60fcf7102d7c9907d95a0920","bdp_wmem","Sat Apr 08 2023 10:08:42 GMT-0700 (PDT)","549764","Match,No Match","","null","","","","","","<div class='trialBorder'><div class='vertical-center'><img src='img/correct.jpg'></div><div class='respDiv'><div class='respDivL'><font style='color:orange'>Match<br>(e)</font></div><div class='respDivR'>No Match<br>(i)</div></div></div>","null","FEEDBACK","","","","","","","","","","",""
"html-keyboard-response","130","301808","0.0-7.0-1.19","60fcf7102d7c9907d95a0920","bdp_wmem","Sat Apr 08 2023 10:08:42 GMT-0700 (PDT)","549764","Match,No Match","","null","","","","","","<div class='trialBorder'><div class='vertical-center'><img src='img/fixation2_sml.jpg'</img></div></div>","null","FIX","","","","","","","","","","",""
"html-keyboard-response","131","303310","0.0-7.0-2.19","60fcf7102d7c9907d95a0920","bdp_wmem","Sat Apr 08 2023 10:08:42 GMT-0700 (PDT)","549764","Match,No Match","","null","","","","","","<div class='trialBorder'><div class='vertical-center'><img style='vertical-align:center; align:center' src='img/fixation2_sml.jpg'></div><div class='arrayDiv1'><div class='tc'><img class='introPic' src='trustrating_stim/white_mw085.bmp'><br><font color='green'><strong>Share</strong></font></div></div></div>","null","ARRAY","1","trustrating_stim/white_mw085.bmp","1","Match","e","1500","","","","",""
"html-keyboard-response","132","307312","0.0-7.0-3.19","60fcf7102d7c9907d95a0920","bdp_wmem","Sat Apr 08 2023 10:08:42 GMT-0700 (PDT)","549764","Match,No Match","","null","","","","","","<div class='trialBorder'><div class='vertical-center'><img src='img/fixation2_sml.jpg'</img></div></div>","null","DELAY","","","","","","","","","","",""
"html-keyboard-response","133","308234","0.0-7.0-4.19","60fcf7102d7c9907d95a0920","bdp_wmem","Sat Apr 08 2023 10:08:42 GMT-0700 (PDT)","549764","Match,No Match","","920","","","","","","<div class='trialBorder'><div class='targDiv'><div class='tc'><img class='introPic' src='trustrating_stim/white_mw085.bmp'><br><font color='green'><strong>Share</strong></font></div></div><div class='respDiv'><div class='respDivL'>Match<br>(e)</div><div class='respDivR'>No Match<br>(i)</div></div></div>","i","TARGET","1","trustrating_stim/white_mw085.bmp","1","Match","e","1500","trustrating_stim/white_mw085.bmp","green","Share","REAL","0"
"html-keyboard-response","134","308736","0.0-7.0-5.19","60fcf7102d7c9907d95a0920","bdp_wmem","Sat Apr 08 2023 10:08:42 GMT-0700 (PDT)","549764","Match,No Match","","null","","","","","","<div class='trialBorder'><div class='vertical-center'><img src='img/error.jpg'></div><div class='respDiv'><div class='respDivL'>Match<br>(e)</div><div class='respDivR'><font style='color:orange'>No Match<br>(i)</font></div></div></div>","null","FEEDBACK","","","","","","","","","","",""
"html-keyboard-response","135","309238","0.0-7.0-1.20","60fcf7102d7c9907d95a0920","bdp_wmem","Sat Apr 08 2023 10:08:42 GMT-0700 (PDT)","549764","Match,No Match","","null","","","","","","<div class='trialBorder'><div class='vertical-center'><img src='img/fixation2_sml.jpg'</img></div></div>","null","FIX","","","","","","","","","","",""
"html-keyboard-response","136","313740","0.0-7.0-2.20","60fcf7102d7c9907d95a0920","bdp_wmem","Sat Apr 08 2023 10:08:42 GMT-0700 (PDT)","549764","Match,No Match","","null","","","","","","<div class='trialBorder'><div class='vertical-center'><img style='vertical-align:center; align:center' src='img/fixation2_sml.jpg'></div><div class='arrayDiv3'><div class='tl'><img class='introPic' src='trustrating_stim/white_mw038.bmp'><br><font color='green'><strong>Share</strong></font></div><div class='tc'><img class='introPic' src='trustrating_stim/white_mw085.bmp'><br><font color='red'><strong>Keep</strong></font></div><div class='tr'><img class='introPic' src='trustrating_stim/white_mw010.bmp'><br><font color='green'><strong>Share</strong></font></div></div></div>","null","ARRAY","3","trustrating_stim/white_mw038.bmp,trustrating_stim/white_mw085.bmp,trustrating_stim/white_mw010.bmp","1,0,1","Match","e","4500","","","","",""
"html-keyboard-response","137","317742","0.0-7.0-3.20","60fcf7102d7c9907d95a0920","bdp_wmem","Sat Apr 08 2023 10:08:42 GMT-0700 (PDT)","549764","Match,No Match","","null","","","","","","<div class='trialBorder'><div class='vertical-center'><img src='img/fixation2_sml.jpg'</img></div></div>","null","DELAY","","","","","","","","","","",""
"html-keyboard-response","138","318385","0.0-7.0-4.20","60fcf7102d7c9907d95a0920","bdp_wmem","Sat Apr 08 2023 10:08:42 GMT-0700 (PDT)","549764","Match,No Match","","638","","","","","","<div class='trialBorder'><div class='targDiv'><div class='tc'><img class='introPic' src='trustrating_stim/white_mw010.bmp'><br><font color='green'><strong>Share</strong></font></div></div><div class='respDiv'><div class='respDivL'>Match<br>(e)</div><div class='respDivR'>No Match<br>(i)</div></div></div>","e","TARGET","3","trustrating_stim/white_mw038.bmp,trustrating_stim/white_mw085.bmp,trustrating_stim/white_mw010.bmp","1,0,1","Match","e","4500","trustrating_stim/white_mw010.bmp","green","Share","REAL","1"
"html-keyboard-response","139","318887","0.0-7.0-5.20","60fcf7102d7c9907d95a0920","bdp_wmem","Sat Apr 08 2023 10:08:42 GMT-0700 (PDT)","549764","Match,No Match","","null","","","","","","<div class='trialBorder'><div class='vertical-center'><img src='img/correct.jpg'></div><div class='respDiv'><div class='respDivL'><font style='color:orange'>Match<br>(e)</font></div><div class='respDivR'>No Match<br>(i)</div></div></div>","null","FEEDBACK","","","","","","","","","","",""
"html-keyboard-response","140","319389","0.0-7.0-1.21","60fcf7102d7c9907d95a0920","bdp_wmem","Sat Apr 08 2023 10:08:42 GMT-0700 (PDT)","549764","Match,No Match","","null","","","","","","<div class='trialBorder'><div class='vertical-center'><img src='img/fixation2_sml.jpg'</img></div></div>","null","FIX","","","","","","","","","","",""
"html-keyboard-response","141","323891","0.0-7.0-2.21","60fcf7102d7c9907d95a0920","bdp_wmem","Sat Apr 08 2023 10:08:42 GMT-0700 (PDT)","549764","Match,No Match","","null","","","","","","<div class='trialBorder'><div class='vertical-center'><img style='vertical-align:center; align:center' src='img/fixation2_sml.jpg'></div><div class='arrayDiv3'><div class='tl'><img class='introPic' src='trustrating_stim/white_mw040.bmp'><br><font color='green'><strong>Share</strong></font></div><div class='tc'><img class='introPic' src='trustrating_stim/white_mw010.bmp'><br><font color='red'><strong>Keep</strong></font></div><div class='tr'><img class='introPic' src='trustrating_stim/white_mw092.bmp'><br><font color='red'><strong>Keep</strong></font></div></div></div>","null","ARRAY","3","trustrating_stim/white_mw040.bmp,trustrating_stim/white_mw010.bmp,trustrating_stim/white_mw092.bmp","1,0,0","noMatchOutcome","i","4500","","","","",""
"html-keyboard-response","142","327893","0.0-7.0-3.21","60fcf7102d7c9907d95a0920","bdp_wmem","Sat Apr 08 2023 10:08:42 GMT-0700 (PDT)","549764","Match,No Match","","null","","","","","","<div class='trialBorder'><div class='vertical-center'><img src='img/fixation2_sml.jpg'</img></div></div>","null","DELAY","","","","","","","","","","",""
"html-keyboard-response","143","328587","0.0-7.0-4.21","60fcf7102d7c9907d95a0920","bdp_wmem","Sat Apr 08 2023 10:08:42 GMT-0700 (PDT)","549764","Match,No Match","","693","","","","","","<div class='trialBorder'><div class='targDiv'><div class='tc'><img class='introPic' src='trustrating_stim/white_mw040.bmp'><br><font color='red'><strong>Keep</strong></font></div></div><div class='respDiv'><div class='respDivL'>Match<br>(e)</div><div class='respDivR'>No Match<br>(i)</div></div></div>","i","TARGET","3","trustrating_stim/white_mw040.bmp,trustrating_stim/white_mw010.bmp,trustrating_stim/white_mw092.bmp","1,0,0","noMatchOutcome","i","4500","trustrating_stim/white_mw040.bmp","red","Keep","REAL","1"
"html-keyboard-response","144","329091","0.0-7.0-5.21","60fcf7102d7c9907d95a0920","bdp_wmem","Sat Apr 08 2023 10:08:42 GMT-0700 (PDT)","549764","Match,No Match","","null","","","","","","<div class='trialBorder'><div class='vertical-center'><img src='img/correct.jpg'></div><div class='respDiv'><div class='respDivL'>Match<br>(e)</div><div class='respDivR'><font style='color:orange'>No Match<br>(i)</font></div></div></div>","null","FEEDBACK","","","","","","","","","","",""
"html-keyboard-response","145","329594","0.0-7.0-1.22","60fcf7102d7c9907d95a0920","bdp_wmem","Sat Apr 08 2023 10:08:42 GMT-0700 (PDT)","549764","Match,No Match","","null","","","","","","<div class='trialBorder'><div class='vertical-center'><img src='img/fixation2_sml.jpg'</img></div></div>","null","FIX","","","","","","","","","","",""
"html-keyboard-response","146","334097","0.0-7.0-2.22","60fcf7102d7c9907d95a0920","bdp_wmem","Sat Apr 08 2023 10:08:42 GMT-0700 (PDT)","549764","Match,No Match","","null","","","","","","<div class='trialBorder'><div class='vertical-center'><img style='vertical-align:center; align:center' src='img/fixation2_sml.jpg'></div><div class='arrayDiv3'><div class='tl'><img class='introPic' src='trustrating_stim/white_mw070.bmp'><br><font color='red'><strong>Keep</strong></font></div><div class='tc'><img class='introPic' src='trustrating_stim/white_mw013.bmp'><br><font color='green'><strong>Share</strong></font></div><div class='tr'><img class='introPic' src='trustrating_stim/white_mw092.bmp'><br><font color='green'><strong>Share</strong></font></div></div></div>","null","ARRAY","3","trustrating_stim/white_mw070.bmp,trustrating_stim/white_mw013.bmp,trustrating_stim/white_mw092.bmp","0,1,1","noMatchOutcome","i","4500","","","","",""
"html-keyboard-response","147","338100","0.0-7.0-3.22","60fcf7102d7c9907d95a0920","bdp_wmem","Sat Apr 08 2023 10:08:42 GMT-0700 (PDT)","549764","Match,No Match","","null","","","","","","<div class='trialBorder'><div class='vertical-center'><img src='img/fixation2_sml.jpg'</img></div></div>","null","DELAY","","","","","","","","","","",""
"html-keyboard-response","148","338766","0.0-7.0-4.22","60fcf7102d7c9907d95a0920","bdp_wmem","Sat Apr 08 2023 10:08:42 GMT-0700 (PDT)","549764","Match,No Match","","664","","","","","","<div class='trialBorder'><div class='targDiv'><div class='tc'><img class='introPic' src='trustrating_stim/white_mw070.bmp'><br><font color='green'><strong>Share</strong></font></div></div><div class='respDiv'><div class='respDivL'>Match<br>(e)</div><div class='respDivR'>No Match<br>(i)</div></div></div>","e","TARGET","3","trustrating_stim/white_mw070.bmp,trustrating_stim/white_mw013.bmp,trustrating_stim/white_mw092.bmp","0,1,1","noMatchOutcome","i","4500","trustrating_stim/white_mw070.bmp","green","Share","REAL","0"
"html-keyboard-response","149","339269","0.0-7.0-5.22","60fcf7102d7c9907d95a0920","bdp_wmem","Sat Apr 08 2023 10:08:42 GMT-0700 (PDT)","549764","Match,No Match","","null","","","","","","<div class='trialBorder'><div class='vertical-center'><img src='img/error.jpg'></div><div class='respDiv'><div class='respDivL'><font style='color:orange'>Match<br>(e)</font></div><div class='respDivR'>No Match<br>(i)</div></div></div>","null","FEEDBACK","","","","","","","","","","",""
"html-keyboard-response","150","339771","0.0-7.0-1.23","60fcf7102d7c9907d95a0920","bdp_wmem","Sat Apr 08 2023 10:08:42 GMT-0700 (PDT)","549764","Match,No Match","","null","","","","","","<div class='trialBorder'><div class='vertical-center'><img src='img/fixation2_sml.jpg'</img></div></div>","null","FIX","","","","","","","","","","",""
"html-keyboard-response","151","341273","0.0-7.0-2.23","60fcf7102d7c9907d95a0920","bdp_wmem","Sat Apr 08 2023 10:08:42 GMT-0700 (PDT)","549764","Match,No Match","","null","","","","","","<div class='trialBorder'><div class='vertical-center'><img style='vertical-align:center; align:center' src='img/fixation2_sml.jpg'></div><div class='arrayDiv1'><div class='tc'><img class='introPic' src='trustrating_stim/white_mw070.bmp'><br><font color='red'><strong>Keep</strong></font></div></div></div>","null","ARRAY","1","trustrating_stim/white_mw070.bmp","0","noMatchFace","i","1500","","","","",""
"html-keyboard-response","152","345275","0.0-7.0-3.23","60fcf7102d7c9907d95a0920","bdp_wmem","Sat Apr 08 2023 10:08:42 GMT-0700 (PDT)","549764","Match,No Match","","null","","","","","","<div class='trialBorder'><div class='vertical-center'><img src='img/fixation2_sml.jpg'</img></div></div>","null","DELAY","","","","","","","","","","",""
"html-keyboard-response","153","346044","0.0-7.0-4.23","60fcf7102d7c9907d95a0920","bdp_wmem","Sat Apr 08 2023 10:08:42 GMT-0700 (PDT)","549764","Match,No Match","","767","","","","","","<div class='trialBorder'><div class='targDiv'><div class='tc'><img class='introPic' src='trustrating_stim/white_mw012.bmp'><br><font color='red'><strong>Keep</strong></font></div></div><div class='respDiv'><div class='respDivL'>Match<br>(e)</div><div class='respDivR'>No Match<br>(i)</div></div></div>","i","TARGET","1","trustrating_stim/white_mw070.bmp","0","noMatchFace","i","1500","trustrating_stim/white_mw012.bmp","red","Keep","REAL","1"
"html-keyboard-response","154","346546","0.0-7.0-5.23","60fcf7102d7c9907d95a0920","bdp_wmem","Sat Apr 08 2023 10:08:42 GMT-0700 (PDT)","549764","Match,No Match","","null","","","","","","<div class='trialBorder'><div class='vertical-center'><img src='img/correct.jpg'></div><div class='respDiv'><div class='respDivL'>Match<br>(e)</div><div class='respDivR'><font style='color:orange'>No Match<br>(i)</font></div></div></div>","null","FEEDBACK","","","","","","","","","","",""
"html-keyboard-response","155","347047","0.0-7.0-1.24","60fcf7102d7c9907d95a0920","bdp_wmem","Sat Apr 08 2023 10:08:42 GMT-0700 (PDT)","549764","Match,No Match","","null","","","","","","<div class='trialBorder'><div class='vertical-center'><img src='img/fixation2_sml.jpg'</img></div></div>","null","FIX","","","","","","","","","","",""
"html-keyboard-response","156","350049","0.0-7.0-2.24","60fcf7102d7c9907d95a0920","bdp_wmem","Sat Apr 08 2023 10:08:42 GMT-0700 (PDT)","549764","Match,No Match","","null","","","","","","<div class='trialBorder'><div class='vertical-center'><img style='vertical-align:center; align:center' src='img/fixation2_sml.jpg'></div><div class='arrayDiv2'><div class='tl'><img class='introPic' src='trustrating_stim/white_mw085.bmp'><br><font color='red'><strong>Keep</strong></font></div><div class='tr'><img class='introPic' src='trustrating_stim/white_mw038.bmp'><br><font color='green'><strong>Share</strong></font></div></div></div>","null","ARRAY","2","trustrating_stim/white_mw085.bmp,trustrating_stim/white_mw038.bmp","0,1","noMatchFace","i","3000","","","","",""
"html-keyboard-response","157","354051","0.0-7.0-3.24","60fcf7102d7c9907d95a0920","bdp_wmem","Sat Apr 08 2023 10:08:42 GMT-0700 (PDT)","549764","Match,No Match","","null","","","","","","<div class='trialBorder'><div class='vertical-center'><img src='img/fixation2_sml.jpg'</img></div></div>","null","DELAY","","","","","","","","","","",""
"html-keyboard-response","158","354721","0.0-7.0-4.24","60fcf7102d7c9907d95a0920","bdp_wmem","Sat Apr 08 2023 10:08:42 GMT-0700 (PDT)","549764","Match,No Match","","669","","","","","","<div class='trialBorder'><div class='targDiv'><div class='tc'><img class='introPic' src='trustrating_stim/white_mw012.bmp'><br><font color='red'><strong>Keep</strong></font></div></div><div class='respDiv'><div class='respDivL'>Match<br>(e)</div><div class='respDivR'>No Match<br>(i)</div></div></div>","i","TARGET","2","trustrating_stim/white_mw085.bmp,trustrating_stim/white_mw038.bmp","0,1","noMatchFace","i","3000","trustrating_stim/white_mw012.bmp","red","Keep","REAL","1"
"html-keyboard-response","159","355223","0.0-7.0-5.24","60fcf7102d7c9907d95a0920","bdp_wmem","Sat Apr 08 2023 10:08:42 GMT-0700 (PDT)","549764","Match,No Match","","null","","","","","","<div class='trialBorder'><div class='vertical-center'><img src='img/correct.jpg'></div><div class='respDiv'><div class='respDivL'>Match<br>(e)</div><div class='respDivR'><font style='color:orange'>No Match<br>(i)</font></div></div></div>","null","FEEDBACK","","","","","","","","","","",""
"html-keyboard-response","160","355725","0.0-7.0-1.25","60fcf7102d7c9907d95a0920","bdp_wmem","Sat Apr 08 2023 10:08:42 GMT-0700 (PDT)","549764","Match,No Match","","null","","","","","","<div class='trialBorder'><div class='vertical-center'><img src='img/fixation2_sml.jpg'</img></div></div>","null","FIX","","","","","","","","","","",""
"html-keyboard-response","161","357227","0.0-7.0-2.25","60fcf7102d7c9907d95a0920","bdp_wmem","Sat Apr 08 2023 10:08:42 GMT-0700 (PDT)","549764","Match,No Match","","null","","","","","","<div class='trialBorder'><div class='vertical-center'><img style='vertical-align:center; align:center' src='img/fixation2_sml.jpg'></div><div class='arrayDiv1'><div class='tc'><img class='introPic' src='trustrating_stim/white_mw040.bmp'><br><font color='green'><strong>Share</strong></font></div></div></div>","null","ARRAY","1","trustrating_stim/white_mw040.bmp","1","Match","e","1500","","","","",""
"html-keyboard-response","162","361229","0.0-7.0-3.25","60fcf7102d7c9907d95a0920","bdp_wmem","Sat Apr 08 2023 10:08:42 GMT-0700 (PDT)","549764","Match,No Match","","null","","","","","","<div class='trialBorder'><div class='vertical-center'><img src='img/fixation2_sml.jpg'</img></div></div>","null","DELAY","","","","","","","","","","",""
"html-keyboard-response","163","362037","0.0-7.0-4.25","60fcf7102d7c9907d95a0920","bdp_wmem","Sat Apr 08 2023 10:08:42 GMT-0700 (PDT)","549764","Match,No Match","","807","","","","","","<div class='trialBorder'><div class='targDiv'><div class='tc'><img class='introPic' src='trustrating_stim/white_mw040.bmp'><br><font color='green'><strong>Share</strong></font></div></div><div class='respDiv'><div class='respDivL'>Match<br>(e)</div><div class='respDivR'>No Match<br>(i)</div></div></div>","e","TARGET","1","trustrating_stim/white_mw040.bmp","1","Match","e","1500","trustrating_stim/white_mw040.bmp","green","Share","REAL","1"
"html-keyboard-response","164","362540","0.0-7.0-5.25","60fcf7102d7c9907d95a0920","bdp_wmem","Sat Apr 08 2023 10:08:42 GMT-0700 (PDT)","549764","Match,No Match","","null","","","","","","<div class='trialBorder'><div class='vertical-center'><img src='img/correct.jpg'></div><div class='respDiv'><div class='respDivL'><font style='color:orange'>Match<br>(e)</font></div><div class='respDivR'>No Match<br>(i)</div></div></div>","null","FEEDBACK","","","","","","","","","","",""
"html-keyboard-response","165","363042","0.0-7.0-1.26","60fcf7102d7c9907d95a0920","bdp_wmem","Sat Apr 08 2023 10:08:42 GMT-0700 (PDT)","549764","Match,No Match","","null","","","","","","<div class='trialBorder'><div class='vertical-center'><img src='img/fixation2_sml.jpg'</img></div></div>","null","FIX","","","","","","","","","","",""
"html-keyboard-response","166","366044","0.0-7.0-2.26","60fcf7102d7c9907d95a0920","bdp_wmem","Sat Apr 08 2023 10:08:42 GMT-0700 (PDT)","549764","Match,No Match","","null","","","","","","<div class='trialBorder'><div class='vertical-center'><img style='vertical-align:center; align:center' src='img/fixation2_sml.jpg'></div><div class='arrayDiv2'><div class='tl'><img class='introPic' src='trustrating_stim/white_mw040.bmp'><br><font color='red'><strong>Keep</strong></font></div><div class='tr'><img class='introPic' src='trustrating_stim/white_mw012.bmp'><br><font color='green'><strong>Share</strong></font></div></div></div>","null","ARRAY","2","trustrating_stim/white_mw040.bmp,trustrating_stim/white_mw012.bmp","0,1","Match","e","3000","","","","",""
"html-keyboard-response","167","370046","0.0-7.0-3.26","60fcf7102d7c9907d95a0920","bdp_wmem","Sat Apr 08 2023 10:08:42 GMT-0700 (PDT)","549764","Match,No Match","","null","","","","","","<div class='trialBorder'><div class='vertical-center'><img src='img/fixation2_sml.jpg'</img></div></div>","null","DELAY","","","","","","","","","","",""
"html-keyboard-response","168","370585","0.0-7.0-4.26","60fcf7102d7c9907d95a0920","bdp_wmem","Sat Apr 08 2023 10:08:42 GMT-0700 (PDT)","549764","Match,No Match","","538","","","","","","<div class='trialBorder'><div class='targDiv'><div class='tc'><img class='introPic' src='trustrating_stim/white_mw040.bmp'><br><font color='red'><strong>Keep</strong></font></div></div><div class='respDiv'><div class='respDivL'>Match<br>(e)</div><div class='respDivR'>No Match<br>(i)</div></div></div>","e","TARGET","2","trustrating_stim/white_mw040.bmp,trustrating_stim/white_mw012.bmp","0,1","Match","e","3000","trustrating_stim/white_mw040.bmp","red","Keep","REAL","1"
"html-keyboard-response","169","371086","0.0-7.0-5.26","60fcf7102d7c9907d95a0920","bdp_wmem","Sat Apr 08 2023 10:08:42 GMT-0700 (PDT)","549764","Match,No Match","","null","","","","","","<div class='trialBorder'><div class='vertical-center'><img src='img/correct.jpg'></div><div class='respDiv'><div class='respDivL'><font style='color:orange'>Match<br>(e)</font></div><div class='respDivR'>No Match<br>(i)</div></div></div>","null","FEEDBACK","","","","","","","","","","",""
"html-keyboard-response","170","371588","0.0-7.0-1.27","60fcf7102d7c9907d95a0920","bdp_wmem","Sat Apr 08 2023 10:08:42 GMT-0700 (PDT)","549764","Match,No Match","","null","","","","","","<div class='trialBorder'><div class='vertical-center'><img src='img/fixation2_sml.jpg'</img></div></div>","null","FIX","","","","","","","","","","",""
"html-keyboard-response","171","374590","0.0-7.0-2.27","60fcf7102d7c9907d95a0920","bdp_wmem","Sat Apr 08 2023 10:08:42 GMT-0700 (PDT)","549764","Match,No Match","","null","","","","","","<div class='trialBorder'><div class='vertical-center'><img style='vertical-align:center; align:center' src='img/fixation2_sml.jpg'></div><div class='arrayDiv2'><div class='tl'><img class='introPic' src='trustrating_stim/white_mw078.bmp'><br><font color='green'><strong>Share</strong></font></div><div class='tr'><img class='introPic' src='trustrating_stim/white_mw003.bmp'><br><font color='red'><strong>Keep</strong></font></div></div></div>","null","ARRAY","2","trustrating_stim/white_mw078.bmp,trustrating_stim/white_mw003.bmp","1,0","noMatchFace","i","3000","","","","",""
"html-keyboard-response","172","378596","0.0-7.0-3.27","60fcf7102d7c9907d95a0920","bdp_wmem","Sat Apr 08 2023 10:08:42 GMT-0700 (PDT)","549764","Match,No Match","","null","","","","","","<div class='trialBorder'><div class='vertical-center'><img src='img/fixation2_sml.jpg'</img></div></div>","null","DELAY","","","","","","","","","","",""
"html-keyboard-response","173","379366","0.0-7.0-4.27","60fcf7102d7c9907d95a0920","bdp_wmem","Sat Apr 08 2023 10:08:42 GMT-0700 (PDT)","549764","Match,No Match","","768","","","","","","<div class='trialBorder'><div class='targDiv'><div class='tc'><img class='introPic' src='trustrating_stim/white_mw092.bmp'><br><font color='green'><strong>Share</strong></font></div></div><div class='respDiv'><div class='respDivL'>Match<br>(e)</div><div class='respDivR'>No Match<br>(i)</div></div></div>","e","TARGET","2","trustrating_stim/white_mw078.bmp,trustrating_stim/white_mw003.bmp","1,0","noMatchFace","i","3000","trustrating_stim/white_mw092.bmp","green","Share","REAL","0"
"html-keyboard-response","174","379869","0.0-7.0-5.27","60fcf7102d7c9907d95a0920","bdp_wmem","Sat Apr 08 2023 10:08:42 GMT-0700 (PDT)","549764","Match,No Match","","null","","","","","","<div class='trialBorder'><div class='vertical-center'><img src='img/error.jpg'></div><div class='respDiv'><div class='respDivL'><font style='color:orange'>Match<br>(e)</font></div><div class='respDivR'>No Match<br>(i)</div></div></div>","null","FEEDBACK","","","","","","","","","","",""
"html-keyboard-response","175","380371","0.0-7.0-1.28","60fcf7102d7c9907d95a0920","bdp_wmem","Sat Apr 08 2023 10:08:42 GMT-0700 (PDT)","549764","Match,No Match","","null","","","","","","<div class='trialBorder'><div class='vertical-center'><img src='img/fixation2_sml.jpg'</img></div></div>","null","FIX","","","","","","","","","","",""
"html-keyboard-response","176","383373","0.0-7.0-2.28","60fcf7102d7c9907d95a0920","bdp_wmem","Sat Apr 08 2023 10:08:42 GMT-0700 (PDT)","549764","Match,No Match","","null","","","","","","<div class='trialBorder'><div class='vertical-center'><img style='vertical-align:center; align:center' src='img/fixation2_sml.jpg'></div><div class='arrayDiv2'><div class='tl'><img class='introPic' src='trustrating_stim/white_mw013.bmp'><br><font color='red'><strong>Keep</strong></font></div><div class='tr'><img class='introPic' src='trustrating_stim/white_mw012.bmp'><br><font color='green'><strong>Share</strong></font></div></div></div>","null","ARRAY","2","trustrating_stim/white_mw013.bmp,trustrating_stim/white_mw012.bmp","0,1","noMatchFace","i","3000","","","","",""
"html-keyboard-response","177","387377","0.0-7.0-3.28","60fcf7102d7c9907d95a0920","bdp_wmem","Sat Apr 08 2023 10:08:42 GMT-0700 (PDT)","549764","Match,No Match","","null","","","","","","<div class='trialBorder'><div class='vertical-center'><img src='img/fixation2_sml.jpg'</img></div></div>","null","DELAY","","","","","","","","","","",""
"html-keyboard-response","178","387789","0.0-7.0-4.28","60fcf7102d7c9907d95a0920","bdp_wmem","Sat Apr 08 2023 10:08:42 GMT-0700 (PDT)","549764","Match,No Match","","409","","","","","","<div class='trialBorder'><div class='targDiv'><div class='tc'><img class='introPic' src='trustrating_stim/white_mw085.bmp'><br><font color='green'><strong>Share</strong></font></div></div><div class='respDiv'><div class='respDivL'>Match<br>(e)</div><div class='respDivR'>No Match<br>(i)</div></div></div>","i","TARGET","2","trustrating_stim/white_mw013.bmp,trustrating_stim/white_mw012.bmp","0,1","noMatchFace","i","3000","trustrating_stim/white_mw085.bmp","green","Share","REAL","1"
"html-keyboard-response","179","388291","0.0-7.0-5.28","60fcf7102d7c9907d95a0920","bdp_wmem","Sat Apr 08 2023 10:08:42 GMT-0700 (PDT)","549764","Match,No Match","","null","","","","","","<div class='trialBorder'><div class='vertical-center'><img src='img/correct.jpg'></div><div class='respDiv'><div class='respDivL'>Match<br>(e)</div><div class='respDivR'><font style='color:orange'>No Match<br>(i)</font></div></div></div>","null","FEEDBACK","","","","","","","","","","",""
"html-keyboard-response","180","388793","0.0-7.0-1.29","60fcf7102d7c9907d95a0920","bdp_wmem","Sat Apr 08 2023 10:08:42 GMT-0700 (PDT)","549764","Match,No Match","","null","","","","","","<div class='trialBorder'><div class='vertical-center'><img src='img/fixation2_sml.jpg'</img></div></div>","null","FIX","","","","","","","","","","",""
"html-keyboard-response","181","391795","0.0-7.0-2.29","60fcf7102d7c9907d95a0920","bdp_wmem","Sat Apr 08 2023 10:08:42 GMT-0700 (PDT)","549764","Match,No Match","","null","","","","","","<div class='trialBorder'><div class='vertical-center'><img style='vertical-align:center; align:center' src='img/fixation2_sml.jpg'></div><div class='arrayDiv2'><div class='tl'><img class='introPic' src='trustrating_stim/white_mw042.bmp'><br><font color='green'><strong>Share</strong></font></div><div class='tr'><img class='introPic' src='trustrating_stim/white_mw038.bmp'><br><font color='red'><strong>Keep</strong></font></div></div></div>","null","ARRAY","2","trustrating_stim/white_mw042.bmp,trustrating_stim/white_mw038.bmp","1,0","Match","e","3000","","","","",""
"html-keyboard-response","182","395797","0.0-7.0-3.29","60fcf7102d7c9907d95a0920","bdp_wmem","Sat Apr 08 2023 10:08:42 GMT-0700 (PDT)","549764","Match,No Match","","null","","","","","","<div class='trialBorder'><div class='vertical-center'><img src='img/fixation2_sml.jpg'</img></div></div>","null","DELAY","","","","","","","","","","",""
"html-keyboard-response","183","396382","0.0-7.0-4.29","60fcf7102d7c9907d95a0920","bdp_wmem","Sat Apr 08 2023 10:08:42 GMT-0700 (PDT)","549764","Match,No Match","","584","","","","","","<div class='trialBorder'><div class='targDiv'><div class='tc'><img class='introPic' src='trustrating_stim/white_mw042.bmp'><br><font color='green'><strong>Share</strong></font></div></div><div class='respDiv'><div class='respDivL'>Match<br>(e)</div><div class='respDivR'>No Match<br>(i)</div></div></div>","e","TARGET","2","trustrating_stim/white_mw042.bmp,trustrating_stim/white_mw038.bmp","1,0","Match","e","3000","trustrating_stim/white_mw042.bmp","green","Share","REAL","1"
"html-keyboard-response","184","396885","0.0-7.0-5.29","60fcf7102d7c9907d95a0920","bdp_wmem","Sat Apr 08 2023 10:08:42 GMT-0700 (PDT)","549764","Match,No Match","","null","","","","","","<div class='trialBorder'><div class='vertical-center'><img src='img/correct.jpg'></div><div class='respDiv'><div class='respDivL'><font style='color:orange'>Match<br>(e)</font></div><div class='respDivR'>No Match<br>(i)</div></div></div>","null","FEEDBACK","","","","","","","","","","",""
"html-keyboard-response","185","397386","0.0-7.0-1.30","60fcf7102d7c9907d95a0920","bdp_wmem","Sat Apr 08 2023 10:08:42 GMT-0700 (PDT)","549764","Match,No Match","","null","","","","","","<div class='trialBorder'><div class='vertical-center'><img src='img/fixation2_sml.jpg'</img></div></div>","null","FIX","","","","","","","","","","",""
"html-keyboard-response","186","400388","0.0-7.0-2.30","60fcf7102d7c9907d95a0920","bdp_wmem","Sat Apr 08 2023 10:08:42 GMT-0700 (PDT)","549764","Match,No Match","","null","","","","","","<div class='trialBorder'><div class='vertical-center'><img style='vertical-align:center; align:center' src='img/fixation2_sml.jpg'></div><div class='arrayDiv2'><div class='tl'><img class='introPic' src='trustrating_stim/white_mw091.bmp'><br><font color='green'><strong>Share</strong></font></div><div class='tr'><img class='introPic' src='trustrating_stim/white_mw012.bmp'><br><font color='red'><strong>Keep</strong></font></div></div></div>","null","ARRAY","2","trustrating_stim/white_mw091.bmp,trustrating_stim/white_mw012.bmp","1,0","Match","e","3000","","","","",""
"html-keyboard-response","187","404391","0.0-7.0-3.30","60fcf7102d7c9907d95a0920","bdp_wmem","Sat Apr 08 2023 10:08:42 GMT-0700 (PDT)","549764","Match,No Match","","null","","","","","","<div class='trialBorder'><div class='vertical-center'><img src='img/fixation2_sml.jpg'</img></div></div>","null","DELAY","","","","","","","","","","",""
"html-keyboard-response","188","405081","0.0-7.0-4.30","60fcf7102d7c9907d95a0920","bdp_wmem","Sat Apr 08 2023 10:08:42 GMT-0700 (PDT)","549764","Match,No Match","","687","","","","","","<div class='trialBorder'><div class='targDiv'><div class='tc'><img class='introPic' src='trustrating_stim/white_mw012.bmp'><br><font color='red'><strong>Keep</strong></font></div></div><div class='respDiv'><div class='respDivL'>Match<br>(e)</div><div class='respDivR'>No Match<br>(i)</div></div></div>","i","TARGET","2","trustrating_stim/white_mw091.bmp,trustrating_stim/white_mw012.bmp","1,0","Match","e","3000","trustrating_stim/white_mw012.bmp","red","Keep","REAL","0"
"html-keyboard-response","189","405583","0.0-7.0-5.30","60fcf7102d7c9907d95a0920","bdp_wmem","Sat Apr 08 2023 10:08:42 GMT-0700 (PDT)","549764","Match,No Match","","null","","","","","","<div class='trialBorder'><div class='vertical-center'><img src='img/error.jpg'></div><div class='respDiv'><div class='respDivL'>Match<br>(e)</div><div class='respDivR'><font style='color:orange'>No Match<br>(i)</font></div></div></div>","null","FEEDBACK","","","","","","","","","","",""
"html-keyboard-response","190","406085","0.0-7.0-1.31","60fcf7102d7c9907d95a0920","bdp_wmem","Sat Apr 08 2023 10:08:42 GMT-0700 (PDT)","549764","Match,No Match","","null","","","","","","<div class='trialBorder'><div class='vertical-center'><img src='img/fixation2_sml.jpg'</img></div></div>","null","FIX","","","","","","","","","","",""
"html-keyboard-response","191","407587","0.0-7.0-2.31","60fcf7102d7c9907d95a0920","bdp_wmem","Sat Apr 08 2023 10:08:42 GMT-0700 (PDT)","549764","Match,No Match","","null","","","","","","<div class='trialBorder'><div class='vertical-center'><img style='vertical-align:center; align:center' src='img/fixation2_sml.jpg'></div><div class='arrayDiv1'><div class='tc'><img class='introPic' src='trustrating_stim/white_mw013.bmp'><br><font color='red'><strong>Keep</strong></font></div></div></div>","null","ARRAY","1","trustrating_stim/white_mw013.bmp","0","noMatchOutcome","i","1500","","","","",""
"html-keyboard-response","192","411589","0.0-7.0-3.31","60fcf7102d7c9907d95a0920","bdp_wmem","Sat Apr 08 2023 10:08:42 GMT-0700 (PDT)","549764","Match,No Match","","null","","","","","","<div class='trialBorder'><div class='vertical-center'><img src='img/fixation2_sml.jpg'</img></div></div>","null","DELAY","","","","","","","","","","",""
"html-keyboard-response","193","412673","0.0-7.0-4.31","60fcf7102d7c9907d95a0920","bdp_wmem","Sat Apr 08 2023 10:08:42 GMT-0700 (PDT)","549764","Match,No Match","","1083","","","","","","<div class='trialBorder'><div class='targDiv'><div class='tc'><img class='introPic' src='trustrating_stim/white_mw013.bmp'><br><font color='green'><strong>Share</strong></font></div></div><div class='respDiv'><div class='respDivL'>Match<br>(e)</div><div class='respDivR'>No Match<br>(i)</div></div></div>","e","TARGET","1","trustrating_stim/white_mw013.bmp","0","noMatchOutcome","i","1500","trustrating_stim/white_mw013.bmp","green","Share","REAL","0"
