"trial_type","trial_index","time_elapsed","internal_node_id","subject_id","task","startTime","totalTime","labels","view_history","rt","event","trial","time","trialtype","success","stimulus","key_press","stimType","arraySize","arrayFaces","arrayOutcomes","matchType","corrResp","arrayDur","targFace","targCol","targOutcome","trialType","corr"
"pavlovia","0","2","0.0-0.0","611f9bb3dcada21890ed9af0","bdp_wmem","Mon Mar 13 2023 21:16:56 GMT-0700 (Pacific Daylight Time)","593209","Match,No Match","","","","","","","","","","","","","","","","","","","","",""
"instructions","1","2020","0.0-1.0","611f9bb3dcada21890ed9af0","bdp_wmem","Mon Mar 13 2023 21:16:56 GMT-0700 (Pacific Daylight Time)","593209","Match,No Match","[{""page_index"":0,""viewing_time"":2016}]","2017","","","","","","","","","","","","","","","","","","",""
"","","","","611f9bb3dcada21890ed9af0","bdp_wmem","Mon Mar 13 2023 21:16:56 GMT-0700 (Pacific Daylight Time)","593209","Match,No Match","","","fullscreenenter","2","3566","fullscreenenter","","","","","","","","","","","","","","",""
"fullscreen","2","4570","0.0-2.0","611f9bb3dcada21890ed9af0","bdp_wmem","Mon Mar 13 2023 21:16:56 GMT-0700 (Pacific Daylight Time)","593209","Match,No Match","","","","","","","true","","","","","","","","","","","","","",""
"instructions","3","82236","0.0-4.0","611f9bb3dcada21890ed9af0","bdp_wmem","Mon Mar 13 2023 21:16:56 GMT-0700 (Pacific Daylight Time)","593209","Match,No Match","[{""page_index"":0,""viewing_time"":26277},{""page_index"":1,""viewing_time"":30135},{""page_index"":2,""viewing_time"":9773},{""page_index"":3,""viewing_time"":4366},{""page_index"":4,""viewing_time"":7112}]","77663","","","","","","","","","","","","","","","","","","",""
"html-keyboard-response","4","82742","0.0-5.0-1.0","611f9bb3dcada21890ed9af0","bdp_wmem","Mon Mar 13 2023 21:16:56 GMT-0700 (Pacific Daylight Time)","593209","Match,No Match","","null","","","","","","<div class='trialBorder'><div class='vertical-center'><img src='img/fixation2_sml.jpg'</img></div></div>","null","FIX","","","","","","","","","","",""
"html-keyboard-response","5","85749","0.0-5.0-2.0","611f9bb3dcada21890ed9af0","bdp_wmem","Mon Mar 13 2023 21:16:56 GMT-0700 (Pacific Daylight Time)","593209","Match,No Match","","null","","","","","","<div class='trialBorder'><div class='vertical-center'><img style='vertical-align:center; align:center' src='img/fixation2_sml.jpg'></div><div class='arrayDiv2'><div class='tl'><img class='introPic' src='trustrating_stim/white_mw091.bmp'><br><font color='red'><strong>Keep</strong></font></div><div class='tr'><img class='introPic' src='trustrating_stim/white_mw040.bmp'><br><font color='green'><strong>Share</strong></font></div></div></div>","null","ARRAY","2","trustrating_stim/white_mw091.bmp,trustrating_stim/white_mw040.bmp","0,1","Match","e","3000","","","","",""
"html-keyboard-response","6","89756","0.0-5.0-3.0","611f9bb3dcada21890ed9af0","bdp_wmem","Mon Mar 13 2023 21:16:56 GMT-0700 (Pacific Daylight Time)","593209","Match,No Match","","null","","","","","","<div class='trialBorder'><div class='vertical-center'><img src='img/fixation2_sml.jpg'</img></div></div>","null","DELAY","","","","","","","","","","",""
"html-keyboard-response","7","92406","0.0-5.0-4.0","611f9bb3dcada21890ed9af0","bdp_wmem","Mon Mar 13 2023 21:16:56 GMT-0700 (Pacific Daylight Time)","593209","Match,No Match","","2647","","","","","","<div class='trialBorder'><div class='targDiv'><div class='tc'><img class='introPic' src='trustrating_stim/white_mw091.bmp'><br><font color='red'><strong>Keep</strong></font></div></div><div class='respDiv'><div class='respDivL'>Match<br>(e)</div><div class='respDivR'>No Match<br>(i)</div></div></div>","e","TARGET","2","trustrating_stim/white_mw091.bmp,trustrating_stim/white_mw040.bmp","0,1","Match","e","3000","trustrating_stim/white_mw091.bmp","red","Keep","PRACTICE","1"
"html-keyboard-response","8","92917","0.0-5.0-5.0","611f9bb3dcada21890ed9af0","bdp_wmem","Mon Mar 13 2023 21:16:56 GMT-0700 (Pacific Daylight Time)","593209","Match,No Match","","null","","","","","","<div class='trialBorder'><div class='vertical-center'><img src='img/correct.jpg'></div><div class='respDiv'><div class='respDivL'><font style='color:orange'>Match<br>(e)</font></div><div class='respDivR'>No Match<br>(i)</div></div></div>","null","FEEDBACK","","","","","","","","","","",""
"html-keyboard-response","9","93427","0.0-5.0-1.1","611f9bb3dcada21890ed9af0","bdp_wmem","Mon Mar 13 2023 21:16:56 GMT-0700 (Pacific Daylight Time)","593209","Match,No Match","","null","","","","","","<div class='trialBorder'><div class='vertical-center'><img src='img/fixation2_sml.jpg'</img></div></div>","null","FIX","","","","","","","","","","",""
"html-keyboard-response","10","97941","0.0-5.0-2.1","611f9bb3dcada21890ed9af0","bdp_wmem","Mon Mar 13 2023 21:16:56 GMT-0700 (Pacific Daylight Time)","593209","Match,No Match","","null","","","","","","<div class='trialBorder'><div class='vertical-center'><img style='vertical-align:center; align:center' src='img/fixation2_sml.jpg'></div><div class='arrayDiv3'><div class='tl'><img class='introPic' src='trustrating_stim/white_mw085.bmp'><br><font color='red'><strong>Keep</strong></font></div><div class='tc'><img class='introPic' src='trustrating_stim/white_mw038.bmp'><br><font color='green'><strong>Share</strong></font></div><div class='tr'><img class='introPic' src='trustrating_stim/white_mw003.bmp'><br><font color='red'><strong>Keep</strong></font></div></div></div>","null","ARRAY","3","trustrating_stim/white_mw085.bmp,trustrating_stim/white_mw038.bmp,trustrating_stim/white_mw003.bmp","0,1,0","noMatchOutcome","i","4500","","","","",""
"html-keyboard-response","11","101946","0.0-5.0-3.1","611f9bb3dcada21890ed9af0","bdp_wmem","Mon Mar 13 2023 21:16:56 GMT-0700 (Pacific Daylight Time)","593209","Match,No Match","","null","","","","","","<div class='trialBorder'><div class='vertical-center'><img src='img/fixation2_sml.jpg'</img></div></div>","null","DELAY","","","","","","","","","","",""
"html-keyboard-response","12","103630","0.0-5.0-4.1","611f9bb3dcada21890ed9af0","bdp_wmem","Mon Mar 13 2023 21:16:56 GMT-0700 (Pacific Daylight Time)","593209","Match,No Match","","1682","","","","","","<div class='trialBorder'><div class='targDiv'><div class='tc'><img class='introPic' src='trustrating_stim/white_mw038.bmp'><br><font color='red'><strong>Keep</strong></font></div></div><div class='respDiv'><div class='respDivL'>Match<br>(e)</div><div class='respDivR'>No Match<br>(i)</div></div></div>","i","TARGET","3","trustrating_stim/white_mw085.bmp,trustrating_stim/white_mw038.bmp,trustrating_stim/white_mw003.bmp","0,1,0","noMatchOutcome","i","4500","trustrating_stim/white_mw038.bmp","red","Keep","PRACTICE","1"
"html-keyboard-response","13","104138","0.0-5.0-5.1","611f9bb3dcada21890ed9af0","bdp_wmem","Mon Mar 13 2023 21:16:56 GMT-0700 (Pacific Daylight Time)","593209","Match,No Match","","null","","","","","","<div class='trialBorder'><div class='vertical-center'><img src='img/correct.jpg'></div><div class='respDiv'><div class='respDivL'>Match<br>(e)</div><div class='respDivR'><font style='color:orange'>No Match<br>(i)</font></div></div></div>","null","FEEDBACK","","","","","","","","","","",""
"html-keyboard-response","14","104645","0.0-5.0-1.2","611f9bb3dcada21890ed9af0","bdp_wmem","Mon Mar 13 2023 21:16:56 GMT-0700 (Pacific Daylight Time)","593209","Match,No Match","","null","","","","","","<div class='trialBorder'><div class='vertical-center'><img src='img/fixation2_sml.jpg'</img></div></div>","null","FIX","","","","","","","","","","",""
"html-keyboard-response","15","109156","0.0-5.0-2.2","611f9bb3dcada21890ed9af0","bdp_wmem","Mon Mar 13 2023 21:16:56 GMT-0700 (Pacific Daylight Time)","593209","Match,No Match","","null","","","","","","<div class='trialBorder'><div class='vertical-center'><img style='vertical-align:center; align:center' src='img/fixation2_sml.jpg'></div><div class='arrayDiv3'><div class='tl'><img class='introPic' src='trustrating_stim/white_mw013.bmp'><br><font color='green'><strong>Share</strong></font></div><div class='tc'><img class='introPic' src='trustrating_stim/white_mw012.bmp'><br><font color='red'><strong>Keep</strong></font></div><div class='tr'><img class='introPic' src='trustrating_stim/white_mw078.bmp'><br><font color='green'><strong>Share</strong></font></div></div></div>","null","ARRAY","3","trustrating_stim/white_mw013.bmp,trustrating_stim/white_mw012.bmp,trustrating_stim/white_mw078.bmp","1,0,1","Match","e","4500","","","","",""
"html-keyboard-response","16","113162","0.0-5.0-3.2","611f9bb3dcada21890ed9af0","bdp_wmem","Mon Mar 13 2023 21:16:56 GMT-0700 (Pacific Daylight Time)","593209","Match,No Match","","null","","","","","","<div class='trialBorder'><div class='vertical-center'><img src='img/fixation2_sml.jpg'</img></div></div>","null","DELAY","","","","","","","","","","",""
"html-keyboard-response","17","114259","0.0-5.0-4.2","611f9bb3dcada21890ed9af0","bdp_wmem","Mon Mar 13 2023 21:16:56 GMT-0700 (Pacific Daylight Time)","593209","Match,No Match","","1095","","","","","","<div class='trialBorder'><div class='targDiv'><div class='tc'><img class='introPic' src='trustrating_stim/white_mw078.bmp'><br><font color='green'><strong>Share</strong></font></div></div><div class='respDiv'><div class='respDivL'>Match<br>(e)</div><div class='respDivR'>No Match<br>(i)</div></div></div>","e","TARGET","3","trustrating_stim/white_mw013.bmp,trustrating_stim/white_mw012.bmp,trustrating_stim/white_mw078.bmp","1,0,1","Match","e","4500","trustrating_stim/white_mw078.bmp","green","Share","PRACTICE","1"
"html-keyboard-response","18","114766","0.0-5.0-5.2","611f9bb3dcada21890ed9af0","bdp_wmem","Mon Mar 13 2023 21:16:56 GMT-0700 (Pacific Daylight Time)","593209","Match,No Match","","null","","","","","","<div class='trialBorder'><div class='vertical-center'><img src='img/correct.jpg'></div><div class='respDiv'><div class='respDivL'><font style='color:orange'>Match<br>(e)</font></div><div class='respDivR'>No Match<br>(i)</div></div></div>","null","FEEDBACK","","","","","","","","","","",""
"html-keyboard-response","19","115274","0.0-5.0-1.3","611f9bb3dcada21890ed9af0","bdp_wmem","Mon Mar 13 2023 21:16:56 GMT-0700 (Pacific Daylight Time)","593209","Match,No Match","","null","","","","","","<div class='trialBorder'><div class='vertical-center'><img src='img/fixation2_sml.jpg'</img></div></div>","null","FIX","","","","","","","","","","",""
"html-keyboard-response","20","116778","0.0-5.0-2.3","611f9bb3dcada21890ed9af0","bdp_wmem","Mon Mar 13 2023 21:16:56 GMT-0700 (Pacific Daylight Time)","593209","Match,No Match","","null","","","","","","<div class='trialBorder'><div class='vertical-center'><img style='vertical-align:center; align:center' src='img/fixation2_sml.jpg'></div><div class='arrayDiv1'><div class='tc'><img class='introPic' src='trustrating_stim/white_mw040.bmp'><br><font color='green'><strong>Share</strong></font></div></div></div>","null","ARRAY","1","trustrating_stim/white_mw040.bmp","1","noMatchFace","i","1500","","","","",""
"html-keyboard-response","21","120788","0.0-5.0-3.3","611f9bb3dcada21890ed9af0","bdp_wmem","Mon Mar 13 2023 21:16:56 GMT-0700 (Pacific Daylight Time)","593209","Match,No Match","","null","","","","","","<div class='trialBorder'><div class='vertical-center'><img src='img/fixation2_sml.jpg'</img></div></div>","null","DELAY","","","","","","","","","","",""
"html-keyboard-response","22","121880","0.0-5.0-4.3","611f9bb3dcada21890ed9af0","bdp_wmem","Mon Mar 13 2023 21:16:56 GMT-0700 (Pacific Daylight Time)","593209","Match,No Match","","1089","","","","","","<div class='trialBorder'><div class='targDiv'><div class='tc'><img class='introPic' src='trustrating_stim/white_mw003.bmp'><br><font color='green'><strong>Share</strong></font></div></div><div class='respDiv'><div class='respDivL'>Match<br>(e)</div><div class='respDivR'>No Match<br>(i)</div></div></div>","i","TARGET","1","trustrating_stim/white_mw040.bmp","1","noMatchFace","i","1500","trustrating_stim/white_mw003.bmp","green","Share","PRACTICE","1"
"html-keyboard-response","23","122388","0.0-5.0-5.3","611f9bb3dcada21890ed9af0","bdp_wmem","Mon Mar 13 2023 21:16:56 GMT-0700 (Pacific Daylight Time)","593209","Match,No Match","","null","","","","","","<div class='trialBorder'><div class='vertical-center'><img src='img/correct.jpg'></div><div class='respDiv'><div class='respDivL'>Match<br>(e)</div><div class='respDivR'><font style='color:orange'>No Match<br>(i)</font></div></div></div>","null","FEEDBACK","","","","","","","","","","",""
"html-keyboard-response","24","122900","0.0-5.0-1.4","611f9bb3dcada21890ed9af0","bdp_wmem","Mon Mar 13 2023 21:16:56 GMT-0700 (Pacific Daylight Time)","593209","Match,No Match","","null","","","","","","<div class='trialBorder'><div class='vertical-center'><img src='img/fixation2_sml.jpg'</img></div></div>","null","FIX","","","","","","","","","","",""
"html-keyboard-response","25","124410","0.0-5.0-2.4","611f9bb3dcada21890ed9af0","bdp_wmem","Mon Mar 13 2023 21:16:56 GMT-0700 (Pacific Daylight Time)","593209","Match,No Match","","null","","","","","","<div class='trialBorder'><div class='vertical-center'><img style='vertical-align:center; align:center' src='img/fixation2_sml.jpg'></div><div class='arrayDiv1'><div class='tc'><img class='introPic' src='trustrating_stim/white_mw078.bmp'><br><font color='red'><strong>Keep</strong></font></div></div></div>","null","ARRAY","1","trustrating_stim/white_mw078.bmp","0","Match","e","1500","","","","",""
"html-keyboard-response","26","128420","0.0-5.0-3.4","611f9bb3dcada21890ed9af0","bdp_wmem","Mon Mar 13 2023 21:16:56 GMT-0700 (Pacific Daylight Time)","593209","Match,No Match","","null","","","","","","<div class='trialBorder'><div class='vertical-center'><img src='img/fixation2_sml.jpg'</img></div></div>","null","DELAY","","","","","","","","","","",""
"html-keyboard-response","27","130227","0.0-5.0-4.4","611f9bb3dcada21890ed9af0","bdp_wmem","Mon Mar 13 2023 21:16:56 GMT-0700 (Pacific Daylight Time)","593209","Match,No Match","","1805","","","","","","<div class='trialBorder'><div class='targDiv'><div class='tc'><img class='introPic' src='trustrating_stim/white_mw078.bmp'><br><font color='red'><strong>Keep</strong></font></div></div><div class='respDiv'><div class='respDivL'>Match<br>(e)</div><div class='respDivR'>No Match<br>(i)</div></div></div>","e","TARGET","1","trustrating_stim/white_mw078.bmp","0","Match","e","1500","trustrating_stim/white_mw078.bmp","red","Keep","PRACTICE","1"
"html-keyboard-response","28","130730","0.0-5.0-5.4","611f9bb3dcada21890ed9af0","bdp_wmem","Mon Mar 13 2023 21:16:56 GMT-0700 (Pacific Daylight Time)","593209","Match,No Match","","null","","","","","","<div class='trialBorder'><div class='vertical-center'><img src='img/correct.jpg'></div><div class='respDiv'><div class='respDivL'><font style='color:orange'>Match<br>(e)</font></div><div class='respDivR'>No Match<br>(i)</div></div></div>","null","FEEDBACK","","","","","","","","","","",""
"html-keyboard-response","29","131236","0.0-5.0-1.5","611f9bb3dcada21890ed9af0","bdp_wmem","Mon Mar 13 2023 21:16:56 GMT-0700 (Pacific Daylight Time)","593209","Match,No Match","","null","","","","","","<div class='trialBorder'><div class='vertical-center'><img src='img/fixation2_sml.jpg'</img></div></div>","null","FIX","","","","","","","","","","",""
"html-keyboard-response","30","134244","0.0-5.0-2.5","611f9bb3dcada21890ed9af0","bdp_wmem","Mon Mar 13 2023 21:16:56 GMT-0700 (Pacific Daylight Time)","593209","Match,No Match","","null","","","","","","<div class='trialBorder'><div class='vertical-center'><img style='vertical-align:center; align:center' src='img/fixation2_sml.jpg'></div><div class='arrayDiv2'><div class='tl'><img class='introPic' src='trustrating_stim/white_mw085.bmp'><br><font color='red'><strong>Keep</strong></font></div><div class='tr'><img class='introPic' src='trustrating_stim/white_mw013.bmp'><br><font color='green'><strong>Share</strong></font></div></div></div>","null","ARRAY","2","trustrating_stim/white_mw085.bmp,trustrating_stim/white_mw013.bmp","0,1","noMatchFace","i","3000","","","","",""
"html-keyboard-response","31","138250","0.0-5.0-3.5","611f9bb3dcada21890ed9af0","bdp_wmem","Mon Mar 13 2023 21:16:56 GMT-0700 (Pacific Daylight Time)","593209","Match,No Match","","null","","","","","","<div class='trialBorder'><div class='vertical-center'><img src='img/fixation2_sml.jpg'</img></div></div>","null","DELAY","","","","","","","","","","",""
"html-keyboard-response","32","139785","0.0-5.0-4.5","611f9bb3dcada21890ed9af0","bdp_wmem","Mon Mar 13 2023 21:16:56 GMT-0700 (Pacific Daylight Time)","593209","Match,No Match","","1533","","","","","","<div class='trialBorder'><div class='targDiv'><div class='tc'><img class='introPic' src='trustrating_stim/white_mw003.bmp'><br><font color='red'><strong>Keep</strong></font></div></div><div class='respDiv'><div class='respDivL'>Match<br>(e)</div><div class='respDivR'>No Match<br>(i)</div></div></div>","i","TARGET","2","trustrating_stim/white_mw085.bmp,trustrating_stim/white_mw013.bmp","0,1","noMatchFace","i","3000","trustrating_stim/white_mw003.bmp","red","Keep","PRACTICE","1"
"html-keyboard-response","33","140292","0.0-5.0-5.5","611f9bb3dcada21890ed9af0","bdp_wmem","Mon Mar 13 2023 21:16:56 GMT-0700 (Pacific Daylight Time)","593209","Match,No Match","","null","","","","","","<div class='trialBorder'><div class='vertical-center'><img src='img/correct.jpg'></div><div class='respDiv'><div class='respDivL'>Match<br>(e)</div><div class='respDivR'><font style='color:orange'>No Match<br>(i)</font></div></div></div>","null","FEEDBACK","","","","","","","","","","",""
"instructions","34","146148","0.0-6.0","611f9bb3dcada21890ed9af0","bdp_wmem","Mon Mar 13 2023 21:16:56 GMT-0700 (Pacific Daylight Time)","593209","Match,No Match","[{""page_index"":0,""viewing_time"":5854}]","5855","","","","","","","","","","","","","","","","","","",""
"html-keyboard-response","35","146650","0.0-7.0-1.0","611f9bb3dcada21890ed9af0","bdp_wmem","Mon Mar 13 2023 21:16:56 GMT-0700 (Pacific Daylight Time)","593209","Match,No Match","","null","","","","","","<div class='trialBorder'><div class='vertical-center'><img src='img/fixation2_sml.jpg'</img></div></div>","null","FIX","","","","","","","","","","",""
"html-keyboard-response","36","151156","0.0-7.0-2.0","611f9bb3dcada21890ed9af0","bdp_wmem","Mon Mar 13 2023 21:16:56 GMT-0700 (Pacific Daylight Time)","593209","Match,No Match","","null","","","","","","<div class='trialBorder'><div class='vertical-center'><img style='vertical-align:center; align:center' src='img/fixation2_sml.jpg'></div><div class='arrayDiv3'><div class='tl'><img class='introPic' src='trustrating_stim/white_mw003.bmp'><br><font color='red'><strong>Keep</strong></font></div><div class='tc'><img class='introPic' src='trustrating_stim/white_mw092.bmp'><br><font color='green'><strong>Share</strong></font></div><div class='tr'><img class='introPic' src='trustrating_stim/white_mw091.bmp'><br><font color='green'><strong>Share</strong></font></div></div></div>","null","ARRAY","3","trustrating_stim/white_mw003.bmp,trustrating_stim/white_mw092.bmp,trustrating_stim/white_mw091.bmp","0,1,1","noMatchFace","i","4500","","","","",""
"html-keyboard-response","37","155162","0.0-7.0-3.0","611f9bb3dcada21890ed9af0","bdp_wmem","Mon Mar 13 2023 21:16:56 GMT-0700 (Pacific Daylight Time)","593209","Match,No Match","","null","","","","","","<div class='trialBorder'><div class='vertical-center'><img src='img/fixation2_sml.jpg'</img></div></div>","null","DELAY","","","","","","","","","","",""
"html-keyboard-response","38","156735","0.0-7.0-4.0","611f9bb3dcada21890ed9af0","bdp_wmem","Mon Mar 13 2023 21:16:56 GMT-0700 (Pacific Daylight Time)","593209","Match,No Match","","1571","","","","","","<div class='trialBorder'><div class='targDiv'><div class='tc'><img class='introPic' src='trustrating_stim/white_mw013.bmp'><br><font color='green'><strong>Share</strong></font></div></div><div class='respDiv'><div class='respDivL'>Match<br>(e)</div><div class='respDivR'>No Match<br>(i)</div></div></div>","i","TARGET","3","trustrating_stim/white_mw003.bmp,trustrating_stim/white_mw092.bmp,trustrating_stim/white_mw091.bmp","0,1,1","noMatchFace","i","4500","trustrating_stim/white_mw013.bmp","green","Share","REAL","1"
"html-keyboard-response","39","157242","0.0-7.0-5.0","611f9bb3dcada21890ed9af0","bdp_wmem","Mon Mar 13 2023 21:16:56 GMT-0700 (Pacific Daylight Time)","593209","Match,No Match","","null","","","","","","<div class='trialBorder'><div class='vertical-center'><img src='img/correct.jpg'></div><div class='respDiv'><div class='respDivL'>Match<br>(e)</div><div class='respDivR'><font style='color:orange'>No Match<br>(i)</font></div></div></div>","null","FEEDBACK","","","","","","","","","","",""
"html-keyboard-response","40","157748","0.0-7.0-1.1","611f9bb3dcada21890ed9af0","bdp_wmem","Mon Mar 13 2023 21:16:56 GMT-0700 (Pacific Daylight Time)","593209","Match,No Match","","null","","","","","","<div class='trialBorder'><div class='vertical-center'><img src='img/fixation2_sml.jpg'</img></div></div>","null","FIX","","","","","","","","","","",""
"html-keyboard-response","41","162260","0.0-7.0-2.1","611f9bb3dcada21890ed9af0","bdp_wmem","Mon Mar 13 2023 21:16:56 GMT-0700 (Pacific Daylight Time)","593209","Match,No Match","","null","","","","","","<div class='trialBorder'><div class='vertical-center'><img style='vertical-align:center; align:center' src='img/fixation2_sml.jpg'></div><div class='arrayDiv3'><div class='tl'><img class='introPic' src='trustrating_stim/white_mw070.bmp'><br><font color='green'><strong>Share</strong></font></div><div class='tc'><img class='introPic' src='trustrating_stim/white_mw085.bmp'><br><font color='red'><strong>Keep</strong></font></div><div class='tr'><img class='introPic' src='trustrating_stim/white_mw078.bmp'><br><font color='red'><strong>Keep</strong></font></div></div></div>","null","ARRAY","3","trustrating_stim/white_mw070.bmp,trustrating_stim/white_mw085.bmp,trustrating_stim/white_mw078.bmp","1,0,0","noMatchOutcome","i","4500","","","","",""
"html-keyboard-response","42","166266","0.0-7.0-3.1","611f9bb3dcada21890ed9af0","bdp_wmem","Mon Mar 13 2023 21:16:56 GMT-0700 (Pacific Daylight Time)","593209","Match,No Match","","null","","","","","","<div class='trialBorder'><div class='vertical-center'><img src='img/fixation2_sml.jpg'</img></div></div>","null","DELAY","","","","","","","","","","",""
"html-keyboard-response","43","168815","0.0-7.0-4.1","611f9bb3dcada21890ed9af0","bdp_wmem","Mon Mar 13 2023 21:16:56 GMT-0700 (Pacific Daylight Time)","593209","Match,No Match","","2547","","","","","","<div class='trialBorder'><div class='targDiv'><div class='tc'><img class='introPic' src='trustrating_stim/white_mw085.bmp'><br><font color='green'><strong>Share</strong></font></div></div><div class='respDiv'><div class='respDivL'>Match<br>(e)</div><div class='respDivR'>No Match<br>(i)</div></div></div>","i","TARGET","3","trustrating_stim/white_mw070.bmp,trustrating_stim/white_mw085.bmp,trustrating_stim/white_mw078.bmp","1,0,0","noMatchOutcome","i","4500","trustrating_stim/white_mw085.bmp","green","Share","REAL","1"
"html-keyboard-response","44","169322","0.0-7.0-5.1","611f9bb3dcada21890ed9af0","bdp_wmem","Mon Mar 13 2023 21:16:56 GMT-0700 (Pacific Daylight Time)","593209","Match,No Match","","null","","","","","","<div class='trialBorder'><div class='vertical-center'><img src='img/correct.jpg'></div><div class='respDiv'><div class='respDivL'>Match<br>(e)</div><div class='respDivR'><font style='color:orange'>No Match<br>(i)</font></div></div></div>","null","FEEDBACK","","","","","","","","","","",""
"html-keyboard-response","45","169828","0.0-7.0-1.2","611f9bb3dcada21890ed9af0","bdp_wmem","Mon Mar 13 2023 21:16:56 GMT-0700 (Pacific Daylight Time)","593209","Match,No Match","","null","","","","","","<div class='trialBorder'><div class='vertical-center'><img src='img/fixation2_sml.jpg'</img></div></div>","null","FIX","","","","","","","","","","",""
"html-keyboard-response","46","172837","0.0-7.0-2.2","611f9bb3dcada21890ed9af0","bdp_wmem","Mon Mar 13 2023 21:16:56 GMT-0700 (Pacific Daylight Time)","593209","Match,No Match","","null","","","","","","<div class='trialBorder'><div class='vertical-center'><img style='vertical-align:center; align:center' src='img/fixation2_sml.jpg'></div><div class='arrayDiv2'><div class='tl'><img class='introPic' src='trustrating_stim/white_mw038.bmp'><br><font color='red'><strong>Keep</strong></font></div><div class='tr'><img class='introPic' src='trustrating_stim/white_mw092.bmp'><br><font color='green'><strong>Share</strong></font></div></div></div>","null","ARRAY","2","trustrating_stim/white_mw038.bmp,trustrating_stim/white_mw092.bmp","0,1","noMatchFace","i","3000","","","","",""
"html-keyboard-response","47","176842","0.0-7.0-3.2","611f9bb3dcada21890ed9af0","bdp_wmem","Mon Mar 13 2023 21:16:56 GMT-0700 (Pacific Daylight Time)","593209","Match,No Match","","null","","","","","","<div class='trialBorder'><div class='vertical-center'><img src='img/fixation2_sml.jpg'</img></div></div>","null","DELAY","","","","","","","","","","",""
"html-keyboard-response","48","180730","0.0-7.0-4.2","611f9bb3dcada21890ed9af0","bdp_wmem","Mon Mar 13 2023 21:16:56 GMT-0700 (Pacific Daylight Time)","593209","Match,No Match","","3887","","","","","","<div class='trialBorder'><div class='targDiv'><div class='tc'><img class='introPic' src='trustrating_stim/white_mw040.bmp'><br><font color='green'><strong>Share</strong></font></div></div><div class='respDiv'><div class='respDivL'>Match<br>(e)</div><div class='respDivR'>No Match<br>(i)</div></div></div>","e","TARGET","2","trustrating_stim/white_mw038.bmp,trustrating_stim/white_mw092.bmp","0,1","noMatchFace","i","3000","trustrating_stim/white_mw040.bmp","green","Share","REAL","0"
"html-keyboard-response","49","181236","0.0-7.0-5.2","611f9bb3dcada21890ed9af0","bdp_wmem","Mon Mar 13 2023 21:16:56 GMT-0700 (Pacific Daylight Time)","593209","Match,No Match","","null","","","","","","<div class='trialBorder'><div class='vertical-center'><img src='img/error.jpg'></div><div class='respDiv'><div class='respDivL'><font style='color:orange'>Match<br>(e)</font></div><div class='respDivR'>No Match<br>(i)</div></div></div>","null","FEEDBACK","","","","","","","","","","",""
"html-keyboard-response","50","181747","0.0-7.0-1.3","611f9bb3dcada21890ed9af0","bdp_wmem","Mon Mar 13 2023 21:16:56 GMT-0700 (Pacific Daylight Time)","593209","Match,No Match","","null","","","","","","<div class='trialBorder'><div class='vertical-center'><img src='img/fixation2_sml.jpg'</img></div></div>","null","FIX","","","","","","","","","","",""
"html-keyboard-response","51","183258","0.0-7.0-2.3","611f9bb3dcada21890ed9af0","bdp_wmem","Mon Mar 13 2023 21:16:56 GMT-0700 (Pacific Daylight Time)","593209","Match,No Match","","null","","","","","","<div class='trialBorder'><div class='vertical-center'><img style='vertical-align:center; align:center' src='img/fixation2_sml.jpg'></div><div class='arrayDiv1'><div class='tc'><img class='introPic' src='trustrating_stim/white_mw070.bmp'><br><font color='green'><strong>Share</strong></font></div></div></div>","null","ARRAY","1","trustrating_stim/white_mw070.bmp","1","Match","e","1500","","","","",""
"html-keyboard-response","52","187268","0.0-7.0-3.3","611f9bb3dcada21890ed9af0","bdp_wmem","Mon Mar 13 2023 21:16:56 GMT-0700 (Pacific Daylight Time)","593209","Match,No Match","","null","","","","","","<div class='trialBorder'><div class='vertical-center'><img src='img/fixation2_sml.jpg'</img></div></div>","null","DELAY","","","","","","","","","","",""
"html-keyboard-response","53","188211","0.0-7.0-4.3","611f9bb3dcada21890ed9af0","bdp_wmem","Mon Mar 13 2023 21:16:56 GMT-0700 (Pacific Daylight Time)","593209","Match,No Match","","940","","","","","","<div class='trialBorder'><div class='targDiv'><div class='tc'><img class='introPic' src='trustrating_stim/white_mw070.bmp'><br><font color='green'><strong>Share</strong></font></div></div><div class='respDiv'><div class='respDivL'>Match<br>(e)</div><div class='respDivR'>No Match<br>(i)</div></div></div>","e","TARGET","1","trustrating_stim/white_mw070.bmp","1","Match","e","1500","trustrating_stim/white_mw070.bmp","green","Share","REAL","1"
"html-keyboard-response","54","188714","0.0-7.0-5.3","611f9bb3dcada21890ed9af0","bdp_wmem","Mon Mar 13 2023 21:16:56 GMT-0700 (Pacific Daylight Time)","593209","Match,No Match","","null","","","","","","<div class='trialBorder'><div class='vertical-center'><img src='img/correct.jpg'></div><div class='respDiv'><div class='respDivL'><font style='color:orange'>Match<br>(e)</font></div><div class='respDivR'>No Match<br>(i)</div></div></div>","null","FEEDBACK","","","","","","","","","","",""
"html-keyboard-response","55","189220","0.0-7.0-1.4","611f9bb3dcada21890ed9af0","bdp_wmem","Mon Mar 13 2023 21:16:56 GMT-0700 (Pacific Daylight Time)","593209","Match,No Match","","null","","","","","","<div class='trialBorder'><div class='vertical-center'><img src='img/fixation2_sml.jpg'</img></div></div>","null","FIX","","","","","","","","","","",""
"html-keyboard-response","56","193732","0.0-7.0-2.4","611f9bb3dcada21890ed9af0","bdp_wmem","Mon Mar 13 2023 21:16:56 GMT-0700 (Pacific Daylight Time)","593209","Match,No Match","","null","","","","","","<div class='trialBorder'><div class='vertical-center'><img style='vertical-align:center; align:center' src='img/fixation2_sml.jpg'></div><div class='arrayDiv3'><div class='tl'><img class='introPic' src='trustrating_stim/white_mw092.bmp'><br><font color='red'><strong>Keep</strong></font></div><div class='tc'><img class='introPic' src='trustrating_stim/white_mw070.bmp'><br><font color='green'><strong>Share</strong></font></div><div class='tr'><img class='introPic' src='trustrating_stim/white_mw091.bmp'><br><font color='green'><strong>Share</strong></font></div></div></div>","null","ARRAY","3","trustrating_stim/white_mw092.bmp,trustrating_stim/white_mw070.bmp,trustrating_stim/white_mw091.bmp","0,1,1","noMatchFace","i","4500","","","","",""
"html-keyboard-response","57","197738","0.0-7.0-3.4","611f9bb3dcada21890ed9af0","bdp_wmem","Mon Mar 13 2023 21:16:56 GMT-0700 (Pacific Daylight Time)","593209","Match,No Match","","null","","","","","","<div class='trialBorder'><div class='vertical-center'><img src='img/fixation2_sml.jpg'</img></div></div>","null","DELAY","","","","","","","","","","",""
"html-keyboard-response","58","199187","0.0-7.0-4.4","611f9bb3dcada21890ed9af0","bdp_wmem","Mon Mar 13 2023 21:16:56 GMT-0700 (Pacific Daylight Time)","593209","Match,No Match","","1447","","","","","","<div class='trialBorder'><div class='targDiv'><div class='tc'><img class='introPic' src='trustrating_stim/white_mw012.bmp'><br><font color='red'><strong>Keep</strong></font></div></div><div class='respDiv'><div class='respDivL'>Match<br>(e)</div><div class='respDivR'>No Match<br>(i)</div></div></div>","i","TARGET","3","trustrating_stim/white_mw092.bmp,trustrating_stim/white_mw070.bmp,trustrating_stim/white_mw091.bmp","0,1,1","noMatchFace","i","4500","trustrating_stim/white_mw012.bmp","red","Keep","REAL","1"
"html-keyboard-response","59","199689","0.0-7.0-5.4","611f9bb3dcada21890ed9af0","bdp_wmem","Mon Mar 13 2023 21:16:56 GMT-0700 (Pacific Daylight Time)","593209","Match,No Match","","null","","","","","","<div class='trialBorder'><div class='vertical-center'><img src='img/correct.jpg'></div><div class='respDiv'><div class='respDivL'>Match<br>(e)</div><div class='respDivR'><font style='color:orange'>No Match<br>(i)</font></div></div></div>","null","FEEDBACK","","","","","","","","","","",""
"html-keyboard-response","60","200196","0.0-7.0-1.5","611f9bb3dcada21890ed9af0","bdp_wmem","Mon Mar 13 2023 21:16:56 GMT-0700 (Pacific Daylight Time)","593209","Match,No Match","","null","","","","","","<div class='trialBorder'><div class='vertical-center'><img src='img/fixation2_sml.jpg'</img></div></div>","null","FIX","","","","","","","","","","",""
"html-keyboard-response","61","203204","0.0-7.0-2.5","611f9bb3dcada21890ed9af0","bdp_wmem","Mon Mar 13 2023 21:16:56 GMT-0700 (Pacific Daylight Time)","593209","Match,No Match","","null","","","","","","<div class='trialBorder'><div class='vertical-center'><img style='vertical-align:center; align:center' src='img/fixation2_sml.jpg'></div><div class='arrayDiv2'><div class='tl'><img class='introPic' src='trustrating_stim/white_mw003.bmp'><br><font color='green'><strong>Share</strong></font></div><div class='tr'><img class='introPic' src='trustrating_stim/white_mw085.bmp'><br><font color='red'><strong>Keep</strong></font></div></div></div>","null","ARRAY","2","trustrating_stim/white_mw003.bmp,trustrating_stim/white_mw085.bmp","1,0","Match","e","3000","","","","",""
"html-keyboard-response","62","207209","0.0-7.0-3.5","611f9bb3dcada21890ed9af0","bdp_wmem","Mon Mar 13 2023 21:16:56 GMT-0700 (Pacific Daylight Time)","593209","Match,No Match","","null","","","","","","<div class='trialBorder'><div class='vertical-center'><img src='img/fixation2_sml.jpg'</img></div></div>","null","DELAY","","","","","","","","","","",""
"html-keyboard-response","63","209809","0.0-7.0-4.5","611f9bb3dcada21890ed9af0","bdp_wmem","Mon Mar 13 2023 21:16:56 GMT-0700 (Pacific Daylight Time)","593209","Match,No Match","","2598","","","","","","<div class='trialBorder'><div class='targDiv'><div class='tc'><img class='introPic' src='trustrating_stim/white_mw003.bmp'><br><font color='green'><strong>Share</strong></font></div></div><div class='respDiv'><div class='respDivL'>Match<br>(e)</div><div class='respDivR'>No Match<br>(i)</div></div></div>","i","TARGET","2","trustrating_stim/white_mw003.bmp,trustrating_stim/white_mw085.bmp","1,0","Match","e","3000","trustrating_stim/white_mw003.bmp","green","Share","REAL","0"
"html-keyboard-response","64","210314","0.0-7.0-5.5","611f9bb3dcada21890ed9af0","bdp_wmem","Mon Mar 13 2023 21:16:56 GMT-0700 (Pacific Daylight Time)","593209","Match,No Match","","null","","","","","","<div class='trialBorder'><div class='vertical-center'><img src='img/error.jpg'></div><div class='respDiv'><div class='respDivL'>Match<br>(e)</div><div class='respDivR'><font style='color:orange'>No Match<br>(i)</font></div></div></div>","null","FEEDBACK","","","","","","","","","","",""
"html-keyboard-response","65","210820","0.0-7.0-1.6","611f9bb3dcada21890ed9af0","bdp_wmem","Mon Mar 13 2023 21:16:56 GMT-0700 (Pacific Daylight Time)","593209","Match,No Match","","null","","","","","","<div class='trialBorder'><div class='vertical-center'><img src='img/fixation2_sml.jpg'</img></div></div>","null","FIX","","","","","","","","","","",""
"html-keyboard-response","66","212329","0.0-7.0-2.6","611f9bb3dcada21890ed9af0","bdp_wmem","Mon Mar 13 2023 21:16:56 GMT-0700 (Pacific Daylight Time)","593209","Match,No Match","","null","","","","","","<div class='trialBorder'><div class='vertical-center'><img style='vertical-align:center; align:center' src='img/fixation2_sml.jpg'></div><div class='arrayDiv1'><div class='tc'><img class='introPic' src='trustrating_stim/white_mw038.bmp'><br><font color='red'><strong>Keep</strong></font></div></div></div>","null","ARRAY","1","trustrating_stim/white_mw038.bmp","0","Match","e","1500","","","","",""
"html-keyboard-response","67","216340","0.0-7.0-3.6","611f9bb3dcada21890ed9af0","bdp_wmem","Mon Mar 13 2023 21:16:56 GMT-0700 (Pacific Daylight Time)","593209","Match,No Match","","null","","","","","","<div class='trialBorder'><div class='vertical-center'><img src='img/fixation2_sml.jpg'</img></div></div>","null","DELAY","","","","","","","","","","",""
"html-keyboard-response","68","217151","0.0-7.0-4.6","611f9bb3dcada21890ed9af0","bdp_wmem","Mon Mar 13 2023 21:16:56 GMT-0700 (Pacific Daylight Time)","593209","Match,No Match","","809","","","","","","<div class='trialBorder'><div class='targDiv'><div class='tc'><img class='introPic' src='trustrating_stim/white_mw038.bmp'><br><font color='red'><strong>Keep</strong></font></div></div><div class='respDiv'><div class='respDivL'>Match<br>(e)</div><div class='respDivR'>No Match<br>(i)</div></div></div>","e","TARGET","1","trustrating_stim/white_mw038.bmp","0","Match","e","1500","trustrating_stim/white_mw038.bmp","red","Keep","REAL","1"
"html-keyboard-response","69","217658","0.0-7.0-5.6","611f9bb3dcada21890ed9af0","bdp_wmem","Mon Mar 13 2023 21:16:56 GMT-0700 (Pacific Daylight Time)","593209","Match,No Match","","null","","","","","","<div class='trialBorder'><div class='vertical-center'><img src='img/correct.jpg'></div><div class='respDiv'><div class='respDivL'><font style='color:orange'>Match<br>(e)</font></div><div class='respDivR'>No Match<br>(i)</div></div></div>","null","FEEDBACK","","","","","","","","","","",""
"html-keyboard-response","70","218164","0.0-7.0-1.7","611f9bb3dcada21890ed9af0","bdp_wmem","Mon Mar 13 2023 21:16:56 GMT-0700 (Pacific Daylight Time)","593209","Match,No Match","","null","","","","","","<div class='trialBorder'><div class='vertical-center'><img src='img/fixation2_sml.jpg'</img></div></div>","null","FIX","","","","","","","","","","",""
"html-keyboard-response","71","222676","0.0-7.0-2.7","611f9bb3dcada21890ed9af0","bdp_wmem","Mon Mar 13 2023 21:16:56 GMT-0700 (Pacific Daylight Time)","593209","Match,No Match","","null","","","","","","<div class='trialBorder'><div class='vertical-center'><img style='vertical-align:center; align:center' src='img/fixation2_sml.jpg'></div><div class='arrayDiv3'><div class='tl'><img class='introPic' src='trustrating_stim/white_mw091.bmp'><br><font color='red'><strong>Keep</strong></font></div><div class='tc'><img class='introPic' src='trustrating_stim/white_mw040.bmp'><br><font color='red'><strong>Keep</strong></font></div><div class='tr'><img class='introPic' src='trustrating_stim/white_mw085.bmp'><br><font color='green'><strong>Share</strong></font></div></div></div>","null","ARRAY","3","trustrating_stim/white_mw091.bmp,trustrating_stim/white_mw040.bmp,trustrating_stim/white_mw085.bmp","0,0,1","Match","e","4500","","","","",""
"html-keyboard-response","72","226681","0.0-7.0-3.7","611f9bb3dcada21890ed9af0","bdp_wmem","Mon Mar 13 2023 21:16:56 GMT-0700 (Pacific Daylight Time)","593209","Match,No Match","","null","","","","","","<div class='trialBorder'><div class='vertical-center'><img src='img/fixation2_sml.jpg'</img></div></div>","null","DELAY","","","","","","","","","","",""
"html-keyboard-response","73","229613","0.0-7.0-4.7","611f9bb3dcada21890ed9af0","bdp_wmem","Mon Mar 13 2023 21:16:56 GMT-0700 (Pacific Daylight Time)","593209","Match,No Match","","2930","","","","","","<div class='trialBorder'><div class='targDiv'><div class='tc'><img class='introPic' src='trustrating_stim/white_mw085.bmp'><br><font color='green'><strong>Share</strong></font></div></div><div class='respDiv'><div class='respDivL'>Match<br>(e)</div><div class='respDivR'>No Match<br>(i)</div></div></div>","e","TARGET","3","trustrating_stim/white_mw091.bmp,trustrating_stim/white_mw040.bmp,trustrating_stim/white_mw085.bmp","0,0,1","Match","e","4500","trustrating_stim/white_mw085.bmp","green","Share","REAL","1"
"html-keyboard-response","74","230121","0.0-7.0-5.7","611f9bb3dcada21890ed9af0","bdp_wmem","Mon Mar 13 2023 21:16:56 GMT-0700 (Pacific Daylight Time)","593209","Match,No Match","","null","","","","","","<div class='trialBorder'><div class='vertical-center'><img src='img/correct.jpg'></div><div class='respDiv'><div class='respDivL'><font style='color:orange'>Match<br>(e)</font></div><div class='respDivR'>No Match<br>(i)</div></div></div>","null","FEEDBACK","","","","","","","","","","",""
"html-keyboard-response","75","230628","0.0-7.0-1.8","611f9bb3dcada21890ed9af0","bdp_wmem","Mon Mar 13 2023 21:16:56 GMT-0700 (Pacific Daylight Time)","593209","Match,No Match","","null","","","","","","<div class='trialBorder'><div class='vertical-center'><img src='img/fixation2_sml.jpg'</img></div></div>","null","FIX","","","","","","","","","","",""
"html-keyboard-response","76","232137","0.0-7.0-2.8","611f9bb3dcada21890ed9af0","bdp_wmem","Mon Mar 13 2023 21:16:56 GMT-0700 (Pacific Daylight Time)","593209","Match,No Match","","null","","","","","","<div class='trialBorder'><div class='vertical-center'><img style='vertical-align:center; align:center' src='img/fixation2_sml.jpg'></div><div class='arrayDiv1'><div class='tc'><img class='introPic' src='trustrating_stim/white_mw012.bmp'><br><font color='red'><strong>Keep</strong></font></div></div></div>","null","ARRAY","1","trustrating_stim/white_mw012.bmp","0","noMatchFace","i","1500","","","","",""
"html-keyboard-response","77","236148","0.0-7.0-3.8","611f9bb3dcada21890ed9af0","bdp_wmem","Mon Mar 13 2023 21:16:56 GMT-0700 (Pacific Daylight Time)","593209","Match,No Match","","null","","","","","","<div class='trialBorder'><div class='vertical-center'><img src='img/fixation2_sml.jpg'</img></div></div>","null","DELAY","","","","","","","","","","",""
"html-keyboard-response","78","237086","0.0-7.0-4.8","611f9bb3dcada21890ed9af0","bdp_wmem","Mon Mar 13 2023 21:16:56 GMT-0700 (Pacific Daylight Time)","593209","Match,No Match","","935","","","","","","<div class='trialBorder'><div class='targDiv'><div class='tc'><img class='introPic' src='trustrating_stim/white_mw013.bmp'><br><font color='red'><strong>Keep</strong></font></div></div><div class='respDiv'><div class='respDivL'>Match<br>(e)</div><div class='respDivR'>No Match<br>(i)</div></div></div>","i","TARGET","1","trustrating_stim/white_mw012.bmp","0","noMatchFace","i","1500","trustrating_stim/white_mw013.bmp","red","Keep","REAL","1"
"html-keyboard-response","79","237593","0.0-7.0-5.8","611f9bb3dcada21890ed9af0","bdp_wmem","Mon Mar 13 2023 21:16:56 GMT-0700 (Pacific Daylight Time)","593209","Match,No Match","","null","","","","","","<div class='trialBorder'><div class='vertical-center'><img src='img/correct.jpg'></div><div class='respDiv'><div class='respDivL'>Match<br>(e)</div><div class='respDivR'><font style='color:orange'>No Match<br>(i)</font></div></div></div>","null","FEEDBACK","","","","","","","","","","",""
"html-keyboard-response","80","238101","0.0-7.0-1.9","611f9bb3dcada21890ed9af0","bdp_wmem","Mon Mar 13 2023 21:16:56 GMT-0700 (Pacific Daylight Time)","593209","Match,No Match","","null","","","","","","<div class='trialBorder'><div class='vertical-center'><img src='img/fixation2_sml.jpg'</img></div></div>","null","FIX","","","","","","","","","","",""
"html-keyboard-response","81","241108","0.0-7.0-2.9","611f9bb3dcada21890ed9af0","bdp_wmem","Mon Mar 13 2023 21:16:56 GMT-0700 (Pacific Daylight Time)","593209","Match,No Match","","null","","","","","","<div class='trialBorder'><div class='vertical-center'><img style='vertical-align:center; align:center' src='img/fixation2_sml.jpg'></div><div class='arrayDiv2'><div class='tl'><img class='introPic' src='trustrating_stim/white_mw092.bmp'><br><font color='red'><strong>Keep</strong></font></div><div class='tr'><img class='introPic' src='trustrating_stim/white_mw042.bmp'><br><font color='green'><strong>Share</strong></font></div></div></div>","null","ARRAY","2","trustrating_stim/white_mw092.bmp,trustrating_stim/white_mw042.bmp","0,1","noMatchFace","i","3000","","","","",""
"html-keyboard-response","82","245113","0.0-7.0-3.9","611f9bb3dcada21890ed9af0","bdp_wmem","Mon Mar 13 2023 21:16:56 GMT-0700 (Pacific Daylight Time)","593209","Match,No Match","","null","","","","","","<div class='trialBorder'><div class='vertical-center'><img src='img/fixation2_sml.jpg'</img></div></div>","null","DELAY","","","","","","","","","","",""
"html-keyboard-response","83","246123","0.0-7.0-4.9","611f9bb3dcada21890ed9af0","bdp_wmem","Mon Mar 13 2023 21:16:56 GMT-0700 (Pacific Daylight Time)","593209","Match,No Match","","1006","","","","","","<div class='trialBorder'><div class='targDiv'><div class='tc'><img class='introPic' src='trustrating_stim/white_mw010.bmp'><br><font color='green'><strong>Share</strong></font></div></div><div class='respDiv'><div class='respDivL'>Match<br>(e)</div><div class='respDivR'>No Match<br>(i)</div></div></div>","i","TARGET","2","trustrating_stim/white_mw092.bmp,trustrating_stim/white_mw042.bmp","0,1","noMatchFace","i","3000","trustrating_stim/white_mw010.bmp","green","Share","REAL","1"
"html-keyboard-response","84","246628","0.0-7.0-5.9","611f9bb3dcada21890ed9af0","bdp_wmem","Mon Mar 13 2023 21:16:56 GMT-0700 (Pacific Daylight Time)","593209","Match,No Match","","null","","","","","","<div class='trialBorder'><div class='vertical-center'><img src='img/correct.jpg'></div><div class='respDiv'><div class='respDivL'>Match<br>(e)</div><div class='respDivR'><font style='color:orange'>No Match<br>(i)</font></div></div></div>","null","FEEDBACK","","","","","","","","","","",""
"html-keyboard-response","85","247139","0.0-7.0-1.10","611f9bb3dcada21890ed9af0","bdp_wmem","Mon Mar 13 2023 21:16:56 GMT-0700 (Pacific Daylight Time)","593209","Match,No Match","","null","","","","","","<div class='trialBorder'><div class='vertical-center'><img src='img/fixation2_sml.jpg'</img></div></div>","null","FIX","","","","","","","","","","",""
"html-keyboard-response","86","248644","0.0-7.0-2.10","611f9bb3dcada21890ed9af0","bdp_wmem","Mon Mar 13 2023 21:16:56 GMT-0700 (Pacific Daylight Time)","593209","Match,No Match","","null","","","","","","<div class='trialBorder'><div class='vertical-center'><img style='vertical-align:center; align:center' src='img/fixation2_sml.jpg'></div><div class='arrayDiv1'><div class='tc'><img class='introPic' src='trustrating_stim/white_mw040.bmp'><br><font color='green'><strong>Share</strong></font></div></div></div>","null","ARRAY","1","trustrating_stim/white_mw040.bmp","1","noMatchOutcome","i","1500","","","","",""
"html-keyboard-response","87","252649","0.0-7.0-3.10","611f9bb3dcada21890ed9af0","bdp_wmem","Mon Mar 13 2023 21:16:56 GMT-0700 (Pacific Daylight Time)","593209","Match,No Match","","null","","","","","","<div class='trialBorder'><div class='vertical-center'><img src='img/fixation2_sml.jpg'</img></div></div>","null","DELAY","","","","","","","","","","",""
"html-keyboard-response","88","253653","0.0-7.0-4.10","611f9bb3dcada21890ed9af0","bdp_wmem","Mon Mar 13 2023 21:16:56 GMT-0700 (Pacific Daylight Time)","593209","Match,No Match","","1001","","","","","","<div class='trialBorder'><div class='targDiv'><div class='tc'><img class='introPic' src='trustrating_stim/white_mw040.bmp'><br><font color='red'><strong>Keep</strong></font></div></div><div class='respDiv'><div class='respDivL'>Match<br>(e)</div><div class='respDivR'>No Match<br>(i)</div></div></div>","i","TARGET","1","trustrating_stim/white_mw040.bmp","1","noMatchOutcome","i","1500","trustrating_stim/white_mw040.bmp","red","Keep","REAL","1"
"html-keyboard-response","89","254164","0.0-7.0-5.10","611f9bb3dcada21890ed9af0","bdp_wmem","Mon Mar 13 2023 21:16:56 GMT-0700 (Pacific Daylight Time)","593209","Match,No Match","","null","","","","","","<div class='trialBorder'><div class='vertical-center'><img src='img/correct.jpg'></div><div class='respDiv'><div class='respDivL'>Match<br>(e)</div><div class='respDivR'><font style='color:orange'>No Match<br>(i)</font></div></div></div>","null","FEEDBACK","","","","","","","","","","",""
"html-keyboard-response","90","254674","0.0-7.0-1.11","611f9bb3dcada21890ed9af0","bdp_wmem","Mon Mar 13 2023 21:16:56 GMT-0700 (Pacific Daylight Time)","593209","Match,No Match","","null","","","","","","<div class='trialBorder'><div class='vertical-center'><img src='img/fixation2_sml.jpg'</img></div></div>","null","FIX","","","","","","","","","","",""
"html-keyboard-response","91","257684","0.0-7.0-2.11","611f9bb3dcada21890ed9af0","bdp_wmem","Mon Mar 13 2023 21:16:56 GMT-0700 (Pacific Daylight Time)","593209","Match,No Match","","null","","","","","","<div class='trialBorder'><div class='vertical-center'><img style='vertical-align:center; align:center' src='img/fixation2_sml.jpg'></div><div class='arrayDiv2'><div class='tl'><img class='introPic' src='trustrating_stim/white_mw091.bmp'><br><font color='red'><strong>Keep</strong></font></div><div class='tr'><img class='introPic' src='trustrating_stim/white_mw010.bmp'><br><font color='green'><strong>Share</strong></font></div></div></div>","null","ARRAY","2","trustrating_stim/white_mw091.bmp,trustrating_stim/white_mw010.bmp","0,1","noMatchOutcome","i","3000","","","","",""
"html-keyboard-response","92","261689","0.0-7.0-3.11","611f9bb3dcada21890ed9af0","bdp_wmem","Mon Mar 13 2023 21:16:56 GMT-0700 (Pacific Daylight Time)","593209","Match,No Match","","null","","","","","","<div class='trialBorder'><div class='vertical-center'><img src='img/fixation2_sml.jpg'</img></div></div>","null","DELAY","","","","","","","","","","",""
"html-keyboard-response","93","263177","0.0-7.0-4.11","611f9bb3dcada21890ed9af0","bdp_wmem","Mon Mar 13 2023 21:16:56 GMT-0700 (Pacific Daylight Time)","593209","Match,No Match","","1486","","","","","","<div class='trialBorder'><div class='targDiv'><div class='tc'><img class='introPic' src='trustrating_stim/white_mw091.bmp'><br><font color='green'><strong>Share</strong></font></div></div><div class='respDiv'><div class='respDivL'>Match<br>(e)</div><div class='respDivR'>No Match<br>(i)</div></div></div>","i","TARGET","2","trustrating_stim/white_mw091.bmp,trustrating_stim/white_mw010.bmp","0,1","noMatchOutcome","i","3000","trustrating_stim/white_mw091.bmp","green","Share","REAL","1"
"html-keyboard-response","94","263684","0.0-7.0-5.11","611f9bb3dcada21890ed9af0","bdp_wmem","Mon Mar 13 2023 21:16:56 GMT-0700 (Pacific Daylight Time)","593209","Match,No Match","","null","","","","","","<div class='trialBorder'><div class='vertical-center'><img src='img/correct.jpg'></div><div class='respDiv'><div class='respDivL'>Match<br>(e)</div><div class='respDivR'><font style='color:orange'>No Match<br>(i)</font></div></div></div>","null","FEEDBACK","","","","","","","","","","",""
"html-keyboard-response","95","264196","0.0-7.0-1.12","611f9bb3dcada21890ed9af0","bdp_wmem","Mon Mar 13 2023 21:16:56 GMT-0700 (Pacific Daylight Time)","593209","Match,No Match","","null","","","","","","<div class='trialBorder'><div class='vertical-center'><img src='img/fixation2_sml.jpg'</img></div></div>","null","FIX","","","","","","","","","","",""
"html-keyboard-response","96","265707","0.0-7.0-2.12","611f9bb3dcada21890ed9af0","bdp_wmem","Mon Mar 13 2023 21:16:56 GMT-0700 (Pacific Daylight Time)","593209","Match,No Match","","null","","","","","","<div class='trialBorder'><div class='vertical-center'><img style='vertical-align:center; align:center' src='img/fixation2_sml.jpg'></div><div class='arrayDiv1'><div class='tc'><img class='introPic' src='trustrating_stim/white_mw040.bmp'><br><font color='green'><strong>Share</strong></font></div></div></div>","null","ARRAY","1","trustrating_stim/white_mw040.bmp","1","noMatchFace","i","1500","","","","",""
"html-keyboard-response","97","269716","0.0-7.0-3.12","611f9bb3dcada21890ed9af0","bdp_wmem","Mon Mar 13 2023 21:16:56 GMT-0700 (Pacific Daylight Time)","593209","Match,No Match","","null","","","","","","<div class='trialBorder'><div class='vertical-center'><img src='img/fixation2_sml.jpg'</img></div></div>","null","DELAY","","","","","","","","","","",""
"html-keyboard-response","98","270516","0.0-7.0-4.12","611f9bb3dcada21890ed9af0","bdp_wmem","Mon Mar 13 2023 21:16:56 GMT-0700 (Pacific Daylight Time)","593209","Match,No Match","","798","","","","","","<div class='trialBorder'><div class='targDiv'><div class='tc'><img class='introPic' src='trustrating_stim/white_mw085.bmp'><br><font color='green'><strong>Share</strong></font></div></div><div class='respDiv'><div class='respDivL'>Match<br>(e)</div><div class='respDivR'>No Match<br>(i)</div></div></div>","i","TARGET","1","trustrating_stim/white_mw040.bmp","1","noMatchFace","i","1500","trustrating_stim/white_mw085.bmp","green","Share","REAL","1"
"html-keyboard-response","99","271026","0.0-7.0-5.12","611f9bb3dcada21890ed9af0","bdp_wmem","Mon Mar 13 2023 21:16:56 GMT-0700 (Pacific Daylight Time)","593209","Match,No Match","","null","","","","","","<div class='trialBorder'><div class='vertical-center'><img src='img/correct.jpg'></div><div class='respDiv'><div class='respDivL'>Match<br>(e)</div><div class='respDivR'><font style='color:orange'>No Match<br>(i)</font></div></div></div>","null","FEEDBACK","","","","","","","","","","",""
"html-keyboard-response","100","271529","0.0-7.0-1.13","611f9bb3dcada21890ed9af0","bdp_wmem","Mon Mar 13 2023 21:16:56 GMT-0700 (Pacific Daylight Time)","593209","Match,No Match","","null","","","","","","<div class='trialBorder'><div class='vertical-center'><img src='img/fixation2_sml.jpg'</img></div></div>","null","FIX","","","","","","","","","","",""
"html-keyboard-response","101","276036","0.0-7.0-2.13","611f9bb3dcada21890ed9af0","bdp_wmem","Mon Mar 13 2023 21:16:56 GMT-0700 (Pacific Daylight Time)","593209","Match,No Match","","null","","","","","","<div class='trialBorder'><div class='vertical-center'><img style='vertical-align:center; align:center' src='img/fixation2_sml.jpg'></div><div class='arrayDiv3'><div class='tl'><img class='introPic' src='trustrating_stim/white_mw092.bmp'><br><font color='red'><strong>Keep</strong></font></div><div class='tc'><img class='introPic' src='trustrating_stim/white_mw038.bmp'><br><font color='red'><strong>Keep</strong></font></div><div class='tr'><img class='introPic' src='trustrating_stim/white_mw078.bmp'><br><font color='green'><strong>Share</strong></font></div></div></div>","null","ARRAY","3","trustrating_stim/white_mw092.bmp,trustrating_stim/white_mw038.bmp,trustrating_stim/white_mw078.bmp","0,0,1","Match","e","4500","","","","",""
"html-keyboard-response","102","280041","0.0-7.0-3.13","611f9bb3dcada21890ed9af0","bdp_wmem","Mon Mar 13 2023 21:16:56 GMT-0700 (Pacific Daylight Time)","593209","Match,No Match","","null","","","","","","<div class='trialBorder'><div class='vertical-center'><img src='img/fixation2_sml.jpg'</img></div></div>","null","DELAY","","","","","","","","","","",""
"html-keyboard-response","103","281435","0.0-7.0-4.13","611f9bb3dcada21890ed9af0","bdp_wmem","Mon Mar 13 2023 21:16:56 GMT-0700 (Pacific Daylight Time)","593209","Match,No Match","","1390","","","","","","<div class='trialBorder'><div class='targDiv'><div class='tc'><img class='introPic' src='trustrating_stim/white_mw038.bmp'><br><font color='red'><strong>Keep</strong></font></div></div><div class='respDiv'><div class='respDivL'>Match<br>(e)</div><div class='respDivR'>No Match<br>(i)</div></div></div>","e","TARGET","3","trustrating_stim/white_mw092.bmp,trustrating_stim/white_mw038.bmp,trustrating_stim/white_mw078.bmp","0,0,1","Match","e","4500","trustrating_stim/white_mw038.bmp","red","Keep","REAL","1"
"html-keyboard-response","104","281940","0.0-7.0-5.13","611f9bb3dcada21890ed9af0","bdp_wmem","Mon Mar 13 2023 21:16:56 GMT-0700 (Pacific Daylight Time)","593209","Match,No Match","","null","","","","","","<div class='trialBorder'><div class='vertical-center'><img src='img/correct.jpg'></div><div class='respDiv'><div class='respDivL'><font style='color:orange'>Match<br>(e)</font></div><div class='respDivR'>No Match<br>(i)</div></div></div>","null","FEEDBACK","","","","","","","","","","",""
"html-keyboard-response","105","282452","0.0-7.0-1.14","611f9bb3dcada21890ed9af0","bdp_wmem","Mon Mar 13 2023 21:16:56 GMT-0700 (Pacific Daylight Time)","593209","Match,No Match","","null","","","","","","<div class='trialBorder'><div class='vertical-center'><img src='img/fixation2_sml.jpg'</img></div></div>","null","FIX","","","","","","","","","","",""
"html-keyboard-response","106","285460","0.0-7.0-2.14","611f9bb3dcada21890ed9af0","bdp_wmem","Mon Mar 13 2023 21:16:56 GMT-0700 (Pacific Daylight Time)","593209","Match,No Match","","null","","","","","","<div class='trialBorder'><div class='vertical-center'><img style='vertical-align:center; align:center' src='img/fixation2_sml.jpg'></div><div class='arrayDiv2'><div class='tl'><img class='introPic' src='trustrating_stim/white_mw003.bmp'><br><font color='green'><strong>Share</strong></font></div><div class='tr'><img class='introPic' src='trustrating_stim/white_mw038.bmp'><br><font color='red'><strong>Keep</strong></font></div></div></div>","null","ARRAY","2","trustrating_stim/white_mw003.bmp,trustrating_stim/white_mw038.bmp","1,0","noMatchFace","i","3000","","","","",""
"html-keyboard-response","107","289465","0.0-7.0-3.14","611f9bb3dcada21890ed9af0","bdp_wmem","Mon Mar 13 2023 21:16:56 GMT-0700 (Pacific Daylight Time)","593209","Match,No Match","","null","","","","","","<div class='trialBorder'><div class='vertical-center'><img src='img/fixation2_sml.jpg'</img></div></div>","null","DELAY","","","","","","","","","","",""
"html-keyboard-response","108","290327","0.0-7.0-4.14","611f9bb3dcada21890ed9af0","bdp_wmem","Mon Mar 13 2023 21:16:56 GMT-0700 (Pacific Daylight Time)","593209","Match,No Match","","858","","","","","","<div class='trialBorder'><div class='targDiv'><div class='tc'><img class='introPic' src='trustrating_stim/white_mw085.bmp'><br><font color='red'><strong>Keep</strong></font></div></div><div class='respDiv'><div class='respDivL'>Match<br>(e)</div><div class='respDivR'>No Match<br>(i)</div></div></div>","i","TARGET","2","trustrating_stim/white_mw003.bmp,trustrating_stim/white_mw038.bmp","1,0","noMatchFace","i","3000","trustrating_stim/white_mw085.bmp","red","Keep","REAL","1"
"html-keyboard-response","109","290836","0.0-7.0-5.14","611f9bb3dcada21890ed9af0","bdp_wmem","Mon Mar 13 2023 21:16:56 GMT-0700 (Pacific Daylight Time)","593209","Match,No Match","","null","","","","","","<div class='trialBorder'><div class='vertical-center'><img src='img/correct.jpg'></div><div class='respDiv'><div class='respDivL'>Match<br>(e)</div><div class='respDivR'><font style='color:orange'>No Match<br>(i)</font></div></div></div>","null","FEEDBACK","","","","","","","","","","",""
"html-keyboard-response","110","291348","0.0-7.0-1.15","611f9bb3dcada21890ed9af0","bdp_wmem","Mon Mar 13 2023 21:16:56 GMT-0700 (Pacific Daylight Time)","593209","Match,No Match","","null","","","","","","<div class='trialBorder'><div class='vertical-center'><img src='img/fixation2_sml.jpg'</img></div></div>","null","FIX","","","","","","","","","","",""
"html-keyboard-response","111","292857","0.0-7.0-2.15","611f9bb3dcada21890ed9af0","bdp_wmem","Mon Mar 13 2023 21:16:56 GMT-0700 (Pacific Daylight Time)","593209","Match,No Match","","null","","","","","","<div class='trialBorder'><div class='vertical-center'><img style='vertical-align:center; align:center' src='img/fixation2_sml.jpg'></div><div class='arrayDiv1'><div class='tc'><img class='introPic' src='trustrating_stim/white_mw003.bmp'><br><font color='green'><strong>Share</strong></font></div></div></div>","null","ARRAY","1","trustrating_stim/white_mw003.bmp","1","Match","e","1500","","","","",""
"html-keyboard-response","112","296868","0.0-7.0-3.15","611f9bb3dcada21890ed9af0","bdp_wmem","Mon Mar 13 2023 21:16:56 GMT-0700 (Pacific Daylight Time)","593209","Match,No Match","","null","","","","","","<div class='trialBorder'><div class='vertical-center'><img src='img/fixation2_sml.jpg'</img></div></div>","null","DELAY","","","","","","","","","","",""
"html-keyboard-response","113","297547","0.0-7.0-4.15","611f9bb3dcada21890ed9af0","bdp_wmem","Mon Mar 13 2023 21:16:56 GMT-0700 (Pacific Daylight Time)","593209","Match,No Match","","676","","","","","","<div class='trialBorder'><div class='targDiv'><div class='tc'><img class='introPic' src='trustrating_stim/white_mw003.bmp'><br><font color='green'><strong>Share</strong></font></div></div><div class='respDiv'><div class='respDivL'>Match<br>(e)</div><div class='respDivR'>No Match<br>(i)</div></div></div>","e","TARGET","1","trustrating_stim/white_mw003.bmp","1","Match","e","1500","trustrating_stim/white_mw003.bmp","green","Share","REAL","1"
"html-keyboard-response","114","298052","0.0-7.0-5.15","611f9bb3dcada21890ed9af0","bdp_wmem","Mon Mar 13 2023 21:16:56 GMT-0700 (Pacific Daylight Time)","593209","Match,No Match","","null","","","","","","<div class='trialBorder'><div class='vertical-center'><img src='img/correct.jpg'></div><div class='respDiv'><div class='respDivL'><font style='color:orange'>Match<br>(e)</font></div><div class='respDivR'>No Match<br>(i)</div></div></div>","null","FEEDBACK","","","","","","","","","","",""
"html-keyboard-response","115","298564","0.0-7.0-1.16","611f9bb3dcada21890ed9af0","bdp_wmem","Mon Mar 13 2023 21:16:56 GMT-0700 (Pacific Daylight Time)","593209","Match,No Match","","null","","","","","","<div class='trialBorder'><div class='vertical-center'><img src='img/fixation2_sml.jpg'</img></div></div>","null","FIX","","","","","","","","","","",""
"html-keyboard-response","116","303076","0.0-7.0-2.16","611f9bb3dcada21890ed9af0","bdp_wmem","Mon Mar 13 2023 21:16:56 GMT-0700 (Pacific Daylight Time)","593209","Match,No Match","","null","","","","","","<div class='trialBorder'><div class='vertical-center'><img style='vertical-align:center; align:center' src='img/fixation2_sml.jpg'></div><div class='arrayDiv3'><div class='tl'><img class='introPic' src='trustrating_stim/white_mw010.bmp'><br><font color='green'><strong>Share</strong></font></div><div class='tc'><img class='introPic' src='trustrating_stim/white_mw042.bmp'><br><font color='red'><strong>Keep</strong></font></div><div class='tr'><img class='introPic' src='trustrating_stim/white_mw012.bmp'><br><font color='green'><strong>Share</strong></font></div></div></div>","null","ARRAY","3","trustrating_stim/white_mw010.bmp,trustrating_stim/white_mw042.bmp,trustrating_stim/white_mw012.bmp","1,0,1","Match","e","4500","","","","",""
"html-keyboard-response","117","307081","0.0-7.0-3.16","611f9bb3dcada21890ed9af0","bdp_wmem","Mon Mar 13 2023 21:16:56 GMT-0700 (Pacific Daylight Time)","593209","Match,No Match","","null","","","","","","<div class='trialBorder'><div class='vertical-center'><img src='img/fixation2_sml.jpg'</img></div></div>","null","DELAY","","","","","","","","","","",""
"html-keyboard-response","118","308715","0.0-7.0-4.16","611f9bb3dcada21890ed9af0","bdp_wmem","Mon Mar 13 2023 21:16:56 GMT-0700 (Pacific Daylight Time)","593209","Match,No Match","","1630","","","","","","<div class='trialBorder'><div class='targDiv'><div class='tc'><img class='introPic' src='trustrating_stim/white_mw012.bmp'><br><font color='green'><strong>Share</strong></font></div></div><div class='respDiv'><div class='respDivL'>Match<br>(e)</div><div class='respDivR'>No Match<br>(i)</div></div></div>","e","TARGET","3","trustrating_stim/white_mw010.bmp,trustrating_stim/white_mw042.bmp,trustrating_stim/white_mw012.bmp","1,0,1","Match","e","4500","trustrating_stim/white_mw012.bmp","green","Share","REAL","1"
"html-keyboard-response","119","309220","0.0-7.0-5.16","611f9bb3dcada21890ed9af0","bdp_wmem","Mon Mar 13 2023 21:16:56 GMT-0700 (Pacific Daylight Time)","593209","Match,No Match","","null","","","","","","<div class='trialBorder'><div class='vertical-center'><img src='img/correct.jpg'></div><div class='respDiv'><div class='respDivL'><font style='color:orange'>Match<br>(e)</font></div><div class='respDivR'>No Match<br>(i)</div></div></div>","null","FEEDBACK","","","","","","","","","","",""
"html-keyboard-response","120","309732","0.0-7.0-1.17","611f9bb3dcada21890ed9af0","bdp_wmem","Mon Mar 13 2023 21:16:56 GMT-0700 (Pacific Daylight Time)","593209","Match,No Match","","null","","","","","","<div class='trialBorder'><div class='vertical-center'><img src='img/fixation2_sml.jpg'</img></div></div>","null","FIX","","","","","","","","","","",""
"html-keyboard-response","121","312740","0.0-7.0-2.17","611f9bb3dcada21890ed9af0","bdp_wmem","Mon Mar 13 2023 21:16:56 GMT-0700 (Pacific Daylight Time)","593209","Match,No Match","","null","","","","","","<div class='trialBorder'><div class='vertical-center'><img style='vertical-align:center; align:center' src='img/fixation2_sml.jpg'></div><div class='arrayDiv2'><div class='tl'><img class='introPic' src='trustrating_stim/white_mw078.bmp'><br><font color='red'><strong>Keep</strong></font></div><div class='tr'><img class='introPic' src='trustrating_stim/white_mw040.bmp'><br><font color='green'><strong>Share</strong></font></div></div></div>","null","ARRAY","2","trustrating_stim/white_mw078.bmp,trustrating_stim/white_mw040.bmp","0,1","Match","e","3000","","","","",""
"html-keyboard-response","122","316745","0.0-7.0-3.17","611f9bb3dcada21890ed9af0","bdp_wmem","Mon Mar 13 2023 21:16:56 GMT-0700 (Pacific Daylight Time)","593209","Match,No Match","","null","","","","","","<div class='trialBorder'><div class='vertical-center'><img src='img/fixation2_sml.jpg'</img></div></div>","null","DELAY","","","","","","","","","","",""
"html-keyboard-response","123","317487","0.0-7.0-4.17","611f9bb3dcada21890ed9af0","bdp_wmem","Mon Mar 13 2023 21:16:56 GMT-0700 (Pacific Daylight Time)","593209","Match,No Match","","739","","","","","","<div class='trialBorder'><div class='targDiv'><div class='tc'><img class='introPic' src='trustrating_stim/white_mw040.bmp'><br><font color='green'><strong>Share</strong></font></div></div><div class='respDiv'><div class='respDivL'>Match<br>(e)</div><div class='respDivR'>No Match<br>(i)</div></div></div>","e","TARGET","2","trustrating_stim/white_mw078.bmp,trustrating_stim/white_mw040.bmp","0,1","Match","e","3000","trustrating_stim/white_mw040.bmp","green","Share","REAL","1"
"html-keyboard-response","124","317993","0.0-7.0-5.17","611f9bb3dcada21890ed9af0","bdp_wmem","Mon Mar 13 2023 21:16:56 GMT-0700 (Pacific Daylight Time)","593209","Match,No Match","","null","","","","","","<div class='trialBorder'><div class='vertical-center'><img src='img/correct.jpg'></div><div class='respDiv'><div class='respDivL'><font style='color:orange'>Match<br>(e)</font></div><div class='respDivR'>No Match<br>(i)</div></div></div>","null","FEEDBACK","","","","","","","","","","",""
"html-keyboard-response","125","318500","0.0-7.0-1.18","611f9bb3dcada21890ed9af0","bdp_wmem","Mon Mar 13 2023 21:16:56 GMT-0700 (Pacific Daylight Time)","593209","Match,No Match","","null","","","","","","<div class='trialBorder'><div class='vertical-center'><img src='img/fixation2_sml.jpg'</img></div></div>","null","FIX","","","","","","","","","","",""
"html-keyboard-response","126","321508","0.0-7.0-2.18","611f9bb3dcada21890ed9af0","bdp_wmem","Mon Mar 13 2023 21:16:56 GMT-0700 (Pacific Daylight Time)","593209","Match,No Match","","null","","","","","","<div class='trialBorder'><div class='vertical-center'><img style='vertical-align:center; align:center' src='img/fixation2_sml.jpg'></div><div class='arrayDiv2'><div class='tl'><img class='introPic' src='trustrating_stim/white_mw038.bmp'><br><font color='red'><strong>Keep</strong></font></div><div class='tr'><img class='introPic' src='trustrating_stim/white_mw070.bmp'><br><font color='green'><strong>Share</strong></font></div></div></div>","null","ARRAY","2","trustrating_stim/white_mw038.bmp,trustrating_stim/white_mw070.bmp","0,1","noMatchFace","i","3000","","","","",""
"html-keyboard-response","127","325513","0.0-7.0-3.18","611f9bb3dcada21890ed9af0","bdp_wmem","Mon Mar 13 2023 21:16:56 GMT-0700 (Pacific Daylight Time)","593209","Match,No Match","","null","","","","","","<div class='trialBorder'><div class='vertical-center'><img src='img/fixation2_sml.jpg'</img></div></div>","null","DELAY","","","","","","","","","","",""
"html-keyboard-response","128","326679","0.0-7.0-4.18","611f9bb3dcada21890ed9af0","bdp_wmem","Mon Mar 13 2023 21:16:56 GMT-0700 (Pacific Daylight Time)","593209","Match,No Match","","1164","","","","","","<div class='trialBorder'><div class='targDiv'><div class='tc'><img class='introPic' src='trustrating_stim/white_mw010.bmp'><br><font color='green'><strong>Share</strong></font></div></div><div class='respDiv'><div class='respDivL'>Match<br>(e)</div><div class='respDivR'>No Match<br>(i)</div></div></div>","i","TARGET","2","trustrating_stim/white_mw038.bmp,trustrating_stim/white_mw070.bmp","0,1","noMatchFace","i","3000","trustrating_stim/white_mw010.bmp","green","Share","REAL","1"
"html-keyboard-response","129","327188","0.0-7.0-5.18","611f9bb3dcada21890ed9af0","bdp_wmem","Mon Mar 13 2023 21:16:56 GMT-0700 (Pacific Daylight Time)","593209","Match,No Match","","null","","","","","","<div class='trialBorder'><div class='vertical-center'><img src='img/correct.jpg'></div><div class='respDiv'><div class='respDivL'>Match<br>(e)</div><div class='respDivR'><font style='color:orange'>No Match<br>(i)</font></div></div></div>","null","FEEDBACK","","","","","","","","","","",""
"html-keyboard-response","130","327700","0.0-7.0-1.19","611f9bb3dcada21890ed9af0","bdp_wmem","Mon Mar 13 2023 21:16:56 GMT-0700 (Pacific Daylight Time)","593209","Match,No Match","","null","","","","","","<div class='trialBorder'><div class='vertical-center'><img src='img/fixation2_sml.jpg'</img></div></div>","null","FIX","","","","","","","","","","",""
"html-keyboard-response","131","332212","0.0-7.0-2.19","611f9bb3dcada21890ed9af0","bdp_wmem","Mon Mar 13 2023 21:16:56 GMT-0700 (Pacific Daylight Time)","593209","Match,No Match","","null","","","","","","<div class='trialBorder'><div class='vertical-center'><img style='vertical-align:center; align:center' src='img/fixation2_sml.jpg'></div><div class='arrayDiv3'><div class='tl'><img class='introPic' src='trustrating_stim/white_mw092.bmp'><br><font color='green'><strong>Share</strong></font></div><div class='tc'><img class='introPic' src='trustrating_stim/white_mw091.bmp'><br><font color='red'><strong>Keep</strong></font></div><div class='tr'><img class='introPic' src='trustrating_stim/white_mw012.bmp'><br><font color='red'><strong>Keep</strong></font></div></div></div>","null","ARRAY","3","trustrating_stim/white_mw092.bmp,trustrating_stim/white_mw091.bmp,trustrating_stim/white_mw012.bmp","1,0,0","Match","e","4500","","","","",""
"html-keyboard-response","132","336217","0.0-7.0-3.19","611f9bb3dcada21890ed9af0","bdp_wmem","Mon Mar 13 2023 21:16:56 GMT-0700 (Pacific Daylight Time)","593209","Match,No Match","","null","","","","","","<div class='trialBorder'><div class='vertical-center'><img src='img/fixation2_sml.jpg'</img></div></div>","null","DELAY","","","","","","","","","","",""
"html-keyboard-response","133","337373","0.0-7.0-4.19","611f9bb3dcada21890ed9af0","bdp_wmem","Mon Mar 13 2023 21:16:56 GMT-0700 (Pacific Daylight Time)","593209","Match,No Match","","1153","","","","","","<div class='trialBorder'><div class='targDiv'><div class='tc'><img class='introPic' src='trustrating_stim/white_mw012.bmp'><br><font color='red'><strong>Keep</strong></font></div></div><div class='respDiv'><div class='respDivL'>Match<br>(e)</div><div class='respDivR'>No Match<br>(i)</div></div></div>","e","TARGET","3","trustrating_stim/white_mw092.bmp,trustrating_stim/white_mw091.bmp,trustrating_stim/white_mw012.bmp","1,0,0","Match","e","4500","trustrating_stim/white_mw012.bmp","red","Keep","REAL","1"
"html-keyboard-response","134","337881","0.0-7.0-5.19","611f9bb3dcada21890ed9af0","bdp_wmem","Mon Mar 13 2023 21:16:56 GMT-0700 (Pacific Daylight Time)","593209","Match,No Match","","null","","","","","","<div class='trialBorder'><div class='vertical-center'><img src='img/correct.jpg'></div><div class='respDiv'><div class='respDivL'><font style='color:orange'>Match<br>(e)</font></div><div class='respDivR'>No Match<br>(i)</div></div></div>","null","FEEDBACK","","","","","","","","","","",""
"html-keyboard-response","135","338388","0.0-7.0-1.20","611f9bb3dcada21890ed9af0","bdp_wmem","Mon Mar 13 2023 21:16:56 GMT-0700 (Pacific Daylight Time)","593209","Match,No Match","","null","","","","","","<div class='trialBorder'><div class='vertical-center'><img src='img/fixation2_sml.jpg'</img></div></div>","null","FIX","","","","","","","","","","",""
"html-keyboard-response","136","342900","0.0-7.0-2.20","611f9bb3dcada21890ed9af0","bdp_wmem","Mon Mar 13 2023 21:16:56 GMT-0700 (Pacific Daylight Time)","593209","Match,No Match","","null","","","","","","<div class='trialBorder'><div class='vertical-center'><img style='vertical-align:center; align:center' src='img/fixation2_sml.jpg'></div><div class='arrayDiv3'><div class='tl'><img class='introPic' src='trustrating_stim/white_mw078.bmp'><br><font color='green'><strong>Share</strong></font></div><div class='tc'><img class='introPic' src='trustrating_stim/white_mw085.bmp'><br><font color='red'><strong>Keep</strong></font></div><div class='tr'><img class='introPic' src='trustrating_stim/white_mw042.bmp'><br><font color='green'><strong>Share</strong></font></div></div></div>","null","ARRAY","3","trustrating_stim/white_mw078.bmp,trustrating_stim/white_mw085.bmp,trustrating_stim/white_mw042.bmp","1,0,1","noMatchOutcome","i","4500","","","","",""
"html-keyboard-response","137","346905","0.0-7.0-3.20","611f9bb3dcada21890ed9af0","bdp_wmem","Mon Mar 13 2023 21:16:56 GMT-0700 (Pacific Daylight Time)","593209","Match,No Match","","null","","","","","","<div class='trialBorder'><div class='vertical-center'><img src='img/fixation2_sml.jpg'</img></div></div>","null","DELAY","","","","","","","","","","",""
"html-keyboard-response","138","348431","0.0-7.0-4.20","611f9bb3dcada21890ed9af0","bdp_wmem","Mon Mar 13 2023 21:16:56 GMT-0700 (Pacific Daylight Time)","593209","Match,No Match","","1523","","","","","","<div class='trialBorder'><div class='targDiv'><div class='tc'><img class='introPic' src='trustrating_stim/white_mw078.bmp'><br><font color='red'><strong>Keep</strong></font></div></div><div class='respDiv'><div class='respDivL'>Match<br>(e)</div><div class='respDivR'>No Match<br>(i)</div></div></div>","i","TARGET","3","trustrating_stim/white_mw078.bmp,trustrating_stim/white_mw085.bmp,trustrating_stim/white_mw042.bmp","1,0,1","noMatchOutcome","i","4500","trustrating_stim/white_mw078.bmp","red","Keep","REAL","1"
"html-keyboard-response","139","348937","0.0-7.0-5.20","611f9bb3dcada21890ed9af0","bdp_wmem","Mon Mar 13 2023 21:16:56 GMT-0700 (Pacific Daylight Time)","593209","Match,No Match","","null","","","","","","<div class='trialBorder'><div class='vertical-center'><img src='img/correct.jpg'></div><div class='respDiv'><div class='respDivL'>Match<br>(e)</div><div class='respDivR'><font style='color:orange'>No Match<br>(i)</font></div></div></div>","null","FEEDBACK","","","","","","","","","","",""
"html-keyboard-response","140","349444","0.0-7.0-1.21","611f9bb3dcada21890ed9af0","bdp_wmem","Mon Mar 13 2023 21:16:56 GMT-0700 (Pacific Daylight Time)","593209","Match,No Match","","null","","","","","","<div class='trialBorder'><div class='vertical-center'><img src='img/fixation2_sml.jpg'</img></div></div>","null","FIX","","","","","","","","","","",""
"html-keyboard-response","141","352452","0.0-7.0-2.21","611f9bb3dcada21890ed9af0","bdp_wmem","Mon Mar 13 2023 21:16:56 GMT-0700 (Pacific Daylight Time)","593209","Match,No Match","","null","","","","","","<div class='trialBorder'><div class='vertical-center'><img style='vertical-align:center; align:center' src='img/fixation2_sml.jpg'></div><div class='arrayDiv2'><div class='tl'><img class='introPic' src='trustrating_stim/white_mw013.bmp'><br><font color='green'><strong>Share</strong></font></div><div class='tr'><img class='introPic' src='trustrating_stim/white_mw092.bmp'><br><font color='red'><strong>Keep</strong></font></div></div></div>","null","ARRAY","2","trustrating_stim/white_mw013.bmp,trustrating_stim/white_mw092.bmp","1,0","Match","e","3000","","","","",""
"html-keyboard-response","142","356457","0.0-7.0-3.21","611f9bb3dcada21890ed9af0","bdp_wmem","Mon Mar 13 2023 21:16:56 GMT-0700 (Pacific Daylight Time)","593209","Match,No Match","","null","","","","","","<div class='trialBorder'><div class='vertical-center'><img src='img/fixation2_sml.jpg'</img></div></div>","null","DELAY","","","","","","","","","","",""
"html-keyboard-response","143","357104","0.0-7.0-4.21","611f9bb3dcada21890ed9af0","bdp_wmem","Mon Mar 13 2023 21:16:56 GMT-0700 (Pacific Daylight Time)","593209","Match,No Match","","645","","","","","","<div class='trialBorder'><div class='targDiv'><div class='tc'><img class='introPic' src='trustrating_stim/white_mw013.bmp'><br><font color='green'><strong>Share</strong></font></div></div><div class='respDiv'><div class='respDivL'>Match<br>(e)</div><div class='respDivR'>No Match<br>(i)</div></div></div>","e","TARGET","2","trustrating_stim/white_mw013.bmp,trustrating_stim/white_mw092.bmp","1,0","Match","e","3000","trustrating_stim/white_mw013.bmp","green","Share","REAL","1"
"html-keyboard-response","144","357609","0.0-7.0-5.21","611f9bb3dcada21890ed9af0","bdp_wmem","Mon Mar 13 2023 21:16:56 GMT-0700 (Pacific Daylight Time)","593209","Match,No Match","","null","","","","","","<div class='trialBorder'><div class='vertical-center'><img src='img/correct.jpg'></div><div class='respDiv'><div class='respDivL'><font style='color:orange'>Match<br>(e)</font></div><div class='respDivR'>No Match<br>(i)</div></div></div>","null","FEEDBACK","","","","","","","","","","",""
"html-keyboard-response","145","358116","0.0-7.0-1.22","611f9bb3dcada21890ed9af0","bdp_wmem","Mon Mar 13 2023 21:16:56 GMT-0700 (Pacific Daylight Time)","593209","Match,No Match","","null","","","","","","<div class='trialBorder'><div class='vertical-center'><img src='img/fixation2_sml.jpg'</img></div></div>","null","FIX","","","","","","","","","","",""
"html-keyboard-response","146","359625","0.0-7.0-2.22","611f9bb3dcada21890ed9af0","bdp_wmem","Mon Mar 13 2023 21:16:56 GMT-0700 (Pacific Daylight Time)","593209","Match,No Match","","null","","","","","","<div class='trialBorder'><div class='vertical-center'><img style='vertical-align:center; align:center' src='img/fixation2_sml.jpg'></div><div class='arrayDiv1'><div class='tc'><img class='introPic' src='trustrating_stim/white_mw010.bmp'><br><font color='green'><strong>Share</strong></font></div></div></div>","null","ARRAY","1","trustrating_stim/white_mw010.bmp","1","noMatchOutcome","i","1500","","","","",""
"html-keyboard-response","147","363636","0.0-7.0-3.22","611f9bb3dcada21890ed9af0","bdp_wmem","Mon Mar 13 2023 21:16:56 GMT-0700 (Pacific Daylight Time)","593209","Match,No Match","","null","","","","","","<div class='trialBorder'><div class='vertical-center'><img src='img/fixation2_sml.jpg'</img></div></div>","null","DELAY","","","","","","","","","","",""
"html-keyboard-response","148","365861","0.0-7.0-4.22","611f9bb3dcada21890ed9af0","bdp_wmem","Mon Mar 13 2023 21:16:56 GMT-0700 (Pacific Daylight Time)","593209","Match,No Match","","2223","","","","","","<div class='trialBorder'><div class='targDiv'><div class='tc'><img class='introPic' src='trustrating_stim/white_mw010.bmp'><br><font color='red'><strong>Keep</strong></font></div></div><div class='respDiv'><div class='respDivL'>Match<br>(e)</div><div class='respDivR'>No Match<br>(i)</div></div></div>","i","TARGET","1","trustrating_stim/white_mw010.bmp","1","noMatchOutcome","i","1500","trustrating_stim/white_mw010.bmp","red","Keep","REAL","1"
"html-keyboard-response","149","366372","0.0-7.0-5.22","611f9bb3dcada21890ed9af0","bdp_wmem","Mon Mar 13 2023 21:16:56 GMT-0700 (Pacific Daylight Time)","593209","Match,No Match","","null","","","","","","<div class='trialBorder'><div class='vertical-center'><img src='img/correct.jpg'></div><div class='respDiv'><div class='respDivL'>Match<br>(e)</div><div class='respDivR'><font style='color:orange'>No Match<br>(i)</font></div></div></div>","null","FEEDBACK","","","","","","","","","","",""
"html-keyboard-response","150","366882","0.0-7.0-1.23","611f9bb3dcada21890ed9af0","bdp_wmem","Mon Mar 13 2023 21:16:56 GMT-0700 (Pacific Daylight Time)","593209","Match,No Match","","null","","","","","","<div class='trialBorder'><div class='vertical-center'><img src='img/fixation2_sml.jpg'</img></div></div>","null","FIX","","","","","","","","","","",""
"html-keyboard-response","151","368393","0.0-7.0-2.23","611f9bb3dcada21890ed9af0","bdp_wmem","Mon Mar 13 2023 21:16:56 GMT-0700 (Pacific Daylight Time)","593209","Match,No Match","","null","","","","","","<div class='trialBorder'><div class='vertical-center'><img style='vertical-align:center; align:center' src='img/fixation2_sml.jpg'></div><div class='arrayDiv1'><div class='tc'><img class='introPic' src='trustrating_stim/white_mw040.bmp'><br><font color='green'><strong>Share</strong></font></div></div></div>","null","ARRAY","1","trustrating_stim/white_mw040.bmp","1","Match","e","1500","","","","",""
"html-keyboard-response","152","372402","0.0-7.0-3.23","611f9bb3dcada21890ed9af0","bdp_wmem","Mon Mar 13 2023 21:16:56 GMT-0700 (Pacific Daylight Time)","593209","Match,No Match","","null","","","","","","<div class='trialBorder'><div class='vertical-center'><img src='img/fixation2_sml.jpg'</img></div></div>","null","DELAY","","","","","","","","","","",""
"html-keyboard-response","153","373139","0.0-7.0-4.23","611f9bb3dcada21890ed9af0","bdp_wmem","Mon Mar 13 2023 21:16:56 GMT-0700 (Pacific Daylight Time)","593209","Match,No Match","","734","","","","","","<div class='trialBorder'><div class='targDiv'><div class='tc'><img class='introPic' src='trustrating_stim/white_mw040.bmp'><br><font color='green'><strong>Share</strong></font></div></div><div class='respDiv'><div class='respDivL'>Match<br>(e)</div><div class='respDivR'>No Match<br>(i)</div></div></div>","e","TARGET","1","trustrating_stim/white_mw040.bmp","1","Match","e","1500","trustrating_stim/white_mw040.bmp","green","Share","REAL","1"
"html-keyboard-response","154","373650","0.0-7.0-5.23","611f9bb3dcada21890ed9af0","bdp_wmem","Mon Mar 13 2023 21:16:56 GMT-0700 (Pacific Daylight Time)","593209","Match,No Match","","null","","","","","","<div class='trialBorder'><div class='vertical-center'><img src='img/correct.jpg'></div><div class='respDiv'><div class='respDivL'><font style='color:orange'>Match<br>(e)</font></div><div class='respDivR'>No Match<br>(i)</div></div></div>","null","FEEDBACK","","","","","","","","","","",""
"html-keyboard-response","155","374153","0.0-7.0-1.24","611f9bb3dcada21890ed9af0","bdp_wmem","Mon Mar 13 2023 21:16:56 GMT-0700 (Pacific Daylight Time)","593209","Match,No Match","","null","","","","","","<div class='trialBorder'><div class='vertical-center'><img src='img/fixation2_sml.jpg'</img></div></div>","null","FIX","","","","","","","","","","",""
"html-keyboard-response","156","378660","0.0-7.0-2.24","611f9bb3dcada21890ed9af0","bdp_wmem","Mon Mar 13 2023 21:16:56 GMT-0700 (Pacific Daylight Time)","593209","Match,No Match","","null","","","","","","<div class='trialBorder'><div class='vertical-center'><img style='vertical-align:center; align:center' src='img/fixation2_sml.jpg'></div><div class='arrayDiv3'><div class='tl'><img class='introPic' src='trustrating_stim/white_mw085.bmp'><br><font color='green'><strong>Share</strong></font></div><div class='tc'><img class='introPic' src='trustrating_stim/white_mw092.bmp'><br><font color='green'><strong>Share</strong></font></div><div class='tr'><img class='introPic' src='trustrating_stim/white_mw040.bmp'><br><font color='red'><strong>Keep</strong></font></div></div></div>","null","ARRAY","3","trustrating_stim/white_mw085.bmp,trustrating_stim/white_mw092.bmp,trustrating_stim/white_mw040.bmp","1,1,0","Match","e","4500","","","","",""
"html-keyboard-response","157","382665","0.0-7.0-3.24","611f9bb3dcada21890ed9af0","bdp_wmem","Mon Mar 13 2023 21:16:56 GMT-0700 (Pacific Daylight Time)","593209","Match,No Match","","null","","","","","","<div class='trialBorder'><div class='vertical-center'><img src='img/fixation2_sml.jpg'</img></div></div>","null","DELAY","","","","","","","","","","",""
"html-keyboard-response","158","383701","0.0-7.0-4.24","611f9bb3dcada21890ed9af0","bdp_wmem","Mon Mar 13 2023 21:16:56 GMT-0700 (Pacific Daylight Time)","593209","Match,No Match","","1034","","","","","","<div class='trialBorder'><div class='targDiv'><div class='tc'><img class='introPic' src='trustrating_stim/white_mw092.bmp'><br><font color='green'><strong>Share</strong></font></div></div><div class='respDiv'><div class='respDivL'>Match<br>(e)</div><div class='respDivR'>No Match<br>(i)</div></div></div>","e","TARGET","3","trustrating_stim/white_mw085.bmp,trustrating_stim/white_mw092.bmp,trustrating_stim/white_mw040.bmp","1,1,0","Match","e","4500","trustrating_stim/white_mw092.bmp","green","Share","REAL","1"
"html-keyboard-response","159","384212","0.0-7.0-5.24","611f9bb3dcada21890ed9af0","bdp_wmem","Mon Mar 13 2023 21:16:56 GMT-0700 (Pacific Daylight Time)","593209","Match,No Match","","null","","","","","","<div class='trialBorder'><div class='vertical-center'><img src='img/correct.jpg'></div><div class='respDiv'><div class='respDivL'><font style='color:orange'>Match<br>(e)</font></div><div class='respDivR'>No Match<br>(i)</div></div></div>","null","FEEDBACK","","","","","","","","","","",""
"html-keyboard-response","160","384724","0.0-7.0-1.25","611f9bb3dcada21890ed9af0","bdp_wmem","Mon Mar 13 2023 21:16:56 GMT-0700 (Pacific Daylight Time)","593209","Match,No Match","","null","","","","","","<div class='trialBorder'><div class='vertical-center'><img src='img/fixation2_sml.jpg'</img></div></div>","null","FIX","","","","","","","","","","",""
"html-keyboard-response","161","389236","0.0-7.0-2.25","611f9bb3dcada21890ed9af0","bdp_wmem","Mon Mar 13 2023 21:16:56 GMT-0700 (Pacific Daylight Time)","593209","Match,No Match","","null","","","","","","<div class='trialBorder'><div class='vertical-center'><img style='vertical-align:center; align:center' src='img/fixation2_sml.jpg'></div><div class='arrayDiv3'><div class='tl'><img class='introPic' src='trustrating_stim/white_mw092.bmp'><br><font color='green'><strong>Share</strong></font></div><div class='tc'><img class='introPic' src='trustrating_stim/white_mw040.bmp'><br><font color='red'><strong>Keep</strong></font></div><div class='tr'><img class='introPic' src='trustrating_stim/white_mw038.bmp'><br><font color='red'><strong>Keep</strong></font></div></div></div>","null","ARRAY","3","trustrating_stim/white_mw092.bmp,trustrating_stim/white_mw040.bmp,trustrating_stim/white_mw038.bmp","1,0,0","noMatchOutcome","i","4500","","","","",""
"html-keyboard-response","162","393241","0.0-7.0-3.25","611f9bb3dcada21890ed9af0","bdp_wmem","Mon Mar 13 2023 21:16:56 GMT-0700 (Pacific Daylight Time)","593209","Match,No Match","","null","","","","","","<div class='trialBorder'><div class='vertical-center'><img src='img/fixation2_sml.jpg'</img></div></div>","null","DELAY","","","","","","","","","","",""
"html-keyboard-response","163","394151","0.0-7.0-4.25","611f9bb3dcada21890ed9af0","bdp_wmem","Mon Mar 13 2023 21:16:56 GMT-0700 (Pacific Daylight Time)","593209","Match,No Match","","908","","","","","","<div class='trialBorder'><div class='targDiv'><div class='tc'><img class='introPic' src='trustrating_stim/white_mw038.bmp'><br><font color='green'><strong>Share</strong></font></div></div><div class='respDiv'><div class='respDivL'>Match<br>(e)</div><div class='respDivR'>No Match<br>(i)</div></div></div>","i","TARGET","3","trustrating_stim/white_mw092.bmp,trustrating_stim/white_mw040.bmp,trustrating_stim/white_mw038.bmp","1,0,0","noMatchOutcome","i","4500","trustrating_stim/white_mw038.bmp","green","Share","REAL","1"
"html-keyboard-response","164","394660","0.0-7.0-5.25","611f9bb3dcada21890ed9af0","bdp_wmem","Mon Mar 13 2023 21:16:56 GMT-0700 (Pacific Daylight Time)","593209","Match,No Match","","null","","","","","","<div class='trialBorder'><div class='vertical-center'><img src='img/correct.jpg'></div><div class='respDiv'><div class='respDivL'>Match<br>(e)</div><div class='respDivR'><font style='color:orange'>No Match<br>(i)</font></div></div></div>","null","FEEDBACK","","","","","","","","","","",""
"html-keyboard-response","165","395172","0.0-7.0-1.26","611f9bb3dcada21890ed9af0","bdp_wmem","Mon Mar 13 2023 21:16:56 GMT-0700 (Pacific Daylight Time)","593209","Match,No Match","","null","","","","","","<div class='trialBorder'><div class='vertical-center'><img src='img/fixation2_sml.jpg'</img></div></div>","null","FIX","","","","","","","","","","",""
"html-keyboard-response","166","396681","0.0-7.0-2.26","611f9bb3dcada21890ed9af0","bdp_wmem","Mon Mar 13 2023 21:16:56 GMT-0700 (Pacific Daylight Time)","593209","Match,No Match","","null","","","","","","<div class='trialBorder'><div class='vertical-center'><img style='vertical-align:center; align:center' src='img/fixation2_sml.jpg'></div><div class='arrayDiv1'><div class='tc'><img class='introPic' src='trustrating_stim/white_mw012.bmp'><br><font color='red'><strong>Keep</strong></font></div></div></div>","null","ARRAY","1","trustrating_stim/white_mw012.bmp","0","noMatchFace","i","1500","","","","",""
"html-keyboard-response","167","400692","0.0-7.0-3.26","611f9bb3dcada21890ed9af0","bdp_wmem","Mon Mar 13 2023 21:16:56 GMT-0700 (Pacific Daylight Time)","593209","Match,No Match","","null","","","","","","<div class='trialBorder'><div class='vertical-center'><img src='img/fixation2_sml.jpg'</img></div></div>","null","DELAY","","","","","","","","","","",""
"html-keyboard-response","168","401486","0.0-7.0-4.26","611f9bb3dcada21890ed9af0","bdp_wmem","Mon Mar 13 2023 21:16:56 GMT-0700 (Pacific Daylight Time)","593209","Match,No Match","","791","","","","","","<div class='trialBorder'><div class='targDiv'><div class='tc'><img class='introPic' src='trustrating_stim/white_mw013.bmp'><br><font color='red'><strong>Keep</strong></font></div></div><div class='respDiv'><div class='respDivL'>Match<br>(e)</div><div class='respDivR'>No Match<br>(i)</div></div></div>","i","TARGET","1","trustrating_stim/white_mw012.bmp","0","noMatchFace","i","1500","trustrating_stim/white_mw013.bmp","red","Keep","REAL","1"
"html-keyboard-response","169","401993","0.0-7.0-5.26","611f9bb3dcada21890ed9af0","bdp_wmem","Mon Mar 13 2023 21:16:56 GMT-0700 (Pacific Daylight Time)","593209","Match,No Match","","null","","","","","","<div class='trialBorder'><div class='vertical-center'><img src='img/correct.jpg'></div><div class='respDiv'><div class='respDivL'>Match<br>(e)</div><div class='respDivR'><font style='color:orange'>No Match<br>(i)</font></div></div></div>","null","FEEDBACK","","","","","","","","","","",""
"html-keyboard-response","170","402500","0.0-7.0-1.27","611f9bb3dcada21890ed9af0","bdp_wmem","Mon Mar 13 2023 21:16:56 GMT-0700 (Pacific Daylight Time)","593209","Match,No Match","","null","","","","","","<div class='trialBorder'><div class='vertical-center'><img src='img/fixation2_sml.jpg'</img></div></div>","null","FIX","","","","","","","","","","",""
"html-keyboard-response","171","405508","0.0-7.0-2.27","611f9bb3dcada21890ed9af0","bdp_wmem","Mon Mar 13 2023 21:16:56 GMT-0700 (Pacific Daylight Time)","593209","Match,No Match","","null","","","","","","<div class='trialBorder'><div class='vertical-center'><img style='vertical-align:center; align:center' src='img/fixation2_sml.jpg'></div><div class='arrayDiv2'><div class='tl'><img class='introPic' src='trustrating_stim/white_mw091.bmp'><br><font color='red'><strong>Keep</strong></font></div><div class='tr'><img class='introPic' src='trustrating_stim/white_mw013.bmp'><br><font color='green'><strong>Share</strong></font></div></div></div>","null","ARRAY","2","trustrating_stim/white_mw091.bmp,trustrating_stim/white_mw013.bmp","0,1","Match","e","3000","","","","",""
"html-keyboard-response","172","409513","0.0-7.0-3.27","611f9bb3dcada21890ed9af0","bdp_wmem","Mon Mar 13 2023 21:16:56 GMT-0700 (Pacific Daylight Time)","593209","Match,No Match","","null","","","","","","<div class='trialBorder'><div class='vertical-center'><img src='img/fixation2_sml.jpg'</img></div></div>","null","DELAY","","","","","","","","","","",""
"html-keyboard-response","173","410372","0.0-7.0-4.27","611f9bb3dcada21890ed9af0","bdp_wmem","Mon Mar 13 2023 21:16:56 GMT-0700 (Pacific Daylight Time)","593209","Match,No Match","","857","","","","","","<div class='trialBorder'><div class='targDiv'><div class='tc'><img class='introPic' src='trustrating_stim/white_mw013.bmp'><br><font color='green'><strong>Share</strong></font></div></div><div class='respDiv'><div class='respDivL'>Match<br>(e)</div><div class='respDivR'>No Match<br>(i)</div></div></div>","e","TARGET","2","trustrating_stim/white_mw091.bmp,trustrating_stim/white_mw013.bmp","0,1","Match","e","3000","trustrating_stim/white_mw013.bmp","green","Share","REAL","1"
"html-keyboard-response","174","410881","0.0-7.0-5.27","611f9bb3dcada21890ed9af0","bdp_wmem","Mon Mar 13 2023 21:16:56 GMT-0700 (Pacific Daylight Time)","593209","Match,No Match","","null","","","","","","<div class='trialBorder'><div class='vertical-center'><img src='img/correct.jpg'></div><div class='respDiv'><div class='respDivL'><font style='color:orange'>Match<br>(e)</font></div><div class='respDivR'>No Match<br>(i)</div></div></div>","null","FEEDBACK","","","","","","","","","","",""
"html-keyboard-response","175","411385","0.0-7.0-1.28","611f9bb3dcada21890ed9af0","bdp_wmem","Mon Mar 13 2023 21:16:56 GMT-0700 (Pacific Daylight Time)","593209","Match,No Match","","null","","","","","","<div class='trialBorder'><div class='vertical-center'><img src='img/fixation2_sml.jpg'</img></div></div>","null","FIX","","","","","","","","","","",""
"html-keyboard-response","176","415892","0.0-7.0-2.28","611f9bb3dcada21890ed9af0","bdp_wmem","Mon Mar 13 2023 21:16:56 GMT-0700 (Pacific Daylight Time)","593209","Match,No Match","","null","","","","","","<div class='trialBorder'><div class='vertical-center'><img style='vertical-align:center; align:center' src='img/fixation2_sml.jpg'></div><div class='arrayDiv3'><div class='tl'><img class='introPic' src='trustrating_stim/white_mw012.bmp'><br><font color='red'><strong>Keep</strong></font></div><div class='tc'><img class='introPic' src='trustrating_stim/white_mw091.bmp'><br><font color='green'><strong>Share</strong></font></div><div class='tr'><img class='introPic' src='trustrating_stim/white_mw070.bmp'><br><font color='red'><strong>Keep</strong></font></div></div></div>","null","ARRAY","3","trustrating_stim/white_mw012.bmp,trustrating_stim/white_mw091.bmp,trustrating_stim/white_mw070.bmp","0,1,0","noMatchOutcome","i","4500","","","","",""
"html-keyboard-response","177","419897","0.0-7.0-3.28","611f9bb3dcada21890ed9af0","bdp_wmem","Mon Mar 13 2023 21:16:56 GMT-0700 (Pacific Daylight Time)","593209","Match,No Match","","null","","","","","","<div class='trialBorder'><div class='vertical-center'><img src='img/fixation2_sml.jpg'</img></div></div>","null","DELAY","","","","","","","","","","",""
"html-keyboard-response","178","420484","0.0-7.0-4.28","611f9bb3dcada21890ed9af0","bdp_wmem","Mon Mar 13 2023 21:16:56 GMT-0700 (Pacific Daylight Time)","593209","Match,No Match","","585","","","","","","<div class='trialBorder'><div class='targDiv'><div class='tc'><img class='introPic' src='trustrating_stim/white_mw012.bmp'><br><font color='green'><strong>Share</strong></font></div></div><div class='respDiv'><div class='respDivL'>Match<br>(e)</div><div class='respDivR'>No Match<br>(i)</div></div></div>","i","TARGET","3","trustrating_stim/white_mw012.bmp,trustrating_stim/white_mw091.bmp,trustrating_stim/white_mw070.bmp","0,1,0","noMatchOutcome","i","4500","trustrating_stim/white_mw012.bmp","green","Share","REAL","1"
"html-keyboard-response","179","420993","0.0-7.0-5.28","611f9bb3dcada21890ed9af0","bdp_wmem","Mon Mar 13 2023 21:16:56 GMT-0700 (Pacific Daylight Time)","593209","Match,No Match","","null","","","","","","<div class='trialBorder'><div class='vertical-center'><img src='img/correct.jpg'></div><div class='respDiv'><div class='respDivL'>Match<br>(e)</div><div class='respDivR'><font style='color:orange'>No Match<br>(i)</font></div></div></div>","null","FEEDBACK","","","","","","","","","","",""
"html-keyboard-response","180","421497","0.0-7.0-1.29","611f9bb3dcada21890ed9af0","bdp_wmem","Mon Mar 13 2023 21:16:56 GMT-0700 (Pacific Daylight Time)","593209","Match,No Match","","null","","","","","","<div class='trialBorder'><div class='vertical-center'><img src='img/fixation2_sml.jpg'</img></div></div>","null","FIX","","","","","","","","","","",""
"html-keyboard-response","181","424505","0.0-7.0-2.29","611f9bb3dcada21890ed9af0","bdp_wmem","Mon Mar 13 2023 21:16:56 GMT-0700 (Pacific Daylight Time)","593209","Match,No Match","","null","","","","","","<div class='trialBorder'><div class='vertical-center'><img style='vertical-align:center; align:center' src='img/fixation2_sml.jpg'></div><div class='arrayDiv2'><div class='tl'><img class='introPic' src='trustrating_stim/white_mw003.bmp'><br><font color='red'><strong>Keep</strong></font></div><div class='tr'><img class='introPic' src='trustrating_stim/white_mw085.bmp'><br><font color='green'><strong>Share</strong></font></div></div></div>","null","ARRAY","2","trustrating_stim/white_mw003.bmp,trustrating_stim/white_mw085.bmp","0,1","Match","e","3000","","","","",""
"html-keyboard-response","182","428516","0.0-7.0-3.29","611f9bb3dcada21890ed9af0","bdp_wmem","Mon Mar 13 2023 21:16:56 GMT-0700 (Pacific Daylight Time)","593209","Match,No Match","","null","","","","","","<div class='trialBorder'><div class='vertical-center'><img src='img/fixation2_sml.jpg'</img></div></div>","null","DELAY","","","","","","","","","","",""
"html-keyboard-response","183","430206","0.0-7.0-4.29","611f9bb3dcada21890ed9af0","bdp_wmem","Mon Mar 13 2023 21:16:56 GMT-0700 (Pacific Daylight Time)","593209","Match,No Match","","1688","","","","","","<div class='trialBorder'><div class='targDiv'><div class='tc'><img class='introPic' src='trustrating_stim/white_mw085.bmp'><br><font color='green'><strong>Share</strong></font></div></div><div class='respDiv'><div class='respDivL'>Match<br>(e)</div><div class='respDivR'>No Match<br>(i)</div></div></div>","e","TARGET","2","trustrating_stim/white_mw003.bmp,trustrating_stim/white_mw085.bmp","0,1","Match","e","3000","trustrating_stim/white_mw085.bmp","green","Share","REAL","1"
"html-keyboard-response","184","430713","0.0-7.0-5.29","611f9bb3dcada21890ed9af0","bdp_wmem","Mon Mar 13 2023 21:16:56 GMT-0700 (Pacific Daylight Time)","593209","Match,No Match","","null","","","","","","<div class='trialBorder'><div class='vertical-center'><img src='img/correct.jpg'></div><div class='respDiv'><div class='respDivL'><font style='color:orange'>Match<br>(e)</font></div><div class='respDivR'>No Match<br>(i)</div></div></div>","null","FEEDBACK","","","","","","","","","","",""
"html-keyboard-response","185","431220","0.0-7.0-1.30","611f9bb3dcada21890ed9af0","bdp_wmem","Mon Mar 13 2023 21:16:56 GMT-0700 (Pacific Daylight Time)","593209","Match,No Match","","null","","","","","","<div class='trialBorder'><div class='vertical-center'><img src='img/fixation2_sml.jpg'</img></div></div>","null","FIX","","","","","","","","","","",""
"html-keyboard-response","186","432729","0.0-7.0-2.30","611f9bb3dcada21890ed9af0","bdp_wmem","Mon Mar 13 2023 21:16:56 GMT-0700 (Pacific Daylight Time)","593209","Match,No Match","","null","","","","","","<div class='trialBorder'><div class='vertical-center'><img style='vertical-align:center; align:center' src='img/fixation2_sml.jpg'></div><div class='arrayDiv1'><div class='tc'><img class='introPic' src='trustrating_stim/white_mw085.bmp'><br><font color='green'><strong>Share</strong></font></div></div></div>","null","ARRAY","1","trustrating_stim/white_mw085.bmp","1","noMatchOutcome","i","1500","","","","",""
"html-keyboard-response","187","436740","0.0-7.0-3.30","611f9bb3dcada21890ed9af0","bdp_wmem","Mon Mar 13 2023 21:16:56 GMT-0700 (Pacific Daylight Time)","593209","Match,No Match","","null","","","","","","<div class='trialBorder'><div class='vertical-center'><img src='img/fixation2_sml.jpg'</img></div></div>","null","DELAY","","","","","","","","","","",""
