"trial_type","trial_index","time_elapsed","internal_node_id","subject_id","task","startTime","totalTime","labels","view_history","rt","event","trial","time","trialtype","success","stimulus","key_press","stimType","arraySize","arrayFaces","arrayOutcomes","matchType","corrResp","arrayDur","targFace","targCol","targOutcome","trialType","corr"
"pavlovia","0","5","0.0-0.0","Test test test","bdp_wmem","Mon Feb 28 2022 13:52:39 GMT-0500 (Eastern Standard Time)","639449","Match,No Match","","","","","","","","","","","","","","","","","","","","",""
"instructions","1","997","0.0-1.0","Test test test","bdp_wmem","Mon Feb 28 2022 13:52:39 GMT-0500 (Eastern Standard Time)","639449","Match,No Match","[{""page_index"":0,""viewing_time"":991}]","991","","","","","","","","","","","","","","","","","","",""
"","","","","Test test test","bdp_wmem","Mon Feb 28 2022 13:52:39 GMT-0500 (Eastern Standard Time)","639449","Match,No Match","","","fullscreenenter","2","3079","fullscreenenter","","","","","","","","","","","","","","",""
"fullscreen","2","4046","0.0-2.0","Test test test","bdp_wmem","Mon Feb 28 2022 13:52:39 GMT-0500 (Eastern Standard Time)","639449","Match,No Match","","","","","","","true","","","","","","","","","","","","","",""
"instructions","3","46401","0.0-4.0","Test test test","bdp_wmem","Mon Feb 28 2022 13:52:39 GMT-0500 (Eastern Standard Time)","639449","Match,No Match","[{""page_index"":0,""viewing_time"":3139},{""page_index"":1,""viewing_time"":1549},{""page_index"":2,""viewing_time"":1370},{""page_index"":3,""viewing_time"":7789},{""page_index"":4,""viewing_time"":28507}]","42354","","","","","","","","","","","","","","","","","","",""
"html-keyboard-response","4","46905","0.0-5.0-1.0","Test test test","bdp_wmem","Mon Feb 28 2022 13:52:39 GMT-0500 (Eastern Standard Time)","639449","Match,No Match","","null","","","","","","<div class='trialBorder'><div class='vertical-center'><img src='img/fixation2_sml.jpg'</img></div></div>","null","FIX","","","","","","","","","","",""
"html-keyboard-response","5","48408","0.0-5.0-2.0","Test test test","bdp_wmem","Mon Feb 28 2022 13:52:39 GMT-0500 (Eastern Standard Time)","639449","Match,No Match","","null","","","","","","<div class='trialBorder'><div class='vertical-center'><img style='vertical-align:center; align:center' src='img/fixation2_sml.jpg'></div><div class='arrayDiv1'><div class='tc'><img class='introPic' src='trustrating_stim/white_mw013.bmp'><br><font color='red'><strong>Keep</strong></font></div></div></div>","null","ARRAY","1","trustrating_stim/white_mw013.bmp","0","Match","e","1500","","","","",""
"html-keyboard-response","6","52414","0.0-5.0-3.0","Test test test","bdp_wmem","Mon Feb 28 2022 13:52:39 GMT-0500 (Eastern Standard Time)","639449","Match,No Match","","null","","","","","","<div class='trialBorder'><div class='vertical-center'><img src='img/fixation2_sml.jpg'</img></div></div>","null","DELAY","","","","","","","","","","",""
"html-keyboard-response","7","54742","0.0-5.0-4.0","Test test test","bdp_wmem","Mon Feb 28 2022 13:52:39 GMT-0500 (Eastern Standard Time)","639449","Match,No Match","","2326","","","","","","<div class='trialBorder'><div class='targDiv'><div class='tc'><img class='introPic' src='trustrating_stim/white_mw013.bmp'><br><font color='red'><strong>Keep</strong></font></div></div><div class='respDiv'><div class='respDivL'>Match<br>(e)</div><div class='respDivR'>No Match<br>(i)</div></div></div>","e","TARGET","1","trustrating_stim/white_mw013.bmp","0","Match","e","1500","trustrating_stim/white_mw013.bmp","red","Keep","PRACTICE","1"
"html-keyboard-response","8","55246","0.0-5.0-5.0","Test test test","bdp_wmem","Mon Feb 28 2022 13:52:39 GMT-0500 (Eastern Standard Time)","639449","Match,No Match","","null","","","","","","<div class='trialBorder'><div class='vertical-center'><img src='img/correct.jpg'></div><div class='respDiv'><div class='respDivL'><font style='color:orange'>Match<br>(e)</font></div><div class='respDivR'>No Match<br>(i)</div></div></div>","null","FEEDBACK","","","","","","","","","","",""
"html-keyboard-response","9","55753","0.0-5.0-1.1","Test test test","bdp_wmem","Mon Feb 28 2022 13:52:39 GMT-0500 (Eastern Standard Time)","639449","Match,No Match","","null","","","","","","<div class='trialBorder'><div class='vertical-center'><img src='img/fixation2_sml.jpg'</img></div></div>","null","FIX","","","","","","","","","","",""
"html-keyboard-response","10","60259","0.0-5.0-2.1","Test test test","bdp_wmem","Mon Feb 28 2022 13:52:39 GMT-0500 (Eastern Standard Time)","639449","Match,No Match","","null","","","","","","<div class='trialBorder'><div class='vertical-center'><img style='vertical-align:center; align:center' src='img/fixation2_sml.jpg'></div><div class='arrayDiv3'><div class='tl'><img class='introPic' src='trustrating_stim/white_mw038.bmp'><br><font color='red'><strong>Keep</strong></font></div><div class='tc'><img class='introPic' src='trustrating_stim/white_mw003.bmp'><br><font color='red'><strong>Keep</strong></font></div><div class='tr'><img class='introPic' src='trustrating_stim/white_00807_941205_fb_edt.bmp'><br><font color='green'><strong>Share</strong></font></div></div></div>","null","ARRAY","3","trustrating_stim/white_mw038.bmp,trustrating_stim/white_mw003.bmp,trustrating_stim/white_00807_941205_fb_edt.bmp","0,0,1","Match","e","4500","","","","",""
"html-keyboard-response","11","64265","0.0-5.0-3.1","Test test test","bdp_wmem","Mon Feb 28 2022 13:52:39 GMT-0500 (Eastern Standard Time)","639449","Match,No Match","","null","","","","","","<div class='trialBorder'><div class='vertical-center'><img src='img/fixation2_sml.jpg'</img></div></div>","null","DELAY","","","","","","","","","","",""
"html-keyboard-response","12","66445","0.0-5.0-4.1","Test test test","bdp_wmem","Mon Feb 28 2022 13:52:39 GMT-0500 (Eastern Standard Time)","639449","Match,No Match","","2177","","","","","","<div class='trialBorder'><div class='targDiv'><div class='tc'><img class='introPic' src='trustrating_stim/white_mw003.bmp'><br><font color='red'><strong>Keep</strong></font></div></div><div class='respDiv'><div class='respDivL'>Match<br>(e)</div><div class='respDivR'>No Match<br>(i)</div></div></div>","e","TARGET","3","trustrating_stim/white_mw038.bmp,trustrating_stim/white_mw003.bmp,trustrating_stim/white_00807_941205_fb_edt.bmp","0,0,1","Match","e","4500","trustrating_stim/white_mw003.bmp","red","Keep","PRACTICE","1"
"html-keyboard-response","13","66948","0.0-5.0-5.1","Test test test","bdp_wmem","Mon Feb 28 2022 13:52:39 GMT-0500 (Eastern Standard Time)","639449","Match,No Match","","null","","","","","","<div class='trialBorder'><div class='vertical-center'><img src='img/correct.jpg'></div><div class='respDiv'><div class='respDivL'><font style='color:orange'>Match<br>(e)</font></div><div class='respDivR'>No Match<br>(i)</div></div></div>","null","FEEDBACK","","","","","","","","","","",""
"html-keyboard-response","14","67451","0.0-5.0-1.2","Test test test","bdp_wmem","Mon Feb 28 2022 13:52:39 GMT-0500 (Eastern Standard Time)","639449","Match,No Match","","null","","","","","","<div class='trialBorder'><div class='vertical-center'><img src='img/fixation2_sml.jpg'</img></div></div>","null","FIX","","","","","","","","","","",""
"html-keyboard-response","15","70454","0.0-5.0-2.2","Test test test","bdp_wmem","Mon Feb 28 2022 13:52:39 GMT-0500 (Eastern Standard Time)","639449","Match,No Match","","null","","","","","","<div class='trialBorder'><div class='vertical-center'><img style='vertical-align:center; align:center' src='img/fixation2_sml.jpg'></div><div class='arrayDiv2'><div class='tl'><img class='introPic' src='trustrating_stim/white_00050_931230_fa_edt.bmp'><br><font color='green'><strong>Share</strong></font></div><div class='tr'><img class='introPic' src='trustrating_stim/white_mw012.bmp'><br><font color='red'><strong>Keep</strong></font></div></div></div>","null","ARRAY","2","trustrating_stim/white_00050_931230_fa_edt.bmp,trustrating_stim/white_mw012.bmp","1,0","noMatchFace","i","3000","","","","",""
"html-keyboard-response","16","74456","0.0-5.0-3.2","Test test test","bdp_wmem","Mon Feb 28 2022 13:52:39 GMT-0500 (Eastern Standard Time)","639449","Match,No Match","","null","","","","","","<div class='trialBorder'><div class='vertical-center'><img src='img/fixation2_sml.jpg'</img></div></div>","null","DELAY","","","","","","","","","","",""
"html-keyboard-response","17","76058","0.0-5.0-4.2","Test test test","bdp_wmem","Mon Feb 28 2022 13:52:39 GMT-0500 (Eastern Standard Time)","639449","Match,No Match","","1600","","","","","","<div class='trialBorder'><div class='targDiv'><div class='tc'><img class='introPic' src='trustrating_stim/white_mw091.bmp'><br><font color='green'><strong>Share</strong></font></div></div><div class='respDiv'><div class='respDivL'>Match<br>(e)</div><div class='respDivR'>No Match<br>(i)</div></div></div>","i","TARGET","2","trustrating_stim/white_00050_931230_fa_edt.bmp,trustrating_stim/white_mw012.bmp","1,0","noMatchFace","i","3000","trustrating_stim/white_mw091.bmp","green","Share","PRACTICE","1"
"html-keyboard-response","18","76563","0.0-5.0-5.2","Test test test","bdp_wmem","Mon Feb 28 2022 13:52:39 GMT-0500 (Eastern Standard Time)","639449","Match,No Match","","null","","","","","","<div class='trialBorder'><div class='vertical-center'><img src='img/correct.jpg'></div><div class='respDiv'><div class='respDivL'>Match<br>(e)</div><div class='respDivR'><font style='color:orange'>No Match<br>(i)</font></div></div></div>","null","FEEDBACK","","","","","","","","","","",""
"html-keyboard-response","19","77068","0.0-5.0-1.3","Test test test","bdp_wmem","Mon Feb 28 2022 13:52:39 GMT-0500 (Eastern Standard Time)","639449","Match,No Match","","null","","","","","","<div class='trialBorder'><div class='vertical-center'><img src='img/fixation2_sml.jpg'</img></div></div>","null","FIX","","","","","","","","","","",""
"html-keyboard-response","20","80074","0.0-5.0-2.3","Test test test","bdp_wmem","Mon Feb 28 2022 13:52:39 GMT-0500 (Eastern Standard Time)","639449","Match,No Match","","null","","","","","","<div class='trialBorder'><div class='vertical-center'><img style='vertical-align:center; align:center' src='img/fixation2_sml.jpg'></div><div class='arrayDiv2'><div class='tl'><img class='introPic' src='trustrating_stim/white_mw015.bmp'><br><font color='red'><strong>Keep</strong></font></div><div class='tr'><img class='introPic' src='trustrating_stim/white_00807_941205_fb_edt.bmp'><br><font color='green'><strong>Share</strong></font></div></div></div>","null","ARRAY","2","trustrating_stim/white_mw015.bmp,trustrating_stim/white_00807_941205_fb_edt.bmp","0,1","Match","e","3000","","","","",""
"html-keyboard-response","21","84078","0.0-5.0-3.3","Test test test","bdp_wmem","Mon Feb 28 2022 13:52:39 GMT-0500 (Eastern Standard Time)","639449","Match,No Match","","null","","","","","","<div class='trialBorder'><div class='vertical-center'><img src='img/fixation2_sml.jpg'</img></div></div>","null","DELAY","","","","","","","","","","",""
"html-keyboard-response","22","84879","0.0-5.0-4.3","Test test test","bdp_wmem","Mon Feb 28 2022 13:52:39 GMT-0500 (Eastern Standard Time)","639449","Match,No Match","","799","","","","","","<div class='trialBorder'><div class='targDiv'><div class='tc'><img class='introPic' src='trustrating_stim/white_00807_941205_fb_edt.bmp'><br><font color='green'><strong>Share</strong></font></div></div><div class='respDiv'><div class='respDivL'>Match<br>(e)</div><div class='respDivR'>No Match<br>(i)</div></div></div>","i","TARGET","2","trustrating_stim/white_mw015.bmp,trustrating_stim/white_00807_941205_fb_edt.bmp","0,1","Match","e","3000","trustrating_stim/white_00807_941205_fb_edt.bmp","green","Share","PRACTICE","0"
"html-keyboard-response","23","85382","0.0-5.0-5.3","Test test test","bdp_wmem","Mon Feb 28 2022 13:52:39 GMT-0500 (Eastern Standard Time)","639449","Match,No Match","","null","","","","","","<div class='trialBorder'><div class='vertical-center'><img src='img/error.jpg'></div><div class='respDiv'><div class='respDivL'>Match<br>(e)</div><div class='respDivR'><font style='color:orange'>No Match<br>(i)</font></div></div></div>","null","FEEDBACK","","","","","","","","","","",""
"html-keyboard-response","24","85887","0.0-5.0-1.4","Test test test","bdp_wmem","Mon Feb 28 2022 13:52:39 GMT-0500 (Eastern Standard Time)","639449","Match,No Match","","null","","","","","","<div class='trialBorder'><div class='vertical-center'><img src='img/fixation2_sml.jpg'</img></div></div>","null","FIX","","","","","","","","","","",""
"html-keyboard-response","25","87393","0.0-5.0-2.4","Test test test","bdp_wmem","Mon Feb 28 2022 13:52:39 GMT-0500 (Eastern Standard Time)","639449","Match,No Match","","null","","","","","","<div class='trialBorder'><div class='vertical-center'><img style='vertical-align:center; align:center' src='img/fixation2_sml.jpg'></div><div class='arrayDiv1'><div class='tc'><img class='introPic' src='trustrating_stim/white_mw091.bmp'><br><font color='green'><strong>Share</strong></font></div></div></div>","null","ARRAY","1","trustrating_stim/white_mw091.bmp","1","noMatchFace","i","1500","","","","",""
"html-keyboard-response","26","91398","0.0-5.0-3.4","Test test test","bdp_wmem","Mon Feb 28 2022 13:52:39 GMT-0500 (Eastern Standard Time)","639449","Match,No Match","","null","","","","","","<div class='trialBorder'><div class='vertical-center'><img src='img/fixation2_sml.jpg'</img></div></div>","null","DELAY","","","","","","","","","","",""
"html-keyboard-response","27","92419","0.0-5.0-4.4","Test test test","bdp_wmem","Mon Feb 28 2022 13:52:39 GMT-0500 (Eastern Standard Time)","639449","Match,No Match","","1019","","","","","","<div class='trialBorder'><div class='targDiv'><div class='tc'><img class='introPic' src='trustrating_stim/white_00807_941205_fb_edt.bmp'><br><font color='green'><strong>Share</strong></font></div></div><div class='respDiv'><div class='respDivL'>Match<br>(e)</div><div class='respDivR'>No Match<br>(i)</div></div></div>","i","TARGET","1","trustrating_stim/white_mw091.bmp","1","noMatchFace","i","1500","trustrating_stim/white_00807_941205_fb_edt.bmp","green","Share","PRACTICE","1"
"html-keyboard-response","28","92922","0.0-5.0-5.4","Test test test","bdp_wmem","Mon Feb 28 2022 13:52:39 GMT-0500 (Eastern Standard Time)","639449","Match,No Match","","null","","","","","","<div class='trialBorder'><div class='vertical-center'><img src='img/correct.jpg'></div><div class='respDiv'><div class='respDivL'>Match<br>(e)</div><div class='respDivR'><font style='color:orange'>No Match<br>(i)</font></div></div></div>","null","FEEDBACK","","","","","","","","","","",""
"html-keyboard-response","29","93425","0.0-5.0-1.5","Test test test","bdp_wmem","Mon Feb 28 2022 13:52:39 GMT-0500 (Eastern Standard Time)","639449","Match,No Match","","null","","","","","","<div class='trialBorder'><div class='vertical-center'><img src='img/fixation2_sml.jpg'</img></div></div>","null","FIX","","","","","","","","","","",""
"html-keyboard-response","30","97932","0.0-5.0-2.5","Test test test","bdp_wmem","Mon Feb 28 2022 13:52:39 GMT-0500 (Eastern Standard Time)","639449","Match,No Match","","null","","","","","","<div class='trialBorder'><div class='vertical-center'><img style='vertical-align:center; align:center' src='img/fixation2_sml.jpg'></div><div class='arrayDiv3'><div class='tl'><img class='introPic' src='trustrating_stim/white_mw015.bmp'><br><font color='red'><strong>Keep</strong></font></div><div class='tc'><img class='introPic' src='trustrating_stim/white_mw033.bmp'><br><font color='red'><strong>Keep</strong></font></div><div class='tr'><img class='introPic' src='trustrating_stim/white_00050_931230_fa_edt.bmp'><br><font color='green'><strong>Share</strong></font></div></div></div>","null","ARRAY","3","trustrating_stim/white_mw015.bmp,trustrating_stim/white_mw033.bmp,trustrating_stim/white_00050_931230_fa_edt.bmp","0,0,1","noMatchOutcome","i","4500","","","","",""
"html-keyboard-response","31","101938","0.0-5.0-3.5","Test test test","bdp_wmem","Mon Feb 28 2022 13:52:39 GMT-0500 (Eastern Standard Time)","639449","Match,No Match","","null","","","","","","<div class='trialBorder'><div class='vertical-center'><img src='img/fixation2_sml.jpg'</img></div></div>","null","DELAY","","","","","","","","","","",""
"html-keyboard-response","32","103721","0.0-5.0-4.5","Test test test","bdp_wmem","Mon Feb 28 2022 13:52:39 GMT-0500 (Eastern Standard Time)","639449","Match,No Match","","1782","","","","","","<div class='trialBorder'><div class='targDiv'><div class='tc'><img class='introPic' src='trustrating_stim/white_mw033.bmp'><br><font color='green'><strong>Share</strong></font></div></div><div class='respDiv'><div class='respDivL'>Match<br>(e)</div><div class='respDivR'>No Match<br>(i)</div></div></div>","i","TARGET","3","trustrating_stim/white_mw015.bmp,trustrating_stim/white_mw033.bmp,trustrating_stim/white_00050_931230_fa_edt.bmp","0,0,1","noMatchOutcome","i","4500","trustrating_stim/white_mw033.bmp","green","Share","PRACTICE","1"
"html-keyboard-response","33","104224","0.0-5.0-5.5","Test test test","bdp_wmem","Mon Feb 28 2022 13:52:39 GMT-0500 (Eastern Standard Time)","639449","Match,No Match","","null","","","","","","<div class='trialBorder'><div class='vertical-center'><img src='img/correct.jpg'></div><div class='respDiv'><div class='respDivL'>Match<br>(e)</div><div class='respDivR'><font style='color:orange'>No Match<br>(i)</font></div></div></div>","null","FEEDBACK","","","","","","","","","","",""
"instructions","34","105872","0.0-6.0","Test test test","bdp_wmem","Mon Feb 28 2022 13:52:39 GMT-0500 (Eastern Standard Time)","639449","Match,No Match","[{""page_index"":0,""viewing_time"":1648}]","1648","","","","","","","","","","","","","","","","","","",""
"html-keyboard-response","35","106375","0.0-7.0-1.0","Test test test","bdp_wmem","Mon Feb 28 2022 13:52:39 GMT-0500 (Eastern Standard Time)","639449","Match,No Match","","null","","","","","","<div class='trialBorder'><div class='vertical-center'><img src='img/fixation2_sml.jpg'</img></div></div>","null","FIX","","","","","","","","","","",""
"html-keyboard-response","36","109382","0.0-7.0-2.0","Test test test","bdp_wmem","Mon Feb 28 2022 13:52:39 GMT-0500 (Eastern Standard Time)","639449","Match,No Match","","null","","","","","","<div class='trialBorder'><div class='vertical-center'><img style='vertical-align:center; align:center' src='img/fixation2_sml.jpg'></div><div class='arrayDiv2'><div class='tl'><img class='introPic' src='trustrating_stim/white_mw038.bmp'><br><font color='red'><strong>Keep</strong></font></div><div class='tr'><img class='introPic' src='trustrating_stim/white_mw092.bmp'><br><font color='green'><strong>Share</strong></font></div></div></div>","null","ARRAY","2","trustrating_stim/white_mw038.bmp,trustrating_stim/white_mw092.bmp","0,1","Match","e","3000","","","","",""
"html-keyboard-response","37","113386","0.0-7.0-3.0","Test test test","bdp_wmem","Mon Feb 28 2022 13:52:39 GMT-0500 (Eastern Standard Time)","639449","Match,No Match","","null","","","","","","<div class='trialBorder'><div class='vertical-center'><img src='img/fixation2_sml.jpg'</img></div></div>","null","DELAY","","","","","","","","","","",""
"html-keyboard-response","38","114897","0.0-7.0-4.0","Test test test","bdp_wmem","Mon Feb 28 2022 13:52:39 GMT-0500 (Eastern Standard Time)","639449","Match,No Match","","1509","","","","","","<div class='trialBorder'><div class='targDiv'><div class='tc'><img class='introPic' src='trustrating_stim/white_mw038.bmp'><br><font color='red'><strong>Keep</strong></font></div></div><div class='respDiv'><div class='respDivL'>Match<br>(e)</div><div class='respDivR'>No Match<br>(i)</div></div></div>","e","TARGET","2","trustrating_stim/white_mw038.bmp,trustrating_stim/white_mw092.bmp","0,1","Match","e","3000","trustrating_stim/white_mw038.bmp","red","Keep","REAL","1"
"html-keyboard-response","39","115400","0.0-7.0-5.0","Test test test","bdp_wmem","Mon Feb 28 2022 13:52:39 GMT-0500 (Eastern Standard Time)","639449","Match,No Match","","null","","","","","","<div class='trialBorder'><div class='vertical-center'><img src='img/correct.jpg'></div><div class='respDiv'><div class='respDivL'><font style='color:orange'>Match<br>(e)</font></div><div class='respDivR'>No Match<br>(i)</div></div></div>","null","FEEDBACK","","","","","","","","","","",""
"html-keyboard-response","40","115906","0.0-7.0-1.1","Test test test","bdp_wmem","Mon Feb 28 2022 13:52:39 GMT-0500 (Eastern Standard Time)","639449","Match,No Match","","null","","","","","","<div class='trialBorder'><div class='vertical-center'><img src='img/fixation2_sml.jpg'</img></div></div>","null","FIX","","","","","","","","","","",""
"html-keyboard-response","41","118912","0.0-7.0-2.1","Test test test","bdp_wmem","Mon Feb 28 2022 13:52:39 GMT-0500 (Eastern Standard Time)","639449","Match,No Match","","null","","","","","","<div class='trialBorder'><div class='vertical-center'><img style='vertical-align:center; align:center' src='img/fixation2_sml.jpg'></div><div class='arrayDiv2'><div class='tl'><img class='introPic' src='trustrating_stim/white_mw013.bmp'><br><font color='red'><strong>Keep</strong></font></div><div class='tr'><img class='introPic' src='trustrating_stim/white_mw040.bmp'><br><font color='green'><strong>Share</strong></font></div></div></div>","null","ARRAY","2","trustrating_stim/white_mw013.bmp,trustrating_stim/white_mw040.bmp","0,1","noMatchOutcome","i","3000","","","","",""
"html-keyboard-response","42","122917","0.0-7.0-3.1","Test test test","bdp_wmem","Mon Feb 28 2022 13:52:39 GMT-0500 (Eastern Standard Time)","639449","Match,No Match","","null","","","","","","<div class='trialBorder'><div class='vertical-center'><img src='img/fixation2_sml.jpg'</img></div></div>","null","DELAY","","","","","","","","","","",""
"html-keyboard-response","43","124596","0.0-7.0-4.1","Test test test","bdp_wmem","Mon Feb 28 2022 13:52:39 GMT-0500 (Eastern Standard Time)","639449","Match,No Match","","1677","","","","","","<div class='trialBorder'><div class='targDiv'><div class='tc'><img class='introPic' src='trustrating_stim/white_mw040.bmp'><br><font color='red'><strong>Keep</strong></font></div></div><div class='respDiv'><div class='respDivL'>Match<br>(e)</div><div class='respDivR'>No Match<br>(i)</div></div></div>","e","TARGET","2","trustrating_stim/white_mw013.bmp,trustrating_stim/white_mw040.bmp","0,1","noMatchOutcome","i","3000","trustrating_stim/white_mw040.bmp","red","Keep","REAL","0"
"html-keyboard-response","44","125099","0.0-7.0-5.1","Test test test","bdp_wmem","Mon Feb 28 2022 13:52:39 GMT-0500 (Eastern Standard Time)","639449","Match,No Match","","null","","","","","","<div class='trialBorder'><div class='vertical-center'><img src='img/error.jpg'></div><div class='respDiv'><div class='respDivL'><font style='color:orange'>Match<br>(e)</font></div><div class='respDivR'>No Match<br>(i)</div></div></div>","null","FEEDBACK","","","","","","","","","","",""
"html-keyboard-response","45","125606","0.0-7.0-1.2","Test test test","bdp_wmem","Mon Feb 28 2022 13:52:39 GMT-0500 (Eastern Standard Time)","639449","Match,No Match","","null","","","","","","<div class='trialBorder'><div class='vertical-center'><img src='img/fixation2_sml.jpg'</img></div></div>","null","FIX","","","","","","","","","","",""
"html-keyboard-response","46","128611","0.0-7.0-2.2","Test test test","bdp_wmem","Mon Feb 28 2022 13:52:39 GMT-0500 (Eastern Standard Time)","639449","Match,No Match","","null","","","","","","<div class='trialBorder'><div class='vertical-center'><img style='vertical-align:center; align:center' src='img/fixation2_sml.jpg'></div><div class='arrayDiv2'><div class='tl'><img class='introPic' src='trustrating_stim/white_mw038.bmp'><br><font color='green'><strong>Share</strong></font></div><div class='tr'><img class='introPic' src='trustrating_stim/white_mw070.bmp'><br><font color='red'><strong>Keep</strong></font></div></div></div>","null","ARRAY","2","trustrating_stim/white_mw038.bmp,trustrating_stim/white_mw070.bmp","1,0","Match","e","3000","","","","",""
"html-keyboard-response","47","132617","0.0-7.0-3.2","Test test test","bdp_wmem","Mon Feb 28 2022 13:52:39 GMT-0500 (Eastern Standard Time)","639449","Match,No Match","","null","","","","","","<div class='trialBorder'><div class='vertical-center'><img src='img/fixation2_sml.jpg'</img></div></div>","null","DELAY","","","","","","","","","","",""
"html-keyboard-response","48","135227","0.0-7.0-4.2","Test test test","bdp_wmem","Mon Feb 28 2022 13:52:39 GMT-0500 (Eastern Standard Time)","639449","Match,No Match","","2608","","","","","","<div class='trialBorder'><div class='targDiv'><div class='tc'><img class='introPic' src='trustrating_stim/white_mw070.bmp'><br><font color='red'><strong>Keep</strong></font></div></div><div class='respDiv'><div class='respDivL'>Match<br>(e)</div><div class='respDivR'>No Match<br>(i)</div></div></div>","e","TARGET","2","trustrating_stim/white_mw038.bmp,trustrating_stim/white_mw070.bmp","1,0","Match","e","3000","trustrating_stim/white_mw070.bmp","red","Keep","REAL","1"
"html-keyboard-response","49","135731","0.0-7.0-5.2","Test test test","bdp_wmem","Mon Feb 28 2022 13:52:39 GMT-0500 (Eastern Standard Time)","639449","Match,No Match","","null","","","","","","<div class='trialBorder'><div class='vertical-center'><img src='img/correct.jpg'></div><div class='respDiv'><div class='respDivL'><font style='color:orange'>Match<br>(e)</font></div><div class='respDivR'>No Match<br>(i)</div></div></div>","null","FEEDBACK","","","","","","","","","","",""
"html-keyboard-response","50","136235","0.0-7.0-1.3","Test test test","bdp_wmem","Mon Feb 28 2022 13:52:39 GMT-0500 (Eastern Standard Time)","639449","Match,No Match","","null","","","","","","<div class='trialBorder'><div class='vertical-center'><img src='img/fixation2_sml.jpg'</img></div></div>","null","FIX","","","","","","","","","","",""
"html-keyboard-response","51","139242","0.0-7.0-2.3","Test test test","bdp_wmem","Mon Feb 28 2022 13:52:39 GMT-0500 (Eastern Standard Time)","639449","Match,No Match","","null","","","","","","<div class='trialBorder'><div class='vertical-center'><img style='vertical-align:center; align:center' src='img/fixation2_sml.jpg'></div><div class='arrayDiv2'><div class='tl'><img class='introPic' src='trustrating_stim/white_mw092.bmp'><br><font color='red'><strong>Keep</strong></font></div><div class='tr'><img class='introPic' src='trustrating_stim/white_mw091.bmp'><br><font color='green'><strong>Share</strong></font></div></div></div>","null","ARRAY","2","trustrating_stim/white_mw092.bmp,trustrating_stim/white_mw091.bmp","0,1","noMatchOutcome","i","3000","","","","",""
"html-keyboard-response","52","143246","0.0-7.0-3.3","Test test test","bdp_wmem","Mon Feb 28 2022 13:52:39 GMT-0500 (Eastern Standard Time)","639449","Match,No Match","","null","","","","","","<div class='trialBorder'><div class='vertical-center'><img src='img/fixation2_sml.jpg'</img></div></div>","null","DELAY","","","","","","","","","","",""
"html-keyboard-response","53","144604","0.0-7.0-4.3","Test test test","bdp_wmem","Mon Feb 28 2022 13:52:39 GMT-0500 (Eastern Standard Time)","639449","Match,No Match","","1356","","","","","","<div class='trialBorder'><div class='targDiv'><div class='tc'><img class='introPic' src='trustrating_stim/white_mw092.bmp'><br><font color='green'><strong>Share</strong></font></div></div><div class='respDiv'><div class='respDivL'>Match<br>(e)</div><div class='respDivR'>No Match<br>(i)</div></div></div>","i","TARGET","2","trustrating_stim/white_mw092.bmp,trustrating_stim/white_mw091.bmp","0,1","noMatchOutcome","i","3000","trustrating_stim/white_mw092.bmp","green","Share","REAL","1"
"html-keyboard-response","54","145107","0.0-7.0-5.3","Test test test","bdp_wmem","Mon Feb 28 2022 13:52:39 GMT-0500 (Eastern Standard Time)","639449","Match,No Match","","null","","","","","","<div class='trialBorder'><div class='vertical-center'><img src='img/correct.jpg'></div><div class='respDiv'><div class='respDivL'>Match<br>(e)</div><div class='respDivR'><font style='color:orange'>No Match<br>(i)</font></div></div></div>","null","FEEDBACK","","","","","","","","","","",""
"html-keyboard-response","55","145613","0.0-7.0-1.4","Test test test","bdp_wmem","Mon Feb 28 2022 13:52:39 GMT-0500 (Eastern Standard Time)","639449","Match,No Match","","null","","","","","","<div class='trialBorder'><div class='vertical-center'><img src='img/fixation2_sml.jpg'</img></div></div>","null","FIX","","","","","","","","","","",""
"html-keyboard-response","56","150118","0.0-7.0-2.4","Test test test","bdp_wmem","Mon Feb 28 2022 13:52:39 GMT-0500 (Eastern Standard Time)","639449","Match,No Match","","null","","","","","","<div class='trialBorder'><div class='vertical-center'><img style='vertical-align:center; align:center' src='img/fixation2_sml.jpg'></div><div class='arrayDiv3'><div class='tl'><img class='introPic' src='trustrating_stim/white_mw003.bmp'><br><font color='green'><strong>Share</strong></font></div><div class='tc'><img class='introPic' src='trustrating_stim/white_mw015.bmp'><br><font color='red'><strong>Keep</strong></font></div><div class='tr'><img class='introPic' src='trustrating_stim/white_mw013.bmp'><br><font color='red'><strong>Keep</strong></font></div></div></div>","null","ARRAY","3","trustrating_stim/white_mw003.bmp,trustrating_stim/white_mw015.bmp,trustrating_stim/white_mw013.bmp","1,0,0","noMatchFace","i","4500","","","","",""
"html-keyboard-response","57","154123","0.0-7.0-3.4","Test test test","bdp_wmem","Mon Feb 28 2022 13:52:39 GMT-0500 (Eastern Standard Time)","639449","Match,No Match","","null","","","","","","<div class='trialBorder'><div class='vertical-center'><img src='img/fixation2_sml.jpg'</img></div></div>","null","DELAY","","","","","","","","","","",""
"html-keyboard-response","58","154896","0.0-7.0-4.4","Test test test","bdp_wmem","Mon Feb 28 2022 13:52:39 GMT-0500 (Eastern Standard Time)","639449","Match,No Match","","770","","","","","","<div class='trialBorder'><div class='targDiv'><div class='tc'><img class='introPic' src='trustrating_stim/white_mw070.bmp'><br><font color='red'><strong>Keep</strong></font></div></div><div class='respDiv'><div class='respDivL'>Match<br>(e)</div><div class='respDivR'>No Match<br>(i)</div></div></div>","e","TARGET","3","trustrating_stim/white_mw003.bmp,trustrating_stim/white_mw015.bmp,trustrating_stim/white_mw013.bmp","1,0,0","noMatchFace","i","4500","trustrating_stim/white_mw070.bmp","red","Keep","REAL","0"
"html-keyboard-response","59","155399","0.0-7.0-5.4","Test test test","bdp_wmem","Mon Feb 28 2022 13:52:39 GMT-0500 (Eastern Standard Time)","639449","Match,No Match","","null","","","","","","<div class='trialBorder'><div class='vertical-center'><img src='img/error.jpg'></div><div class='respDiv'><div class='respDivL'><font style='color:orange'>Match<br>(e)</font></div><div class='respDivR'>No Match<br>(i)</div></div></div>","null","FEEDBACK","","","","","","","","","","",""
"html-keyboard-response","60","155905","0.0-7.0-1.5","Test test test","bdp_wmem","Mon Feb 28 2022 13:52:39 GMT-0500 (Eastern Standard Time)","639449","Match,No Match","","null","","","","","","<div class='trialBorder'><div class='vertical-center'><img src='img/fixation2_sml.jpg'</img></div></div>","null","FIX","","","","","","","","","","",""
"html-keyboard-response","61","158911","0.0-7.0-2.5","Test test test","bdp_wmem","Mon Feb 28 2022 13:52:39 GMT-0500 (Eastern Standard Time)","639449","Match,No Match","","null","","","","","","<div class='trialBorder'><div class='vertical-center'><img style='vertical-align:center; align:center' src='img/fixation2_sml.jpg'></div><div class='arrayDiv2'><div class='tl'><img class='introPic' src='trustrating_stim/white_mw033.bmp'><br><font color='green'><strong>Share</strong></font></div><div class='tr'><img class='introPic' src='trustrating_stim/white_mw015.bmp'><br><font color='red'><strong>Keep</strong></font></div></div></div>","null","ARRAY","2","trustrating_stim/white_mw033.bmp,trustrating_stim/white_mw015.bmp","1,0","Match","e","3000","","","","",""
"html-keyboard-response","62","162914","0.0-7.0-3.5","Test test test","bdp_wmem","Mon Feb 28 2022 13:52:39 GMT-0500 (Eastern Standard Time)","639449","Match,No Match","","null","","","","","","<div class='trialBorder'><div class='vertical-center'><img src='img/fixation2_sml.jpg'</img></div></div>","null","DELAY","","","","","","","","","","",""
"html-keyboard-response","63","163256","0.0-7.0-4.5","Test test test","bdp_wmem","Mon Feb 28 2022 13:52:39 GMT-0500 (Eastern Standard Time)","639449","Match,No Match","","339","","","","","","<div class='trialBorder'><div class='targDiv'><div class='tc'><img class='introPic' src='trustrating_stim/white_mw033.bmp'><br><font color='green'><strong>Share</strong></font></div></div><div class='respDiv'><div class='respDivL'>Match<br>(e)</div><div class='respDivR'>No Match<br>(i)</div></div></div>","i","TARGET","2","trustrating_stim/white_mw033.bmp,trustrating_stim/white_mw015.bmp","1,0","Match","e","3000","trustrating_stim/white_mw033.bmp","green","Share","REAL","0"
"html-keyboard-response","64","163757","0.0-7.0-5.5","Test test test","bdp_wmem","Mon Feb 28 2022 13:52:39 GMT-0500 (Eastern Standard Time)","639449","Match,No Match","","null","","","","","","<div class='trialBorder'><div class='vertical-center'><img src='img/error.jpg'></div><div class='respDiv'><div class='respDivL'>Match<br>(e)</div><div class='respDivR'><font style='color:orange'>No Match<br>(i)</font></div></div></div>","null","FEEDBACK","","","","","","","","","","",""
"html-keyboard-response","65","164262","0.0-7.0-1.6","Test test test","bdp_wmem","Mon Feb 28 2022 13:52:39 GMT-0500 (Eastern Standard Time)","639449","Match,No Match","","null","","","","","","<div class='trialBorder'><div class='vertical-center'><img src='img/fixation2_sml.jpg'</img></div></div>","null","FIX","","","","","","","","","","",""
"html-keyboard-response","66","165768","0.0-7.0-2.6","Test test test","bdp_wmem","Mon Feb 28 2022 13:52:39 GMT-0500 (Eastern Standard Time)","639449","Match,No Match","","null","","","","","","<div class='trialBorder'><div class='vertical-center'><img style='vertical-align:center; align:center' src='img/fixation2_sml.jpg'></div><div class='arrayDiv1'><div class='tc'><img class='introPic' src='trustrating_stim/white_mw012.bmp'><br><font color='green'><strong>Share</strong></font></div></div></div>","null","ARRAY","1","trustrating_stim/white_mw012.bmp","1","noMatchFace","i","1500","","","","",""
"html-keyboard-response","67","169774","0.0-7.0-3.6","Test test test","bdp_wmem","Mon Feb 28 2022 13:52:39 GMT-0500 (Eastern Standard Time)","639449","Match,No Match","","null","","","","","","<div class='trialBorder'><div class='vertical-center'><img src='img/fixation2_sml.jpg'</img></div></div>","null","DELAY","","","","","","","","","","",""
"html-keyboard-response","68","170214","0.0-7.0-4.6","Test test test","bdp_wmem","Mon Feb 28 2022 13:52:39 GMT-0500 (Eastern Standard Time)","639449","Match,No Match","","438","","","","","","<div class='trialBorder'><div class='targDiv'><div class='tc'><img class='introPic' src='trustrating_stim/white_00807_941205_fb_edt.bmp'><br><font color='green'><strong>Share</strong></font></div></div><div class='respDiv'><div class='respDivL'>Match<br>(e)</div><div class='respDivR'>No Match<br>(i)</div></div></div>","i","TARGET","1","trustrating_stim/white_mw012.bmp","1","noMatchFace","i","1500","trustrating_stim/white_00807_941205_fb_edt.bmp","green","Share","REAL","1"
"html-keyboard-response","69","170716","0.0-7.0-5.6","Test test test","bdp_wmem","Mon Feb 28 2022 13:52:39 GMT-0500 (Eastern Standard Time)","639449","Match,No Match","","null","","","","","","<div class='trialBorder'><div class='vertical-center'><img src='img/correct.jpg'></div><div class='respDiv'><div class='respDivL'>Match<br>(e)</div><div class='respDivR'><font style='color:orange'>No Match<br>(i)</font></div></div></div>","null","FEEDBACK","","","","","","","","","","",""
"html-keyboard-response","70","171219","0.0-7.0-1.7","Test test test","bdp_wmem","Mon Feb 28 2022 13:52:39 GMT-0500 (Eastern Standard Time)","639449","Match,No Match","","null","","","","","","<div class='trialBorder'><div class='vertical-center'><img src='img/fixation2_sml.jpg'</img></div></div>","null","FIX","","","","","","","","","","",""
"html-keyboard-response","71","174226","0.0-7.0-2.7","Test test test","bdp_wmem","Mon Feb 28 2022 13:52:39 GMT-0500 (Eastern Standard Time)","639449","Match,No Match","","null","","","","","","<div class='trialBorder'><div class='vertical-center'><img style='vertical-align:center; align:center' src='img/fixation2_sml.jpg'></div><div class='arrayDiv2'><div class='tl'><img class='introPic' src='trustrating_stim/white_00807_941205_fb_edt.bmp'><br><font color='green'><strong>Share</strong></font></div><div class='tr'><img class='introPic' src='trustrating_stim/white_mw012.bmp'><br><font color='red'><strong>Keep</strong></font></div></div></div>","null","ARRAY","2","trustrating_stim/white_00807_941205_fb_edt.bmp,trustrating_stim/white_mw012.bmp","1,0","Match","e","3000","","","","",""
"html-keyboard-response","72","178231","0.0-7.0-3.7","Test test test","bdp_wmem","Mon Feb 28 2022 13:52:39 GMT-0500 (Eastern Standard Time)","639449","Match,No Match","","null","","","","","","<div class='trialBorder'><div class='vertical-center'><img src='img/fixation2_sml.jpg'</img></div></div>","null","DELAY","","","","","","","","","","",""
"html-keyboard-response","73","178696","0.0-7.0-4.7","Test test test","bdp_wmem","Mon Feb 28 2022 13:52:39 GMT-0500 (Eastern Standard Time)","639449","Match,No Match","","463","","","","","","<div class='trialBorder'><div class='targDiv'><div class='tc'><img class='introPic' src='trustrating_stim/white_mw012.bmp'><br><font color='red'><strong>Keep</strong></font></div></div><div class='respDiv'><div class='respDivL'>Match<br>(e)</div><div class='respDivR'>No Match<br>(i)</div></div></div>","i","TARGET","2","trustrating_stim/white_00807_941205_fb_edt.bmp,trustrating_stim/white_mw012.bmp","1,0","Match","e","3000","trustrating_stim/white_mw012.bmp","red","Keep","REAL","0"
"html-keyboard-response","74","179200","0.0-7.0-5.7","Test test test","bdp_wmem","Mon Feb 28 2022 13:52:39 GMT-0500 (Eastern Standard Time)","639449","Match,No Match","","null","","","","","","<div class='trialBorder'><div class='vertical-center'><img src='img/error.jpg'></div><div class='respDiv'><div class='respDivL'>Match<br>(e)</div><div class='respDivR'><font style='color:orange'>No Match<br>(i)</font></div></div></div>","null","FEEDBACK","","","","","","","","","","",""
"html-keyboard-response","75","179704","0.0-7.0-1.8","Test test test","bdp_wmem","Mon Feb 28 2022 13:52:39 GMT-0500 (Eastern Standard Time)","639449","Match,No Match","","null","","","","","","<div class='trialBorder'><div class='vertical-center'><img src='img/fixation2_sml.jpg'</img></div></div>","null","FIX","","","","","","","","","","",""
"html-keyboard-response","76","181210","0.0-7.0-2.8","Test test test","bdp_wmem","Mon Feb 28 2022 13:52:39 GMT-0500 (Eastern Standard Time)","639449","Match,No Match","","null","","","","","","<div class='trialBorder'><div class='vertical-center'><img style='vertical-align:center; align:center' src='img/fixation2_sml.jpg'></div><div class='arrayDiv1'><div class='tc'><img class='introPic' src='trustrating_stim/white_mw013.bmp'><br><font color='red'><strong>Keep</strong></font></div></div></div>","null","ARRAY","1","trustrating_stim/white_mw013.bmp","0","Match","e","1500","","","","",""
"html-keyboard-response","77","185215","0.0-7.0-3.8","Test test test","bdp_wmem","Mon Feb 28 2022 13:52:39 GMT-0500 (Eastern Standard Time)","639449","Match,No Match","","null","","","","","","<div class='trialBorder'><div class='vertical-center'><img src='img/fixation2_sml.jpg'</img></div></div>","null","DELAY","","","","","","","","","","",""
"html-keyboard-response","78","186785","0.0-7.0-4.8","Test test test","bdp_wmem","Mon Feb 28 2022 13:52:39 GMT-0500 (Eastern Standard Time)","639449","Match,No Match","","1569","","","","","","<div class='trialBorder'><div class='targDiv'><div class='tc'><img class='introPic' src='trustrating_stim/white_mw013.bmp'><br><font color='red'><strong>Keep</strong></font></div></div><div class='respDiv'><div class='respDivL'>Match<br>(e)</div><div class='respDivR'>No Match<br>(i)</div></div></div>","i","TARGET","1","trustrating_stim/white_mw013.bmp","0","Match","e","1500","trustrating_stim/white_mw013.bmp","red","Keep","REAL","0"
"html-keyboard-response","79","187290","0.0-7.0-5.8","Test test test","bdp_wmem","Mon Feb 28 2022 13:52:39 GMT-0500 (Eastern Standard Time)","639449","Match,No Match","","null","","","","","","<div class='trialBorder'><div class='vertical-center'><img src='img/error.jpg'></div><div class='respDiv'><div class='respDivL'>Match<br>(e)</div><div class='respDivR'><font style='color:orange'>No Match<br>(i)</font></div></div></div>","null","FEEDBACK","","","","","","","","","","",""
"html-keyboard-response","80","187794","0.0-7.0-1.9","Test test test","bdp_wmem","Mon Feb 28 2022 13:52:39 GMT-0500 (Eastern Standard Time)","639449","Match,No Match","","null","","","","","","<div class='trialBorder'><div class='vertical-center'><img src='img/fixation2_sml.jpg'</img></div></div>","null","FIX","","","","","","","","","","",""
"html-keyboard-response","81","192301","0.0-7.0-2.9","Test test test","bdp_wmem","Mon Feb 28 2022 13:52:39 GMT-0500 (Eastern Standard Time)","639449","Match,No Match","","null","","","","","","<div class='trialBorder'><div class='vertical-center'><img style='vertical-align:center; align:center' src='img/fixation2_sml.jpg'></div><div class='arrayDiv3'><div class='tl'><img class='introPic' src='trustrating_stim/white_00050_931230_fa_edt.bmp'><br><font color='red'><strong>Keep</strong></font></div><div class='tc'><img class='introPic' src='trustrating_stim/white_mw070.bmp'><br><font color='green'><strong>Share</strong></font></div><div class='tr'><img class='introPic' src='trustrating_stim/white_mw013.bmp'><br><font color='red'><strong>Keep</strong></font></div></div></div>","null","ARRAY","3","trustrating_stim/white_00050_931230_fa_edt.bmp,trustrating_stim/white_mw070.bmp,trustrating_stim/white_mw013.bmp","0,1,0","Match","e","4500","","","","",""
"html-keyboard-response","82","196306","0.0-7.0-3.9","Test test test","bdp_wmem","Mon Feb 28 2022 13:52:39 GMT-0500 (Eastern Standard Time)","639449","Match,No Match","","null","","","","","","<div class='trialBorder'><div class='vertical-center'><img src='img/fixation2_sml.jpg'</img></div></div>","null","DELAY","","","","","","","","","","",""
"html-keyboard-response","83","196620","0.0-7.0-4.9","Test test test","bdp_wmem","Mon Feb 28 2022 13:52:39 GMT-0500 (Eastern Standard Time)","639449","Match,No Match","","312","","","","","","<div class='trialBorder'><div class='targDiv'><div class='tc'><img class='introPic' src='trustrating_stim/white_mw013.bmp'><br><font color='red'><strong>Keep</strong></font></div></div><div class='respDiv'><div class='respDivL'>Match<br>(e)</div><div class='respDivR'>No Match<br>(i)</div></div></div>","i","TARGET","3","trustrating_stim/white_00050_931230_fa_edt.bmp,trustrating_stim/white_mw070.bmp,trustrating_stim/white_mw013.bmp","0,1,0","Match","e","4500","trustrating_stim/white_mw013.bmp","red","Keep","REAL","0"
"html-keyboard-response","84","197124","0.0-7.0-5.9","Test test test","bdp_wmem","Mon Feb 28 2022 13:52:39 GMT-0500 (Eastern Standard Time)","639449","Match,No Match","","null","","","","","","<div class='trialBorder'><div class='vertical-center'><img src='img/error.jpg'></div><div class='respDiv'><div class='respDivL'>Match<br>(e)</div><div class='respDivR'><font style='color:orange'>No Match<br>(i)</font></div></div></div>","null","FEEDBACK","","","","","","","","","","",""
"html-keyboard-response","85","197629","0.0-7.0-1.10","Test test test","bdp_wmem","Mon Feb 28 2022 13:52:39 GMT-0500 (Eastern Standard Time)","639449","Match,No Match","","null","","","","","","<div class='trialBorder'><div class='vertical-center'><img src='img/fixation2_sml.jpg'</img></div></div>","null","FIX","","","","","","","","","","",""
"html-keyboard-response","86","202136","0.0-7.0-2.10","Test test test","bdp_wmem","Mon Feb 28 2022 13:52:39 GMT-0500 (Eastern Standard Time)","639449","Match,No Match","","null","","","","","","<div class='trialBorder'><div class='vertical-center'><img style='vertical-align:center; align:center' src='img/fixation2_sml.jpg'></div><div class='arrayDiv3'><div class='tl'><img class='introPic' src='trustrating_stim/white_mw033.bmp'><br><font color='green'><strong>Share</strong></font></div><div class='tc'><img class='introPic' src='trustrating_stim/white_mw038.bmp'><br><font color='red'><strong>Keep</strong></font></div><div class='tr'><img class='introPic' src='trustrating_stim/white_mw015.bmp'><br><font color='green'><strong>Share</strong></font></div></div></div>","null","ARRAY","3","trustrating_stim/white_mw033.bmp,trustrating_stim/white_mw038.bmp,trustrating_stim/white_mw015.bmp","1,0,1","noMatchOutcome","i","4500","","","","",""
"html-keyboard-response","87","206141","0.0-7.0-3.10","Test test test","bdp_wmem","Mon Feb 28 2022 13:52:39 GMT-0500 (Eastern Standard Time)","639449","Match,No Match","","null","","","","","","<div class='trialBorder'><div class='vertical-center'><img src='img/fixation2_sml.jpg'</img></div></div>","null","DELAY","","","","","","","","","","",""
"html-keyboard-response","88","206419","0.0-7.0-4.10","Test test test","bdp_wmem","Mon Feb 28 2022 13:52:39 GMT-0500 (Eastern Standard Time)","639449","Match,No Match","","276","","","","","","<div class='trialBorder'><div class='targDiv'><div class='tc'><img class='introPic' src='trustrating_stim/white_mw038.bmp'><br><font color='green'><strong>Share</strong></font></div></div><div class='respDiv'><div class='respDivL'>Match<br>(e)</div><div class='respDivR'>No Match<br>(i)</div></div></div>","i","TARGET","3","trustrating_stim/white_mw033.bmp,trustrating_stim/white_mw038.bmp,trustrating_stim/white_mw015.bmp","1,0,1","noMatchOutcome","i","4500","trustrating_stim/white_mw038.bmp","green","Share","REAL","1"
"html-keyboard-response","89","206923","0.0-7.0-5.10","Test test test","bdp_wmem","Mon Feb 28 2022 13:52:39 GMT-0500 (Eastern Standard Time)","639449","Match,No Match","","null","","","","","","<div class='trialBorder'><div class='vertical-center'><img src='img/correct.jpg'></div><div class='respDiv'><div class='respDivL'>Match<br>(e)</div><div class='respDivR'><font style='color:orange'>No Match<br>(i)</font></div></div></div>","null","FEEDBACK","","","","","","","","","","",""
"html-keyboard-response","90","207427","0.0-7.0-1.11","Test test test","bdp_wmem","Mon Feb 28 2022 13:52:39 GMT-0500 (Eastern Standard Time)","639449","Match,No Match","","null","","","","","","<div class='trialBorder'><div class='vertical-center'><img src='img/fixation2_sml.jpg'</img></div></div>","null","FIX","","","","","","","","","","",""
"html-keyboard-response","91","210433","0.0-7.0-2.11","Test test test","bdp_wmem","Mon Feb 28 2022 13:52:39 GMT-0500 (Eastern Standard Time)","639449","Match,No Match","","null","","","","","","<div class='trialBorder'><div class='vertical-center'><img style='vertical-align:center; align:center' src='img/fixation2_sml.jpg'></div><div class='arrayDiv2'><div class='tl'><img class='introPic' src='trustrating_stim/white_mw012.bmp'><br><font color='green'><strong>Share</strong></font></div><div class='tr'><img class='introPic' src='trustrating_stim/white_mw040.bmp'><br><font color='red'><strong>Keep</strong></font></div></div></div>","null","ARRAY","2","trustrating_stim/white_mw012.bmp,trustrating_stim/white_mw040.bmp","1,0","Match","e","3000","","","","",""
"html-keyboard-response","92","214436","0.0-7.0-3.11","Test test test","bdp_wmem","Mon Feb 28 2022 13:52:39 GMT-0500 (Eastern Standard Time)","639449","Match,No Match","","null","","","","","","<div class='trialBorder'><div class='vertical-center'><img src='img/fixation2_sml.jpg'</img></div></div>","null","DELAY","","","","","","","","","","",""
"html-keyboard-response","93","214918","0.0-7.0-4.11","Test test test","bdp_wmem","Mon Feb 28 2022 13:52:39 GMT-0500 (Eastern Standard Time)","639449","Match,No Match","","481","","","","","","<div class='trialBorder'><div class='targDiv'><div class='tc'><img class='introPic' src='trustrating_stim/white_mw012.bmp'><br><font color='green'><strong>Share</strong></font></div></div><div class='respDiv'><div class='respDivL'>Match<br>(e)</div><div class='respDivR'>No Match<br>(i)</div></div></div>","i","TARGET","2","trustrating_stim/white_mw012.bmp,trustrating_stim/white_mw040.bmp","1,0","Match","e","3000","trustrating_stim/white_mw012.bmp","green","Share","REAL","0"
"html-keyboard-response","94","215421","0.0-7.0-5.11","Test test test","bdp_wmem","Mon Feb 28 2022 13:52:39 GMT-0500 (Eastern Standard Time)","639449","Match,No Match","","null","","","","","","<div class='trialBorder'><div class='vertical-center'><img src='img/error.jpg'></div><div class='respDiv'><div class='respDivL'>Match<br>(e)</div><div class='respDivR'><font style='color:orange'>No Match<br>(i)</font></div></div></div>","null","FEEDBACK","","","","","","","","","","",""
"html-keyboard-response","95","215926","0.0-7.0-1.12","Test test test","bdp_wmem","Mon Feb 28 2022 13:52:39 GMT-0500 (Eastern Standard Time)","639449","Match,No Match","","null","","","","","","<div class='trialBorder'><div class='vertical-center'><img src='img/fixation2_sml.jpg'</img></div></div>","null","FIX","","","","","","","","","","",""
"html-keyboard-response","96","220432","0.0-7.0-2.12","Test test test","bdp_wmem","Mon Feb 28 2022 13:52:39 GMT-0500 (Eastern Standard Time)","639449","Match,No Match","","null","","","","","","<div class='trialBorder'><div class='vertical-center'><img style='vertical-align:center; align:center' src='img/fixation2_sml.jpg'></div><div class='arrayDiv3'><div class='tl'><img class='introPic' src='trustrating_stim/white_mw033.bmp'><br><font color='green'><strong>Share</strong></font></div><div class='tc'><img class='introPic' src='trustrating_stim/white_mw012.bmp'><br><font color='red'><strong>Keep</strong></font></div><div class='tr'><img class='introPic' src='trustrating_stim/white_mw015.bmp'><br><font color='green'><strong>Share</strong></font></div></div></div>","null","ARRAY","3","trustrating_stim/white_mw033.bmp,trustrating_stim/white_mw012.bmp,trustrating_stim/white_mw015.bmp","1,0,1","Match","e","4500","","","","",""
"html-keyboard-response","97","224437","0.0-7.0-3.12","Test test test","bdp_wmem","Mon Feb 28 2022 13:52:39 GMT-0500 (Eastern Standard Time)","639449","Match,No Match","","null","","","","","","<div class='trialBorder'><div class='vertical-center'><img src='img/fixation2_sml.jpg'</img></div></div>","null","DELAY","","","","","","","","","","",""
"html-keyboard-response","98","224896","0.0-7.0-4.12","Test test test","bdp_wmem","Mon Feb 28 2022 13:52:39 GMT-0500 (Eastern Standard Time)","639449","Match,No Match","","457","","","","","","<div class='trialBorder'><div class='targDiv'><div class='tc'><img class='introPic' src='trustrating_stim/white_mw033.bmp'><br><font color='green'><strong>Share</strong></font></div></div><div class='respDiv'><div class='respDivL'>Match<br>(e)</div><div class='respDivR'>No Match<br>(i)</div></div></div>","i","TARGET","3","trustrating_stim/white_mw033.bmp,trustrating_stim/white_mw012.bmp,trustrating_stim/white_mw015.bmp","1,0,1","Match","e","4500","trustrating_stim/white_mw033.bmp","green","Share","REAL","0"
"html-keyboard-response","99","225401","0.0-7.0-5.12","Test test test","bdp_wmem","Mon Feb 28 2022 13:52:39 GMT-0500 (Eastern Standard Time)","639449","Match,No Match","","null","","","","","","<div class='trialBorder'><div class='vertical-center'><img src='img/error.jpg'></div><div class='respDiv'><div class='respDivL'>Match<br>(e)</div><div class='respDivR'><font style='color:orange'>No Match<br>(i)</font></div></div></div>","null","FEEDBACK","","","","","","","","","","",""
"html-keyboard-response","100","225907","0.0-7.0-1.13","Test test test","bdp_wmem","Mon Feb 28 2022 13:52:39 GMT-0500 (Eastern Standard Time)","639449","Match,No Match","","null","","","","","","<div class='trialBorder'><div class='vertical-center'><img src='img/fixation2_sml.jpg'</img></div></div>","null","FIX","","","","","","","","","","",""
"html-keyboard-response","101","230414","0.0-7.0-2.13","Test test test","bdp_wmem","Mon Feb 28 2022 13:52:39 GMT-0500 (Eastern Standard Time)","639449","Match,No Match","","null","","","","","","<div class='trialBorder'><div class='vertical-center'><img style='vertical-align:center; align:center' src='img/fixation2_sml.jpg'></div><div class='arrayDiv3'><div class='tl'><img class='introPic' src='trustrating_stim/white_00807_941205_fb_edt.bmp'><br><font color='green'><strong>Share</strong></font></div><div class='tc'><img class='introPic' src='trustrating_stim/white_mw091.bmp'><br><font color='red'><strong>Keep</strong></font></div><div class='tr'><img class='introPic' src='trustrating_stim/white_mw012.bmp'><br><font color='green'><strong>Share</strong></font></div></div></div>","null","ARRAY","3","trustrating_stim/white_00807_941205_fb_edt.bmp,trustrating_stim/white_mw091.bmp,trustrating_stim/white_mw012.bmp","1,0,1","noMatchOutcome","i","4500","","","","",""
"html-keyboard-response","102","234419","0.0-7.0-3.13","Test test test","bdp_wmem","Mon Feb 28 2022 13:52:39 GMT-0500 (Eastern Standard Time)","639449","Match,No Match","","null","","","","","","<div class='trialBorder'><div class='vertical-center'><img src='img/fixation2_sml.jpg'</img></div></div>","null","DELAY","","","","","","","","","","",""
"html-keyboard-response","103","234991","0.0-7.0-4.13","Test test test","bdp_wmem","Mon Feb 28 2022 13:52:39 GMT-0500 (Eastern Standard Time)","639449","Match,No Match","","569","","","","","","<div class='trialBorder'><div class='targDiv'><div class='tc'><img class='introPic' src='trustrating_stim/white_mw091.bmp'><br><font color='green'><strong>Share</strong></font></div></div><div class='respDiv'><div class='respDivL'>Match<br>(e)</div><div class='respDivR'>No Match<br>(i)</div></div></div>","i","TARGET","3","trustrating_stim/white_00807_941205_fb_edt.bmp,trustrating_stim/white_mw091.bmp,trustrating_stim/white_mw012.bmp","1,0,1","noMatchOutcome","i","4500","trustrating_stim/white_mw091.bmp","green","Share","REAL","1"
"html-keyboard-response","104","235494","0.0-7.0-5.13","Test test test","bdp_wmem","Mon Feb 28 2022 13:52:39 GMT-0500 (Eastern Standard Time)","639449","Match,No Match","","null","","","","","","<div class='trialBorder'><div class='vertical-center'><img src='img/correct.jpg'></div><div class='respDiv'><div class='respDivL'>Match<br>(e)</div><div class='respDivR'><font style='color:orange'>No Match<br>(i)</font></div></div></div>","null","FEEDBACK","","","","","","","","","","",""
"html-keyboard-response","105","236001","0.0-7.0-1.14","Test test test","bdp_wmem","Mon Feb 28 2022 13:52:39 GMT-0500 (Eastern Standard Time)","639449","Match,No Match","","null","","","","","","<div class='trialBorder'><div class='vertical-center'><img src='img/fixation2_sml.jpg'</img></div></div>","null","FIX","","","","","","","","","","",""
"html-keyboard-response","106","239006","0.0-7.0-2.14","Test test test","bdp_wmem","Mon Feb 28 2022 13:52:39 GMT-0500 (Eastern Standard Time)","639449","Match,No Match","","null","","","","","","<div class='trialBorder'><div class='vertical-center'><img style='vertical-align:center; align:center' src='img/fixation2_sml.jpg'></div><div class='arrayDiv2'><div class='tl'><img class='introPic' src='trustrating_stim/white_mw012.bmp'><br><font color='red'><strong>Keep</strong></font></div><div class='tr'><img class='introPic' src='trustrating_stim/white_00050_931230_fa_edt.bmp'><br><font color='green'><strong>Share</strong></font></div></div></div>","null","ARRAY","2","trustrating_stim/white_mw012.bmp,trustrating_stim/white_00050_931230_fa_edt.bmp","0,1","Match","e","3000","","","","",""
"html-keyboard-response","107","243011","0.0-7.0-3.14","Test test test","bdp_wmem","Mon Feb 28 2022 13:52:39 GMT-0500 (Eastern Standard Time)","639449","Match,No Match","","null","","","","","","<div class='trialBorder'><div class='vertical-center'><img src='img/fixation2_sml.jpg'</img></div></div>","null","DELAY","","","","","","","","","","",""
"html-keyboard-response","108","243917","0.0-7.0-4.14","Test test test","bdp_wmem","Mon Feb 28 2022 13:52:39 GMT-0500 (Eastern Standard Time)","639449","Match,No Match","","904","","","","","","<div class='trialBorder'><div class='targDiv'><div class='tc'><img class='introPic' src='trustrating_stim/white_00050_931230_fa_edt.bmp'><br><font color='green'><strong>Share</strong></font></div></div><div class='respDiv'><div class='respDivL'>Match<br>(e)</div><div class='respDivR'>No Match<br>(i)</div></div></div>","i","TARGET","2","trustrating_stim/white_mw012.bmp,trustrating_stim/white_00050_931230_fa_edt.bmp","0,1","Match","e","3000","trustrating_stim/white_00050_931230_fa_edt.bmp","green","Share","REAL","0"
"html-keyboard-response","109","244421","0.0-7.0-5.14","Test test test","bdp_wmem","Mon Feb 28 2022 13:52:39 GMT-0500 (Eastern Standard Time)","639449","Match,No Match","","null","","","","","","<div class='trialBorder'><div class='vertical-center'><img src='img/error.jpg'></div><div class='respDiv'><div class='respDivL'>Match<br>(e)</div><div class='respDivR'><font style='color:orange'>No Match<br>(i)</font></div></div></div>","null","FEEDBACK","","","","","","","","","","",""
"html-keyboard-response","110","244926","0.0-7.0-1.15","Test test test","bdp_wmem","Mon Feb 28 2022 13:52:39 GMT-0500 (Eastern Standard Time)","639449","Match,No Match","","null","","","","","","<div class='trialBorder'><div class='vertical-center'><img src='img/fixation2_sml.jpg'</img></div></div>","null","FIX","","","","","","","","","","",""
"html-keyboard-response","111","249433","0.0-7.0-2.15","Test test test","bdp_wmem","Mon Feb 28 2022 13:52:39 GMT-0500 (Eastern Standard Time)","639449","Match,No Match","","null","","","","","","<div class='trialBorder'><div class='vertical-center'><img style='vertical-align:center; align:center' src='img/fixation2_sml.jpg'></div><div class='arrayDiv3'><div class='tl'><img class='introPic' src='trustrating_stim/white_mw012.bmp'><br><font color='red'><strong>Keep</strong></font></div><div class='tc'><img class='introPic' src='trustrating_stim/white_00807_941205_fb_edt.bmp'><br><font color='green'><strong>Share</strong></font></div><div class='tr'><img class='introPic' src='trustrating_stim/white_mw003.bmp'><br><font color='red'><strong>Keep</strong></font></div></div></div>","null","ARRAY","3","trustrating_stim/white_mw012.bmp,trustrating_stim/white_00807_941205_fb_edt.bmp,trustrating_stim/white_mw003.bmp","0,1,0","Match","e","4500","","","","",""
"html-keyboard-response","112","253438","0.0-7.0-3.15","Test test test","bdp_wmem","Mon Feb 28 2022 13:52:39 GMT-0500 (Eastern Standard Time)","639449","Match,No Match","","null","","","","","","<div class='trialBorder'><div class='vertical-center'><img src='img/fixation2_sml.jpg'</img></div></div>","null","DELAY","","","","","","","","","","",""
"html-keyboard-response","113","254247","0.0-7.0-4.15","Test test test","bdp_wmem","Mon Feb 28 2022 13:52:39 GMT-0500 (Eastern Standard Time)","639449","Match,No Match","","807","","","","","","<div class='trialBorder'><div class='targDiv'><div class='tc'><img class='introPic' src='trustrating_stim/white_mw012.bmp'><br><font color='red'><strong>Keep</strong></font></div></div><div class='respDiv'><div class='respDivL'>Match<br>(e)</div><div class='respDivR'>No Match<br>(i)</div></div></div>","i","TARGET","3","trustrating_stim/white_mw012.bmp,trustrating_stim/white_00807_941205_fb_edt.bmp,trustrating_stim/white_mw003.bmp","0,1,0","Match","e","4500","trustrating_stim/white_mw012.bmp","red","Keep","REAL","0"
"html-keyboard-response","114","254752","0.0-7.0-5.15","Test test test","bdp_wmem","Mon Feb 28 2022 13:52:39 GMT-0500 (Eastern Standard Time)","639449","Match,No Match","","null","","","","","","<div class='trialBorder'><div class='vertical-center'><img src='img/error.jpg'></div><div class='respDiv'><div class='respDivL'>Match<br>(e)</div><div class='respDivR'><font style='color:orange'>No Match<br>(i)</font></div></div></div>","null","FEEDBACK","","","","","","","","","","",""
"html-keyboard-response","115","255257","0.0-7.0-1.16","Test test test","bdp_wmem","Mon Feb 28 2022 13:52:39 GMT-0500 (Eastern Standard Time)","639449","Match,No Match","","null","","","","","","<div class='trialBorder'><div class='vertical-center'><img src='img/fixation2_sml.jpg'</img></div></div>","null","FIX","","","","","","","","","","",""
"html-keyboard-response","116","258262","0.0-7.0-2.16","Test test test","bdp_wmem","Mon Feb 28 2022 13:52:39 GMT-0500 (Eastern Standard Time)","639449","Match,No Match","","null","","","","","","<div class='trialBorder'><div class='vertical-center'><img style='vertical-align:center; align:center' src='img/fixation2_sml.jpg'></div><div class='arrayDiv2'><div class='tl'><img class='introPic' src='trustrating_stim/white_mw033.bmp'><br><font color='green'><strong>Share</strong></font></div><div class='tr'><img class='introPic' src='trustrating_stim/white_00807_941205_fb_edt.bmp'><br><font color='red'><strong>Keep</strong></font></div></div></div>","null","ARRAY","2","trustrating_stim/white_mw033.bmp,trustrating_stim/white_00807_941205_fb_edt.bmp","1,0","noMatchFace","i","3000","","","","",""
"html-keyboard-response","117","262267","0.0-7.0-3.16","Test test test","bdp_wmem","Mon Feb 28 2022 13:52:39 GMT-0500 (Eastern Standard Time)","639449","Match,No Match","","null","","","","","","<div class='trialBorder'><div class='vertical-center'><img src='img/fixation2_sml.jpg'</img></div></div>","null","DELAY","","","","","","","","","","",""
"html-keyboard-response","118","262792","0.0-7.0-4.16","Test test test","bdp_wmem","Mon Feb 28 2022 13:52:39 GMT-0500 (Eastern Standard Time)","639449","Match,No Match","","522","","","","","","<div class='trialBorder'><div class='targDiv'><div class='tc'><img class='introPic' src='trustrating_stim/white_mw091.bmp'><br><font color='red'><strong>Keep</strong></font></div></div><div class='respDiv'><div class='respDivL'>Match<br>(e)</div><div class='respDivR'>No Match<br>(i)</div></div></div>","i","TARGET","2","trustrating_stim/white_mw033.bmp,trustrating_stim/white_00807_941205_fb_edt.bmp","1,0","noMatchFace","i","3000","trustrating_stim/white_mw091.bmp","red","Keep","REAL","1"
"html-keyboard-response","119","263295","0.0-7.0-5.16","Test test test","bdp_wmem","Mon Feb 28 2022 13:52:39 GMT-0500 (Eastern Standard Time)","639449","Match,No Match","","null","","","","","","<div class='trialBorder'><div class='vertical-center'><img src='img/correct.jpg'></div><div class='respDiv'><div class='respDivL'>Match<br>(e)</div><div class='respDivR'><font style='color:orange'>No Match<br>(i)</font></div></div></div>","null","FEEDBACK","","","","","","","","","","",""
"html-keyboard-response","120","263797","0.0-7.0-1.17","Test test test","bdp_wmem","Mon Feb 28 2022 13:52:39 GMT-0500 (Eastern Standard Time)","639449","Match,No Match","","null","","","","","","<div class='trialBorder'><div class='vertical-center'><img src='img/fixation2_sml.jpg'</img></div></div>","null","FIX","","","","","","","","","","",""
"html-keyboard-response","121","268303","0.0-7.0-2.17","Test test test","bdp_wmem","Mon Feb 28 2022 13:52:39 GMT-0500 (Eastern Standard Time)","639449","Match,No Match","","null","","","","","","<div class='trialBorder'><div class='vertical-center'><img style='vertical-align:center; align:center' src='img/fixation2_sml.jpg'></div><div class='arrayDiv3'><div class='tl'><img class='introPic' src='trustrating_stim/white_mw038.bmp'><br><font color='red'><strong>Keep</strong></font></div><div class='tc'><img class='introPic' src='trustrating_stim/white_mw091.bmp'><br><font color='green'><strong>Share</strong></font></div><div class='tr'><img class='introPic' src='trustrating_stim/white_mw015.bmp'><br><font color='green'><strong>Share</strong></font></div></div></div>","null","ARRAY","3","trustrating_stim/white_mw038.bmp,trustrating_stim/white_mw091.bmp,trustrating_stim/white_mw015.bmp","0,1,1","noMatchFace","i","4500","","","","",""
"html-keyboard-response","122","272309","0.0-7.0-3.17","Test test test","bdp_wmem","Mon Feb 28 2022 13:52:39 GMT-0500 (Eastern Standard Time)","639449","Match,No Match","","null","","","","","","<div class='trialBorder'><div class='vertical-center'><img src='img/fixation2_sml.jpg'</img></div></div>","null","DELAY","","","","","","","","","","",""
"html-keyboard-response","123","272747","0.0-7.0-4.17","Test test test","bdp_wmem","Mon Feb 28 2022 13:52:39 GMT-0500 (Eastern Standard Time)","639449","Match,No Match","","437","","","","","","<div class='trialBorder'><div class='targDiv'><div class='tc'><img class='introPic' src='trustrating_stim/white_00807_941205_fb_edt.bmp'><br><font color='red'><strong>Keep</strong></font></div></div><div class='respDiv'><div class='respDivL'>Match<br>(e)</div><div class='respDivR'>No Match<br>(i)</div></div></div>","i","TARGET","3","trustrating_stim/white_mw038.bmp,trustrating_stim/white_mw091.bmp,trustrating_stim/white_mw015.bmp","0,1,1","noMatchFace","i","4500","trustrating_stim/white_00807_941205_fb_edt.bmp","red","Keep","REAL","1"
"html-keyboard-response","124","273252","0.0-7.0-5.17","Test test test","bdp_wmem","Mon Feb 28 2022 13:52:39 GMT-0500 (Eastern Standard Time)","639449","Match,No Match","","null","","","","","","<div class='trialBorder'><div class='vertical-center'><img src='img/correct.jpg'></div><div class='respDiv'><div class='respDivL'>Match<br>(e)</div><div class='respDivR'><font style='color:orange'>No Match<br>(i)</font></div></div></div>","null","FEEDBACK","","","","","","","","","","",""
"html-keyboard-response","125","273754","0.0-7.0-1.18","Test test test","bdp_wmem","Mon Feb 28 2022 13:52:39 GMT-0500 (Eastern Standard Time)","639449","Match,No Match","","null","","","","","","<div class='trialBorder'><div class='vertical-center'><img src='img/fixation2_sml.jpg'</img></div></div>","null","FIX","","","","","","","","","","",""
"html-keyboard-response","126","275260","0.0-7.0-2.18","Test test test","bdp_wmem","Mon Feb 28 2022 13:52:39 GMT-0500 (Eastern Standard Time)","639449","Match,No Match","","null","","","","","","<div class='trialBorder'><div class='vertical-center'><img style='vertical-align:center; align:center' src='img/fixation2_sml.jpg'></div><div class='arrayDiv1'><div class='tc'><img class='introPic' src='trustrating_stim/white_mw012.bmp'><br><font color='red'><strong>Keep</strong></font></div></div></div>","null","ARRAY","1","trustrating_stim/white_mw012.bmp","0","Match","e","1500","","","","",""
"html-keyboard-response","127","279263","0.0-7.0-3.18","Test test test","bdp_wmem","Mon Feb 28 2022 13:52:39 GMT-0500 (Eastern Standard Time)","639449","Match,No Match","","null","","","","","","<div class='trialBorder'><div class='vertical-center'><img src='img/fixation2_sml.jpg'</img></div></div>","null","DELAY","","","","","","","","","","",""
"html-keyboard-response","128","280023","0.0-7.0-4.18","Test test test","bdp_wmem","Mon Feb 28 2022 13:52:39 GMT-0500 (Eastern Standard Time)","639449","Match,No Match","","758","","","","","","<div class='trialBorder'><div class='targDiv'><div class='tc'><img class='introPic' src='trustrating_stim/white_mw012.bmp'><br><font color='red'><strong>Keep</strong></font></div></div><div class='respDiv'><div class='respDivL'>Match<br>(e)</div><div class='respDivR'>No Match<br>(i)</div></div></div>","i","TARGET","1","trustrating_stim/white_mw012.bmp","0","Match","e","1500","trustrating_stim/white_mw012.bmp","red","Keep","REAL","0"
"html-keyboard-response","129","280527","0.0-7.0-5.18","Test test test","bdp_wmem","Mon Feb 28 2022 13:52:39 GMT-0500 (Eastern Standard Time)","639449","Match,No Match","","null","","","","","","<div class='trialBorder'><div class='vertical-center'><img src='img/error.jpg'></div><div class='respDiv'><div class='respDivL'>Match<br>(e)</div><div class='respDivR'><font style='color:orange'>No Match<br>(i)</font></div></div></div>","null","FEEDBACK","","","","","","","","","","",""
"html-keyboard-response","130","281030","0.0-7.0-1.19","Test test test","bdp_wmem","Mon Feb 28 2022 13:52:39 GMT-0500 (Eastern Standard Time)","639449","Match,No Match","","null","","","","","","<div class='trialBorder'><div class='vertical-center'><img src='img/fixation2_sml.jpg'</img></div></div>","null","FIX","","","","","","","","","","",""
"html-keyboard-response","131","282537","0.0-7.0-2.19","Test test test","bdp_wmem","Mon Feb 28 2022 13:52:39 GMT-0500 (Eastern Standard Time)","639449","Match,No Match","","null","","","","","","<div class='trialBorder'><div class='vertical-center'><img style='vertical-align:center; align:center' src='img/fixation2_sml.jpg'></div><div class='arrayDiv1'><div class='tc'><img class='introPic' src='trustrating_stim/white_00050_931230_fa_edt.bmp'><br><font color='red'><strong>Keep</strong></font></div></div></div>","null","ARRAY","1","trustrating_stim/white_00050_931230_fa_edt.bmp","0","Match","e","1500","","","","",""
"html-keyboard-response","132","286539","0.0-7.0-3.19","Test test test","bdp_wmem","Mon Feb 28 2022 13:52:39 GMT-0500 (Eastern Standard Time)","639449","Match,No Match","","null","","","","","","<div class='trialBorder'><div class='vertical-center'><img src='img/fixation2_sml.jpg'</img></div></div>","null","DELAY","","","","","","","","","","",""
"html-keyboard-response","133","287046","0.0-7.0-4.19","Test test test","bdp_wmem","Mon Feb 28 2022 13:52:39 GMT-0500 (Eastern Standard Time)","639449","Match,No Match","","505","","","","","","<div class='trialBorder'><div class='targDiv'><div class='tc'><img class='introPic' src='trustrating_stim/white_00050_931230_fa_edt.bmp'><br><font color='red'><strong>Keep</strong></font></div></div><div class='respDiv'><div class='respDivL'>Match<br>(e)</div><div class='respDivR'>No Match<br>(i)</div></div></div>","i","TARGET","1","trustrating_stim/white_00050_931230_fa_edt.bmp","0","Match","e","1500","trustrating_stim/white_00050_931230_fa_edt.bmp","red","Keep","REAL","0"
"html-keyboard-response","134","287548","0.0-7.0-5.19","Test test test","bdp_wmem","Mon Feb 28 2022 13:52:39 GMT-0500 (Eastern Standard Time)","639449","Match,No Match","","null","","","","","","<div class='trialBorder'><div class='vertical-center'><img src='img/error.jpg'></div><div class='respDiv'><div class='respDivL'>Match<br>(e)</div><div class='respDivR'><font style='color:orange'>No Match<br>(i)</font></div></div></div>","null","FEEDBACK","","","","","","","","","","",""
"html-keyboard-response","135","288053","0.0-7.0-1.20","Test test test","bdp_wmem","Mon Feb 28 2022 13:52:39 GMT-0500 (Eastern Standard Time)","639449","Match,No Match","","null","","","","","","<div class='trialBorder'><div class='vertical-center'><img src='img/fixation2_sml.jpg'</img></div></div>","null","FIX","","","","","","","","","","",""
"html-keyboard-response","136","289556","0.0-7.0-2.20","Test test test","bdp_wmem","Mon Feb 28 2022 13:52:39 GMT-0500 (Eastern Standard Time)","639449","Match,No Match","","null","","","","","","<div class='trialBorder'><div class='vertical-center'><img style='vertical-align:center; align:center' src='img/fixation2_sml.jpg'></div><div class='arrayDiv1'><div class='tc'><img class='introPic' src='trustrating_stim/white_00050_931230_fa_edt.bmp'><br><font color='green'><strong>Share</strong></font></div></div></div>","null","ARRAY","1","trustrating_stim/white_00050_931230_fa_edt.bmp","1","Match","e","1500","","","","",""
"html-keyboard-response","137","293562","0.0-7.0-3.20","Test test test","bdp_wmem","Mon Feb 28 2022 13:52:39 GMT-0500 (Eastern Standard Time)","639449","Match,No Match","","null","","","","","","<div class='trialBorder'><div class='vertical-center'><img src='img/fixation2_sml.jpg'</img></div></div>","null","DELAY","","","","","","","","","","",""
"html-keyboard-response","138","293973","0.0-7.0-4.20","Test test test","bdp_wmem","Mon Feb 28 2022 13:52:39 GMT-0500 (Eastern Standard Time)","639449","Match,No Match","","409","","","","","","<div class='trialBorder'><div class='targDiv'><div class='tc'><img class='introPic' src='trustrating_stim/white_00050_931230_fa_edt.bmp'><br><font color='green'><strong>Share</strong></font></div></div><div class='respDiv'><div class='respDivL'>Match<br>(e)</div><div class='respDivR'>No Match<br>(i)</div></div></div>","i","TARGET","1","trustrating_stim/white_00050_931230_fa_edt.bmp","1","Match","e","1500","trustrating_stim/white_00050_931230_fa_edt.bmp","green","Share","REAL","0"
"html-keyboard-response","139","294477","0.0-7.0-5.20","Test test test","bdp_wmem","Mon Feb 28 2022 13:52:39 GMT-0500 (Eastern Standard Time)","639449","Match,No Match","","null","","","","","","<div class='trialBorder'><div class='vertical-center'><img src='img/error.jpg'></div><div class='respDiv'><div class='respDivL'>Match<br>(e)</div><div class='respDivR'><font style='color:orange'>No Match<br>(i)</font></div></div></div>","null","FEEDBACK","","","","","","","","","","",""
"html-keyboard-response","140","294981","0.0-7.0-1.21","Test test test","bdp_wmem","Mon Feb 28 2022 13:52:39 GMT-0500 (Eastern Standard Time)","639449","Match,No Match","","null","","","","","","<div class='trialBorder'><div class='vertical-center'><img src='img/fixation2_sml.jpg'</img></div></div>","null","FIX","","","","","","","","","","",""
"html-keyboard-response","141","297986","0.0-7.0-2.21","Test test test","bdp_wmem","Mon Feb 28 2022 13:52:39 GMT-0500 (Eastern Standard Time)","639449","Match,No Match","","null","","","","","","<div class='trialBorder'><div class='vertical-center'><img style='vertical-align:center; align:center' src='img/fixation2_sml.jpg'></div><div class='arrayDiv2'><div class='tl'><img class='introPic' src='trustrating_stim/white_mw070.bmp'><br><font color='green'><strong>Share</strong></font></div><div class='tr'><img class='introPic' src='trustrating_stim/white_mw092.bmp'><br><font color='red'><strong>Keep</strong></font></div></div></div>","null","ARRAY","2","trustrating_stim/white_mw070.bmp,trustrating_stim/white_mw092.bmp","1,0","noMatchFace","i","3000","","","","",""
"html-keyboard-response","142","301989","0.0-7.0-3.21","Test test test","bdp_wmem","Mon Feb 28 2022 13:52:39 GMT-0500 (Eastern Standard Time)","639449","Match,No Match","","null","","","","","","<div class='trialBorder'><div class='vertical-center'><img src='img/fixation2_sml.jpg'</img></div></div>","null","DELAY","","","","","","","","","","",""
"html-keyboard-response","143","302386","0.0-7.0-4.21","Test test test","bdp_wmem","Mon Feb 28 2022 13:52:39 GMT-0500 (Eastern Standard Time)","639449","Match,No Match","","395","","","","","","<div class='trialBorder'><div class='targDiv'><div class='tc'><img class='introPic' src='trustrating_stim/white_mw015.bmp'><br><font color='red'><strong>Keep</strong></font></div></div><div class='respDiv'><div class='respDivL'>Match<br>(e)</div><div class='respDivR'>No Match<br>(i)</div></div></div>","i","TARGET","2","trustrating_stim/white_mw070.bmp,trustrating_stim/white_mw092.bmp","1,0","noMatchFace","i","3000","trustrating_stim/white_mw015.bmp","red","Keep","REAL","1"
"html-keyboard-response","144","302891","0.0-7.0-5.21","Test test test","bdp_wmem","Mon Feb 28 2022 13:52:39 GMT-0500 (Eastern Standard Time)","639449","Match,No Match","","null","","","","","","<div class='trialBorder'><div class='vertical-center'><img src='img/correct.jpg'></div><div class='respDiv'><div class='respDivL'>Match<br>(e)</div><div class='respDivR'><font style='color:orange'>No Match<br>(i)</font></div></div></div>","null","FEEDBACK","","","","","","","","","","",""
"html-keyboard-response","145","303397","0.0-7.0-1.22","Test test test","bdp_wmem","Mon Feb 28 2022 13:52:39 GMT-0500 (Eastern Standard Time)","639449","Match,No Match","","null","","","","","","<div class='trialBorder'><div class='vertical-center'><img src='img/fixation2_sml.jpg'</img></div></div>","null","FIX","","","","","","","","","","",""
"html-keyboard-response","146","304904","0.0-7.0-2.22","Test test test","bdp_wmem","Mon Feb 28 2022 13:52:39 GMT-0500 (Eastern Standard Time)","639449","Match,No Match","","null","","","","","","<div class='trialBorder'><div class='vertical-center'><img style='vertical-align:center; align:center' src='img/fixation2_sml.jpg'></div><div class='arrayDiv1'><div class='tc'><img class='introPic' src='trustrating_stim/white_mw013.bmp'><br><font color='red'><strong>Keep</strong></font></div></div></div>","null","ARRAY","1","trustrating_stim/white_mw013.bmp","0","Match","e","1500","","","","",""
"html-keyboard-response","147","308907","0.0-7.0-3.22","Test test test","bdp_wmem","Mon Feb 28 2022 13:52:39 GMT-0500 (Eastern Standard Time)","639449","Match,No Match","","null","","","","","","<div class='trialBorder'><div class='vertical-center'><img src='img/fixation2_sml.jpg'</img></div></div>","null","DELAY","","","","","","","","","","",""
"html-keyboard-response","148","309421","0.0-7.0-4.22","Test test test","bdp_wmem","Mon Feb 28 2022 13:52:39 GMT-0500 (Eastern Standard Time)","639449","Match,No Match","","512","","","","","","<div class='trialBorder'><div class='targDiv'><div class='tc'><img class='introPic' src='trustrating_stim/white_mw013.bmp'><br><font color='red'><strong>Keep</strong></font></div></div><div class='respDiv'><div class='respDivL'>Match<br>(e)</div><div class='respDivR'>No Match<br>(i)</div></div></div>","i","TARGET","1","trustrating_stim/white_mw013.bmp","0","Match","e","1500","trustrating_stim/white_mw013.bmp","red","Keep","REAL","0"
"html-keyboard-response","149","309923","0.0-7.0-5.22","Test test test","bdp_wmem","Mon Feb 28 2022 13:52:39 GMT-0500 (Eastern Standard Time)","639449","Match,No Match","","null","","","","","","<div class='trialBorder'><div class='vertical-center'><img src='img/error.jpg'></div><div class='respDiv'><div class='respDivL'>Match<br>(e)</div><div class='respDivR'><font style='color:orange'>No Match<br>(i)</font></div></div></div>","null","FEEDBACK","","","","","","","","","","",""
"html-keyboard-response","150","310427","0.0-7.0-1.23","Test test test","bdp_wmem","Mon Feb 28 2022 13:52:39 GMT-0500 (Eastern Standard Time)","639449","Match,No Match","","null","","","","","","<div class='trialBorder'><div class='vertical-center'><img src='img/fixation2_sml.jpg'</img></div></div>","null","FIX","","","","","","","","","","",""
"html-keyboard-response","151","311929","0.0-7.0-2.23","Test test test","bdp_wmem","Mon Feb 28 2022 13:52:39 GMT-0500 (Eastern Standard Time)","639449","Match,No Match","","null","","","","","","<div class='trialBorder'><div class='vertical-center'><img style='vertical-align:center; align:center' src='img/fixation2_sml.jpg'></div><div class='arrayDiv1'><div class='tc'><img class='introPic' src='trustrating_stim/white_mw033.bmp'><br><font color='red'><strong>Keep</strong></font></div></div></div>","null","ARRAY","1","trustrating_stim/white_mw033.bmp","0","Match","e","1500","","","","",""
"html-keyboard-response","152","315933","0.0-7.0-3.23","Test test test","bdp_wmem","Mon Feb 28 2022 13:52:39 GMT-0500 (Eastern Standard Time)","639449","Match,No Match","","null","","","","","","<div class='trialBorder'><div class='vertical-center'><img src='img/fixation2_sml.jpg'</img></div></div>","null","DELAY","","","","","","","","","","",""
"html-keyboard-response","153","316260","0.0-7.0-4.23","Test test test","bdp_wmem","Mon Feb 28 2022 13:52:39 GMT-0500 (Eastern Standard Time)","639449","Match,No Match","","324","","","","","","<div class='trialBorder'><div class='targDiv'><div class='tc'><img class='introPic' src='trustrating_stim/white_mw033.bmp'><br><font color='red'><strong>Keep</strong></font></div></div><div class='respDiv'><div class='respDivL'>Match<br>(e)</div><div class='respDivR'>No Match<br>(i)</div></div></div>","i","TARGET","1","trustrating_stim/white_mw033.bmp","0","Match","e","1500","trustrating_stim/white_mw033.bmp","red","Keep","REAL","0"
"html-keyboard-response","154","316763","0.0-7.0-5.23","Test test test","bdp_wmem","Mon Feb 28 2022 13:52:39 GMT-0500 (Eastern Standard Time)","639449","Match,No Match","","null","","","","","","<div class='trialBorder'><div class='vertical-center'><img src='img/error.jpg'></div><div class='respDiv'><div class='respDivL'>Match<br>(e)</div><div class='respDivR'><font style='color:orange'>No Match<br>(i)</font></div></div></div>","null","FEEDBACK","","","","","","","","","","",""
"html-keyboard-response","155","317269","0.0-7.0-1.24","Test test test","bdp_wmem","Mon Feb 28 2022 13:52:39 GMT-0500 (Eastern Standard Time)","639449","Match,No Match","","null","","","","","","<div class='trialBorder'><div class='vertical-center'><img src='img/fixation2_sml.jpg'</img></div></div>","null","FIX","","","","","","","","","","",""
"html-keyboard-response","156","321773","0.0-7.0-2.24","Test test test","bdp_wmem","Mon Feb 28 2022 13:52:39 GMT-0500 (Eastern Standard Time)","639449","Match,No Match","","null","","","","","","<div class='trialBorder'><div class='vertical-center'><img style='vertical-align:center; align:center' src='img/fixation2_sml.jpg'></div><div class='arrayDiv3'><div class='tl'><img class='introPic' src='trustrating_stim/white_mw038.bmp'><br><font color='red'><strong>Keep</strong></font></div><div class='tc'><img class='introPic' src='trustrating_stim/white_mw070.bmp'><br><font color='green'><strong>Share</strong></font></div><div class='tr'><img class='introPic' src='trustrating_stim/white_mw012.bmp'><br><font color='green'><strong>Share</strong></font></div></div></div>","null","ARRAY","3","trustrating_stim/white_mw038.bmp,trustrating_stim/white_mw070.bmp,trustrating_stim/white_mw012.bmp","0,1,1","noMatchOutcome","i","4500","","","","",""
"html-keyboard-response","157","325777","0.0-7.0-3.24","Test test test","bdp_wmem","Mon Feb 28 2022 13:52:39 GMT-0500 (Eastern Standard Time)","639449","Match,No Match","","null","","","","","","<div class='trialBorder'><div class='vertical-center'><img src='img/fixation2_sml.jpg'</img></div></div>","null","DELAY","","","","","","","","","","",""
"html-keyboard-response","158","327105","0.0-7.0-4.24","Test test test","bdp_wmem","Mon Feb 28 2022 13:52:39 GMT-0500 (Eastern Standard Time)","639449","Match,No Match","","1326","","","","","","<div class='trialBorder'><div class='targDiv'><div class='tc'><img class='introPic' src='trustrating_stim/white_mw070.bmp'><br><font color='red'><strong>Keep</strong></font></div></div><div class='respDiv'><div class='respDivL'>Match<br>(e)</div><div class='respDivR'>No Match<br>(i)</div></div></div>","e","TARGET","3","trustrating_stim/white_mw038.bmp,trustrating_stim/white_mw070.bmp,trustrating_stim/white_mw012.bmp","0,1,1","noMatchOutcome","i","4500","trustrating_stim/white_mw070.bmp","red","Keep","REAL","0"
"html-keyboard-response","159","327608","0.0-7.0-5.24","Test test test","bdp_wmem","Mon Feb 28 2022 13:52:39 GMT-0500 (Eastern Standard Time)","639449","Match,No Match","","null","","","","","","<div class='trialBorder'><div class='vertical-center'><img src='img/error.jpg'></div><div class='respDiv'><div class='respDivL'><font style='color:orange'>Match<br>(e)</font></div><div class='respDivR'>No Match<br>(i)</div></div></div>","null","FEEDBACK","","","","","","","","","","",""
"html-keyboard-response","160","328114","0.0-7.0-1.25","Test test test","bdp_wmem","Mon Feb 28 2022 13:52:39 GMT-0500 (Eastern Standard Time)","639449","Match,No Match","","null","","","","","","<div class='trialBorder'><div class='vertical-center'><img src='img/fixation2_sml.jpg'</img></div></div>","null","FIX","","","","","","","","","","",""
"html-keyboard-response","161","332620","0.0-7.0-2.25","Test test test","bdp_wmem","Mon Feb 28 2022 13:52:39 GMT-0500 (Eastern Standard Time)","639449","Match,No Match","","null","","","","","","<div class='trialBorder'><div class='vertical-center'><img style='vertical-align:center; align:center' src='img/fixation2_sml.jpg'></div><div class='arrayDiv3'><div class='tl'><img class='introPic' src='trustrating_stim/white_mw070.bmp'><br><font color='red'><strong>Keep</strong></font></div><div class='tc'><img class='introPic' src='trustrating_stim/white_mw015.bmp'><br><font color='green'><strong>Share</strong></font></div><div class='tr'><img class='introPic' src='trustrating_stim/white_mw091.bmp'><br><font color='green'><strong>Share</strong></font></div></div></div>","null","ARRAY","3","trustrating_stim/white_mw070.bmp,trustrating_stim/white_mw015.bmp,trustrating_stim/white_mw091.bmp","0,1,1","Match","e","4500","","","","",""
"html-keyboard-response","162","336625","0.0-7.0-3.25","Test test test","bdp_wmem","Mon Feb 28 2022 13:52:39 GMT-0500 (Eastern Standard Time)","639449","Match,No Match","","null","","","","","","<div class='trialBorder'><div class='vertical-center'><img src='img/fixation2_sml.jpg'</img></div></div>","null","DELAY","","","","","","","","","","",""
"html-keyboard-response","163","434324","0.0-7.0-4.25","Test test test","bdp_wmem","Mon Feb 28 2022 13:52:39 GMT-0500 (Eastern Standard Time)","639449","Match,No Match","","97696","","","","","","<div class='trialBorder'><div class='targDiv'><div class='tc'><img class='introPic' src='trustrating_stim/white_mw091.bmp'><br><font color='green'><strong>Share</strong></font></div></div><div class='respDiv'><div class='respDivL'>Match<br>(e)</div><div class='respDivR'>No Match<br>(i)</div></div></div>","i","TARGET","3","trustrating_stim/white_mw070.bmp,trustrating_stim/white_mw015.bmp,trustrating_stim/white_mw091.bmp","0,1,1","Match","e","4500","trustrating_stim/white_mw091.bmp","green","Share","REAL","0"
"html-keyboard-response","164","434827","0.0-7.0-5.25","Test test test","bdp_wmem","Mon Feb 28 2022 13:52:39 GMT-0500 (Eastern Standard Time)","639449","Match,No Match","","null","","","","","","<div class='trialBorder'><div class='vertical-center'><img src='img/error.jpg'></div><div class='respDiv'><div class='respDivL'>Match<br>(e)</div><div class='respDivR'><font style='color:orange'>No Match<br>(i)</font></div></div></div>","null","FEEDBACK","","","","","","","","","","",""
"html-keyboard-response","165","435334","0.0-7.0-1.26","Test test test","bdp_wmem","Mon Feb 28 2022 13:52:39 GMT-0500 (Eastern Standard Time)","639449","Match,No Match","","null","","","","","","<div class='trialBorder'><div class='vertical-center'><img src='img/fixation2_sml.jpg'</img></div></div>","null","FIX","","","","","","","","","","",""
"html-keyboard-response","166","438337","0.0-7.0-2.26","Test test test","bdp_wmem","Mon Feb 28 2022 13:52:39 GMT-0500 (Eastern Standard Time)","639449","Match,No Match","","null","","","","","","<div class='trialBorder'><div class='vertical-center'><img style='vertical-align:center; align:center' src='img/fixation2_sml.jpg'></div><div class='arrayDiv2'><div class='tl'><img class='introPic' src='trustrating_stim/white_mw091.bmp'><br><font color='red'><strong>Keep</strong></font></div><div class='tr'><img class='introPic' src='trustrating_stim/white_mw003.bmp'><br><font color='green'><strong>Share</strong></font></div></div></div>","null","ARRAY","2","trustrating_stim/white_mw091.bmp,trustrating_stim/white_mw003.bmp","0,1","Match","e","3000","","","","",""
"html-keyboard-response","167","442340","0.0-7.0-3.26","Test test test","bdp_wmem","Mon Feb 28 2022 13:52:39 GMT-0500 (Eastern Standard Time)","639449","Match,No Match","","null","","","","","","<div class='trialBorder'><div class='vertical-center'><img src='img/fixation2_sml.jpg'</img></div></div>","null","DELAY","","","","","","","","","","",""
"html-keyboard-response","168","444192","0.0-7.0-4.26","Test test test","bdp_wmem","Mon Feb 28 2022 13:52:39 GMT-0500 (Eastern Standard Time)","639449","Match,No Match","","1850","","","","","","<div class='trialBorder'><div class='targDiv'><div class='tc'><img class='introPic' src='trustrating_stim/white_mw003.bmp'><br><font color='green'><strong>Share</strong></font></div></div><div class='respDiv'><div class='respDivL'>Match<br>(e)</div><div class='respDivR'>No Match<br>(i)</div></div></div>","i","TARGET","2","trustrating_stim/white_mw091.bmp,trustrating_stim/white_mw003.bmp","0,1","Match","e","3000","trustrating_stim/white_mw003.bmp","green","Share","REAL","0"
"html-keyboard-response","169","444694","0.0-7.0-5.26","Test test test","bdp_wmem","Mon Feb 28 2022 13:52:39 GMT-0500 (Eastern Standard Time)","639449","Match,No Match","","null","","","","","","<div class='trialBorder'><div class='vertical-center'><img src='img/error.jpg'></div><div class='respDiv'><div class='respDivL'>Match<br>(e)</div><div class='respDivR'><font style='color:orange'>No Match<br>(i)</font></div></div></div>","null","FEEDBACK","","","","","","","","","","",""
"html-keyboard-response","170","445199","0.0-7.0-1.27","Test test test","bdp_wmem","Mon Feb 28 2022 13:52:39 GMT-0500 (Eastern Standard Time)","639449","Match,No Match","","null","","","","","","<div class='trialBorder'><div class='vertical-center'><img src='img/fixation2_sml.jpg'</img></div></div>","null","FIX","","","","","","","","","","",""
"html-keyboard-response","171","449706","0.0-7.0-2.27","Test test test","bdp_wmem","Mon Feb 28 2022 13:52:39 GMT-0500 (Eastern Standard Time)","639449","Match,No Match","","null","","","","","","<div class='trialBorder'><div class='vertical-center'><img style='vertical-align:center; align:center' src='img/fixation2_sml.jpg'></div><div class='arrayDiv3'><div class='tl'><img class='introPic' src='trustrating_stim/white_00807_941205_fb_edt.bmp'><br><font color='red'><strong>Keep</strong></font></div><div class='tc'><img class='introPic' src='trustrating_stim/white_mw015.bmp'><br><font color='red'><strong>Keep</strong></font></div><div class='tr'><img class='introPic' src='trustrating_stim/white_mw033.bmp'><br><font color='green'><strong>Share</strong></font></div></div></div>","null","ARRAY","3","trustrating_stim/white_00807_941205_fb_edt.bmp,trustrating_stim/white_mw015.bmp,trustrating_stim/white_mw033.bmp","0,0,1","noMatchFace","i","4500","","","","",""
"html-keyboard-response","172","453709","0.0-7.0-3.27","Test test test","bdp_wmem","Mon Feb 28 2022 13:52:39 GMT-0500 (Eastern Standard Time)","639449","Match,No Match","","null","","","","","","<div class='trialBorder'><div class='vertical-center'><img src='img/fixation2_sml.jpg'</img></div></div>","null","DELAY","","","","","","","","","","",""
"html-keyboard-response","173","454147","0.0-7.0-4.27","Test test test","bdp_wmem","Mon Feb 28 2022 13:52:39 GMT-0500 (Eastern Standard Time)","639449","Match,No Match","","435","","","","","","<div class='trialBorder'><div class='targDiv'><div class='tc'><img class='introPic' src='trustrating_stim/white_mw003.bmp'><br><font color='red'><strong>Keep</strong></font></div></div><div class='respDiv'><div class='respDivL'>Match<br>(e)</div><div class='respDivR'>No Match<br>(i)</div></div></div>","e","TARGET","3","trustrating_stim/white_00807_941205_fb_edt.bmp,trustrating_stim/white_mw015.bmp,trustrating_stim/white_mw033.bmp","0,0,1","noMatchFace","i","4500","trustrating_stim/white_mw003.bmp","red","Keep","REAL","0"
"html-keyboard-response","174","454652","0.0-7.0-5.27","Test test test","bdp_wmem","Mon Feb 28 2022 13:52:39 GMT-0500 (Eastern Standard Time)","639449","Match,No Match","","null","","","","","","<div class='trialBorder'><div class='vertical-center'><img src='img/error.jpg'></div><div class='respDiv'><div class='respDivL'><font style='color:orange'>Match<br>(e)</font></div><div class='respDivR'>No Match<br>(i)</div></div></div>","null","FEEDBACK","","","","","","","","","","",""
"html-keyboard-response","175","455157","0.0-7.0-1.28","Test test test","bdp_wmem","Mon Feb 28 2022 13:52:39 GMT-0500 (Eastern Standard Time)","639449","Match,No Match","","null","","","","","","<div class='trialBorder'><div class='vertical-center'><img src='img/fixation2_sml.jpg'</img></div></div>","null","FIX","","","","","","","","","","",""
"html-keyboard-response","176","456662","0.0-7.0-2.28","Test test test","bdp_wmem","Mon Feb 28 2022 13:52:39 GMT-0500 (Eastern Standard Time)","639449","Match,No Match","","null","","","","","","<div class='trialBorder'><div class='vertical-center'><img style='vertical-align:center; align:center' src='img/fixation2_sml.jpg'></div><div class='arrayDiv1'><div class='tc'><img class='introPic' src='trustrating_stim/white_mw015.bmp'><br><font color='green'><strong>Share</strong></font></div></div></div>","null","ARRAY","1","trustrating_stim/white_mw015.bmp","1","Match","e","1500","","","","",""
"html-keyboard-response","177","460666","0.0-7.0-3.28","Test test test","bdp_wmem","Mon Feb 28 2022 13:52:39 GMT-0500 (Eastern Standard Time)","639449","Match,No Match","","null","","","","","","<div class='trialBorder'><div class='vertical-center'><img src='img/fixation2_sml.jpg'</img></div></div>","null","DELAY","","","","","","","","","","",""
"html-keyboard-response","178","461183","0.0-7.0-4.28","Test test test","bdp_wmem","Mon Feb 28 2022 13:52:39 GMT-0500 (Eastern Standard Time)","639449","Match,No Match","","514","","","","","","<div class='trialBorder'><div class='targDiv'><div class='tc'><img class='introPic' src='trustrating_stim/white_mw015.bmp'><br><font color='green'><strong>Share</strong></font></div></div><div class='respDiv'><div class='respDivL'>Match<br>(e)</div><div class='respDivR'>No Match<br>(i)</div></div></div>","i","TARGET","1","trustrating_stim/white_mw015.bmp","1","Match","e","1500","trustrating_stim/white_mw015.bmp","green","Share","REAL","0"
"html-keyboard-response","179","461685","0.0-7.0-5.28","Test test test","bdp_wmem","Mon Feb 28 2022 13:52:39 GMT-0500 (Eastern Standard Time)","639449","Match,No Match","","null","","","","","","<div class='trialBorder'><div class='vertical-center'><img src='img/error.jpg'></div><div class='respDiv'><div class='respDivL'>Match<br>(e)</div><div class='respDivR'><font style='color:orange'>No Match<br>(i)</font></div></div></div>","null","FEEDBACK","","","","","","","","","","",""
"html-keyboard-response","180","462192","0.0-7.0-1.29","Test test test","bdp_wmem","Mon Feb 28 2022 13:52:39 GMT-0500 (Eastern Standard Time)","639449","Match,No Match","","null","","","","","","<div class='trialBorder'><div class='vertical-center'><img src='img/fixation2_sml.jpg'</img></div></div>","null","FIX","","","","","","","","","","",""
"html-keyboard-response","181","466697","0.0-7.0-2.29","Test test test","bdp_wmem","Mon Feb 28 2022 13:52:39 GMT-0500 (Eastern Standard Time)","639449","Match,No Match","","null","","","","","","<div class='trialBorder'><div class='vertical-center'><img style='vertical-align:center; align:center' src='img/fixation2_sml.jpg'></div><div class='arrayDiv3'><div class='tl'><img class='introPic' src='trustrating_stim/white_mw033.bmp'><br><font color='red'><strong>Keep</strong></font></div><div class='tc'><img class='introPic' src='trustrating_stim/white_mw070.bmp'><br><font color='green'><strong>Share</strong></font></div><div class='tr'><img class='introPic' src='trustrating_stim/white_mw013.bmp'><br><font color='red'><strong>Keep</strong></font></div></div></div>","null","ARRAY","3","trustrating_stim/white_mw033.bmp,trustrating_stim/white_mw070.bmp,trustrating_stim/white_mw013.bmp","0,1,0","Match","e","4500","","","","",""
"html-keyboard-response","182","470696","0.0-7.0-3.29","Test test test","bdp_wmem","Mon Feb 28 2022 13:52:39 GMT-0500 (Eastern Standard Time)","639449","Match,No Match","","null","","","","","","<div class='trialBorder'><div class='vertical-center'><img src='img/fixation2_sml.jpg'</img></div></div>","null","DELAY","","","","","","","","","","",""
"html-keyboard-response","183","471162","0.0-7.0-4.29","Test test test","bdp_wmem","Mon Feb 28 2022 13:52:39 GMT-0500 (Eastern Standard Time)","639449","Match,No Match","","464","","","","","","<div class='trialBorder'><div class='targDiv'><div class='tc'><img class='introPic' src='trustrating_stim/white_mw070.bmp'><br><font color='green'><strong>Share</strong></font></div></div><div class='respDiv'><div class='respDivL'>Match<br>(e)</div><div class='respDivR'>No Match<br>(i)</div></div></div>","e","TARGET","3","trustrating_stim/white_mw033.bmp,trustrating_stim/white_mw070.bmp,trustrating_stim/white_mw013.bmp","0,1,0","Match","e","4500","trustrating_stim/white_mw070.bmp","green","Share","REAL","1"
"html-keyboard-response","184","471664","0.0-7.0-5.29","Test test test","bdp_wmem","Mon Feb 28 2022 13:52:39 GMT-0500 (Eastern Standard Time)","639449","Match,No Match","","null","","","","","","<div class='trialBorder'><div class='vertical-center'><img src='img/correct.jpg'></div><div class='respDiv'><div class='respDivL'><font style='color:orange'>Match<br>(e)</font></div><div class='respDivR'>No Match<br>(i)</div></div></div>","null","FEEDBACK","","","","","","","","","","",""
"html-keyboard-response","185","472167","0.0-7.0-1.30","Test test test","bdp_wmem","Mon Feb 28 2022 13:52:39 GMT-0500 (Eastern Standard Time)","639449","Match,No Match","","null","","","","","","<div class='trialBorder'><div class='vertical-center'><img src='img/fixation2_sml.jpg'</img></div></div>","null","FIX","","","","","","","","","","",""
"html-keyboard-response","186","473672","0.0-7.0-2.30","Test test test","bdp_wmem","Mon Feb 28 2022 13:52:39 GMT-0500 (Eastern Standard Time)","639449","Match,No Match","","null","","","","","","<div class='trialBorder'><div class='vertical-center'><img style='vertical-align:center; align:center' src='img/fixation2_sml.jpg'></div><div class='arrayDiv1'><div class='tc'><img class='introPic' src='trustrating_stim/white_mw070.bmp'><br><font color='green'><strong>Share</strong></font></div></div></div>","null","ARRAY","1","trustrating_stim/white_mw070.bmp","1","noMatchFace","i","1500","","","","",""
"html-keyboard-response","187","477675","0.0-7.0-3.30","Test test test","bdp_wmem","Mon Feb 28 2022 13:52:39 GMT-0500 (Eastern Standard Time)","639449","Match,No Match","","null","","","","","","<div class='trialBorder'><div class='vertical-center'><img src='img/fixation2_sml.jpg'</img></div></div>","null","DELAY","","","","","","","","","","",""
"html-keyboard-response","188","478549","0.0-7.0-4.30","Test test test","bdp_wmem","Mon Feb 28 2022 13:52:39 GMT-0500 (Eastern Standard Time)","639449","Match,No Match","","872","","","","","","<div class='trialBorder'><div class='targDiv'><div class='tc'><img class='introPic' src='trustrating_stim/white_mw015.bmp'><br><font color='green'><strong>Share</strong></font></div></div><div class='respDiv'><div class='respDivL'>Match<br>(e)</div><div class='respDivR'>No Match<br>(i)</div></div></div>","i","TARGET","1","trustrating_stim/white_mw070.bmp","1","noMatchFace","i","1500","trustrating_stim/white_mw015.bmp","green","Share","REAL","1"
"html-keyboard-response","189","479052","0.0-7.0-5.30","Test test test","bdp_wmem","Mon Feb 28 2022 13:52:39 GMT-0500 (Eastern Standard Time)","639449","Match,No Match","","null","","","","","","<div class='trialBorder'><div class='vertical-center'><img src='img/correct.jpg'></div><div class='respDiv'><div class='respDivL'>Match<br>(e)</div><div class='respDivR'><font style='color:orange'>No Match<br>(i)</font></div></div></div>","null","FEEDBACK","","","","","","","","","","",""
