"trial_type","trial_index","time_elapsed","internal_node_id","subject_id","task","startTime","totalTime","labels","event","trial","time","trialtype","numBlurs","view_history","rt","success","stimulus","key_press","stimType","arraySize","arrayFaces","arrayOutcomes","matchType","corrResp","arrayDur","targFace","targCol","targOutcome","trialType","corr"
"pavlovia","0","11","0.0-0.0","6282571cf39cd89341a474e9","bdp_wmem","Wed Jul 27 2022 12:40:28 GMT-0500 (Central Daylight Time)","574946","Match,No Match","","","","","","","","","","","","","","","","","","","","","",""
"","","","","6282571cf39cd89341a474e9","bdp_wmem","Wed Jul 27 2022 12:40:28 GMT-0500 (Central Daylight Time)","574946","Match,No Match","blur","1","5713","blurevent","1","","","","","","","","","","","","","","","","",""
"","","","","6282571cf39cd89341a474e9","bdp_wmem","Wed Jul 27 2022 12:40:28 GMT-0500 (Central Daylight Time)","574946","Match,No Match","focus","1","12593","focusevent","","","","","","","","","","","","","","","","","",""
"instructions","1","13850","0.0-1.0","6282571cf39cd89341a474e9","bdp_wmem","Wed Jul 27 2022 12:40:28 GMT-0500 (Central Daylight Time)","574946","Match,No Match","","","","","","[{""page_index"":0,""viewing_time"":13829}]","13829","","","","","","","","","","","","","","",""
"","","","","6282571cf39cd89341a474e9","bdp_wmem","Wed Jul 27 2022 12:40:28 GMT-0500 (Central Daylight Time)","574946","Match,No Match","fullscreenenter","2","16588","fullscreenenter","","","","","","","","","","","","","","","","","",""
"fullscreen","2","17534","0.0-2.0","6282571cf39cd89341a474e9","bdp_wmem","Wed Jul 27 2022 12:40:28 GMT-0500 (Central Daylight Time)","574946","Match,No Match","","","","","","","","true","","","","","","","","","","","","","",""
"instructions","3","86124","0.0-4.0","6282571cf39cd89341a474e9","bdp_wmem","Wed Jul 27 2022 12:40:28 GMT-0500 (Central Daylight Time)","574946","Match,No Match","","","","","","[{""page_index"":0,""viewing_time"":32577},{""page_index"":1,""viewing_time"":11240},{""page_index"":2,""viewing_time"":5876},{""page_index"":3,""viewing_time"":2256},{""page_index"":4,""viewing_time"":16639}]","68588","","","","","","","","","","","","","","",""
"html-keyboard-response","4","86632","0.0-5.0-1.0","6282571cf39cd89341a474e9","bdp_wmem","Wed Jul 27 2022 12:40:28 GMT-0500 (Central Daylight Time)","574946","Match,No Match","","","","","","","null","","<div class='trialBorder'><div class='vertical-center'><img src='img/fixation2_sml.jpg'</img></div></div>","null","FIX","","","","","","","","","","",""
"html-keyboard-response","5","88140","0.0-5.0-2.0","6282571cf39cd89341a474e9","bdp_wmem","Wed Jul 27 2022 12:40:28 GMT-0500 (Central Daylight Time)","574946","Match,No Match","","","","","","","null","","<div class='trialBorder'><div class='vertical-center'><img style='vertical-align:center; align:center' src='img/fixation2_sml.jpg'></div><div class='arrayDiv1'><div class='tc'><img class='introPic' src='trustrating_stim/white_mw003.bmp'><br><font color='green'><strong>Share</strong></font></div></div></div>","null","ARRAY","1","trustrating_stim/white_mw003.bmp","1","Match","e","1500","","","","",""
"html-keyboard-response","6","92143","0.0-5.0-3.0","6282571cf39cd89341a474e9","bdp_wmem","Wed Jul 27 2022 12:40:28 GMT-0500 (Central Daylight Time)","574946","Match,No Match","","","","","","","null","","<div class='trialBorder'><div class='vertical-center'><img src='img/fixation2_sml.jpg'</img></div></div>","null","DELAY","","","","","","","","","","",""
"html-keyboard-response","7","94131","0.0-5.0-4.0","6282571cf39cd89341a474e9","bdp_wmem","Wed Jul 27 2022 12:40:28 GMT-0500 (Central Daylight Time)","574946","Match,No Match","","","","","","","1984","","<div class='trialBorder'><div class='targDiv'><div class='tc'><img class='introPic' src='trustrating_stim/white_mw003.bmp'><br><font color='green'><strong>Share</strong></font></div></div><div class='respDiv'><div class='respDivL'>Match<br>(e)</div><div class='respDivR'>No Match<br>(i)</div></div></div>","e","TARGET","1","trustrating_stim/white_mw003.bmp","1","Match","e","1500","trustrating_stim/white_mw003.bmp","green","Share","PRACTICE","1"
"html-keyboard-response","8","94635","0.0-5.0-5.0","6282571cf39cd89341a474e9","bdp_wmem","Wed Jul 27 2022 12:40:28 GMT-0500 (Central Daylight Time)","574946","Match,No Match","","","","","","","null","","<div class='trialBorder'><div class='vertical-center'><img src='img/correct.jpg'></div><div class='respDiv'><div class='respDivL'><font style='color:orange'>Match<br>(e)</font></div><div class='respDivR'>No Match<br>(i)</div></div></div>","null","FEEDBACK","","","","","","","","","","",""
"html-keyboard-response","9","95140","0.0-5.0-1.1","6282571cf39cd89341a474e9","bdp_wmem","Wed Jul 27 2022 12:40:28 GMT-0500 (Central Daylight Time)","574946","Match,No Match","","","","","","","null","","<div class='trialBorder'><div class='vertical-center'><img src='img/fixation2_sml.jpg'</img></div></div>","null","FIX","","","","","","","","","","",""
"html-keyboard-response","10","98143","0.0-5.0-2.1","6282571cf39cd89341a474e9","bdp_wmem","Wed Jul 27 2022 12:40:28 GMT-0500 (Central Daylight Time)","574946","Match,No Match","","","","","","","null","","<div class='trialBorder'><div class='vertical-center'><img style='vertical-align:center; align:center' src='img/fixation2_sml.jpg'></div><div class='arrayDiv2'><div class='tl'><img class='introPic' src='trustrating_stim/white_mw070.bmp'><br><font color='green'><strong>Share</strong></font></div><div class='tr'><img class='introPic' src='trustrating_stim/white_mw042.bmp'><br><font color='red'><strong>Keep</strong></font></div></div></div>","null","ARRAY","2","trustrating_stim/white_mw070.bmp,trustrating_stim/white_mw042.bmp","1,0","Match","e","3000","","","","",""
"html-keyboard-response","11","102146","0.0-5.0-3.1","6282571cf39cd89341a474e9","bdp_wmem","Wed Jul 27 2022 12:40:28 GMT-0500 (Central Daylight Time)","574946","Match,No Match","","","","","","","null","","<div class='trialBorder'><div class='vertical-center'><img src='img/fixation2_sml.jpg'</img></div></div>","null","DELAY","","","","","","","","","","",""
"html-keyboard-response","12","103318","0.0-5.0-4.1","6282571cf39cd89341a474e9","bdp_wmem","Wed Jul 27 2022 12:40:28 GMT-0500 (Central Daylight Time)","574946","Match,No Match","","","","","","","1167","","<div class='trialBorder'><div class='targDiv'><div class='tc'><img class='introPic' src='trustrating_stim/white_mw042.bmp'><br><font color='red'><strong>Keep</strong></font></div></div><div class='respDiv'><div class='respDivL'>Match<br>(e)</div><div class='respDivR'>No Match<br>(i)</div></div></div>","i","TARGET","2","trustrating_stim/white_mw070.bmp,trustrating_stim/white_mw042.bmp","1,0","Match","e","3000","trustrating_stim/white_mw042.bmp","red","Keep","PRACTICE","0"
"html-keyboard-response","13","103822","0.0-5.0-5.1","6282571cf39cd89341a474e9","bdp_wmem","Wed Jul 27 2022 12:40:28 GMT-0500 (Central Daylight Time)","574946","Match,No Match","","","","","","","null","","<div class='trialBorder'><div class='vertical-center'><img src='img/error.jpg'></div><div class='respDiv'><div class='respDivL'>Match<br>(e)</div><div class='respDivR'><font style='color:orange'>No Match<br>(i)</font></div></div></div>","null","FEEDBACK","","","","","","","","","","",""
"html-keyboard-response","14","104366","0.0-5.0-1.2","6282571cf39cd89341a474e9","bdp_wmem","Wed Jul 27 2022 12:40:28 GMT-0500 (Central Daylight Time)","574946","Match,No Match","","","","","","","null","","<div class='trialBorder'><div class='vertical-center'><img src='img/fixation2_sml.jpg'</img></div></div>","null","FIX","","","","","","","","","","",""
"html-keyboard-response","15","107370","0.0-5.0-2.2","6282571cf39cd89341a474e9","bdp_wmem","Wed Jul 27 2022 12:40:28 GMT-0500 (Central Daylight Time)","574946","Match,No Match","","","","","","","null","","<div class='trialBorder'><div class='vertical-center'><img style='vertical-align:center; align:center' src='img/fixation2_sml.jpg'></div><div class='arrayDiv2'><div class='tl'><img class='introPic' src='trustrating_stim/white_mw091.bmp'><br><font color='red'><strong>Keep</strong></font></div><div class='tr'><img class='introPic' src='trustrating_stim/white_mw078.bmp'><br><font color='green'><strong>Share</strong></font></div></div></div>","null","ARRAY","2","trustrating_stim/white_mw091.bmp,trustrating_stim/white_mw078.bmp","0,1","noMatchFace","i","3000","","","","",""
"html-keyboard-response","16","111373","0.0-5.0-3.2","6282571cf39cd89341a474e9","bdp_wmem","Wed Jul 27 2022 12:40:28 GMT-0500 (Central Daylight Time)","574946","Match,No Match","","","","","","","null","","<div class='trialBorder'><div class='vertical-center'><img src='img/fixation2_sml.jpg'</img></div></div>","null","DELAY","","","","","","","","","","",""
"html-keyboard-response","17","112347","0.0-5.0-4.2","6282571cf39cd89341a474e9","bdp_wmem","Wed Jul 27 2022 12:40:28 GMT-0500 (Central Daylight Time)","574946","Match,No Match","","","","","","","969","","<div class='trialBorder'><div class='targDiv'><div class='tc'><img class='introPic' src='trustrating_stim/white_mw042.bmp'><br><font color='red'><strong>Keep</strong></font></div></div><div class='respDiv'><div class='respDivL'>Match<br>(e)</div><div class='respDivR'>No Match<br>(i)</div></div></div>","i","TARGET","2","trustrating_stim/white_mw091.bmp,trustrating_stim/white_mw078.bmp","0,1","noMatchFace","i","3000","trustrating_stim/white_mw042.bmp","red","Keep","PRACTICE","1"
"html-keyboard-response","18","112850","0.0-5.0-5.2","6282571cf39cd89341a474e9","bdp_wmem","Wed Jul 27 2022 12:40:28 GMT-0500 (Central Daylight Time)","574946","Match,No Match","","","","","","","null","","<div class='trialBorder'><div class='vertical-center'><img src='img/correct.jpg'></div><div class='respDiv'><div class='respDivL'>Match<br>(e)</div><div class='respDivR'><font style='color:orange'>No Match<br>(i)</font></div></div></div>","null","FEEDBACK","","","","","","","","","","",""
"html-keyboard-response","19","113353","0.0-5.0-1.3","6282571cf39cd89341a474e9","bdp_wmem","Wed Jul 27 2022 12:40:28 GMT-0500 (Central Daylight Time)","574946","Match,No Match","","","","","","","null","","<div class='trialBorder'><div class='vertical-center'><img src='img/fixation2_sml.jpg'</img></div></div>","null","FIX","","","","","","","","","","",""
"html-keyboard-response","20","117860","0.0-5.0-2.3","6282571cf39cd89341a474e9","bdp_wmem","Wed Jul 27 2022 12:40:28 GMT-0500 (Central Daylight Time)","574946","Match,No Match","","","","","","","null","","<div class='trialBorder'><div class='vertical-center'><img style='vertical-align:center; align:center' src='img/fixation2_sml.jpg'></div><div class='arrayDiv3'><div class='tl'><img class='introPic' src='trustrating_stim/white_mw012.bmp'><br><font color='red'><strong>Keep</strong></font></div><div class='tc'><img class='introPic' src='trustrating_stim/white_mw038.bmp'><br><font color='red'><strong>Keep</strong></font></div><div class='tr'><img class='introPic' src='trustrating_stim/white_mw010.bmp'><br><font color='green'><strong>Share</strong></font></div></div></div>","null","ARRAY","3","trustrating_stim/white_mw012.bmp,trustrating_stim/white_mw038.bmp,trustrating_stim/white_mw010.bmp","0,0,1","noMatchOutcome","i","4500","","","","",""
"html-keyboard-response","21","121862","0.0-5.0-3.3","6282571cf39cd89341a474e9","bdp_wmem","Wed Jul 27 2022 12:40:28 GMT-0500 (Central Daylight Time)","574946","Match,No Match","","","","","","","null","","<div class='trialBorder'><div class='vertical-center'><img src='img/fixation2_sml.jpg'</img></div></div>","null","DELAY","","","","","","","","","","",""
"html-keyboard-response","22","122912","0.0-5.0-4.3","6282571cf39cd89341a474e9","bdp_wmem","Wed Jul 27 2022 12:40:28 GMT-0500 (Central Daylight Time)","574946","Match,No Match","","","","","","","1045","","<div class='trialBorder'><div class='targDiv'><div class='tc'><img class='introPic' src='trustrating_stim/white_mw012.bmp'><br><font color='green'><strong>Share</strong></font></div></div><div class='respDiv'><div class='respDivL'>Match<br>(e)</div><div class='respDivR'>No Match<br>(i)</div></div></div>","e","TARGET","3","trustrating_stim/white_mw012.bmp,trustrating_stim/white_mw038.bmp,trustrating_stim/white_mw010.bmp","0,0,1","noMatchOutcome","i","4500","trustrating_stim/white_mw012.bmp","green","Share","PRACTICE","0"
"html-keyboard-response","23","123415","0.0-5.0-5.3","6282571cf39cd89341a474e9","bdp_wmem","Wed Jul 27 2022 12:40:28 GMT-0500 (Central Daylight Time)","574946","Match,No Match","","","","","","","null","","<div class='trialBorder'><div class='vertical-center'><img src='img/error.jpg'></div><div class='respDiv'><div class='respDivL'><font style='color:orange'>Match<br>(e)</font></div><div class='respDivR'>No Match<br>(i)</div></div></div>","null","FEEDBACK","","","","","","","","","","",""
"html-keyboard-response","24","123920","0.0-5.0-1.4","6282571cf39cd89341a474e9","bdp_wmem","Wed Jul 27 2022 12:40:28 GMT-0500 (Central Daylight Time)","574946","Match,No Match","","","","","","","null","","<div class='trialBorder'><div class='vertical-center'><img src='img/fixation2_sml.jpg'</img></div></div>","null","FIX","","","","","","","","","","",""
"html-keyboard-response","25","128427","0.0-5.0-2.4","6282571cf39cd89341a474e9","bdp_wmem","Wed Jul 27 2022 12:40:28 GMT-0500 (Central Daylight Time)","574946","Match,No Match","","","","","","","null","","<div class='trialBorder'><div class='vertical-center'><img style='vertical-align:center; align:center' src='img/fixation2_sml.jpg'></div><div class='arrayDiv3'><div class='tl'><img class='introPic' src='trustrating_stim/white_mw092.bmp'><br><font color='green'><strong>Share</strong></font></div><div class='tc'><img class='introPic' src='trustrating_stim/white_mw070.bmp'><br><font color='red'><strong>Keep</strong></font></div><div class='tr'><img class='introPic' src='trustrating_stim/white_mw013.bmp'><br><font color='red'><strong>Keep</strong></font></div></div></div>","null","ARRAY","3","trustrating_stim/white_mw092.bmp,trustrating_stim/white_mw070.bmp,trustrating_stim/white_mw013.bmp","1,0,0","Match","e","4500","","","","",""
"html-keyboard-response","26","132430","0.0-5.0-3.4","6282571cf39cd89341a474e9","bdp_wmem","Wed Jul 27 2022 12:40:28 GMT-0500 (Central Daylight Time)","574946","Match,No Match","","","","","","","null","","<div class='trialBorder'><div class='vertical-center'><img src='img/fixation2_sml.jpg'</img></div></div>","null","DELAY","","","","","","","","","","",""
"html-keyboard-response","27","133291","0.0-5.0-4.4","6282571cf39cd89341a474e9","bdp_wmem","Wed Jul 27 2022 12:40:28 GMT-0500 (Central Daylight Time)","574946","Match,No Match","","","","","","","855","","<div class='trialBorder'><div class='targDiv'><div class='tc'><img class='introPic' src='trustrating_stim/white_mw070.bmp'><br><font color='red'><strong>Keep</strong></font></div></div><div class='respDiv'><div class='respDivL'>Match<br>(e)</div><div class='respDivR'>No Match<br>(i)</div></div></div>","i","TARGET","3","trustrating_stim/white_mw092.bmp,trustrating_stim/white_mw070.bmp,trustrating_stim/white_mw013.bmp","1,0,0","Match","e","4500","trustrating_stim/white_mw070.bmp","red","Keep","PRACTICE","0"
"html-keyboard-response","28","133795","0.0-5.0-5.4","6282571cf39cd89341a474e9","bdp_wmem","Wed Jul 27 2022 12:40:28 GMT-0500 (Central Daylight Time)","574946","Match,No Match","","","","","","","null","","<div class='trialBorder'><div class='vertical-center'><img src='img/error.jpg'></div><div class='respDiv'><div class='respDivL'>Match<br>(e)</div><div class='respDivR'><font style='color:orange'>No Match<br>(i)</font></div></div></div>","null","FEEDBACK","","","","","","","","","","",""
"html-keyboard-response","29","134297","0.0-5.0-1.5","6282571cf39cd89341a474e9","bdp_wmem","Wed Jul 27 2022 12:40:28 GMT-0500 (Central Daylight Time)","574946","Match,No Match","","","","","","","null","","<div class='trialBorder'><div class='vertical-center'><img src='img/fixation2_sml.jpg'</img></div></div>","null","FIX","","","","","","","","","","",""
"html-keyboard-response","30","135804","0.0-5.0-2.5","6282571cf39cd89341a474e9","bdp_wmem","Wed Jul 27 2022 12:40:28 GMT-0500 (Central Daylight Time)","574946","Match,No Match","","","","","","","null","","<div class='trialBorder'><div class='vertical-center'><img style='vertical-align:center; align:center' src='img/fixation2_sml.jpg'></div><div class='arrayDiv1'><div class='tc'><img class='introPic' src='trustrating_stim/white_mw085.bmp'><br><font color='red'><strong>Keep</strong></font></div></div></div>","null","ARRAY","1","trustrating_stim/white_mw085.bmp","0","noMatchFace","i","1500","","","","",""
"html-keyboard-response","31","139807","0.0-5.0-3.5","6282571cf39cd89341a474e9","bdp_wmem","Wed Jul 27 2022 12:40:28 GMT-0500 (Central Daylight Time)","574946","Match,No Match","","","","","","","null","","<div class='trialBorder'><div class='vertical-center'><img src='img/fixation2_sml.jpg'</img></div></div>","null","DELAY","","","","","","","","","","",""
"html-keyboard-response","32","140943","0.0-5.0-4.5","6282571cf39cd89341a474e9","bdp_wmem","Wed Jul 27 2022 12:40:28 GMT-0500 (Central Daylight Time)","574946","Match,No Match","","","","","","","1131","","<div class='trialBorder'><div class='targDiv'><div class='tc'><img class='introPic' src='trustrating_stim/white_mw070.bmp'><br><font color='red'><strong>Keep</strong></font></div></div><div class='respDiv'><div class='respDivL'>Match<br>(e)</div><div class='respDivR'>No Match<br>(i)</div></div></div>","e","TARGET","1","trustrating_stim/white_mw085.bmp","0","noMatchFace","i","1500","trustrating_stim/white_mw070.bmp","red","Keep","PRACTICE","0"
"html-keyboard-response","33","141446","0.0-5.0-5.5","6282571cf39cd89341a474e9","bdp_wmem","Wed Jul 27 2022 12:40:28 GMT-0500 (Central Daylight Time)","574946","Match,No Match","","","","","","","null","","<div class='trialBorder'><div class='vertical-center'><img src='img/error.jpg'></div><div class='respDiv'><div class='respDivL'><font style='color:orange'>Match<br>(e)</font></div><div class='respDivR'>No Match<br>(i)</div></div></div>","null","FEEDBACK","","","","","","","","","","",""
"instructions","34","149831","0.0-6.0","6282571cf39cd89341a474e9","bdp_wmem","Wed Jul 27 2022 12:40:28 GMT-0500 (Central Daylight Time)","574946","Match,No Match","","","","","","[{""page_index"":0,""viewing_time"":8383}]","8383","","","","","","","","","","","","","","",""
"html-keyboard-response","35","150334","0.0-7.0-1.0","6282571cf39cd89341a474e9","bdp_wmem","Wed Jul 27 2022 12:40:28 GMT-0500 (Central Daylight Time)","574946","Match,No Match","","","","","","","null","","<div class='trialBorder'><div class='vertical-center'><img src='img/fixation2_sml.jpg'</img></div></div>","null","FIX","","","","","","","","","","",""
"html-keyboard-response","36","153340","0.0-7.0-2.0","6282571cf39cd89341a474e9","bdp_wmem","Wed Jul 27 2022 12:40:28 GMT-0500 (Central Daylight Time)","574946","Match,No Match","","","","","","","null","","<div class='trialBorder'><div class='vertical-center'><img style='vertical-align:center; align:center' src='img/fixation2_sml.jpg'></div><div class='arrayDiv2'><div class='tl'><img class='introPic' src='trustrating_stim/white_mw085.bmp'><br><font color='red'><strong>Keep</strong></font></div><div class='tr'><img class='introPic' src='trustrating_stim/white_mw070.bmp'><br><font color='green'><strong>Share</strong></font></div></div></div>","null","ARRAY","2","trustrating_stim/white_mw085.bmp,trustrating_stim/white_mw070.bmp","0,1","noMatchOutcome","i","3000","","","","",""
"html-keyboard-response","37","157345","0.0-7.0-3.0","6282571cf39cd89341a474e9","bdp_wmem","Wed Jul 27 2022 12:40:28 GMT-0500 (Central Daylight Time)","574946","Match,No Match","","","","","","","null","","<div class='trialBorder'><div class='vertical-center'><img src='img/fixation2_sml.jpg'</img></div></div>","null","DELAY","","","","","","","","","","",""
"html-keyboard-response","38","158720","0.0-7.0-4.0","6282571cf39cd89341a474e9","bdp_wmem","Wed Jul 27 2022 12:40:28 GMT-0500 (Central Daylight Time)","574946","Match,No Match","","","","","","","1370","","<div class='trialBorder'><div class='targDiv'><div class='tc'><img class='introPic' src='trustrating_stim/white_mw070.bmp'><br><font color='red'><strong>Keep</strong></font></div></div><div class='respDiv'><div class='respDivL'>Match<br>(e)</div><div class='respDivR'>No Match<br>(i)</div></div></div>","e","TARGET","2","trustrating_stim/white_mw085.bmp,trustrating_stim/white_mw070.bmp","0,1","noMatchOutcome","i","3000","trustrating_stim/white_mw070.bmp","red","Keep","REAL","0"
"html-keyboard-response","39","159232","0.0-7.0-5.0","6282571cf39cd89341a474e9","bdp_wmem","Wed Jul 27 2022 12:40:28 GMT-0500 (Central Daylight Time)","574946","Match,No Match","","","","","","","null","","<div class='trialBorder'><div class='vertical-center'><img src='img/error.jpg'></div><div class='respDiv'><div class='respDivL'><font style='color:orange'>Match<br>(e)</font></div><div class='respDivR'>No Match<br>(i)</div></div></div>","null","FEEDBACK","","","","","","","","","","",""
"html-keyboard-response","40","159736","0.0-7.0-1.1","6282571cf39cd89341a474e9","bdp_wmem","Wed Jul 27 2022 12:40:28 GMT-0500 (Central Daylight Time)","574946","Match,No Match","","","","","","","null","","<div class='trialBorder'><div class='vertical-center'><img src='img/fixation2_sml.jpg'</img></div></div>","null","FIX","","","","","","","","","","",""
"html-keyboard-response","41","164247","0.0-7.0-2.1","6282571cf39cd89341a474e9","bdp_wmem","Wed Jul 27 2022 12:40:28 GMT-0500 (Central Daylight Time)","574946","Match,No Match","","","","","","","null","","<div class='trialBorder'><div class='vertical-center'><img style='vertical-align:center; align:center' src='img/fixation2_sml.jpg'></div><div class='arrayDiv3'><div class='tl'><img class='introPic' src='trustrating_stim/white_mw092.bmp'><br><font color='red'><strong>Keep</strong></font></div><div class='tc'><img class='introPic' src='trustrating_stim/white_mw085.bmp'><br><font color='green'><strong>Share</strong></font></div><div class='tr'><img class='introPic' src='trustrating_stim/white_mw012.bmp'><br><font color='green'><strong>Share</strong></font></div></div></div>","null","ARRAY","3","trustrating_stim/white_mw092.bmp,trustrating_stim/white_mw085.bmp,trustrating_stim/white_mw012.bmp","0,1,1","noMatchOutcome","i","4500","","","","",""
"html-keyboard-response","42","168250","0.0-7.0-3.1","6282571cf39cd89341a474e9","bdp_wmem","Wed Jul 27 2022 12:40:28 GMT-0500 (Central Daylight Time)","574946","Match,No Match","","","","","","","null","","<div class='trialBorder'><div class='vertical-center'><img src='img/fixation2_sml.jpg'</img></div></div>","null","DELAY","","","","","","","","","","",""
"html-keyboard-response","43","169708","0.0-7.0-4.1","6282571cf39cd89341a474e9","bdp_wmem","Wed Jul 27 2022 12:40:28 GMT-0500 (Central Daylight Time)","574946","Match,No Match","","","","","","","1454","","<div class='trialBorder'><div class='targDiv'><div class='tc'><img class='introPic' src='trustrating_stim/white_mw012.bmp'><br><font color='red'><strong>Keep</strong></font></div></div><div class='respDiv'><div class='respDivL'>Match<br>(e)</div><div class='respDivR'>No Match<br>(i)</div></div></div>","i","TARGET","3","trustrating_stim/white_mw092.bmp,trustrating_stim/white_mw085.bmp,trustrating_stim/white_mw012.bmp","0,1,1","noMatchOutcome","i","4500","trustrating_stim/white_mw012.bmp","red","Keep","REAL","1"
"html-keyboard-response","44","170212","0.0-7.0-5.1","6282571cf39cd89341a474e9","bdp_wmem","Wed Jul 27 2022 12:40:28 GMT-0500 (Central Daylight Time)","574946","Match,No Match","","","","","","","null","","<div class='trialBorder'><div class='vertical-center'><img src='img/correct.jpg'></div><div class='respDiv'><div class='respDivL'>Match<br>(e)</div><div class='respDivR'><font style='color:orange'>No Match<br>(i)</font></div></div></div>","null","FEEDBACK","","","","","","","","","","",""
"html-keyboard-response","45","170715","0.0-7.0-1.2","6282571cf39cd89341a474e9","bdp_wmem","Wed Jul 27 2022 12:40:28 GMT-0500 (Central Daylight Time)","574946","Match,No Match","","","","","","","null","","<div class='trialBorder'><div class='vertical-center'><img src='img/fixation2_sml.jpg'</img></div></div>","null","FIX","","","","","","","","","","",""
"html-keyboard-response","46","173722","0.0-7.0-2.2","6282571cf39cd89341a474e9","bdp_wmem","Wed Jul 27 2022 12:40:28 GMT-0500 (Central Daylight Time)","574946","Match,No Match","","","","","","","null","","<div class='trialBorder'><div class='vertical-center'><img style='vertical-align:center; align:center' src='img/fixation2_sml.jpg'></div><div class='arrayDiv2'><div class='tl'><img class='introPic' src='trustrating_stim/white_mw038.bmp'><br><font color='green'><strong>Share</strong></font></div><div class='tr'><img class='introPic' src='trustrating_stim/white_mw078.bmp'><br><font color='red'><strong>Keep</strong></font></div></div></div>","null","ARRAY","2","trustrating_stim/white_mw038.bmp,trustrating_stim/white_mw078.bmp","1,0","noMatchOutcome","i","3000","","","","",""
"html-keyboard-response","47","177726","0.0-7.0-3.2","6282571cf39cd89341a474e9","bdp_wmem","Wed Jul 27 2022 12:40:28 GMT-0500 (Central Daylight Time)","574946","Match,No Match","","","","","","","null","","<div class='trialBorder'><div class='vertical-center'><img src='img/fixation2_sml.jpg'</img></div></div>","null","DELAY","","","","","","","","","","",""
"html-keyboard-response","48","178468","0.0-7.0-4.2","6282571cf39cd89341a474e9","bdp_wmem","Wed Jul 27 2022 12:40:28 GMT-0500 (Central Daylight Time)","574946","Match,No Match","","","","","","","741","","<div class='trialBorder'><div class='targDiv'><div class='tc'><img class='introPic' src='trustrating_stim/white_mw038.bmp'><br><font color='red'><strong>Keep</strong></font></div></div><div class='respDiv'><div class='respDivL'>Match<br>(e)</div><div class='respDivR'>No Match<br>(i)</div></div></div>","e","TARGET","2","trustrating_stim/white_mw038.bmp,trustrating_stim/white_mw078.bmp","1,0","noMatchOutcome","i","3000","trustrating_stim/white_mw038.bmp","red","Keep","REAL","0"
"html-keyboard-response","49","178971","0.0-7.0-5.2","6282571cf39cd89341a474e9","bdp_wmem","Wed Jul 27 2022 12:40:28 GMT-0500 (Central Daylight Time)","574946","Match,No Match","","","","","","","null","","<div class='trialBorder'><div class='vertical-center'><img src='img/error.jpg'></div><div class='respDiv'><div class='respDivL'><font style='color:orange'>Match<br>(e)</font></div><div class='respDivR'>No Match<br>(i)</div></div></div>","null","FEEDBACK","","","","","","","","","","",""
"html-keyboard-response","50","179473","0.0-7.0-1.3","6282571cf39cd89341a474e9","bdp_wmem","Wed Jul 27 2022 12:40:28 GMT-0500 (Central Daylight Time)","574946","Match,No Match","","","","","","","null","","<div class='trialBorder'><div class='vertical-center'><img src='img/fixation2_sml.jpg'</img></div></div>","null","FIX","","","","","","","","","","",""
"html-keyboard-response","51","183976","0.0-7.0-2.3","6282571cf39cd89341a474e9","bdp_wmem","Wed Jul 27 2022 12:40:28 GMT-0500 (Central Daylight Time)","574946","Match,No Match","","","","","","","null","","<div class='trialBorder'><div class='vertical-center'><img style='vertical-align:center; align:center' src='img/fixation2_sml.jpg'></div><div class='arrayDiv3'><div class='tl'><img class='introPic' src='trustrating_stim/white_mw042.bmp'><br><font color='green'><strong>Share</strong></font></div><div class='tc'><img class='introPic' src='trustrating_stim/white_mw003.bmp'><br><font color='red'><strong>Keep</strong></font></div><div class='tr'><img class='introPic' src='trustrating_stim/white_mw091.bmp'><br><font color='green'><strong>Share</strong></font></div></div></div>","null","ARRAY","3","trustrating_stim/white_mw042.bmp,trustrating_stim/white_mw003.bmp,trustrating_stim/white_mw091.bmp","1,0,1","Match","e","4500","","","","",""
"html-keyboard-response","52","187979","0.0-7.0-3.3","6282571cf39cd89341a474e9","bdp_wmem","Wed Jul 27 2022 12:40:28 GMT-0500 (Central Daylight Time)","574946","Match,No Match","","","","","","","null","","<div class='trialBorder'><div class='vertical-center'><img src='img/fixation2_sml.jpg'</img></div></div>","null","DELAY","","","","","","","","","","",""
"html-keyboard-response","53","188334","0.0-7.0-4.3","6282571cf39cd89341a474e9","bdp_wmem","Wed Jul 27 2022 12:40:28 GMT-0500 (Central Daylight Time)","574946","Match,No Match","","","","","","","348","","<div class='trialBorder'><div class='targDiv'><div class='tc'><img class='introPic' src='trustrating_stim/white_mw042.bmp'><br><font color='green'><strong>Share</strong></font></div></div><div class='respDiv'><div class='respDivL'>Match<br>(e)</div><div class='respDivR'>No Match<br>(i)</div></div></div>","i","TARGET","3","trustrating_stim/white_mw042.bmp,trustrating_stim/white_mw003.bmp,trustrating_stim/white_mw091.bmp","1,0,1","Match","e","4500","trustrating_stim/white_mw042.bmp","green","Share","REAL","0"
"html-keyboard-response","54","188837","0.0-7.0-5.3","6282571cf39cd89341a474e9","bdp_wmem","Wed Jul 27 2022 12:40:28 GMT-0500 (Central Daylight Time)","574946","Match,No Match","","","","","","","null","","<div class='trialBorder'><div class='vertical-center'><img src='img/error.jpg'></div><div class='respDiv'><div class='respDivL'>Match<br>(e)</div><div class='respDivR'><font style='color:orange'>No Match<br>(i)</font></div></div></div>","null","FEEDBACK","","","","","","","","","","",""
"html-keyboard-response","55","189341","0.0-7.0-1.4","6282571cf39cd89341a474e9","bdp_wmem","Wed Jul 27 2022 12:40:28 GMT-0500 (Central Daylight Time)","574946","Match,No Match","","","","","","","null","","<div class='trialBorder'><div class='vertical-center'><img src='img/fixation2_sml.jpg'</img></div></div>","null","FIX","","","","","","","","","","",""
"html-keyboard-response","56","193849","0.0-7.0-2.4","6282571cf39cd89341a474e9","bdp_wmem","Wed Jul 27 2022 12:40:28 GMT-0500 (Central Daylight Time)","574946","Match,No Match","","","","","","","null","","<div class='trialBorder'><div class='vertical-center'><img style='vertical-align:center; align:center' src='img/fixation2_sml.jpg'></div><div class='arrayDiv3'><div class='tl'><img class='introPic' src='trustrating_stim/white_mw042.bmp'><br><font color='green'><strong>Share</strong></font></div><div class='tc'><img class='introPic' src='trustrating_stim/white_mw038.bmp'><br><font color='red'><strong>Keep</strong></font></div><div class='tr'><img class='introPic' src='trustrating_stim/white_mw085.bmp'><br><font color='green'><strong>Share</strong></font></div></div></div>","null","ARRAY","3","trustrating_stim/white_mw042.bmp,trustrating_stim/white_mw038.bmp,trustrating_stim/white_mw085.bmp","1,0,1","noMatchFace","i","4500","","","","",""
"html-keyboard-response","57","197852","0.0-7.0-3.4","6282571cf39cd89341a474e9","bdp_wmem","Wed Jul 27 2022 12:40:28 GMT-0500 (Central Daylight Time)","574946","Match,No Match","","","","","","","null","","<div class='trialBorder'><div class='vertical-center'><img src='img/fixation2_sml.jpg'</img></div></div>","null","DELAY","","","","","","","","","","",""
"html-keyboard-response","58","198969","0.0-7.0-4.4","6282571cf39cd89341a474e9","bdp_wmem","Wed Jul 27 2022 12:40:28 GMT-0500 (Central Daylight Time)","574946","Match,No Match","","","","","","","1112","","<div class='trialBorder'><div class='targDiv'><div class='tc'><img class='introPic' src='trustrating_stim/white_mw040.bmp'><br><font color='red'><strong>Keep</strong></font></div></div><div class='respDiv'><div class='respDivL'>Match<br>(e)</div><div class='respDivR'>No Match<br>(i)</div></div></div>","e","TARGET","3","trustrating_stim/white_mw042.bmp,trustrating_stim/white_mw038.bmp,trustrating_stim/white_mw085.bmp","1,0,1","noMatchFace","i","4500","trustrating_stim/white_mw040.bmp","red","Keep","REAL","0"
"html-keyboard-response","59","199473","0.0-7.0-5.4","6282571cf39cd89341a474e9","bdp_wmem","Wed Jul 27 2022 12:40:28 GMT-0500 (Central Daylight Time)","574946","Match,No Match","","","","","","","null","","<div class='trialBorder'><div class='vertical-center'><img src='img/error.jpg'></div><div class='respDiv'><div class='respDivL'><font style='color:orange'>Match<br>(e)</font></div><div class='respDivR'>No Match<br>(i)</div></div></div>","null","FEEDBACK","","","","","","","","","","",""
"html-keyboard-response","60","199977","0.0-7.0-1.5","6282571cf39cd89341a474e9","bdp_wmem","Wed Jul 27 2022 12:40:28 GMT-0500 (Central Daylight Time)","574946","Match,No Match","","","","","","","null","","<div class='trialBorder'><div class='vertical-center'><img src='img/fixation2_sml.jpg'</img></div></div>","null","FIX","","","","","","","","","","",""
"html-keyboard-response","61","201482","0.0-7.0-2.5","6282571cf39cd89341a474e9","bdp_wmem","Wed Jul 27 2022 12:40:28 GMT-0500 (Central Daylight Time)","574946","Match,No Match","","","","","","","null","","<div class='trialBorder'><div class='vertical-center'><img style='vertical-align:center; align:center' src='img/fixation2_sml.jpg'></div><div class='arrayDiv1'><div class='tc'><img class='introPic' src='trustrating_stim/white_mw003.bmp'><br><font color='green'><strong>Share</strong></font></div></div></div>","null","ARRAY","1","trustrating_stim/white_mw003.bmp","1","Match","e","1500","","","","",""
"html-keyboard-response","62","205485","0.0-7.0-3.5","6282571cf39cd89341a474e9","bdp_wmem","Wed Jul 27 2022 12:40:28 GMT-0500 (Central Daylight Time)","574946","Match,No Match","","","","","","","null","","<div class='trialBorder'><div class='vertical-center'><img src='img/fixation2_sml.jpg'</img></div></div>","null","DELAY","","","","","","","","","","",""
"html-keyboard-response","63","206285","0.0-7.0-4.5","6282571cf39cd89341a474e9","bdp_wmem","Wed Jul 27 2022 12:40:28 GMT-0500 (Central Daylight Time)","574946","Match,No Match","","","","","","","796","","<div class='trialBorder'><div class='targDiv'><div class='tc'><img class='introPic' src='trustrating_stim/white_mw003.bmp'><br><font color='green'><strong>Share</strong></font></div></div><div class='respDiv'><div class='respDivL'>Match<br>(e)</div><div class='respDivR'>No Match<br>(i)</div></div></div>","e","TARGET","1","trustrating_stim/white_mw003.bmp","1","Match","e","1500","trustrating_stim/white_mw003.bmp","green","Share","REAL","1"
"html-keyboard-response","64","206790","0.0-7.0-5.5","6282571cf39cd89341a474e9","bdp_wmem","Wed Jul 27 2022 12:40:28 GMT-0500 (Central Daylight Time)","574946","Match,No Match","","","","","","","null","","<div class='trialBorder'><div class='vertical-center'><img src='img/correct.jpg'></div><div class='respDiv'><div class='respDivL'><font style='color:orange'>Match<br>(e)</font></div><div class='respDivR'>No Match<br>(i)</div></div></div>","null","FEEDBACK","","","","","","","","","","",""
"html-keyboard-response","65","207294","0.0-7.0-1.6","6282571cf39cd89341a474e9","bdp_wmem","Wed Jul 27 2022 12:40:28 GMT-0500 (Central Daylight Time)","574946","Match,No Match","","","","","","","null","","<div class='trialBorder'><div class='vertical-center'><img src='img/fixation2_sml.jpg'</img></div></div>","null","FIX","","","","","","","","","","",""
"html-keyboard-response","66","208799","0.0-7.0-2.6","6282571cf39cd89341a474e9","bdp_wmem","Wed Jul 27 2022 12:40:28 GMT-0500 (Central Daylight Time)","574946","Match,No Match","","","","","","","null","","<div class='trialBorder'><div class='vertical-center'><img style='vertical-align:center; align:center' src='img/fixation2_sml.jpg'></div><div class='arrayDiv1'><div class='tc'><img class='introPic' src='trustrating_stim/white_mw078.bmp'><br><font color='red'><strong>Keep</strong></font></div></div></div>","null","ARRAY","1","trustrating_stim/white_mw078.bmp","0","noMatchFace","i","1500","","","","",""
"html-keyboard-response","67","212803","0.0-7.0-3.6","6282571cf39cd89341a474e9","bdp_wmem","Wed Jul 27 2022 12:40:28 GMT-0500 (Central Daylight Time)","574946","Match,No Match","","","","","","","null","","<div class='trialBorder'><div class='vertical-center'><img src='img/fixation2_sml.jpg'</img></div></div>","null","DELAY","","","","","","","","","","",""
"html-keyboard-response","68","213540","0.0-7.0-4.6","6282571cf39cd89341a474e9","bdp_wmem","Wed Jul 27 2022 12:40:28 GMT-0500 (Central Daylight Time)","574946","Match,No Match","","","","","","","733","","<div class='trialBorder'><div class='targDiv'><div class='tc'><img class='introPic' src='trustrating_stim/white_mw010.bmp'><br><font color='red'><strong>Keep</strong></font></div></div><div class='respDiv'><div class='respDivL'>Match<br>(e)</div><div class='respDivR'>No Match<br>(i)</div></div></div>","i","TARGET","1","trustrating_stim/white_mw078.bmp","0","noMatchFace","i","1500","trustrating_stim/white_mw010.bmp","red","Keep","REAL","1"
"html-keyboard-response","69","214043","0.0-7.0-5.6","6282571cf39cd89341a474e9","bdp_wmem","Wed Jul 27 2022 12:40:28 GMT-0500 (Central Daylight Time)","574946","Match,No Match","","","","","","","null","","<div class='trialBorder'><div class='vertical-center'><img src='img/correct.jpg'></div><div class='respDiv'><div class='respDivL'>Match<br>(e)</div><div class='respDivR'><font style='color:orange'>No Match<br>(i)</font></div></div></div>","null","FEEDBACK","","","","","","","","","","",""
"html-keyboard-response","70","214547","0.0-7.0-1.7","6282571cf39cd89341a474e9","bdp_wmem","Wed Jul 27 2022 12:40:28 GMT-0500 (Central Daylight Time)","574946","Match,No Match","","","","","","","null","","<div class='trialBorder'><div class='vertical-center'><img src='img/fixation2_sml.jpg'</img></div></div>","null","FIX","","","","","","","","","","",""
"html-keyboard-response","71","219054","0.0-7.0-2.7","6282571cf39cd89341a474e9","bdp_wmem","Wed Jul 27 2022 12:40:28 GMT-0500 (Central Daylight Time)","574946","Match,No Match","","","","","","","null","","<div class='trialBorder'><div class='vertical-center'><img style='vertical-align:center; align:center' src='img/fixation2_sml.jpg'></div><div class='arrayDiv3'><div class='tl'><img class='introPic' src='trustrating_stim/white_mw092.bmp'><br><font color='green'><strong>Share</strong></font></div><div class='tc'><img class='introPic' src='trustrating_stim/white_mw040.bmp'><br><font color='red'><strong>Keep</strong></font></div><div class='tr'><img class='introPic' src='trustrating_stim/white_mw012.bmp'><br><font color='green'><strong>Share</strong></font></div></div></div>","null","ARRAY","3","trustrating_stim/white_mw092.bmp,trustrating_stim/white_mw040.bmp,trustrating_stim/white_mw012.bmp","1,0,1","Match","e","4500","","","","",""
"html-keyboard-response","72","223058","0.0-7.0-3.7","6282571cf39cd89341a474e9","bdp_wmem","Wed Jul 27 2022 12:40:28 GMT-0500 (Central Daylight Time)","574946","Match,No Match","","","","","","","null","","<div class='trialBorder'><div class='vertical-center'><img src='img/fixation2_sml.jpg'</img></div></div>","null","DELAY","","","","","","","","","","",""
"html-keyboard-response","73","223773","0.0-7.0-4.7","6282571cf39cd89341a474e9","bdp_wmem","Wed Jul 27 2022 12:40:28 GMT-0500 (Central Daylight Time)","574946","Match,No Match","","","","","","","709","","<div class='trialBorder'><div class='targDiv'><div class='tc'><img class='introPic' src='trustrating_stim/white_mw092.bmp'><br><font color='green'><strong>Share</strong></font></div></div><div class='respDiv'><div class='respDivL'>Match<br>(e)</div><div class='respDivR'>No Match<br>(i)</div></div></div>","e","TARGET","3","trustrating_stim/white_mw092.bmp,trustrating_stim/white_mw040.bmp,trustrating_stim/white_mw012.bmp","1,0,1","Match","e","4500","trustrating_stim/white_mw092.bmp","green","Share","REAL","1"
"html-keyboard-response","74","224276","0.0-7.0-5.7","6282571cf39cd89341a474e9","bdp_wmem","Wed Jul 27 2022 12:40:28 GMT-0500 (Central Daylight Time)","574946","Match,No Match","","","","","","","null","","<div class='trialBorder'><div class='vertical-center'><img src='img/correct.jpg'></div><div class='respDiv'><div class='respDivL'><font style='color:orange'>Match<br>(e)</font></div><div class='respDivR'>No Match<br>(i)</div></div></div>","null","FEEDBACK","","","","","","","","","","",""
"html-keyboard-response","75","224779","0.0-7.0-1.8","6282571cf39cd89341a474e9","bdp_wmem","Wed Jul 27 2022 12:40:28 GMT-0500 (Central Daylight Time)","574946","Match,No Match","","","","","","","null","","<div class='trialBorder'><div class='vertical-center'><img src='img/fixation2_sml.jpg'</img></div></div>","null","FIX","","","","","","","","","","",""
"html-keyboard-response","76","227782","0.0-7.0-2.8","6282571cf39cd89341a474e9","bdp_wmem","Wed Jul 27 2022 12:40:28 GMT-0500 (Central Daylight Time)","574946","Match,No Match","","","","","","","null","","<div class='trialBorder'><div class='vertical-center'><img style='vertical-align:center; align:center' src='img/fixation2_sml.jpg'></div><div class='arrayDiv2'><div class='tl'><img class='introPic' src='trustrating_stim/white_mw091.bmp'><br><font color='red'><strong>Keep</strong></font></div><div class='tr'><img class='introPic' src='trustrating_stim/white_mw012.bmp'><br><font color='green'><strong>Share</strong></font></div></div></div>","null","ARRAY","2","trustrating_stim/white_mw091.bmp,trustrating_stim/white_mw012.bmp","0,1","Match","e","3000","","","","",""
"html-keyboard-response","77","231784","0.0-7.0-3.8","6282571cf39cd89341a474e9","bdp_wmem","Wed Jul 27 2022 12:40:28 GMT-0500 (Central Daylight Time)","574946","Match,No Match","","","","","","","null","","<div class='trialBorder'><div class='vertical-center'><img src='img/fixation2_sml.jpg'</img></div></div>","null","DELAY","","","","","","","","","","",""
"html-keyboard-response","78","232542","0.0-7.0-4.8","6282571cf39cd89341a474e9","bdp_wmem","Wed Jul 27 2022 12:40:28 GMT-0500 (Central Daylight Time)","574946","Match,No Match","","","","","","","752","","<div class='trialBorder'><div class='targDiv'><div class='tc'><img class='introPic' src='trustrating_stim/white_mw012.bmp'><br><font color='green'><strong>Share</strong></font></div></div><div class='respDiv'><div class='respDivL'>Match<br>(e)</div><div class='respDivR'>No Match<br>(i)</div></div></div>","e","TARGET","2","trustrating_stim/white_mw091.bmp,trustrating_stim/white_mw012.bmp","0,1","Match","e","3000","trustrating_stim/white_mw012.bmp","green","Share","REAL","1"
"html-keyboard-response","79","233047","0.0-7.0-5.8","6282571cf39cd89341a474e9","bdp_wmem","Wed Jul 27 2022 12:40:28 GMT-0500 (Central Daylight Time)","574946","Match,No Match","","","","","","","null","","<div class='trialBorder'><div class='vertical-center'><img src='img/correct.jpg'></div><div class='respDiv'><div class='respDivL'><font style='color:orange'>Match<br>(e)</font></div><div class='respDivR'>No Match<br>(i)</div></div></div>","null","FEEDBACK","","","","","","","","","","",""
"html-keyboard-response","80","233550","0.0-7.0-1.9","6282571cf39cd89341a474e9","bdp_wmem","Wed Jul 27 2022 12:40:28 GMT-0500 (Central Daylight Time)","574946","Match,No Match","","","","","","","null","","<div class='trialBorder'><div class='vertical-center'><img src='img/fixation2_sml.jpg'</img></div></div>","null","FIX","","","","","","","","","","",""
"html-keyboard-response","81","236555","0.0-7.0-2.9","6282571cf39cd89341a474e9","bdp_wmem","Wed Jul 27 2022 12:40:28 GMT-0500 (Central Daylight Time)","574946","Match,No Match","","","","","","","null","","<div class='trialBorder'><div class='vertical-center'><img style='vertical-align:center; align:center' src='img/fixation2_sml.jpg'></div><div class='arrayDiv2'><div class='tl'><img class='introPic' src='trustrating_stim/white_mw085.bmp'><br><font color='red'><strong>Keep</strong></font></div><div class='tr'><img class='introPic' src='trustrating_stim/white_mw038.bmp'><br><font color='green'><strong>Share</strong></font></div></div></div>","null","ARRAY","2","trustrating_stim/white_mw085.bmp,trustrating_stim/white_mw038.bmp","0,1","noMatchFace","i","3000","","","","",""
"html-keyboard-response","82","240557","0.0-7.0-3.9","6282571cf39cd89341a474e9","bdp_wmem","Wed Jul 27 2022 12:40:28 GMT-0500 (Central Daylight Time)","574946","Match,No Match","","","","","","","null","","<div class='trialBorder'><div class='vertical-center'><img src='img/fixation2_sml.jpg'</img></div></div>","null","DELAY","","","","","","","","","","",""
"html-keyboard-response","83","241593","0.0-7.0-4.9","6282571cf39cd89341a474e9","bdp_wmem","Wed Jul 27 2022 12:40:28 GMT-0500 (Central Daylight Time)","574946","Match,No Match","","","","","","","1032","","<div class='trialBorder'><div class='targDiv'><div class='tc'><img class='introPic' src='trustrating_stim/white_mw040.bmp'><br><font color='green'><strong>Share</strong></font></div></div><div class='respDiv'><div class='respDivL'>Match<br>(e)</div><div class='respDivR'>No Match<br>(i)</div></div></div>","i","TARGET","2","trustrating_stim/white_mw085.bmp,trustrating_stim/white_mw038.bmp","0,1","noMatchFace","i","3000","trustrating_stim/white_mw040.bmp","green","Share","REAL","1"
"html-keyboard-response","84","242100","0.0-7.0-5.9","6282571cf39cd89341a474e9","bdp_wmem","Wed Jul 27 2022 12:40:28 GMT-0500 (Central Daylight Time)","574946","Match,No Match","","","","","","","null","","<div class='trialBorder'><div class='vertical-center'><img src='img/correct.jpg'></div><div class='respDiv'><div class='respDivL'>Match<br>(e)</div><div class='respDivR'><font style='color:orange'>No Match<br>(i)</font></div></div></div>","null","FEEDBACK","","","","","","","","","","",""
"html-keyboard-response","85","242603","0.0-7.0-1.10","6282571cf39cd89341a474e9","bdp_wmem","Wed Jul 27 2022 12:40:28 GMT-0500 (Central Daylight Time)","574946","Match,No Match","","","","","","","null","","<div class='trialBorder'><div class='vertical-center'><img src='img/fixation2_sml.jpg'</img></div></div>","null","FIX","","","","","","","","","","",""
"html-keyboard-response","86","244107","0.0-7.0-2.10","6282571cf39cd89341a474e9","bdp_wmem","Wed Jul 27 2022 12:40:28 GMT-0500 (Central Daylight Time)","574946","Match,No Match","","","","","","","null","","<div class='trialBorder'><div class='vertical-center'><img style='vertical-align:center; align:center' src='img/fixation2_sml.jpg'></div><div class='arrayDiv1'><div class='tc'><img class='introPic' src='trustrating_stim/white_mw091.bmp'><br><font color='green'><strong>Share</strong></font></div></div></div>","null","ARRAY","1","trustrating_stim/white_mw091.bmp","1","Match","e","1500","","","","",""
"html-keyboard-response","87","248110","0.0-7.0-3.10","6282571cf39cd89341a474e9","bdp_wmem","Wed Jul 27 2022 12:40:28 GMT-0500 (Central Daylight Time)","574946","Match,No Match","","","","","","","null","","<div class='trialBorder'><div class='vertical-center'><img src='img/fixation2_sml.jpg'</img></div></div>","null","DELAY","","","","","","","","","","",""
"html-keyboard-response","88","248803","0.0-7.0-4.10","6282571cf39cd89341a474e9","bdp_wmem","Wed Jul 27 2022 12:40:28 GMT-0500 (Central Daylight Time)","574946","Match,No Match","","","","","","","687","","<div class='trialBorder'><div class='targDiv'><div class='tc'><img class='introPic' src='trustrating_stim/white_mw091.bmp'><br><font color='green'><strong>Share</strong></font></div></div><div class='respDiv'><div class='respDivL'>Match<br>(e)</div><div class='respDivR'>No Match<br>(i)</div></div></div>","e","TARGET","1","trustrating_stim/white_mw091.bmp","1","Match","e","1500","trustrating_stim/white_mw091.bmp","green","Share","REAL","1"
"html-keyboard-response","89","249307","0.0-7.0-5.10","6282571cf39cd89341a474e9","bdp_wmem","Wed Jul 27 2022 12:40:28 GMT-0500 (Central Daylight Time)","574946","Match,No Match","","","","","","","null","","<div class='trialBorder'><div class='vertical-center'><img src='img/correct.jpg'></div><div class='respDiv'><div class='respDivL'><font style='color:orange'>Match<br>(e)</font></div><div class='respDivR'>No Match<br>(i)</div></div></div>","null","FEEDBACK","","","","","","","","","","",""
"html-keyboard-response","90","249811","0.0-7.0-1.11","6282571cf39cd89341a474e9","bdp_wmem","Wed Jul 27 2022 12:40:28 GMT-0500 (Central Daylight Time)","574946","Match,No Match","","","","","","","null","","<div class='trialBorder'><div class='vertical-center'><img src='img/fixation2_sml.jpg'</img></div></div>","null","FIX","","","","","","","","","","",""
"html-keyboard-response","91","251315","0.0-7.0-2.11","6282571cf39cd89341a474e9","bdp_wmem","Wed Jul 27 2022 12:40:28 GMT-0500 (Central Daylight Time)","574946","Match,No Match","","","","","","","null","","<div class='trialBorder'><div class='vertical-center'><img style='vertical-align:center; align:center' src='img/fixation2_sml.jpg'></div><div class='arrayDiv1'><div class='tc'><img class='introPic' src='trustrating_stim/white_mw070.bmp'><br><font color='green'><strong>Share</strong></font></div></div></div>","null","ARRAY","1","trustrating_stim/white_mw070.bmp","1","Match","e","1500","","","","",""
"html-keyboard-response","92","255318","0.0-7.0-3.11","6282571cf39cd89341a474e9","bdp_wmem","Wed Jul 27 2022 12:40:28 GMT-0500 (Central Daylight Time)","574946","Match,No Match","","","","","","","null","","<div class='trialBorder'><div class='vertical-center'><img src='img/fixation2_sml.jpg'</img></div></div>","null","DELAY","","","","","","","","","","",""
"html-keyboard-response","93","255902","0.0-7.0-4.11","6282571cf39cd89341a474e9","bdp_wmem","Wed Jul 27 2022 12:40:28 GMT-0500 (Central Daylight Time)","574946","Match,No Match","","","","","","","579","","<div class='trialBorder'><div class='targDiv'><div class='tc'><img class='introPic' src='trustrating_stim/white_mw070.bmp'><br><font color='green'><strong>Share</strong></font></div></div><div class='respDiv'><div class='respDivL'>Match<br>(e)</div><div class='respDivR'>No Match<br>(i)</div></div></div>","e","TARGET","1","trustrating_stim/white_mw070.bmp","1","Match","e","1500","trustrating_stim/white_mw070.bmp","green","Share","REAL","1"
"html-keyboard-response","94","256405","0.0-7.0-5.11","6282571cf39cd89341a474e9","bdp_wmem","Wed Jul 27 2022 12:40:28 GMT-0500 (Central Daylight Time)","574946","Match,No Match","","","","","","","null","","<div class='trialBorder'><div class='vertical-center'><img src='img/correct.jpg'></div><div class='respDiv'><div class='respDivL'><font style='color:orange'>Match<br>(e)</font></div><div class='respDivR'>No Match<br>(i)</div></div></div>","null","FEEDBACK","","","","","","","","","","",""
"html-keyboard-response","95","256908","0.0-7.0-1.12","6282571cf39cd89341a474e9","bdp_wmem","Wed Jul 27 2022 12:40:28 GMT-0500 (Central Daylight Time)","574946","Match,No Match","","","","","","","null","","<div class='trialBorder'><div class='vertical-center'><img src='img/fixation2_sml.jpg'</img></div></div>","null","FIX","","","","","","","","","","",""
"html-keyboard-response","96","258413","0.0-7.0-2.12","6282571cf39cd89341a474e9","bdp_wmem","Wed Jul 27 2022 12:40:28 GMT-0500 (Central Daylight Time)","574946","Match,No Match","","","","","","","null","","<div class='trialBorder'><div class='vertical-center'><img style='vertical-align:center; align:center' src='img/fixation2_sml.jpg'></div><div class='arrayDiv1'><div class='tc'><img class='introPic' src='trustrating_stim/white_mw010.bmp'><br><font color='red'><strong>Keep</strong></font></div></div></div>","null","ARRAY","1","trustrating_stim/white_mw010.bmp","0","Match","e","1500","","","","",""
"html-keyboard-response","97","262415","0.0-7.0-3.12","6282571cf39cd89341a474e9","bdp_wmem","Wed Jul 27 2022 12:40:28 GMT-0500 (Central Daylight Time)","574946","Match,No Match","","","","","","","null","","<div class='trialBorder'><div class='vertical-center'><img src='img/fixation2_sml.jpg'</img></div></div>","null","DELAY","","","","","","","","","","",""
"html-keyboard-response","98","262973","0.0-7.0-4.12","6282571cf39cd89341a474e9","bdp_wmem","Wed Jul 27 2022 12:40:28 GMT-0500 (Central Daylight Time)","574946","Match,No Match","","","","","","","553","","<div class='trialBorder'><div class='targDiv'><div class='tc'><img class='introPic' src='trustrating_stim/white_mw010.bmp'><br><font color='red'><strong>Keep</strong></font></div></div><div class='respDiv'><div class='respDivL'>Match<br>(e)</div><div class='respDivR'>No Match<br>(i)</div></div></div>","i","TARGET","1","trustrating_stim/white_mw010.bmp","0","Match","e","1500","trustrating_stim/white_mw010.bmp","red","Keep","REAL","0"
"html-keyboard-response","99","263476","0.0-7.0-5.12","6282571cf39cd89341a474e9","bdp_wmem","Wed Jul 27 2022 12:40:28 GMT-0500 (Central Daylight Time)","574946","Match,No Match","","","","","","","null","","<div class='trialBorder'><div class='vertical-center'><img src='img/error.jpg'></div><div class='respDiv'><div class='respDivL'>Match<br>(e)</div><div class='respDivR'><font style='color:orange'>No Match<br>(i)</font></div></div></div>","null","FEEDBACK","","","","","","","","","","",""
"html-keyboard-response","100","263980","0.0-7.0-1.13","6282571cf39cd89341a474e9","bdp_wmem","Wed Jul 27 2022 12:40:28 GMT-0500 (Central Daylight Time)","574946","Match,No Match","","","","","","","null","","<div class='trialBorder'><div class='vertical-center'><img src='img/fixation2_sml.jpg'</img></div></div>","null","FIX","","","","","","","","","","",""
"html-keyboard-response","101","266985","0.0-7.0-2.13","6282571cf39cd89341a474e9","bdp_wmem","Wed Jul 27 2022 12:40:28 GMT-0500 (Central Daylight Time)","574946","Match,No Match","","","","","","","null","","<div class='trialBorder'><div class='vertical-center'><img style='vertical-align:center; align:center' src='img/fixation2_sml.jpg'></div><div class='arrayDiv2'><div class='tl'><img class='introPic' src='trustrating_stim/white_mw003.bmp'><br><font color='green'><strong>Share</strong></font></div><div class='tr'><img class='introPic' src='trustrating_stim/white_mw085.bmp'><br><font color='red'><strong>Keep</strong></font></div></div></div>","null","ARRAY","2","trustrating_stim/white_mw003.bmp,trustrating_stim/white_mw085.bmp","1,0","Match","e","3000","","","","",""
"html-keyboard-response","102","270987","0.0-7.0-3.13","6282571cf39cd89341a474e9","bdp_wmem","Wed Jul 27 2022 12:40:28 GMT-0500 (Central Daylight Time)","574946","Match,No Match","","","","","","","null","","<div class='trialBorder'><div class='vertical-center'><img src='img/fixation2_sml.jpg'</img></div></div>","null","DELAY","","","","","","","","","","",""
"html-keyboard-response","103","272014","0.0-7.0-4.13","6282571cf39cd89341a474e9","bdp_wmem","Wed Jul 27 2022 12:40:28 GMT-0500 (Central Daylight Time)","574946","Match,No Match","","","","","","","1022","","<div class='trialBorder'><div class='targDiv'><div class='tc'><img class='introPic' src='trustrating_stim/white_mw085.bmp'><br><font color='red'><strong>Keep</strong></font></div></div><div class='respDiv'><div class='respDivL'>Match<br>(e)</div><div class='respDivR'>No Match<br>(i)</div></div></div>","i","TARGET","2","trustrating_stim/white_mw003.bmp,trustrating_stim/white_mw085.bmp","1,0","Match","e","3000","trustrating_stim/white_mw085.bmp","red","Keep","REAL","0"
"html-keyboard-response","104","272517","0.0-7.0-5.13","6282571cf39cd89341a474e9","bdp_wmem","Wed Jul 27 2022 12:40:28 GMT-0500 (Central Daylight Time)","574946","Match,No Match","","","","","","","null","","<div class='trialBorder'><div class='vertical-center'><img src='img/error.jpg'></div><div class='respDiv'><div class='respDivL'>Match<br>(e)</div><div class='respDivR'><font style='color:orange'>No Match<br>(i)</font></div></div></div>","null","FEEDBACK","","","","","","","","","","",""
"html-keyboard-response","105","273020","0.0-7.0-1.14","6282571cf39cd89341a474e9","bdp_wmem","Wed Jul 27 2022 12:40:28 GMT-0500 (Central Daylight Time)","574946","Match,No Match","","","","","","","null","","<div class='trialBorder'><div class='vertical-center'><img src='img/fixation2_sml.jpg'</img></div></div>","null","FIX","","","","","","","","","","",""
"html-keyboard-response","106","274524","0.0-7.0-2.14","6282571cf39cd89341a474e9","bdp_wmem","Wed Jul 27 2022 12:40:28 GMT-0500 (Central Daylight Time)","574946","Match,No Match","","","","","","","null","","<div class='trialBorder'><div class='vertical-center'><img style='vertical-align:center; align:center' src='img/fixation2_sml.jpg'></div><div class='arrayDiv1'><div class='tc'><img class='introPic' src='trustrating_stim/white_mw010.bmp'><br><font color='red'><strong>Keep</strong></font></div></div></div>","null","ARRAY","1","trustrating_stim/white_mw010.bmp","0","noMatchFace","i","1500","","","","",""
"html-keyboard-response","107","278527","0.0-7.0-3.14","6282571cf39cd89341a474e9","bdp_wmem","Wed Jul 27 2022 12:40:28 GMT-0500 (Central Daylight Time)","574946","Match,No Match","","","","","","","null","","<div class='trialBorder'><div class='vertical-center'><img src='img/fixation2_sml.jpg'</img></div></div>","null","DELAY","","","","","","","","","","",""
"html-keyboard-response","108","279801","0.0-7.0-4.14","6282571cf39cd89341a474e9","bdp_wmem","Wed Jul 27 2022 12:40:28 GMT-0500 (Central Daylight Time)","574946","Match,No Match","","","","","","","1269","","<div class='trialBorder'><div class='targDiv'><div class='tc'><img class='introPic' src='trustrating_stim/white_mw078.bmp'><br><font color='red'><strong>Keep</strong></font></div></div><div class='respDiv'><div class='respDivL'>Match<br>(e)</div><div class='respDivR'>No Match<br>(i)</div></div></div>","i","TARGET","1","trustrating_stim/white_mw010.bmp","0","noMatchFace","i","1500","trustrating_stim/white_mw078.bmp","red","Keep","REAL","1"
"html-keyboard-response","109","280304","0.0-7.0-5.14","6282571cf39cd89341a474e9","bdp_wmem","Wed Jul 27 2022 12:40:28 GMT-0500 (Central Daylight Time)","574946","Match,No Match","","","","","","","null","","<div class='trialBorder'><div class='vertical-center'><img src='img/correct.jpg'></div><div class='respDiv'><div class='respDivL'>Match<br>(e)</div><div class='respDivR'><font style='color:orange'>No Match<br>(i)</font></div></div></div>","null","FEEDBACK","","","","","","","","","","",""
"html-keyboard-response","110","280807","0.0-7.0-1.15","6282571cf39cd89341a474e9","bdp_wmem","Wed Jul 27 2022 12:40:28 GMT-0500 (Central Daylight Time)","574946","Match,No Match","","","","","","","null","","<div class='trialBorder'><div class='vertical-center'><img src='img/fixation2_sml.jpg'</img></div></div>","null","FIX","","","","","","","","","","",""
"html-keyboard-response","111","283814","0.0-7.0-2.15","6282571cf39cd89341a474e9","bdp_wmem","Wed Jul 27 2022 12:40:28 GMT-0500 (Central Daylight Time)","574946","Match,No Match","","","","","","","null","","<div class='trialBorder'><div class='vertical-center'><img style='vertical-align:center; align:center' src='img/fixation2_sml.jpg'></div><div class='arrayDiv2'><div class='tl'><img class='introPic' src='trustrating_stim/white_mw042.bmp'><br><font color='green'><strong>Share</strong></font></div><div class='tr'><img class='introPic' src='trustrating_stim/white_mw078.bmp'><br><font color='red'><strong>Keep</strong></font></div></div></div>","null","ARRAY","2","trustrating_stim/white_mw042.bmp,trustrating_stim/white_mw078.bmp","1,0","Match","e","3000","","","","",""
"html-keyboard-response","112","287817","0.0-7.0-3.15","6282571cf39cd89341a474e9","bdp_wmem","Wed Jul 27 2022 12:40:28 GMT-0500 (Central Daylight Time)","574946","Match,No Match","","","","","","","null","","<div class='trialBorder'><div class='vertical-center'><img src='img/fixation2_sml.jpg'</img></div></div>","null","DELAY","","","","","","","","","","",""
"html-keyboard-response","113","288388","0.0-7.0-4.15","6282571cf39cd89341a474e9","bdp_wmem","Wed Jul 27 2022 12:40:28 GMT-0500 (Central Daylight Time)","574946","Match,No Match","","","","","","","566","","<div class='trialBorder'><div class='targDiv'><div class='tc'><img class='introPic' src='trustrating_stim/white_mw042.bmp'><br><font color='green'><strong>Share</strong></font></div></div><div class='respDiv'><div class='respDivL'>Match<br>(e)</div><div class='respDivR'>No Match<br>(i)</div></div></div>","e","TARGET","2","trustrating_stim/white_mw042.bmp,trustrating_stim/white_mw078.bmp","1,0","Match","e","3000","trustrating_stim/white_mw042.bmp","green","Share","REAL","1"
"html-keyboard-response","114","288893","0.0-7.0-5.15","6282571cf39cd89341a474e9","bdp_wmem","Wed Jul 27 2022 12:40:28 GMT-0500 (Central Daylight Time)","574946","Match,No Match","","","","","","","null","","<div class='trialBorder'><div class='vertical-center'><img src='img/correct.jpg'></div><div class='respDiv'><div class='respDivL'><font style='color:orange'>Match<br>(e)</font></div><div class='respDivR'>No Match<br>(i)</div></div></div>","null","FEEDBACK","","","","","","","","","","",""
"html-keyboard-response","115","289396","0.0-7.0-1.16","6282571cf39cd89341a474e9","bdp_wmem","Wed Jul 27 2022 12:40:28 GMT-0500 (Central Daylight Time)","574946","Match,No Match","","","","","","","null","","<div class='trialBorder'><div class='vertical-center'><img src='img/fixation2_sml.jpg'</img></div></div>","null","FIX","","","","","","","","","","",""
"html-keyboard-response","116","293903","0.0-7.0-2.16","6282571cf39cd89341a474e9","bdp_wmem","Wed Jul 27 2022 12:40:28 GMT-0500 (Central Daylight Time)","574946","Match,No Match","","","","","","","null","","<div class='trialBorder'><div class='vertical-center'><img style='vertical-align:center; align:center' src='img/fixation2_sml.jpg'></div><div class='arrayDiv3'><div class='tl'><img class='introPic' src='trustrating_stim/white_mw092.bmp'><br><font color='green'><strong>Share</strong></font></div><div class='tc'><img class='introPic' src='trustrating_stim/white_mw038.bmp'><br><font color='green'><strong>Share</strong></font></div><div class='tr'><img class='introPic' src='trustrating_stim/white_mw042.bmp'><br><font color='red'><strong>Keep</strong></font></div></div></div>","null","ARRAY","3","trustrating_stim/white_mw092.bmp,trustrating_stim/white_mw038.bmp,trustrating_stim/white_mw042.bmp","1,1,0","Match","e","4500","","","","",""
"html-keyboard-response","117","297906","0.0-7.0-3.16","6282571cf39cd89341a474e9","bdp_wmem","Wed Jul 27 2022 12:40:28 GMT-0500 (Central Daylight Time)","574946","Match,No Match","","","","","","","null","","<div class='trialBorder'><div class='vertical-center'><img src='img/fixation2_sml.jpg'</img></div></div>","null","DELAY","","","","","","","","","","",""
"html-keyboard-response","118","298363","0.0-7.0-4.16","6282571cf39cd89341a474e9","bdp_wmem","Wed Jul 27 2022 12:40:28 GMT-0500 (Central Daylight Time)","574946","Match,No Match","","","","","","","451","","<div class='trialBorder'><div class='targDiv'><div class='tc'><img class='introPic' src='trustrating_stim/white_mw038.bmp'><br><font color='green'><strong>Share</strong></font></div></div><div class='respDiv'><div class='respDivL'>Match<br>(e)</div><div class='respDivR'>No Match<br>(i)</div></div></div>","e","TARGET","3","trustrating_stim/white_mw092.bmp,trustrating_stim/white_mw038.bmp,trustrating_stim/white_mw042.bmp","1,1,0","Match","e","4500","trustrating_stim/white_mw038.bmp","green","Share","REAL","1"
"html-keyboard-response","119","298867","0.0-7.0-5.16","6282571cf39cd89341a474e9","bdp_wmem","Wed Jul 27 2022 12:40:28 GMT-0500 (Central Daylight Time)","574946","Match,No Match","","","","","","","null","","<div class='trialBorder'><div class='vertical-center'><img src='img/correct.jpg'></div><div class='respDiv'><div class='respDivL'><font style='color:orange'>Match<br>(e)</font></div><div class='respDivR'>No Match<br>(i)</div></div></div>","null","FEEDBACK","","","","","","","","","","",""
"html-keyboard-response","120","299369","0.0-7.0-1.17","6282571cf39cd89341a474e9","bdp_wmem","Wed Jul 27 2022 12:40:28 GMT-0500 (Central Daylight Time)","574946","Match,No Match","","","","","","","null","","<div class='trialBorder'><div class='vertical-center'><img src='img/fixation2_sml.jpg'</img></div></div>","null","FIX","","","","","","","","","","",""
"html-keyboard-response","121","300874","0.0-7.0-2.17","6282571cf39cd89341a474e9","bdp_wmem","Wed Jul 27 2022 12:40:28 GMT-0500 (Central Daylight Time)","574946","Match,No Match","","","","","","","null","","<div class='trialBorder'><div class='vertical-center'><img style='vertical-align:center; align:center' src='img/fixation2_sml.jpg'></div><div class='arrayDiv1'><div class='tc'><img class='introPic' src='trustrating_stim/white_mw078.bmp'><br><font color='red'><strong>Keep</strong></font></div></div></div>","null","ARRAY","1","trustrating_stim/white_mw078.bmp","0","noMatchOutcome","i","1500","","","","",""
"html-keyboard-response","122","304878","0.0-7.0-3.17","6282571cf39cd89341a474e9","bdp_wmem","Wed Jul 27 2022 12:40:28 GMT-0500 (Central Daylight Time)","574946","Match,No Match","","","","","","","null","","<div class='trialBorder'><div class='vertical-center'><img src='img/fixation2_sml.jpg'</img></div></div>","null","DELAY","","","","","","","","","","",""
"html-keyboard-response","123","305861","0.0-7.0-4.17","6282571cf39cd89341a474e9","bdp_wmem","Wed Jul 27 2022 12:40:28 GMT-0500 (Central Daylight Time)","574946","Match,No Match","","","","","","","978","","<div class='trialBorder'><div class='targDiv'><div class='tc'><img class='introPic' src='trustrating_stim/white_mw078.bmp'><br><font color='green'><strong>Share</strong></font></div></div><div class='respDiv'><div class='respDivL'>Match<br>(e)</div><div class='respDivR'>No Match<br>(i)</div></div></div>","e","TARGET","1","trustrating_stim/white_mw078.bmp","0","noMatchOutcome","i","1500","trustrating_stim/white_mw078.bmp","green","Share","REAL","0"
"html-keyboard-response","124","306364","0.0-7.0-5.17","6282571cf39cd89341a474e9","bdp_wmem","Wed Jul 27 2022 12:40:28 GMT-0500 (Central Daylight Time)","574946","Match,No Match","","","","","","","null","","<div class='trialBorder'><div class='vertical-center'><img src='img/error.jpg'></div><div class='respDiv'><div class='respDivL'><font style='color:orange'>Match<br>(e)</font></div><div class='respDivR'>No Match<br>(i)</div></div></div>","null","FEEDBACK","","","","","","","","","","",""
"html-keyboard-response","125","306867","0.0-7.0-1.18","6282571cf39cd89341a474e9","bdp_wmem","Wed Jul 27 2022 12:40:28 GMT-0500 (Central Daylight Time)","574946","Match,No Match","","","","","","","null","","<div class='trialBorder'><div class='vertical-center'><img src='img/fixation2_sml.jpg'</img></div></div>","null","FIX","","","","","","","","","","",""
"html-keyboard-response","126","309870","0.0-7.0-2.18","6282571cf39cd89341a474e9","bdp_wmem","Wed Jul 27 2022 12:40:28 GMT-0500 (Central Daylight Time)","574946","Match,No Match","","","","","","","null","","<div class='trialBorder'><div class='vertical-center'><img style='vertical-align:center; align:center' src='img/fixation2_sml.jpg'></div><div class='arrayDiv2'><div class='tl'><img class='introPic' src='trustrating_stim/white_mw085.bmp'><br><font color='green'><strong>Share</strong></font></div><div class='tr'><img class='introPic' src='trustrating_stim/white_mw042.bmp'><br><font color='red'><strong>Keep</strong></font></div></div></div>","null","ARRAY","2","trustrating_stim/white_mw085.bmp,trustrating_stim/white_mw042.bmp","1,0","Match","e","3000","","","","",""
"html-keyboard-response","127","313874","0.0-7.0-3.18","6282571cf39cd89341a474e9","bdp_wmem","Wed Jul 27 2022 12:40:28 GMT-0500 (Central Daylight Time)","574946","Match,No Match","","","","","","","null","","<div class='trialBorder'><div class='vertical-center'><img src='img/fixation2_sml.jpg'</img></div></div>","null","DELAY","","","","","","","","","","",""
"html-keyboard-response","128","314462","0.0-7.0-4.18","6282571cf39cd89341a474e9","bdp_wmem","Wed Jul 27 2022 12:40:28 GMT-0500 (Central Daylight Time)","574946","Match,No Match","","","","","","","582","","<div class='trialBorder'><div class='targDiv'><div class='tc'><img class='introPic' src='trustrating_stim/white_mw042.bmp'><br><font color='red'><strong>Keep</strong></font></div></div><div class='respDiv'><div class='respDivL'>Match<br>(e)</div><div class='respDivR'>No Match<br>(i)</div></div></div>","i","TARGET","2","trustrating_stim/white_mw085.bmp,trustrating_stim/white_mw042.bmp","1,0","Match","e","3000","trustrating_stim/white_mw042.bmp","red","Keep","REAL","0"
"html-keyboard-response","129","314965","0.0-7.0-5.18","6282571cf39cd89341a474e9","bdp_wmem","Wed Jul 27 2022 12:40:28 GMT-0500 (Central Daylight Time)","574946","Match,No Match","","","","","","","null","","<div class='trialBorder'><div class='vertical-center'><img src='img/error.jpg'></div><div class='respDiv'><div class='respDivL'>Match<br>(e)</div><div class='respDivR'><font style='color:orange'>No Match<br>(i)</font></div></div></div>","null","FEEDBACK","","","","","","","","","","",""
"html-keyboard-response","130","315469","0.0-7.0-1.19","6282571cf39cd89341a474e9","bdp_wmem","Wed Jul 27 2022 12:40:28 GMT-0500 (Central Daylight Time)","574946","Match,No Match","","","","","","","null","","<div class='trialBorder'><div class='vertical-center'><img src='img/fixation2_sml.jpg'</img></div></div>","null","FIX","","","","","","","","","","",""
"html-keyboard-response","131","319973","0.0-7.0-2.19","6282571cf39cd89341a474e9","bdp_wmem","Wed Jul 27 2022 12:40:28 GMT-0500 (Central Daylight Time)","574946","Match,No Match","","","","","","","null","","<div class='trialBorder'><div class='vertical-center'><img style='vertical-align:center; align:center' src='img/fixation2_sml.jpg'></div><div class='arrayDiv3'><div class='tl'><img class='introPic' src='trustrating_stim/white_mw070.bmp'><br><font color='red'><strong>Keep</strong></font></div><div class='tc'><img class='introPic' src='trustrating_stim/white_mw012.bmp'><br><font color='green'><strong>Share</strong></font></div><div class='tr'><img class='introPic' src='trustrating_stim/white_mw091.bmp'><br><font color='green'><strong>Share</strong></font></div></div></div>","null","ARRAY","3","trustrating_stim/white_mw070.bmp,trustrating_stim/white_mw012.bmp,trustrating_stim/white_mw091.bmp","0,1,1","noMatchOutcome","i","4500","","","","",""
"html-keyboard-response","132","323978","0.0-7.0-3.19","6282571cf39cd89341a474e9","bdp_wmem","Wed Jul 27 2022 12:40:28 GMT-0500 (Central Daylight Time)","574946","Match,No Match","","","","","","","null","","<div class='trialBorder'><div class='vertical-center'><img src='img/fixation2_sml.jpg'</img></div></div>","null","DELAY","","","","","","","","","","",""
"html-keyboard-response","133","324754","0.0-7.0-4.19","6282571cf39cd89341a474e9","bdp_wmem","Wed Jul 27 2022 12:40:28 GMT-0500 (Central Daylight Time)","574946","Match,No Match","","","","","","","773","","<div class='trialBorder'><div class='targDiv'><div class='tc'><img class='introPic' src='trustrating_stim/white_mw070.bmp'><br><font color='green'><strong>Share</strong></font></div></div><div class='respDiv'><div class='respDivL'>Match<br>(e)</div><div class='respDivR'>No Match<br>(i)</div></div></div>","i","TARGET","3","trustrating_stim/white_mw070.bmp,trustrating_stim/white_mw012.bmp,trustrating_stim/white_mw091.bmp","0,1,1","noMatchOutcome","i","4500","trustrating_stim/white_mw070.bmp","green","Share","REAL","1"
"html-keyboard-response","134","325257","0.0-7.0-5.19","6282571cf39cd89341a474e9","bdp_wmem","Wed Jul 27 2022 12:40:28 GMT-0500 (Central Daylight Time)","574946","Match,No Match","","","","","","","null","","<div class='trialBorder'><div class='vertical-center'><img src='img/correct.jpg'></div><div class='respDiv'><div class='respDivL'>Match<br>(e)</div><div class='respDivR'><font style='color:orange'>No Match<br>(i)</font></div></div></div>","null","FEEDBACK","","","","","","","","","","",""
"html-keyboard-response","135","325761","0.0-7.0-1.20","6282571cf39cd89341a474e9","bdp_wmem","Wed Jul 27 2022 12:40:28 GMT-0500 (Central Daylight Time)","574946","Match,No Match","","","","","","","null","","<div class='trialBorder'><div class='vertical-center'><img src='img/fixation2_sml.jpg'</img></div></div>","null","FIX","","","","","","","","","","",""
"html-keyboard-response","136","328765","0.0-7.0-2.20","6282571cf39cd89341a474e9","bdp_wmem","Wed Jul 27 2022 12:40:28 GMT-0500 (Central Daylight Time)","574946","Match,No Match","","","","","","","null","","<div class='trialBorder'><div class='vertical-center'><img style='vertical-align:center; align:center' src='img/fixation2_sml.jpg'></div><div class='arrayDiv2'><div class='tl'><img class='introPic' src='trustrating_stim/white_mw010.bmp'><br><font color='green'><strong>Share</strong></font></div><div class='tr'><img class='introPic' src='trustrating_stim/white_mw040.bmp'><br><font color='red'><strong>Keep</strong></font></div></div></div>","null","ARRAY","2","trustrating_stim/white_mw010.bmp,trustrating_stim/white_mw040.bmp","1,0","noMatchFace","i","3000","","","","",""
"html-keyboard-response","137","332768","0.0-7.0-3.20","6282571cf39cd89341a474e9","bdp_wmem","Wed Jul 27 2022 12:40:28 GMT-0500 (Central Daylight Time)","574946","Match,No Match","","","","","","","null","","<div class='trialBorder'><div class='vertical-center'><img src='img/fixation2_sml.jpg'</img></div></div>","null","DELAY","","","","","","","","","","",""
"html-keyboard-response","138","333711","0.0-7.0-4.20","6282571cf39cd89341a474e9","bdp_wmem","Wed Jul 27 2022 12:40:28 GMT-0500 (Central Daylight Time)","574946","Match,No Match","","","","","","","938","","<div class='trialBorder'><div class='targDiv'><div class='tc'><img class='introPic' src='trustrating_stim/white_mw078.bmp'><br><font color='green'><strong>Share</strong></font></div></div><div class='respDiv'><div class='respDivL'>Match<br>(e)</div><div class='respDivR'>No Match<br>(i)</div></div></div>","i","TARGET","2","trustrating_stim/white_mw010.bmp,trustrating_stim/white_mw040.bmp","1,0","noMatchFace","i","3000","trustrating_stim/white_mw078.bmp","green","Share","REAL","1"
"html-keyboard-response","139","334215","0.0-7.0-5.20","6282571cf39cd89341a474e9","bdp_wmem","Wed Jul 27 2022 12:40:28 GMT-0500 (Central Daylight Time)","574946","Match,No Match","","","","","","","null","","<div class='trialBorder'><div class='vertical-center'><img src='img/correct.jpg'></div><div class='respDiv'><div class='respDivL'>Match<br>(e)</div><div class='respDivR'><font style='color:orange'>No Match<br>(i)</font></div></div></div>","null","FEEDBACK","","","","","","","","","","",""
"html-keyboard-response","140","334716","0.0-7.0-1.21","6282571cf39cd89341a474e9","bdp_wmem","Wed Jul 27 2022 12:40:28 GMT-0500 (Central Daylight Time)","574946","Match,No Match","","","","","","","null","","<div class='trialBorder'><div class='vertical-center'><img src='img/fixation2_sml.jpg'</img></div></div>","null","FIX","","","","","","","","","","",""
"html-keyboard-response","141","336219","0.0-7.0-2.21","6282571cf39cd89341a474e9","bdp_wmem","Wed Jul 27 2022 12:40:28 GMT-0500 (Central Daylight Time)","574946","Match,No Match","","","","","","","null","","<div class='trialBorder'><div class='vertical-center'><img style='vertical-align:center; align:center' src='img/fixation2_sml.jpg'></div><div class='arrayDiv1'><div class='tc'><img class='introPic' src='trustrating_stim/white_mw042.bmp'><br><font color='green'><strong>Share</strong></font></div></div></div>","null","ARRAY","1","trustrating_stim/white_mw042.bmp","1","Match","e","1500","","","","",""
"html-keyboard-response","142","340222","0.0-7.0-3.21","6282571cf39cd89341a474e9","bdp_wmem","Wed Jul 27 2022 12:40:28 GMT-0500 (Central Daylight Time)","574946","Match,No Match","","","","","","","null","","<div class='trialBorder'><div class='vertical-center'><img src='img/fixation2_sml.jpg'</img></div></div>","null","DELAY","","","","","","","","","","",""
"html-keyboard-response","143","340763","0.0-7.0-4.21","6282571cf39cd89341a474e9","bdp_wmem","Wed Jul 27 2022 12:40:28 GMT-0500 (Central Daylight Time)","574946","Match,No Match","","","","","","","535","","<div class='trialBorder'><div class='targDiv'><div class='tc'><img class='introPic' src='trustrating_stim/white_mw042.bmp'><br><font color='green'><strong>Share</strong></font></div></div><div class='respDiv'><div class='respDivL'>Match<br>(e)</div><div class='respDivR'>No Match<br>(i)</div></div></div>","e","TARGET","1","trustrating_stim/white_mw042.bmp","1","Match","e","1500","trustrating_stim/white_mw042.bmp","green","Share","REAL","1"
"html-keyboard-response","144","341266","0.0-7.0-5.21","6282571cf39cd89341a474e9","bdp_wmem","Wed Jul 27 2022 12:40:28 GMT-0500 (Central Daylight Time)","574946","Match,No Match","","","","","","","null","","<div class='trialBorder'><div class='vertical-center'><img src='img/correct.jpg'></div><div class='respDiv'><div class='respDivL'><font style='color:orange'>Match<br>(e)</font></div><div class='respDivR'>No Match<br>(i)</div></div></div>","null","FEEDBACK","","","","","","","","","","",""
"html-keyboard-response","145","341770","0.0-7.0-1.22","6282571cf39cd89341a474e9","bdp_wmem","Wed Jul 27 2022 12:40:28 GMT-0500 (Central Daylight Time)","574946","Match,No Match","","","","","","","null","","<div class='trialBorder'><div class='vertical-center'><img src='img/fixation2_sml.jpg'</img></div></div>","null","FIX","","","","","","","","","","",""
"html-keyboard-response","146","343275","0.0-7.0-2.22","6282571cf39cd89341a474e9","bdp_wmem","Wed Jul 27 2022 12:40:28 GMT-0500 (Central Daylight Time)","574946","Match,No Match","","","","","","","null","","<div class='trialBorder'><div class='vertical-center'><img style='vertical-align:center; align:center' src='img/fixation2_sml.jpg'></div><div class='arrayDiv1'><div class='tc'><img class='introPic' src='trustrating_stim/white_mw012.bmp'><br><font color='green'><strong>Share</strong></font></div></div></div>","null","ARRAY","1","trustrating_stim/white_mw012.bmp","1","Match","e","1500","","","","",""
"html-keyboard-response","147","347278","0.0-7.0-3.22","6282571cf39cd89341a474e9","bdp_wmem","Wed Jul 27 2022 12:40:28 GMT-0500 (Central Daylight Time)","574946","Match,No Match","","","","","","","null","","<div class='trialBorder'><div class='vertical-center'><img src='img/fixation2_sml.jpg'</img></div></div>","null","DELAY","","","","","","","","","","",""
"html-keyboard-response","148","347843","0.0-7.0-4.22","6282571cf39cd89341a474e9","bdp_wmem","Wed Jul 27 2022 12:40:28 GMT-0500 (Central Daylight Time)","574946","Match,No Match","","","","","","","562","","<div class='trialBorder'><div class='targDiv'><div class='tc'><img class='introPic' src='trustrating_stim/white_mw012.bmp'><br><font color='green'><strong>Share</strong></font></div></div><div class='respDiv'><div class='respDivL'>Match<br>(e)</div><div class='respDivR'>No Match<br>(i)</div></div></div>","e","TARGET","1","trustrating_stim/white_mw012.bmp","1","Match","e","1500","trustrating_stim/white_mw012.bmp","green","Share","REAL","1"
"html-keyboard-response","149","348346","0.0-7.0-5.22","6282571cf39cd89341a474e9","bdp_wmem","Wed Jul 27 2022 12:40:28 GMT-0500 (Central Daylight Time)","574946","Match,No Match","","","","","","","null","","<div class='trialBorder'><div class='vertical-center'><img src='img/correct.jpg'></div><div class='respDiv'><div class='respDivL'><font style='color:orange'>Match<br>(e)</font></div><div class='respDivR'>No Match<br>(i)</div></div></div>","null","FEEDBACK","","","","","","","","","","",""
"html-keyboard-response","150","348850","0.0-7.0-1.23","6282571cf39cd89341a474e9","bdp_wmem","Wed Jul 27 2022 12:40:28 GMT-0500 (Central Daylight Time)","574946","Match,No Match","","","","","","","null","","<div class='trialBorder'><div class='vertical-center'><img src='img/fixation2_sml.jpg'</img></div></div>","null","FIX","","","","","","","","","","",""
"html-keyboard-response","151","351855","0.0-7.0-2.23","6282571cf39cd89341a474e9","bdp_wmem","Wed Jul 27 2022 12:40:28 GMT-0500 (Central Daylight Time)","574946","Match,No Match","","","","","","","null","","<div class='trialBorder'><div class='vertical-center'><img style='vertical-align:center; align:center' src='img/fixation2_sml.jpg'></div><div class='arrayDiv2'><div class='tl'><img class='introPic' src='trustrating_stim/white_mw010.bmp'><br><font color='red'><strong>Keep</strong></font></div><div class='tr'><img class='introPic' src='trustrating_stim/white_mw013.bmp'><br><font color='green'><strong>Share</strong></font></div></div></div>","null","ARRAY","2","trustrating_stim/white_mw010.bmp,trustrating_stim/white_mw013.bmp","0,1","noMatchFace","i","3000","","","","",""
"html-keyboard-response","152","355858","0.0-7.0-3.23","6282571cf39cd89341a474e9","bdp_wmem","Wed Jul 27 2022 12:40:28 GMT-0500 (Central Daylight Time)","574946","Match,No Match","","","","","","","null","","<div class='trialBorder'><div class='vertical-center'><img src='img/fixation2_sml.jpg'</img></div></div>","null","DELAY","","","","","","","","","","",""
"html-keyboard-response","153","356542","0.0-7.0-4.23","6282571cf39cd89341a474e9","bdp_wmem","Wed Jul 27 2022 12:40:28 GMT-0500 (Central Daylight Time)","574946","Match,No Match","","","","","","","680","","<div class='trialBorder'><div class='targDiv'><div class='tc'><img class='introPic' src='trustrating_stim/white_mw092.bmp'><br><font color='green'><strong>Share</strong></font></div></div><div class='respDiv'><div class='respDivL'>Match<br>(e)</div><div class='respDivR'>No Match<br>(i)</div></div></div>","i","TARGET","2","trustrating_stim/white_mw010.bmp,trustrating_stim/white_mw013.bmp","0,1","noMatchFace","i","3000","trustrating_stim/white_mw092.bmp","green","Share","REAL","1"
"html-keyboard-response","154","357045","0.0-7.0-5.23","6282571cf39cd89341a474e9","bdp_wmem","Wed Jul 27 2022 12:40:28 GMT-0500 (Central Daylight Time)","574946","Match,No Match","","","","","","","null","","<div class='trialBorder'><div class='vertical-center'><img src='img/correct.jpg'></div><div class='respDiv'><div class='respDivL'>Match<br>(e)</div><div class='respDivR'><font style='color:orange'>No Match<br>(i)</font></div></div></div>","null","FEEDBACK","","","","","","","","","","",""
"html-keyboard-response","155","357547","0.0-7.0-1.24","6282571cf39cd89341a474e9","bdp_wmem","Wed Jul 27 2022 12:40:28 GMT-0500 (Central Daylight Time)","574946","Match,No Match","","","","","","","null","","<div class='trialBorder'><div class='vertical-center'><img src='img/fixation2_sml.jpg'</img></div></div>","null","FIX","","","","","","","","","","",""
"html-keyboard-response","156","359053","0.0-7.0-2.24","6282571cf39cd89341a474e9","bdp_wmem","Wed Jul 27 2022 12:40:28 GMT-0500 (Central Daylight Time)","574946","Match,No Match","","","","","","","null","","<div class='trialBorder'><div class='vertical-center'><img style='vertical-align:center; align:center' src='img/fixation2_sml.jpg'></div><div class='arrayDiv1'><div class='tc'><img class='introPic' src='trustrating_stim/white_mw038.bmp'><br><font color='green'><strong>Share</strong></font></div></div></div>","null","ARRAY","1","trustrating_stim/white_mw038.bmp","1","noMatchOutcome","i","1500","","","","",""
"html-keyboard-response","157","363058","0.0-7.0-3.24","6282571cf39cd89341a474e9","bdp_wmem","Wed Jul 27 2022 12:40:28 GMT-0500 (Central Daylight Time)","574946","Match,No Match","","","","","","","null","","<div class='trialBorder'><div class='vertical-center'><img src='img/fixation2_sml.jpg'</img></div></div>","null","DELAY","","","","","","","","","","",""
"html-keyboard-response","158","363509","0.0-7.0-4.24","6282571cf39cd89341a474e9","bdp_wmem","Wed Jul 27 2022 12:40:28 GMT-0500 (Central Daylight Time)","574946","Match,No Match","","","","","","","447","","<div class='trialBorder'><div class='targDiv'><div class='tc'><img class='introPic' src='trustrating_stim/white_mw038.bmp'><br><font color='red'><strong>Keep</strong></font></div></div><div class='respDiv'><div class='respDivL'>Match<br>(e)</div><div class='respDivR'>No Match<br>(i)</div></div></div>","e","TARGET","1","trustrating_stim/white_mw038.bmp","1","noMatchOutcome","i","1500","trustrating_stim/white_mw038.bmp","red","Keep","REAL","0"
"html-keyboard-response","159","364013","0.0-7.0-5.24","6282571cf39cd89341a474e9","bdp_wmem","Wed Jul 27 2022 12:40:28 GMT-0500 (Central Daylight Time)","574946","Match,No Match","","","","","","","null","","<div class='trialBorder'><div class='vertical-center'><img src='img/error.jpg'></div><div class='respDiv'><div class='respDivL'><font style='color:orange'>Match<br>(e)</font></div><div class='respDivR'>No Match<br>(i)</div></div></div>","null","FEEDBACK","","","","","","","","","","",""
"html-keyboard-response","160","364517","0.0-7.0-1.25","6282571cf39cd89341a474e9","bdp_wmem","Wed Jul 27 2022 12:40:28 GMT-0500 (Central Daylight Time)","574946","Match,No Match","","","","","","","null","","<div class='trialBorder'><div class='vertical-center'><img src='img/fixation2_sml.jpg'</img></div></div>","null","FIX","","","","","","","","","","",""
"html-keyboard-response","161","367522","0.0-7.0-2.25","6282571cf39cd89341a474e9","bdp_wmem","Wed Jul 27 2022 12:40:28 GMT-0500 (Central Daylight Time)","574946","Match,No Match","","","","","","","null","","<div class='trialBorder'><div class='vertical-center'><img style='vertical-align:center; align:center' src='img/fixation2_sml.jpg'></div><div class='arrayDiv2'><div class='tl'><img class='introPic' src='trustrating_stim/white_mw085.bmp'><br><font color='red'><strong>Keep</strong></font></div><div class='tr'><img class='introPic' src='trustrating_stim/white_mw092.bmp'><br><font color='green'><strong>Share</strong></font></div></div></div>","null","ARRAY","2","trustrating_stim/white_mw085.bmp,trustrating_stim/white_mw092.bmp","0,1","noMatchOutcome","i","3000","","","","",""
"html-keyboard-response","162","371526","0.0-7.0-3.25","6282571cf39cd89341a474e9","bdp_wmem","Wed Jul 27 2022 12:40:28 GMT-0500 (Central Daylight Time)","574946","Match,No Match","","","","","","","null","","<div class='trialBorder'><div class='vertical-center'><img src='img/fixation2_sml.jpg'</img></div></div>","null","DELAY","","","","","","","","","","",""
"html-keyboard-response","163","372131","0.0-7.0-4.25","6282571cf39cd89341a474e9","bdp_wmem","Wed Jul 27 2022 12:40:28 GMT-0500 (Central Daylight Time)","574946","Match,No Match","","","","","","","600","","<div class='trialBorder'><div class='targDiv'><div class='tc'><img class='introPic' src='trustrating_stim/white_mw085.bmp'><br><font color='green'><strong>Share</strong></font></div></div><div class='respDiv'><div class='respDivL'>Match<br>(e)</div><div class='respDivR'>No Match<br>(i)</div></div></div>","i","TARGET","2","trustrating_stim/white_mw085.bmp,trustrating_stim/white_mw092.bmp","0,1","noMatchOutcome","i","3000","trustrating_stim/white_mw085.bmp","green","Share","REAL","1"
"html-keyboard-response","164","372634","0.0-7.0-5.25","6282571cf39cd89341a474e9","bdp_wmem","Wed Jul 27 2022 12:40:28 GMT-0500 (Central Daylight Time)","574946","Match,No Match","","","","","","","null","","<div class='trialBorder'><div class='vertical-center'><img src='img/correct.jpg'></div><div class='respDiv'><div class='respDivL'>Match<br>(e)</div><div class='respDivR'><font style='color:orange'>No Match<br>(i)</font></div></div></div>","null","FEEDBACK","","","","","","","","","","",""
"html-keyboard-response","165","373138","0.0-7.0-1.26","6282571cf39cd89341a474e9","bdp_wmem","Wed Jul 27 2022 12:40:28 GMT-0500 (Central Daylight Time)","574946","Match,No Match","","","","","","","null","","<div class='trialBorder'><div class='vertical-center'><img src='img/fixation2_sml.jpg'</img></div></div>","null","FIX","","","","","","","","","","",""
"html-keyboard-response","166","377644","0.0-7.0-2.26","6282571cf39cd89341a474e9","bdp_wmem","Wed Jul 27 2022 12:40:28 GMT-0500 (Central Daylight Time)","574946","Match,No Match","","","","","","","null","","<div class='trialBorder'><div class='vertical-center'><img style='vertical-align:center; align:center' src='img/fixation2_sml.jpg'></div><div class='arrayDiv3'><div class='tl'><img class='introPic' src='trustrating_stim/white_mw091.bmp'><br><font color='green'><strong>Share</strong></font></div><div class='tc'><img class='introPic' src='trustrating_stim/white_mw040.bmp'><br><font color='red'><strong>Keep</strong></font></div><div class='tr'><img class='introPic' src='trustrating_stim/white_mw078.bmp'><br><font color='green'><strong>Share</strong></font></div></div></div>","null","ARRAY","3","trustrating_stim/white_mw091.bmp,trustrating_stim/white_mw040.bmp,trustrating_stim/white_mw078.bmp","1,0,1","noMatchOutcome","i","4500","","","","",""
"html-keyboard-response","167","381647","0.0-7.0-3.26","6282571cf39cd89341a474e9","bdp_wmem","Wed Jul 27 2022 12:40:28 GMT-0500 (Central Daylight Time)","574946","Match,No Match","","","","","","","null","","<div class='trialBorder'><div class='vertical-center'><img src='img/fixation2_sml.jpg'</img></div></div>","null","DELAY","","","","","","","","","","",""
"html-keyboard-response","168","382524","0.0-7.0-4.26","6282571cf39cd89341a474e9","bdp_wmem","Wed Jul 27 2022 12:40:28 GMT-0500 (Central Daylight Time)","574946","Match,No Match","","","","","","","872","","<div class='trialBorder'><div class='targDiv'><div class='tc'><img class='introPic' src='trustrating_stim/white_mw040.bmp'><br><font color='green'><strong>Share</strong></font></div></div><div class='respDiv'><div class='respDivL'>Match<br>(e)</div><div class='respDivR'>No Match<br>(i)</div></div></div>","e","TARGET","3","trustrating_stim/white_mw091.bmp,trustrating_stim/white_mw040.bmp,trustrating_stim/white_mw078.bmp","1,0,1","noMatchOutcome","i","4500","trustrating_stim/white_mw040.bmp","green","Share","REAL","0"
"html-keyboard-response","169","383028","0.0-7.0-5.26","6282571cf39cd89341a474e9","bdp_wmem","Wed Jul 27 2022 12:40:28 GMT-0500 (Central Daylight Time)","574946","Match,No Match","","","","","","","null","","<div class='trialBorder'><div class='vertical-center'><img src='img/error.jpg'></div><div class='respDiv'><div class='respDivL'><font style='color:orange'>Match<br>(e)</font></div><div class='respDivR'>No Match<br>(i)</div></div></div>","null","FEEDBACK","","","","","","","","","","",""
"html-keyboard-response","170","383531","0.0-7.0-1.27","6282571cf39cd89341a474e9","bdp_wmem","Wed Jul 27 2022 12:40:28 GMT-0500 (Central Daylight Time)","574946","Match,No Match","","","","","","","null","","<div class='trialBorder'><div class='vertical-center'><img src='img/fixation2_sml.jpg'</img></div></div>","null","FIX","","","","","","","","","","",""
"html-keyboard-response","171","386536","0.0-7.0-2.27","6282571cf39cd89341a474e9","bdp_wmem","Wed Jul 27 2022 12:40:28 GMT-0500 (Central Daylight Time)","574946","Match,No Match","","","","","","","null","","<div class='trialBorder'><div class='vertical-center'><img style='vertical-align:center; align:center' src='img/fixation2_sml.jpg'></div><div class='arrayDiv2'><div class='tl'><img class='introPic' src='trustrating_stim/white_mw003.bmp'><br><font color='red'><strong>Keep</strong></font></div><div class='tr'><img class='introPic' src='trustrating_stim/white_mw040.bmp'><br><font color='green'><strong>Share</strong></font></div></div></div>","null","ARRAY","2","trustrating_stim/white_mw003.bmp,trustrating_stim/white_mw040.bmp","0,1","Match","e","3000","","","","",""
"html-keyboard-response","172","390540","0.0-7.0-3.27","6282571cf39cd89341a474e9","bdp_wmem","Wed Jul 27 2022 12:40:28 GMT-0500 (Central Daylight Time)","574946","Match,No Match","","","","","","","null","","<div class='trialBorder'><div class='vertical-center'><img src='img/fixation2_sml.jpg'</img></div></div>","null","DELAY","","","","","","","","","","",""
"html-keyboard-response","173","391080","0.0-7.0-4.27","6282571cf39cd89341a474e9","bdp_wmem","Wed Jul 27 2022 12:40:28 GMT-0500 (Central Daylight Time)","574946","Match,No Match","","","","","","","535","","<div class='trialBorder'><div class='targDiv'><div class='tc'><img class='introPic' src='trustrating_stim/white_mw003.bmp'><br><font color='red'><strong>Keep</strong></font></div></div><div class='respDiv'><div class='respDivL'>Match<br>(e)</div><div class='respDivR'>No Match<br>(i)</div></div></div>","i","TARGET","2","trustrating_stim/white_mw003.bmp,trustrating_stim/white_mw040.bmp","0,1","Match","e","3000","trustrating_stim/white_mw003.bmp","red","Keep","REAL","0"
"html-keyboard-response","174","391582","0.0-7.0-5.27","6282571cf39cd89341a474e9","bdp_wmem","Wed Jul 27 2022 12:40:28 GMT-0500 (Central Daylight Time)","574946","Match,No Match","","","","","","","null","","<div class='trialBorder'><div class='vertical-center'><img src='img/error.jpg'></div><div class='respDiv'><div class='respDivL'>Match<br>(e)</div><div class='respDivR'><font style='color:orange'>No Match<br>(i)</font></div></div></div>","null","FEEDBACK","","","","","","","","","","",""
"html-keyboard-response","175","392085","0.0-7.0-1.28","6282571cf39cd89341a474e9","bdp_wmem","Wed Jul 27 2022 12:40:28 GMT-0500 (Central Daylight Time)","574946","Match,No Match","","","","","","","null","","<div class='trialBorder'><div class='vertical-center'><img src='img/fixation2_sml.jpg'</img></div></div>","null","FIX","","","","","","","","","","",""
"html-keyboard-response","176","393590","0.0-7.0-2.28","6282571cf39cd89341a474e9","bdp_wmem","Wed Jul 27 2022 12:40:28 GMT-0500 (Central Daylight Time)","574946","Match,No Match","","","","","","","null","","<div class='trialBorder'><div class='vertical-center'><img style='vertical-align:center; align:center' src='img/fixation2_sml.jpg'></div><div class='arrayDiv1'><div class='tc'><img class='introPic' src='trustrating_stim/white_mw092.bmp'><br><font color='green'><strong>Share</strong></font></div></div></div>","null","ARRAY","1","trustrating_stim/white_mw092.bmp","1","Match","e","1500","","","","",""
"html-keyboard-response","177","397595","0.0-7.0-3.28","6282571cf39cd89341a474e9","bdp_wmem","Wed Jul 27 2022 12:40:28 GMT-0500 (Central Daylight Time)","574946","Match,No Match","","","","","","","null","","<div class='trialBorder'><div class='vertical-center'><img src='img/fixation2_sml.jpg'</img></div></div>","null","DELAY","","","","","","","","","","",""
"html-keyboard-response","178","398044","0.0-7.0-4.28","6282571cf39cd89341a474e9","bdp_wmem","Wed Jul 27 2022 12:40:28 GMT-0500 (Central Daylight Time)","574946","Match,No Match","","","","","","","445","","<div class='trialBorder'><div class='targDiv'><div class='tc'><img class='introPic' src='trustrating_stim/white_mw092.bmp'><br><font color='green'><strong>Share</strong></font></div></div><div class='respDiv'><div class='respDivL'>Match<br>(e)</div><div class='respDivR'>No Match<br>(i)</div></div></div>","e","TARGET","1","trustrating_stim/white_mw092.bmp","1","Match","e","1500","trustrating_stim/white_mw092.bmp","green","Share","REAL","1"
"html-keyboard-response","179","398547","0.0-7.0-5.28","6282571cf39cd89341a474e9","bdp_wmem","Wed Jul 27 2022 12:40:28 GMT-0500 (Central Daylight Time)","574946","Match,No Match","","","","","","","null","","<div class='trialBorder'><div class='vertical-center'><img src='img/correct.jpg'></div><div class='respDiv'><div class='respDivL'><font style='color:orange'>Match<br>(e)</font></div><div class='respDivR'>No Match<br>(i)</div></div></div>","null","FEEDBACK","","","","","","","","","","",""
"html-keyboard-response","180","399064","0.0-7.0-1.29","6282571cf39cd89341a474e9","bdp_wmem","Wed Jul 27 2022 12:40:28 GMT-0500 (Central Daylight Time)","574946","Match,No Match","","","","","","","null","","<div class='trialBorder'><div class='vertical-center'><img src='img/fixation2_sml.jpg'</img></div></div>","null","FIX","","","","","","","","","","",""
"html-keyboard-response","181","402069","0.0-7.0-2.29","6282571cf39cd89341a474e9","bdp_wmem","Wed Jul 27 2022 12:40:28 GMT-0500 (Central Daylight Time)","574946","Match,No Match","","","","","","","null","","<div class='trialBorder'><div class='vertical-center'><img style='vertical-align:center; align:center' src='img/fixation2_sml.jpg'></div><div class='arrayDiv2'><div class='tl'><img class='introPic' src='trustrating_stim/white_mw010.bmp'><br><font color='green'><strong>Share</strong></font></div><div class='tr'><img class='introPic' src='trustrating_stim/white_mw013.bmp'><br><font color='red'><strong>Keep</strong></font></div></div></div>","null","ARRAY","2","trustrating_stim/white_mw010.bmp,trustrating_stim/white_mw013.bmp","1,0","Match","e","3000","","","","",""
"html-keyboard-response","182","406073","0.0-7.0-3.29","6282571cf39cd89341a474e9","bdp_wmem","Wed Jul 27 2022 12:40:28 GMT-0500 (Central Daylight Time)","574946","Match,No Match","","","","","","","null","","<div class='trialBorder'><div class='vertical-center'><img src='img/fixation2_sml.jpg'</img></div></div>","null","DELAY","","","","","","","","","","",""
"html-keyboard-response","183","407802","0.0-7.0-4.29","6282571cf39cd89341a474e9","bdp_wmem","Wed Jul 27 2022 12:40:28 GMT-0500 (Central Daylight Time)","574946","Match,No Match","","","","","","","1725","","<div class='trialBorder'><div class='targDiv'><div class='tc'><img class='introPic' src='trustrating_stim/white_mw013.bmp'><br><font color='red'><strong>Keep</strong></font></div></div><div class='respDiv'><div class='respDivL'>Match<br>(e)</div><div class='respDivR'>No Match<br>(i)</div></div></div>","i","TARGET","2","trustrating_stim/white_mw010.bmp,trustrating_stim/white_mw013.bmp","1,0","Match","e","3000","trustrating_stim/white_mw013.bmp","red","Keep","REAL","0"
"html-keyboard-response","184","408306","0.0-7.0-5.29","6282571cf39cd89341a474e9","bdp_wmem","Wed Jul 27 2022 12:40:28 GMT-0500 (Central Daylight Time)","574946","Match,No Match","","","","","","","null","","<div class='trialBorder'><div class='vertical-center'><img src='img/error.jpg'></div><div class='respDiv'><div class='respDivL'>Match<br>(e)</div><div class='respDivR'><font style='color:orange'>No Match<br>(i)</font></div></div></div>","null","FEEDBACK","","","","","","","","","","",""
"html-keyboard-response","185","408808","0.0-7.0-1.30","6282571cf39cd89341a474e9","bdp_wmem","Wed Jul 27 2022 12:40:28 GMT-0500 (Central Daylight Time)","574946","Match,No Match","","","","","","","null","","<div class='trialBorder'><div class='vertical-center'><img src='img/fixation2_sml.jpg'</img></div></div>","null","FIX","","","","","","","","","","",""
"html-keyboard-response","186","410314","0.0-7.0-2.30","6282571cf39cd89341a474e9","bdp_wmem","Wed Jul 27 2022 12:40:28 GMT-0500 (Central Daylight Time)","574946","Match,No Match","","","","","","","null","","<div class='trialBorder'><div class='vertical-center'><img style='vertical-align:center; align:center' src='img/fixation2_sml.jpg'></div><div class='arrayDiv1'><div class='tc'><img class='introPic' src='trustrating_stim/white_mw010.bmp'><br><font color='red'><strong>Keep</strong></font></div></div></div>","null","ARRAY","1","trustrating_stim/white_mw010.bmp","0","noMatchOutcome","i","1500","","","","",""
"html-keyboard-response","187","414324","0.0-7.0-3.30","6282571cf39cd89341a474e9","bdp_wmem","Wed Jul 27 2022 12:40:28 GMT-0500 (Central Daylight Time)","574946","Match,No Match","","","","","","","null","","<div class='trialBorder'><div class='vertical-center'><img src='img/fixation2_sml.jpg'</img></div></div>","null","DELAY","","","","","","","","","","",""
