"trial_type","trial_index","time_elapsed","internal_node_id","subject_id","task","startTime","totalTime","labels","view_history","rt","event","trial","time","trialtype","success","stimulus","key_press","stimType","arraySize","arrayFaces","arrayOutcomes","matchType","corrResp","arrayDur","targFace","targCol","targOutcome","trialType","corr"
"pavlovia","0","6","0.0-0.0","608745544b5e63f6a51e761e","bdp_wmem","Tue May 11 2021 22:07:28 GMT-0500 (Central Daylight Time)","609719","Match,No Match","","","","","","","","","","","","","","","","","","","","",""
"instructions","1","5661","0.0-1.0","608745544b5e63f6a51e761e","bdp_wmem","Tue May 11 2021 22:07:28 GMT-0500 (Central Daylight Time)","609719","Match,No Match","[{""page_index"":0,""viewing_time"":5655}]","5655","","","","","","","","","","","","","","","","","","",""
"","","","","608745544b5e63f6a51e761e","bdp_wmem","Tue May 11 2021 22:07:28 GMT-0500 (Central Daylight Time)","609719","Match,No Match","","","fullscreenenter","2","7910","fullscreenenter","","","","","","","","","","","","","","",""
"fullscreen","2","8901","0.0-2.0","608745544b5e63f6a51e761e","bdp_wmem","Tue May 11 2021 22:07:28 GMT-0500 (Central Daylight Time)","609719","Match,No Match","","","","","","","true","","","","","","","","","","","","","",""
"instructions","3","98653","0.0-4.0","608745544b5e63f6a51e761e","bdp_wmem","Tue May 11 2021 22:07:28 GMT-0500 (Central Daylight Time)","609719","Match,No Match","[{""page_index"":0,""viewing_time"":24398},{""page_index"":1,""viewing_time"":19767},{""page_index"":2,""viewing_time"":28985},{""page_index"":3,""viewing_time"":4496},{""page_index"":4,""viewing_time"":12104}]","89751","","","","","","","","","","","","","","","","","","",""
"html-keyboard-response","4","99163","0.0-5.0-1.0","608745544b5e63f6a51e761e","bdp_wmem","Tue May 11 2021 22:07:28 GMT-0500 (Central Daylight Time)","609719","Match,No Match","","null","","","","","","<div class='trialBorder'><div class='vertical-center'><img src='img/fixation2_sml.jpg'</img></div></div>","null","FIX","","","","","","","","","","",""
"html-keyboard-response","5","100670","0.0-5.0-2.0","608745544b5e63f6a51e761e","bdp_wmem","Tue May 11 2021 22:07:28 GMT-0500 (Central Daylight Time)","609719","Match,No Match","","null","","","","","","<div class='trialBorder'><div class='vertical-center'><img style='vertical-align:center; align:center' src='img/fixation2_sml.jpg'></div><div class='arrayDiv1'><div class='tc'><img class='introPic' src='trustrating_stim/white_mw092.bmp'><br><font color='green'><strong>Share</strong></font></div></div></div>","null","ARRAY","1","trustrating_stim/white_mw092.bmp","1","noMatchFace","i","1500","","","","",""
"html-keyboard-response","6","104676","0.0-5.0-3.0","608745544b5e63f6a51e761e","bdp_wmem","Tue May 11 2021 22:07:28 GMT-0500 (Central Daylight Time)","609719","Match,No Match","","null","","","","","","<div class='trialBorder'><div class='vertical-center'><img src='img/fixation2_sml.jpg'</img></div></div>","null","DELAY","","","","","","","","","","",""
"html-keyboard-response","7","106089","0.0-5.0-4.0","608745544b5e63f6a51e761e","bdp_wmem","Tue May 11 2021 22:07:28 GMT-0500 (Central Daylight Time)","609719","Match,No Match","","1411","","","","","","<div class='trialBorder'><div class='targDiv'><div class='tc'><img class='introPic' src='trustrating_stim/white_00807_941205_fb_edt.bmp'><br><font color='green'><strong>Share</strong></font></div></div><div class='respDiv'><div class='respDivL'>Match<br>(e)</div><div class='respDivR'>No Match<br>(i)</div></div></div>","i","TARGET","1","trustrating_stim/white_mw092.bmp","1","noMatchFace","i","1500","trustrating_stim/white_00807_941205_fb_edt.bmp","green","Share","PRACTICE","1"
"html-keyboard-response","8","106599","0.0-5.0-5.0","608745544b5e63f6a51e761e","bdp_wmem","Tue May 11 2021 22:07:28 GMT-0500 (Central Daylight Time)","609719","Match,No Match","","null","","","","","","<div class='trialBorder'><div class='vertical-center'><img src='img/correct.jpg'></div><div class='respDiv'><div class='respDivL'>Match<br>(e)</div><div class='respDivR'><font style='color:orange'>No Match<br>(i)</font></div></div></div>","null","FEEDBACK","","","","","","","","","","",""
"html-keyboard-response","9","107102","0.0-5.0-1.1","608745544b5e63f6a51e761e","bdp_wmem","Tue May 11 2021 22:07:28 GMT-0500 (Central Daylight Time)","609719","Match,No Match","","null","","","","","","<div class='trialBorder'><div class='vertical-center'><img src='img/fixation2_sml.jpg'</img></div></div>","null","FIX","","","","","","","","","","",""
"html-keyboard-response","10","110110","0.0-5.0-2.1","608745544b5e63f6a51e761e","bdp_wmem","Tue May 11 2021 22:07:28 GMT-0500 (Central Daylight Time)","609719","Match,No Match","","null","","","","","","<div class='trialBorder'><div class='vertical-center'><img style='vertical-align:center; align:center' src='img/fixation2_sml.jpg'></div><div class='arrayDiv2'><div class='tl'><img class='introPic' src='trustrating_stim/white_mw015.bmp'><br><font color='red'><strong>Keep</strong></font></div><div class='tr'><img class='introPic' src='trustrating_stim/white_00807_941205_fb_edt.bmp'><br><font color='green'><strong>Share</strong></font></div></div></div>","null","ARRAY","2","trustrating_stim/white_mw015.bmp,trustrating_stim/white_00807_941205_fb_edt.bmp","0,1","noMatchOutcome","i","3000","","","","",""
"html-keyboard-response","11","114118","0.0-5.0-3.1","608745544b5e63f6a51e761e","bdp_wmem","Tue May 11 2021 22:07:28 GMT-0500 (Central Daylight Time)","609719","Match,No Match","","null","","","","","","<div class='trialBorder'><div class='vertical-center'><img src='img/fixation2_sml.jpg'</img></div></div>","null","DELAY","","","","","","","","","","",""
"html-keyboard-response","12","116740","0.0-5.0-4.1","608745544b5e63f6a51e761e","bdp_wmem","Tue May 11 2021 22:07:28 GMT-0500 (Central Daylight Time)","609719","Match,No Match","","2620","","","","","","<div class='trialBorder'><div class='targDiv'><div class='tc'><img class='introPic' src='trustrating_stim/white_mw015.bmp'><br><font color='green'><strong>Share</strong></font></div></div><div class='respDiv'><div class='respDivL'>Match<br>(e)</div><div class='respDivR'>No Match<br>(i)</div></div></div>","e","TARGET","2","trustrating_stim/white_mw015.bmp,trustrating_stim/white_00807_941205_fb_edt.bmp","0,1","noMatchOutcome","i","3000","trustrating_stim/white_mw015.bmp","green","Share","PRACTICE","0"
"html-keyboard-response","13","117245","0.0-5.0-5.1","608745544b5e63f6a51e761e","bdp_wmem","Tue May 11 2021 22:07:28 GMT-0500 (Central Daylight Time)","609719","Match,No Match","","null","","","","","","<div class='trialBorder'><div class='vertical-center'><img src='img/error.jpg'></div><div class='respDiv'><div class='respDivL'><font style='color:orange'>Match<br>(e)</font></div><div class='respDivR'>No Match<br>(i)</div></div></div>","null","FEEDBACK","","","","","","","","","","",""
"html-keyboard-response","14","117752","0.0-5.0-1.2","608745544b5e63f6a51e761e","bdp_wmem","Tue May 11 2021 22:07:28 GMT-0500 (Central Daylight Time)","609719","Match,No Match","","null","","","","","","<div class='trialBorder'><div class='vertical-center'><img src='img/fixation2_sml.jpg'</img></div></div>","null","FIX","","","","","","","","","","",""
"html-keyboard-response","15","122262","0.0-5.0-2.2","608745544b5e63f6a51e761e","bdp_wmem","Tue May 11 2021 22:07:28 GMT-0500 (Central Daylight Time)","609719","Match,No Match","","null","","","","","","<div class='trialBorder'><div class='vertical-center'><img style='vertical-align:center; align:center' src='img/fixation2_sml.jpg'></div><div class='arrayDiv3'><div class='tl'><img class='introPic' src='trustrating_stim/white_mw012.bmp'><br><font color='green'><strong>Share</strong></font></div><div class='tc'><img class='introPic' src='trustrating_stim/white_mw070.bmp'><br><font color='red'><strong>Keep</strong></font></div><div class='tr'><img class='introPic' src='trustrating_stim/white_mw092.bmp'><br><font color='green'><strong>Share</strong></font></div></div></div>","null","ARRAY","3","trustrating_stim/white_mw012.bmp,trustrating_stim/white_mw070.bmp,trustrating_stim/white_mw092.bmp","1,0,1","Match","e","4500","","","","",""
"html-keyboard-response","16","126268","0.0-5.0-3.2","608745544b5e63f6a51e761e","bdp_wmem","Tue May 11 2021 22:07:28 GMT-0500 (Central Daylight Time)","609719","Match,No Match","","null","","","","","","<div class='trialBorder'><div class='vertical-center'><img src='img/fixation2_sml.jpg'</img></div></div>","null","DELAY","","","","","","","","","","",""
"html-keyboard-response","17","127701","0.0-5.0-4.2","608745544b5e63f6a51e761e","bdp_wmem","Tue May 11 2021 22:07:28 GMT-0500 (Central Daylight Time)","609719","Match,No Match","","1431","","","","","","<div class='trialBorder'><div class='targDiv'><div class='tc'><img class='introPic' src='trustrating_stim/white_mw070.bmp'><br><font color='red'><strong>Keep</strong></font></div></div><div class='respDiv'><div class='respDivL'>Match<br>(e)</div><div class='respDivR'>No Match<br>(i)</div></div></div>","e","TARGET","3","trustrating_stim/white_mw012.bmp,trustrating_stim/white_mw070.bmp,trustrating_stim/white_mw092.bmp","1,0,1","Match","e","4500","trustrating_stim/white_mw070.bmp","red","Keep","PRACTICE","1"
"html-keyboard-response","18","128209","0.0-5.0-5.2","608745544b5e63f6a51e761e","bdp_wmem","Tue May 11 2021 22:07:28 GMT-0500 (Central Daylight Time)","609719","Match,No Match","","null","","","","","","<div class='trialBorder'><div class='vertical-center'><img src='img/correct.jpg'></div><div class='respDiv'><div class='respDivL'><font style='color:orange'>Match<br>(e)</font></div><div class='respDivR'>No Match<br>(i)</div></div></div>","null","FEEDBACK","","","","","","","","","","",""
"html-keyboard-response","19","128712","0.0-5.0-1.3","608745544b5e63f6a51e761e","bdp_wmem","Tue May 11 2021 22:07:28 GMT-0500 (Central Daylight Time)","609719","Match,No Match","","null","","","","","","<div class='trialBorder'><div class='vertical-center'><img src='img/fixation2_sml.jpg'</img></div></div>","null","FIX","","","","","","","","","","",""
"html-keyboard-response","20","131729","0.0-5.0-2.3","608745544b5e63f6a51e761e","bdp_wmem","Tue May 11 2021 22:07:28 GMT-0500 (Central Daylight Time)","609719","Match,No Match","","null","","","","","","<div class='trialBorder'><div class='vertical-center'><img style='vertical-align:center; align:center' src='img/fixation2_sml.jpg'></div><div class='arrayDiv2'><div class='tl'><img class='introPic' src='trustrating_stim/white_mw003.bmp'><br><font color='red'><strong>Keep</strong></font></div><div class='tr'><img class='introPic' src='trustrating_stim/white_mw038.bmp'><br><font color='green'><strong>Share</strong></font></div></div></div>","null","ARRAY","2","trustrating_stim/white_mw003.bmp,trustrating_stim/white_mw038.bmp","0,1","Match","e","3000","","","","",""
"html-keyboard-response","21","135731","0.0-5.0-3.3","608745544b5e63f6a51e761e","bdp_wmem","Tue May 11 2021 22:07:28 GMT-0500 (Central Daylight Time)","609719","Match,No Match","","null","","","","","","<div class='trialBorder'><div class='vertical-center'><img src='img/fixation2_sml.jpg'</img></div></div>","null","DELAY","","","","","","","","","","",""
"html-keyboard-response","22","138039","0.0-5.0-4.3","608745544b5e63f6a51e761e","bdp_wmem","Tue May 11 2021 22:07:28 GMT-0500 (Central Daylight Time)","609719","Match,No Match","","2305","","","","","","<div class='trialBorder'><div class='targDiv'><div class='tc'><img class='introPic' src='trustrating_stim/white_mw003.bmp'><br><font color='red'><strong>Keep</strong></font></div></div><div class='respDiv'><div class='respDivL'>Match<br>(e)</div><div class='respDivR'>No Match<br>(i)</div></div></div>","e","TARGET","2","trustrating_stim/white_mw003.bmp,trustrating_stim/white_mw038.bmp","0,1","Match","e","3000","trustrating_stim/white_mw003.bmp","red","Keep","PRACTICE","1"
"html-keyboard-response","23","138545","0.0-5.0-5.3","608745544b5e63f6a51e761e","bdp_wmem","Tue May 11 2021 22:07:28 GMT-0500 (Central Daylight Time)","609719","Match,No Match","","null","","","","","","<div class='trialBorder'><div class='vertical-center'><img src='img/correct.jpg'></div><div class='respDiv'><div class='respDivL'><font style='color:orange'>Match<br>(e)</font></div><div class='respDivR'>No Match<br>(i)</div></div></div>","null","FEEDBACK","","","","","","","","","","",""
"html-keyboard-response","24","139053","0.0-5.0-1.4","608745544b5e63f6a51e761e","bdp_wmem","Tue May 11 2021 22:07:28 GMT-0500 (Central Daylight Time)","609719","Match,No Match","","null","","","","","","<div class='trialBorder'><div class='vertical-center'><img src='img/fixation2_sml.jpg'</img></div></div>","null","FIX","","","","","","","","","","",""
"html-keyboard-response","25","140555","0.0-5.0-2.4","608745544b5e63f6a51e761e","bdp_wmem","Tue May 11 2021 22:07:28 GMT-0500 (Central Daylight Time)","609719","Match,No Match","","null","","","","","","<div class='trialBorder'><div class='vertical-center'><img style='vertical-align:center; align:center' src='img/fixation2_sml.jpg'></div><div class='arrayDiv1'><div class='tc'><img class='introPic' src='trustrating_stim/white_00050_931230_fa_edt.bmp'><br><font color='green'><strong>Share</strong></font></div></div></div>","null","ARRAY","1","trustrating_stim/white_00050_931230_fa_edt.bmp","1","Match","e","1500","","","","",""
"html-keyboard-response","26","144563","0.0-5.0-3.4","608745544b5e63f6a51e761e","bdp_wmem","Tue May 11 2021 22:07:28 GMT-0500 (Central Daylight Time)","609719","Match,No Match","","null","","","","","","<div class='trialBorder'><div class='vertical-center'><img src='img/fixation2_sml.jpg'</img></div></div>","null","DELAY","","","","","","","","","","",""
"html-keyboard-response","27","145454","0.0-5.0-4.4","608745544b5e63f6a51e761e","bdp_wmem","Tue May 11 2021 22:07:28 GMT-0500 (Central Daylight Time)","609719","Match,No Match","","889","","","","","","<div class='trialBorder'><div class='targDiv'><div class='tc'><img class='introPic' src='trustrating_stim/white_00050_931230_fa_edt.bmp'><br><font color='green'><strong>Share</strong></font></div></div><div class='respDiv'><div class='respDivL'>Match<br>(e)</div><div class='respDivR'>No Match<br>(i)</div></div></div>","i","TARGET","1","trustrating_stim/white_00050_931230_fa_edt.bmp","1","Match","e","1500","trustrating_stim/white_00050_931230_fa_edt.bmp","green","Share","PRACTICE","0"
"html-keyboard-response","28","145962","0.0-5.0-5.4","608745544b5e63f6a51e761e","bdp_wmem","Tue May 11 2021 22:07:28 GMT-0500 (Central Daylight Time)","609719","Match,No Match","","null","","","","","","<div class='trialBorder'><div class='vertical-center'><img src='img/error.jpg'></div><div class='respDiv'><div class='respDivL'>Match<br>(e)</div><div class='respDivR'><font style='color:orange'>No Match<br>(i)</font></div></div></div>","null","FEEDBACK","","","","","","","","","","",""
"html-keyboard-response","29","146470","0.0-5.0-1.5","608745544b5e63f6a51e761e","bdp_wmem","Tue May 11 2021 22:07:28 GMT-0500 (Central Daylight Time)","609719","Match,No Match","","null","","","","","","<div class='trialBorder'><div class='vertical-center'><img src='img/fixation2_sml.jpg'</img></div></div>","null","FIX","","","","","","","","","","",""
"html-keyboard-response","30","150978","0.0-5.0-2.5","608745544b5e63f6a51e761e","bdp_wmem","Tue May 11 2021 22:07:28 GMT-0500 (Central Daylight Time)","609719","Match,No Match","","null","","","","","","<div class='trialBorder'><div class='vertical-center'><img style='vertical-align:center; align:center' src='img/fixation2_sml.jpg'></div><div class='arrayDiv3'><div class='tl'><img class='introPic' src='trustrating_stim/white_mw038.bmp'><br><font color='red'><strong>Keep</strong></font></div><div class='tc'><img class='introPic' src='trustrating_stim/white_mw091.bmp'><br><font color='green'><strong>Share</strong></font></div><div class='tr'><img class='introPic' src='trustrating_stim/white_mw003.bmp'><br><font color='red'><strong>Keep</strong></font></div></div></div>","null","ARRAY","3","trustrating_stim/white_mw038.bmp,trustrating_stim/white_mw091.bmp,trustrating_stim/white_mw003.bmp","0,1,0","noMatchOutcome","i","4500","","","","",""
"html-keyboard-response","31","154988","0.0-5.0-3.5","608745544b5e63f6a51e761e","bdp_wmem","Tue May 11 2021 22:07:28 GMT-0500 (Central Daylight Time)","609719","Match,No Match","","null","","","","","","<div class='trialBorder'><div class='vertical-center'><img src='img/fixation2_sml.jpg'</img></div></div>","null","DELAY","","","","","","","","","","",""
"html-keyboard-response","32","156887","0.0-5.0-4.5","608745544b5e63f6a51e761e","bdp_wmem","Tue May 11 2021 22:07:28 GMT-0500 (Central Daylight Time)","609719","Match,No Match","","1897","","","","","","<div class='trialBorder'><div class='targDiv'><div class='tc'><img class='introPic' src='trustrating_stim/white_mw038.bmp'><br><font color='green'><strong>Share</strong></font></div></div><div class='respDiv'><div class='respDivL'>Match<br>(e)</div><div class='respDivR'>No Match<br>(i)</div></div></div>","i","TARGET","3","trustrating_stim/white_mw038.bmp,trustrating_stim/white_mw091.bmp,trustrating_stim/white_mw003.bmp","0,1,0","noMatchOutcome","i","4500","trustrating_stim/white_mw038.bmp","green","Share","PRACTICE","1"
"html-keyboard-response","33","157391","0.0-5.0-5.5","608745544b5e63f6a51e761e","bdp_wmem","Tue May 11 2021 22:07:28 GMT-0500 (Central Daylight Time)","609719","Match,No Match","","null","","","","","","<div class='trialBorder'><div class='vertical-center'><img src='img/correct.jpg'></div><div class='respDiv'><div class='respDivL'>Match<br>(e)</div><div class='respDivR'><font style='color:orange'>No Match<br>(i)</font></div></div></div>","null","FEEDBACK","","","","","","","","","","",""
"instructions","34","161632","0.0-6.0","608745544b5e63f6a51e761e","bdp_wmem","Tue May 11 2021 22:07:28 GMT-0500 (Central Daylight Time)","609719","Match,No Match","[{""page_index"":0,""viewing_time"":4240}]","4240","","","","","","","","","","","","","","","","","","",""
"html-keyboard-response","35","162136","0.0-7.0-1.0","608745544b5e63f6a51e761e","bdp_wmem","Tue May 11 2021 22:07:28 GMT-0500 (Central Daylight Time)","609719","Match,No Match","","null","","","","","","<div class='trialBorder'><div class='vertical-center'><img src='img/fixation2_sml.jpg'</img></div></div>","null","FIX","","","","","","","","","","",""
"html-keyboard-response","36","163646","0.0-7.0-2.0","608745544b5e63f6a51e761e","bdp_wmem","Tue May 11 2021 22:07:28 GMT-0500 (Central Daylight Time)","609719","Match,No Match","","null","","","","","","<div class='trialBorder'><div class='vertical-center'><img style='vertical-align:center; align:center' src='img/fixation2_sml.jpg'></div><div class='arrayDiv1'><div class='tc'><img class='introPic' src='trustrating_stim/white_mw013.bmp'><br><font color='green'><strong>Share</strong></font></div></div></div>","null","ARRAY","1","trustrating_stim/white_mw013.bmp","1","noMatchFace","i","1500","","","","",""
"html-keyboard-response","37","167654","0.0-7.0-3.0","608745544b5e63f6a51e761e","bdp_wmem","Tue May 11 2021 22:07:28 GMT-0500 (Central Daylight Time)","609719","Match,No Match","","null","","","","","","<div class='trialBorder'><div class='vertical-center'><img src='img/fixation2_sml.jpg'</img></div></div>","null","DELAY","","","","","","","","","","",""
"html-keyboard-response","38","168552","0.0-7.0-4.0","608745544b5e63f6a51e761e","bdp_wmem","Tue May 11 2021 22:07:28 GMT-0500 (Central Daylight Time)","609719","Match,No Match","","896","","","","","","<div class='trialBorder'><div class='targDiv'><div class='tc'><img class='introPic' src='trustrating_stim/white_mw038.bmp'><br><font color='green'><strong>Share</strong></font></div></div><div class='respDiv'><div class='respDivL'>Match<br>(e)</div><div class='respDivR'>No Match<br>(i)</div></div></div>","i","TARGET","1","trustrating_stim/white_mw013.bmp","1","noMatchFace","i","1500","trustrating_stim/white_mw038.bmp","green","Share","REAL","1"
"html-keyboard-response","39","169058","0.0-7.0-5.0","608745544b5e63f6a51e761e","bdp_wmem","Tue May 11 2021 22:07:28 GMT-0500 (Central Daylight Time)","609719","Match,No Match","","null","","","","","","<div class='trialBorder'><div class='vertical-center'><img src='img/correct.jpg'></div><div class='respDiv'><div class='respDivL'>Match<br>(e)</div><div class='respDivR'><font style='color:orange'>No Match<br>(i)</font></div></div></div>","null","FEEDBACK","","","","","","","","","","",""
"html-keyboard-response","40","169560","0.0-7.0-1.1","608745544b5e63f6a51e761e","bdp_wmem","Tue May 11 2021 22:07:28 GMT-0500 (Central Daylight Time)","609719","Match,No Match","","null","","","","","","<div class='trialBorder'><div class='vertical-center'><img src='img/fixation2_sml.jpg'</img></div></div>","null","FIX","","","","","","","","","","",""
"html-keyboard-response","41","174065","0.0-7.0-2.1","608745544b5e63f6a51e761e","bdp_wmem","Tue May 11 2021 22:07:28 GMT-0500 (Central Daylight Time)","609719","Match,No Match","","null","","","","","","<div class='trialBorder'><div class='vertical-center'><img style='vertical-align:center; align:center' src='img/fixation2_sml.jpg'></div><div class='arrayDiv3'><div class='tl'><img class='introPic' src='trustrating_stim/white_mw015.bmp'><br><font color='green'><strong>Share</strong></font></div><div class='tc'><img class='introPic' src='trustrating_stim/white_mw092.bmp'><br><font color='red'><strong>Keep</strong></font></div><div class='tr'><img class='introPic' src='trustrating_stim/white_mw070.bmp'><br><font color='green'><strong>Share</strong></font></div></div></div>","null","ARRAY","3","trustrating_stim/white_mw015.bmp,trustrating_stim/white_mw092.bmp,trustrating_stim/white_mw070.bmp","1,0,1","Match","e","4500","","","","",""
"html-keyboard-response","42","178076","0.0-7.0-3.1","608745544b5e63f6a51e761e","bdp_wmem","Tue May 11 2021 22:07:28 GMT-0500 (Central Daylight Time)","609719","Match,No Match","","null","","","","","","<div class='trialBorder'><div class='vertical-center'><img src='img/fixation2_sml.jpg'</img></div></div>","null","DELAY","","","","","","","","","","",""
"html-keyboard-response","43","179819","0.0-7.0-4.1","608745544b5e63f6a51e761e","bdp_wmem","Tue May 11 2021 22:07:28 GMT-0500 (Central Daylight Time)","609719","Match,No Match","","1740","","","","","","<div class='trialBorder'><div class='targDiv'><div class='tc'><img class='introPic' src='trustrating_stim/white_mw092.bmp'><br><font color='red'><strong>Keep</strong></font></div></div><div class='respDiv'><div class='respDivL'>Match<br>(e)</div><div class='respDivR'>No Match<br>(i)</div></div></div>","e","TARGET","3","trustrating_stim/white_mw015.bmp,trustrating_stim/white_mw092.bmp,trustrating_stim/white_mw070.bmp","1,0,1","Match","e","4500","trustrating_stim/white_mw092.bmp","red","Keep","REAL","1"
"html-keyboard-response","44","180320","0.0-7.0-5.1","608745544b5e63f6a51e761e","bdp_wmem","Tue May 11 2021 22:07:28 GMT-0500 (Central Daylight Time)","609719","Match,No Match","","null","","","","","","<div class='trialBorder'><div class='vertical-center'><img src='img/correct.jpg'></div><div class='respDiv'><div class='respDivL'><font style='color:orange'>Match<br>(e)</font></div><div class='respDivR'>No Match<br>(i)</div></div></div>","null","FEEDBACK","","","","","","","","","","",""
"html-keyboard-response","45","180828","0.0-7.0-1.2","608745544b5e63f6a51e761e","bdp_wmem","Tue May 11 2021 22:07:28 GMT-0500 (Central Daylight Time)","609719","Match,No Match","","null","","","","","","<div class='trialBorder'><div class='vertical-center'><img src='img/fixation2_sml.jpg'</img></div></div>","null","FIX","","","","","","","","","","",""
"html-keyboard-response","46","185335","0.0-7.0-2.2","608745544b5e63f6a51e761e","bdp_wmem","Tue May 11 2021 22:07:28 GMT-0500 (Central Daylight Time)","609719","Match,No Match","","null","","","","","","<div class='trialBorder'><div class='vertical-center'><img style='vertical-align:center; align:center' src='img/fixation2_sml.jpg'></div><div class='arrayDiv3'><div class='tl'><img class='introPic' src='trustrating_stim/white_mw013.bmp'><br><font color='red'><strong>Keep</strong></font></div><div class='tc'><img class='introPic' src='trustrating_stim/white_mw091.bmp'><br><font color='red'><strong>Keep</strong></font></div><div class='tr'><img class='introPic' src='trustrating_stim/white_mw038.bmp'><br><font color='green'><strong>Share</strong></font></div></div></div>","null","ARRAY","3","trustrating_stim/white_mw013.bmp,trustrating_stim/white_mw091.bmp,trustrating_stim/white_mw038.bmp","0,0,1","noMatchFace","i","4500","","","","",""
"html-keyboard-response","47","189341","0.0-7.0-3.2","608745544b5e63f6a51e761e","bdp_wmem","Tue May 11 2021 22:07:28 GMT-0500 (Central Daylight Time)","609719","Match,No Match","","null","","","","","","<div class='trialBorder'><div class='vertical-center'><img src='img/fixation2_sml.jpg'</img></div></div>","null","DELAY","","","","","","","","","","",""
"html-keyboard-response","48","191417","0.0-7.0-4.2","608745544b5e63f6a51e761e","bdp_wmem","Tue May 11 2021 22:07:28 GMT-0500 (Central Daylight Time)","609719","Match,No Match","","2073","","","","","","<div class='trialBorder'><div class='targDiv'><div class='tc'><img class='introPic' src='trustrating_stim/white_mw092.bmp'><br><font color='red'><strong>Keep</strong></font></div></div><div class='respDiv'><div class='respDivL'>Match<br>(e)</div><div class='respDivR'>No Match<br>(i)</div></div></div>","i","TARGET","3","trustrating_stim/white_mw013.bmp,trustrating_stim/white_mw091.bmp,trustrating_stim/white_mw038.bmp","0,0,1","noMatchFace","i","4500","trustrating_stim/white_mw092.bmp","red","Keep","REAL","1"
"html-keyboard-response","49","191919","0.0-7.0-5.2","608745544b5e63f6a51e761e","bdp_wmem","Tue May 11 2021 22:07:28 GMT-0500 (Central Daylight Time)","609719","Match,No Match","","null","","","","","","<div class='trialBorder'><div class='vertical-center'><img src='img/correct.jpg'></div><div class='respDiv'><div class='respDivL'>Match<br>(e)</div><div class='respDivR'><font style='color:orange'>No Match<br>(i)</font></div></div></div>","null","FEEDBACK","","","","","","","","","","",""
"html-keyboard-response","50","192421","0.0-7.0-1.3","608745544b5e63f6a51e761e","bdp_wmem","Tue May 11 2021 22:07:28 GMT-0500 (Central Daylight Time)","609719","Match,No Match","","null","","","","","","<div class='trialBorder'><div class='vertical-center'><img src='img/fixation2_sml.jpg'</img></div></div>","null","FIX","","","","","","","","","","",""
"html-keyboard-response","51","196931","0.0-7.0-2.3","608745544b5e63f6a51e761e","bdp_wmem","Tue May 11 2021 22:07:28 GMT-0500 (Central Daylight Time)","609719","Match,No Match","","null","","","","","","<div class='trialBorder'><div class='vertical-center'><img style='vertical-align:center; align:center' src='img/fixation2_sml.jpg'></div><div class='arrayDiv3'><div class='tl'><img class='introPic' src='trustrating_stim/white_mw033.bmp'><br><font color='green'><strong>Share</strong></font></div><div class='tc'><img class='introPic' src='trustrating_stim/white_mw091.bmp'><br><font color='green'><strong>Share</strong></font></div><div class='tr'><img class='introPic' src='trustrating_stim/white_mw040.bmp'><br><font color='red'><strong>Keep</strong></font></div></div></div>","null","ARRAY","3","trustrating_stim/white_mw033.bmp,trustrating_stim/white_mw091.bmp,trustrating_stim/white_mw040.bmp","1,1,0","noMatchOutcome","i","4500","","","","",""
"html-keyboard-response","52","200941","0.0-7.0-3.3","608745544b5e63f6a51e761e","bdp_wmem","Tue May 11 2021 22:07:28 GMT-0500 (Central Daylight Time)","609719","Match,No Match","","null","","","","","","<div class='trialBorder'><div class='vertical-center'><img src='img/fixation2_sml.jpg'</img></div></div>","null","DELAY","","","","","","","","","","",""
"html-keyboard-response","53","202198","0.0-7.0-4.3","608745544b5e63f6a51e761e","bdp_wmem","Tue May 11 2021 22:07:28 GMT-0500 (Central Daylight Time)","609719","Match,No Match","","1255","","","","","","<div class='trialBorder'><div class='targDiv'><div class='tc'><img class='introPic' src='trustrating_stim/white_mw033.bmp'><br><font color='red'><strong>Keep</strong></font></div></div><div class='respDiv'><div class='respDivL'>Match<br>(e)</div><div class='respDivR'>No Match<br>(i)</div></div></div>","i","TARGET","3","trustrating_stim/white_mw033.bmp,trustrating_stim/white_mw091.bmp,trustrating_stim/white_mw040.bmp","1,1,0","noMatchOutcome","i","4500","trustrating_stim/white_mw033.bmp","red","Keep","REAL","1"
"html-keyboard-response","54","202707","0.0-7.0-5.3","608745544b5e63f6a51e761e","bdp_wmem","Tue May 11 2021 22:07:28 GMT-0500 (Central Daylight Time)","609719","Match,No Match","","null","","","","","","<div class='trialBorder'><div class='vertical-center'><img src='img/correct.jpg'></div><div class='respDiv'><div class='respDivL'>Match<br>(e)</div><div class='respDivR'><font style='color:orange'>No Match<br>(i)</font></div></div></div>","null","FEEDBACK","","","","","","","","","","",""
"html-keyboard-response","55","203213","0.0-7.0-1.4","608745544b5e63f6a51e761e","bdp_wmem","Tue May 11 2021 22:07:28 GMT-0500 (Central Daylight Time)","609719","Match,No Match","","null","","","","","","<div class='trialBorder'><div class='vertical-center'><img src='img/fixation2_sml.jpg'</img></div></div>","null","FIX","","","","","","","","","","",""
"html-keyboard-response","56","206223","0.0-7.0-2.4","608745544b5e63f6a51e761e","bdp_wmem","Tue May 11 2021 22:07:28 GMT-0500 (Central Daylight Time)","609719","Match,No Match","","null","","","","","","<div class='trialBorder'><div class='vertical-center'><img style='vertical-align:center; align:center' src='img/fixation2_sml.jpg'></div><div class='arrayDiv2'><div class='tl'><img class='introPic' src='trustrating_stim/white_mw013.bmp'><br><font color='green'><strong>Share</strong></font></div><div class='tr'><img class='introPic' src='trustrating_stim/white_mw070.bmp'><br><font color='red'><strong>Keep</strong></font></div></div></div>","null","ARRAY","2","trustrating_stim/white_mw013.bmp,trustrating_stim/white_mw070.bmp","1,0","Match","e","3000","","","","",""
"html-keyboard-response","57","210232","0.0-7.0-3.4","608745544b5e63f6a51e761e","bdp_wmem","Tue May 11 2021 22:07:28 GMT-0500 (Central Daylight Time)","609719","Match,No Match","","null","","","","","","<div class='trialBorder'><div class='vertical-center'><img src='img/fixation2_sml.jpg'</img></div></div>","null","DELAY","","","","","","","","","","",""
"html-keyboard-response","58","211453","0.0-7.0-4.4","608745544b5e63f6a51e761e","bdp_wmem","Tue May 11 2021 22:07:28 GMT-0500 (Central Daylight Time)","609719","Match,No Match","","1220","","","","","","<div class='trialBorder'><div class='targDiv'><div class='tc'><img class='introPic' src='trustrating_stim/white_mw013.bmp'><br><font color='green'><strong>Share</strong></font></div></div><div class='respDiv'><div class='respDivL'>Match<br>(e)</div><div class='respDivR'>No Match<br>(i)</div></div></div>","e","TARGET","2","trustrating_stim/white_mw013.bmp,trustrating_stim/white_mw070.bmp","1,0","Match","e","3000","trustrating_stim/white_mw013.bmp","green","Share","REAL","1"
"html-keyboard-response","59","211958","0.0-7.0-5.4","608745544b5e63f6a51e761e","bdp_wmem","Tue May 11 2021 22:07:28 GMT-0500 (Central Daylight Time)","609719","Match,No Match","","null","","","","","","<div class='trialBorder'><div class='vertical-center'><img src='img/correct.jpg'></div><div class='respDiv'><div class='respDivL'><font style='color:orange'>Match<br>(e)</font></div><div class='respDivR'>No Match<br>(i)</div></div></div>","null","FEEDBACK","","","","","","","","","","",""
"html-keyboard-response","60","212459","0.0-7.0-1.5","608745544b5e63f6a51e761e","bdp_wmem","Tue May 11 2021 22:07:28 GMT-0500 (Central Daylight Time)","609719","Match,No Match","","null","","","","","","<div class='trialBorder'><div class='vertical-center'><img src='img/fixation2_sml.jpg'</img></div></div>","null","FIX","","","","","","","","","","",""
"html-keyboard-response","61","216966","0.0-7.0-2.5","608745544b5e63f6a51e761e","bdp_wmem","Tue May 11 2021 22:07:28 GMT-0500 (Central Daylight Time)","609719","Match,No Match","","null","","","","","","<div class='trialBorder'><div class='vertical-center'><img style='vertical-align:center; align:center' src='img/fixation2_sml.jpg'></div><div class='arrayDiv3'><div class='tl'><img class='introPic' src='trustrating_stim/white_00050_931230_fa_edt.bmp'><br><font color='green'><strong>Share</strong></font></div><div class='tc'><img class='introPic' src='trustrating_stim/white_mw040.bmp'><br><font color='green'><strong>Share</strong></font></div><div class='tr'><img class='introPic' src='trustrating_stim/white_mw012.bmp'><br><font color='red'><strong>Keep</strong></font></div></div></div>","null","ARRAY","3","trustrating_stim/white_00050_931230_fa_edt.bmp,trustrating_stim/white_mw040.bmp,trustrating_stim/white_mw012.bmp","1,1,0","Match","e","4500","","","","",""
"html-keyboard-response","62","220969","0.0-7.0-3.5","608745544b5e63f6a51e761e","bdp_wmem","Tue May 11 2021 22:07:28 GMT-0500 (Central Daylight Time)","609719","Match,No Match","","null","","","","","","<div class='trialBorder'><div class='vertical-center'><img src='img/fixation2_sml.jpg'</img></div></div>","null","DELAY","","","","","","","","","","",""
"html-keyboard-response","63","222554","0.0-7.0-4.5","608745544b5e63f6a51e761e","bdp_wmem","Tue May 11 2021 22:07:28 GMT-0500 (Central Daylight Time)","609719","Match,No Match","","1582","","","","","","<div class='trialBorder'><div class='targDiv'><div class='tc'><img class='introPic' src='trustrating_stim/white_mw040.bmp'><br><font color='green'><strong>Share</strong></font></div></div><div class='respDiv'><div class='respDivL'>Match<br>(e)</div><div class='respDivR'>No Match<br>(i)</div></div></div>","e","TARGET","3","trustrating_stim/white_00050_931230_fa_edt.bmp,trustrating_stim/white_mw040.bmp,trustrating_stim/white_mw012.bmp","1,1,0","Match","e","4500","trustrating_stim/white_mw040.bmp","green","Share","REAL","1"
"html-keyboard-response","64","223064","0.0-7.0-5.5","608745544b5e63f6a51e761e","bdp_wmem","Tue May 11 2021 22:07:28 GMT-0500 (Central Daylight Time)","609719","Match,No Match","","null","","","","","","<div class='trialBorder'><div class='vertical-center'><img src='img/correct.jpg'></div><div class='respDiv'><div class='respDivL'><font style='color:orange'>Match<br>(e)</font></div><div class='respDivR'>No Match<br>(i)</div></div></div>","null","FEEDBACK","","","","","","","","","","",""
"html-keyboard-response","65","223573","0.0-7.0-1.6","608745544b5e63f6a51e761e","bdp_wmem","Tue May 11 2021 22:07:28 GMT-0500 (Central Daylight Time)","609719","Match,No Match","","null","","","","","","<div class='trialBorder'><div class='vertical-center'><img src='img/fixation2_sml.jpg'</img></div></div>","null","FIX","","","","","","","","","","",""
"html-keyboard-response","66","225078","0.0-7.0-2.6","608745544b5e63f6a51e761e","bdp_wmem","Tue May 11 2021 22:07:28 GMT-0500 (Central Daylight Time)","609719","Match,No Match","","null","","","","","","<div class='trialBorder'><div class='vertical-center'><img style='vertical-align:center; align:center' src='img/fixation2_sml.jpg'></div><div class='arrayDiv1'><div class='tc'><img class='introPic' src='trustrating_stim/white_mw070.bmp'><br><font color='red'><strong>Keep</strong></font></div></div></div>","null","ARRAY","1","trustrating_stim/white_mw070.bmp","0","Match","e","1500","","","","",""
"html-keyboard-response","67","229082","0.0-7.0-3.6","608745544b5e63f6a51e761e","bdp_wmem","Tue May 11 2021 22:07:28 GMT-0500 (Central Daylight Time)","609719","Match,No Match","","null","","","","","","<div class='trialBorder'><div class='vertical-center'><img src='img/fixation2_sml.jpg'</img></div></div>","null","DELAY","","","","","","","","","","",""
"html-keyboard-response","68","230609","0.0-7.0-4.6","608745544b5e63f6a51e761e","bdp_wmem","Tue May 11 2021 22:07:28 GMT-0500 (Central Daylight Time)","609719","Match,No Match","","1525","","","","","","<div class='trialBorder'><div class='targDiv'><div class='tc'><img class='introPic' src='trustrating_stim/white_mw070.bmp'><br><font color='red'><strong>Keep</strong></font></div></div><div class='respDiv'><div class='respDivL'>Match<br>(e)</div><div class='respDivR'>No Match<br>(i)</div></div></div>","e","TARGET","1","trustrating_stim/white_mw070.bmp","0","Match","e","1500","trustrating_stim/white_mw070.bmp","red","Keep","REAL","1"
"html-keyboard-response","69","231126","0.0-7.0-5.6","608745544b5e63f6a51e761e","bdp_wmem","Tue May 11 2021 22:07:28 GMT-0500 (Central Daylight Time)","609719","Match,No Match","","null","","","","","","<div class='trialBorder'><div class='vertical-center'><img src='img/correct.jpg'></div><div class='respDiv'><div class='respDivL'><font style='color:orange'>Match<br>(e)</font></div><div class='respDivR'>No Match<br>(i)</div></div></div>","null","FEEDBACK","","","","","","","","","","",""
"html-keyboard-response","70","231638","0.0-7.0-1.7","608745544b5e63f6a51e761e","bdp_wmem","Tue May 11 2021 22:07:28 GMT-0500 (Central Daylight Time)","609719","Match,No Match","","null","","","","","","<div class='trialBorder'><div class='vertical-center'><img src='img/fixation2_sml.jpg'</img></div></div>","null","FIX","","","","","","","","","","",""
"html-keyboard-response","71","236155","0.0-7.0-2.7","608745544b5e63f6a51e761e","bdp_wmem","Tue May 11 2021 22:07:28 GMT-0500 (Central Daylight Time)","609719","Match,No Match","","null","","","","","","<div class='trialBorder'><div class='vertical-center'><img style='vertical-align:center; align:center' src='img/fixation2_sml.jpg'></div><div class='arrayDiv3'><div class='tl'><img class='introPic' src='trustrating_stim/white_mw070.bmp'><br><font color='green'><strong>Share</strong></font></div><div class='tc'><img class='introPic' src='trustrating_stim/white_00807_941205_fb_edt.bmp'><br><font color='red'><strong>Keep</strong></font></div><div class='tr'><img class='introPic' src='trustrating_stim/white_mw092.bmp'><br><font color='green'><strong>Share</strong></font></div></div></div>","null","ARRAY","3","trustrating_stim/white_mw070.bmp,trustrating_stim/white_00807_941205_fb_edt.bmp,trustrating_stim/white_mw092.bmp","1,0,1","noMatchOutcome","i","4500","","","","",""
"html-keyboard-response","72","240157","0.0-7.0-3.7","608745544b5e63f6a51e761e","bdp_wmem","Tue May 11 2021 22:07:28 GMT-0500 (Central Daylight Time)","609719","Match,No Match","","null","","","","","","<div class='trialBorder'><div class='vertical-center'><img src='img/fixation2_sml.jpg'</img></div></div>","null","DELAY","","","","","","","","","","",""
"html-keyboard-response","73","242496","0.0-7.0-4.7","608745544b5e63f6a51e761e","bdp_wmem","Tue May 11 2021 22:07:28 GMT-0500 (Central Daylight Time)","609719","Match,No Match","","2337","","","","","","<div class='trialBorder'><div class='targDiv'><div class='tc'><img class='introPic' src='trustrating_stim/white_mw092.bmp'><br><font color='red'><strong>Keep</strong></font></div></div><div class='respDiv'><div class='respDivL'>Match<br>(e)</div><div class='respDivR'>No Match<br>(i)</div></div></div>","e","TARGET","3","trustrating_stim/white_mw070.bmp,trustrating_stim/white_00807_941205_fb_edt.bmp,trustrating_stim/white_mw092.bmp","1,0,1","noMatchOutcome","i","4500","trustrating_stim/white_mw092.bmp","red","Keep","REAL","0"
"html-keyboard-response","74","242997","0.0-7.0-5.7","608745544b5e63f6a51e761e","bdp_wmem","Tue May 11 2021 22:07:28 GMT-0500 (Central Daylight Time)","609719","Match,No Match","","null","","","","","","<div class='trialBorder'><div class='vertical-center'><img src='img/error.jpg'></div><div class='respDiv'><div class='respDivL'><font style='color:orange'>Match<br>(e)</font></div><div class='respDivR'>No Match<br>(i)</div></div></div>","null","FEEDBACK","","","","","","","","","","",""
"html-keyboard-response","75","243499","0.0-7.0-1.8","608745544b5e63f6a51e761e","bdp_wmem","Tue May 11 2021 22:07:28 GMT-0500 (Central Daylight Time)","609719","Match,No Match","","null","","","","","","<div class='trialBorder'><div class='vertical-center'><img src='img/fixation2_sml.jpg'</img></div></div>","null","FIX","","","","","","","","","","",""
"html-keyboard-response","76","248013","0.0-7.0-2.8","608745544b5e63f6a51e761e","bdp_wmem","Tue May 11 2021 22:07:28 GMT-0500 (Central Daylight Time)","609719","Match,No Match","","null","","","","","","<div class='trialBorder'><div class='vertical-center'><img style='vertical-align:center; align:center' src='img/fixation2_sml.jpg'></div><div class='arrayDiv3'><div class='tl'><img class='introPic' src='trustrating_stim/white_mw015.bmp'><br><font color='green'><strong>Share</strong></font></div><div class='tc'><img class='introPic' src='trustrating_stim/white_mw091.bmp'><br><font color='red'><strong>Keep</strong></font></div><div class='tr'><img class='introPic' src='trustrating_stim/white_mw003.bmp'><br><font color='green'><strong>Share</strong></font></div></div></div>","null","ARRAY","3","trustrating_stim/white_mw015.bmp,trustrating_stim/white_mw091.bmp,trustrating_stim/white_mw003.bmp","1,0,1","Match","e","4500","","","","",""
"html-keyboard-response","77","252015","0.0-7.0-3.8","608745544b5e63f6a51e761e","bdp_wmem","Tue May 11 2021 22:07:28 GMT-0500 (Central Daylight Time)","609719","Match,No Match","","null","","","","","","<div class='trialBorder'><div class='vertical-center'><img src='img/fixation2_sml.jpg'</img></div></div>","null","DELAY","","","","","","","","","","",""
"html-keyboard-response","78","253503","0.0-7.0-4.8","608745544b5e63f6a51e761e","bdp_wmem","Tue May 11 2021 22:07:28 GMT-0500 (Central Daylight Time)","609719","Match,No Match","","1487","","","","","","<div class='trialBorder'><div class='targDiv'><div class='tc'><img class='introPic' src='trustrating_stim/white_mw003.bmp'><br><font color='green'><strong>Share</strong></font></div></div><div class='respDiv'><div class='respDivL'>Match<br>(e)</div><div class='respDivR'>No Match<br>(i)</div></div></div>","e","TARGET","3","trustrating_stim/white_mw015.bmp,trustrating_stim/white_mw091.bmp,trustrating_stim/white_mw003.bmp","1,0,1","Match","e","4500","trustrating_stim/white_mw003.bmp","green","Share","REAL","1"
"html-keyboard-response","79","254010","0.0-7.0-5.8","608745544b5e63f6a51e761e","bdp_wmem","Tue May 11 2021 22:07:28 GMT-0500 (Central Daylight Time)","609719","Match,No Match","","null","","","","","","<div class='trialBorder'><div class='vertical-center'><img src='img/correct.jpg'></div><div class='respDiv'><div class='respDivL'><font style='color:orange'>Match<br>(e)</font></div><div class='respDivR'>No Match<br>(i)</div></div></div>","null","FEEDBACK","","","","","","","","","","",""
"html-keyboard-response","80","254512","0.0-7.0-1.9","608745544b5e63f6a51e761e","bdp_wmem","Tue May 11 2021 22:07:28 GMT-0500 (Central Daylight Time)","609719","Match,No Match","","null","","","","","","<div class='trialBorder'><div class='vertical-center'><img src='img/fixation2_sml.jpg'</img></div></div>","null","FIX","","","","","","","","","","",""
"html-keyboard-response","81","256015","0.0-7.0-2.9","608745544b5e63f6a51e761e","bdp_wmem","Tue May 11 2021 22:07:28 GMT-0500 (Central Daylight Time)","609719","Match,No Match","","null","","","","","","<div class='trialBorder'><div class='vertical-center'><img style='vertical-align:center; align:center' src='img/fixation2_sml.jpg'></div><div class='arrayDiv1'><div class='tc'><img class='introPic' src='trustrating_stim/white_mw015.bmp'><br><font color='red'><strong>Keep</strong></font></div></div></div>","null","ARRAY","1","trustrating_stim/white_mw015.bmp","0","Match","e","1500","","","","",""
"html-keyboard-response","82","260021","0.0-7.0-3.9","608745544b5e63f6a51e761e","bdp_wmem","Tue May 11 2021 22:07:28 GMT-0500 (Central Daylight Time)","609719","Match,No Match","","null","","","","","","<div class='trialBorder'><div class='vertical-center'><img src='img/fixation2_sml.jpg'</img></div></div>","null","DELAY","","","","","","","","","","",""
"html-keyboard-response","83","261310","0.0-7.0-4.9","608745544b5e63f6a51e761e","bdp_wmem","Tue May 11 2021 22:07:28 GMT-0500 (Central Daylight Time)","609719","Match,No Match","","1286","","","","","","<div class='trialBorder'><div class='targDiv'><div class='tc'><img class='introPic' src='trustrating_stim/white_mw015.bmp'><br><font color='red'><strong>Keep</strong></font></div></div><div class='respDiv'><div class='respDivL'>Match<br>(e)</div><div class='respDivR'>No Match<br>(i)</div></div></div>","e","TARGET","1","trustrating_stim/white_mw015.bmp","0","Match","e","1500","trustrating_stim/white_mw015.bmp","red","Keep","REAL","1"
"html-keyboard-response","84","261816","0.0-7.0-5.9","608745544b5e63f6a51e761e","bdp_wmem","Tue May 11 2021 22:07:28 GMT-0500 (Central Daylight Time)","609719","Match,No Match","","null","","","","","","<div class='trialBorder'><div class='vertical-center'><img src='img/correct.jpg'></div><div class='respDiv'><div class='respDivL'><font style='color:orange'>Match<br>(e)</font></div><div class='respDivR'>No Match<br>(i)</div></div></div>","null","FEEDBACK","","","","","","","","","","",""
"html-keyboard-response","85","262321","0.0-7.0-1.10","608745544b5e63f6a51e761e","bdp_wmem","Tue May 11 2021 22:07:28 GMT-0500 (Central Daylight Time)","609719","Match,No Match","","null","","","","","","<div class='trialBorder'><div class='vertical-center'><img src='img/fixation2_sml.jpg'</img></div></div>","null","FIX","","","","","","","","","","",""
"html-keyboard-response","86","266827","0.0-7.0-2.10","608745544b5e63f6a51e761e","bdp_wmem","Tue May 11 2021 22:07:28 GMT-0500 (Central Daylight Time)","609719","Match,No Match","","null","","","","","","<div class='trialBorder'><div class='vertical-center'><img style='vertical-align:center; align:center' src='img/fixation2_sml.jpg'></div><div class='arrayDiv3'><div class='tl'><img class='introPic' src='trustrating_stim/white_mw003.bmp'><br><font color='green'><strong>Share</strong></font></div><div class='tc'><img class='introPic' src='trustrating_stim/white_mw013.bmp'><br><font color='green'><strong>Share</strong></font></div><div class='tr'><img class='introPic' src='trustrating_stim/white_mw091.bmp'><br><font color='red'><strong>Keep</strong></font></div></div></div>","null","ARRAY","3","trustrating_stim/white_mw003.bmp,trustrating_stim/white_mw013.bmp,trustrating_stim/white_mw091.bmp","1,1,0","Match","e","4500","","","","",""
"html-keyboard-response","87","270833","0.0-7.0-3.10","608745544b5e63f6a51e761e","bdp_wmem","Tue May 11 2021 22:07:28 GMT-0500 (Central Daylight Time)","609719","Match,No Match","","null","","","","","","<div class='trialBorder'><div class='vertical-center'><img src='img/fixation2_sml.jpg'</img></div></div>","null","DELAY","","","","","","","","","","",""
"html-keyboard-response","88","271962","0.0-7.0-4.10","608745544b5e63f6a51e761e","bdp_wmem","Tue May 11 2021 22:07:28 GMT-0500 (Central Daylight Time)","609719","Match,No Match","","1127","","","","","","<div class='trialBorder'><div class='targDiv'><div class='tc'><img class='introPic' src='trustrating_stim/white_mw013.bmp'><br><font color='green'><strong>Share</strong></font></div></div><div class='respDiv'><div class='respDivL'>Match<br>(e)</div><div class='respDivR'>No Match<br>(i)</div></div></div>","e","TARGET","3","trustrating_stim/white_mw003.bmp,trustrating_stim/white_mw013.bmp,trustrating_stim/white_mw091.bmp","1,1,0","Match","e","4500","trustrating_stim/white_mw013.bmp","green","Share","REAL","1"
"html-keyboard-response","89","272471","0.0-7.0-5.10","608745544b5e63f6a51e761e","bdp_wmem","Tue May 11 2021 22:07:28 GMT-0500 (Central Daylight Time)","609719","Match,No Match","","null","","","","","","<div class='trialBorder'><div class='vertical-center'><img src='img/correct.jpg'></div><div class='respDiv'><div class='respDivL'><font style='color:orange'>Match<br>(e)</font></div><div class='respDivR'>No Match<br>(i)</div></div></div>","null","FEEDBACK","","","","","","","","","","",""
"html-keyboard-response","90","272985","0.0-7.0-1.11","608745544b5e63f6a51e761e","bdp_wmem","Tue May 11 2021 22:07:28 GMT-0500 (Central Daylight Time)","609719","Match,No Match","","null","","","","","","<div class='trialBorder'><div class='vertical-center'><img src='img/fixation2_sml.jpg'</img></div></div>","null","FIX","","","","","","","","","","",""
"html-keyboard-response","91","277494","0.0-7.0-2.11","608745544b5e63f6a51e761e","bdp_wmem","Tue May 11 2021 22:07:28 GMT-0500 (Central Daylight Time)","609719","Match,No Match","","null","","","","","","<div class='trialBorder'><div class='vertical-center'><img style='vertical-align:center; align:center' src='img/fixation2_sml.jpg'></div><div class='arrayDiv3'><div class='tl'><img class='introPic' src='trustrating_stim/white_00050_931230_fa_edt.bmp'><br><font color='green'><strong>Share</strong></font></div><div class='tc'><img class='introPic' src='trustrating_stim/white_mw092.bmp'><br><font color='green'><strong>Share</strong></font></div><div class='tr'><img class='introPic' src='trustrating_stim/white_mw091.bmp'><br><font color='red'><strong>Keep</strong></font></div></div></div>","null","ARRAY","3","trustrating_stim/white_00050_931230_fa_edt.bmp,trustrating_stim/white_mw092.bmp,trustrating_stim/white_mw091.bmp","1,1,0","noMatchOutcome","i","4500","","","","",""
"html-keyboard-response","92","281504","0.0-7.0-3.11","608745544b5e63f6a51e761e","bdp_wmem","Tue May 11 2021 22:07:28 GMT-0500 (Central Daylight Time)","609719","Match,No Match","","null","","","","","","<div class='trialBorder'><div class='vertical-center'><img src='img/fixation2_sml.jpg'</img></div></div>","null","DELAY","","","","","","","","","","",""
"html-keyboard-response","93","283383","0.0-7.0-4.11","608745544b5e63f6a51e761e","bdp_wmem","Tue May 11 2021 22:07:28 GMT-0500 (Central Daylight Time)","609719","Match,No Match","","1877","","","","","","<div class='trialBorder'><div class='targDiv'><div class='tc'><img class='introPic' src='trustrating_stim/white_mw092.bmp'><br><font color='red'><strong>Keep</strong></font></div></div><div class='respDiv'><div class='respDivL'>Match<br>(e)</div><div class='respDivR'>No Match<br>(i)</div></div></div>","i","TARGET","3","trustrating_stim/white_00050_931230_fa_edt.bmp,trustrating_stim/white_mw092.bmp,trustrating_stim/white_mw091.bmp","1,1,0","noMatchOutcome","i","4500","trustrating_stim/white_mw092.bmp","red","Keep","REAL","1"
"html-keyboard-response","94","283891","0.0-7.0-5.11","608745544b5e63f6a51e761e","bdp_wmem","Tue May 11 2021 22:07:28 GMT-0500 (Central Daylight Time)","609719","Match,No Match","","null","","","","","","<div class='trialBorder'><div class='vertical-center'><img src='img/correct.jpg'></div><div class='respDiv'><div class='respDivL'>Match<br>(e)</div><div class='respDivR'><font style='color:orange'>No Match<br>(i)</font></div></div></div>","null","FEEDBACK","","","","","","","","","","",""
"html-keyboard-response","95","284397","0.0-7.0-1.12","608745544b5e63f6a51e761e","bdp_wmem","Tue May 11 2021 22:07:28 GMT-0500 (Central Daylight Time)","609719","Match,No Match","","null","","","","","","<div class='trialBorder'><div class='vertical-center'><img src='img/fixation2_sml.jpg'</img></div></div>","null","FIX","","","","","","","","","","",""
"html-keyboard-response","96","285899","0.0-7.0-2.12","608745544b5e63f6a51e761e","bdp_wmem","Tue May 11 2021 22:07:28 GMT-0500 (Central Daylight Time)","609719","Match,No Match","","null","","","","","","<div class='trialBorder'><div class='vertical-center'><img style='vertical-align:center; align:center' src='img/fixation2_sml.jpg'></div><div class='arrayDiv1'><div class='tc'><img class='introPic' src='trustrating_stim/white_mw040.bmp'><br><font color='green'><strong>Share</strong></font></div></div></div>","null","ARRAY","1","trustrating_stim/white_mw040.bmp","1","noMatchOutcome","i","1500","","","","",""
"html-keyboard-response","97","289901","0.0-7.0-3.12","608745544b5e63f6a51e761e","bdp_wmem","Tue May 11 2021 22:07:28 GMT-0500 (Central Daylight Time)","609719","Match,No Match","","null","","","","","","<div class='trialBorder'><div class='vertical-center'><img src='img/fixation2_sml.jpg'</img></div></div>","null","DELAY","","","","","","","","","","",""
"html-keyboard-response","98","291447","0.0-7.0-4.12","608745544b5e63f6a51e761e","bdp_wmem","Tue May 11 2021 22:07:28 GMT-0500 (Central Daylight Time)","609719","Match,No Match","","1544","","","","","","<div class='trialBorder'><div class='targDiv'><div class='tc'><img class='introPic' src='trustrating_stim/white_mw040.bmp'><br><font color='red'><strong>Keep</strong></font></div></div><div class='respDiv'><div class='respDivL'>Match<br>(e)</div><div class='respDivR'>No Match<br>(i)</div></div></div>","i","TARGET","1","trustrating_stim/white_mw040.bmp","1","noMatchOutcome","i","1500","trustrating_stim/white_mw040.bmp","red","Keep","REAL","1"
"html-keyboard-response","99","291949","0.0-7.0-5.12","608745544b5e63f6a51e761e","bdp_wmem","Tue May 11 2021 22:07:28 GMT-0500 (Central Daylight Time)","609719","Match,No Match","","null","","","","","","<div class='trialBorder'><div class='vertical-center'><img src='img/correct.jpg'></div><div class='respDiv'><div class='respDivL'>Match<br>(e)</div><div class='respDivR'><font style='color:orange'>No Match<br>(i)</font></div></div></div>","null","FEEDBACK","","","","","","","","","","",""
"html-keyboard-response","100","292452","0.0-7.0-1.13","608745544b5e63f6a51e761e","bdp_wmem","Tue May 11 2021 22:07:28 GMT-0500 (Central Daylight Time)","609719","Match,No Match","","null","","","","","","<div class='trialBorder'><div class='vertical-center'><img src='img/fixation2_sml.jpg'</img></div></div>","null","FIX","","","","","","","","","","",""
"html-keyboard-response","101","293963","0.0-7.0-2.13","608745544b5e63f6a51e761e","bdp_wmem","Tue May 11 2021 22:07:28 GMT-0500 (Central Daylight Time)","609719","Match,No Match","","null","","","","","","<div class='trialBorder'><div class='vertical-center'><img style='vertical-align:center; align:center' src='img/fixation2_sml.jpg'></div><div class='arrayDiv1'><div class='tc'><img class='introPic' src='trustrating_stim/white_mw013.bmp'><br><font color='green'><strong>Share</strong></font></div></div></div>","null","ARRAY","1","trustrating_stim/white_mw013.bmp","1","Match","e","1500","","","","",""
"html-keyboard-response","102","297968","0.0-7.0-3.13","608745544b5e63f6a51e761e","bdp_wmem","Tue May 11 2021 22:07:28 GMT-0500 (Central Daylight Time)","609719","Match,No Match","","null","","","","","","<div class='trialBorder'><div class='vertical-center'><img src='img/fixation2_sml.jpg'</img></div></div>","null","DELAY","","","","","","","","","","",""
"html-keyboard-response","103","298759","0.0-7.0-4.13","608745544b5e63f6a51e761e","bdp_wmem","Tue May 11 2021 22:07:28 GMT-0500 (Central Daylight Time)","609719","Match,No Match","","790","","","","","","<div class='trialBorder'><div class='targDiv'><div class='tc'><img class='introPic' src='trustrating_stim/white_mw013.bmp'><br><font color='green'><strong>Share</strong></font></div></div><div class='respDiv'><div class='respDivL'>Match<br>(e)</div><div class='respDivR'>No Match<br>(i)</div></div></div>","e","TARGET","1","trustrating_stim/white_mw013.bmp","1","Match","e","1500","trustrating_stim/white_mw013.bmp","green","Share","REAL","1"
"html-keyboard-response","104","299261","0.0-7.0-5.13","608745544b5e63f6a51e761e","bdp_wmem","Tue May 11 2021 22:07:28 GMT-0500 (Central Daylight Time)","609719","Match,No Match","","null","","","","","","<div class='trialBorder'><div class='vertical-center'><img src='img/correct.jpg'></div><div class='respDiv'><div class='respDivL'><font style='color:orange'>Match<br>(e)</font></div><div class='respDivR'>No Match<br>(i)</div></div></div>","null","FEEDBACK","","","","","","","","","","",""
"html-keyboard-response","105","299767","0.0-7.0-1.14","608745544b5e63f6a51e761e","bdp_wmem","Tue May 11 2021 22:07:28 GMT-0500 (Central Daylight Time)","609719","Match,No Match","","null","","","","","","<div class='trialBorder'><div class='vertical-center'><img src='img/fixation2_sml.jpg'</img></div></div>","null","FIX","","","","","","","","","","",""
"html-keyboard-response","106","304269","0.0-7.0-2.14","608745544b5e63f6a51e761e","bdp_wmem","Tue May 11 2021 22:07:28 GMT-0500 (Central Daylight Time)","609719","Match,No Match","","null","","","","","","<div class='trialBorder'><div class='vertical-center'><img style='vertical-align:center; align:center' src='img/fixation2_sml.jpg'></div><div class='arrayDiv3'><div class='tl'><img class='introPic' src='trustrating_stim/white_00807_941205_fb_edt.bmp'><br><font color='green'><strong>Share</strong></font></div><div class='tc'><img class='introPic' src='trustrating_stim/white_mw033.bmp'><br><font color='red'><strong>Keep</strong></font></div><div class='tr'><img class='introPic' src='trustrating_stim/white_mw012.bmp'><br><font color='green'><strong>Share</strong></font></div></div></div>","null","ARRAY","3","trustrating_stim/white_00807_941205_fb_edt.bmp,trustrating_stim/white_mw033.bmp,trustrating_stim/white_mw012.bmp","1,0,1","Match","e","4500","","","","",""
"html-keyboard-response","107","308276","0.0-7.0-3.14","608745544b5e63f6a51e761e","bdp_wmem","Tue May 11 2021 22:07:28 GMT-0500 (Central Daylight Time)","609719","Match,No Match","","null","","","","","","<div class='trialBorder'><div class='vertical-center'><img src='img/fixation2_sml.jpg'</img></div></div>","null","DELAY","","","","","","","","","","",""
"html-keyboard-response","108","309747","0.0-7.0-4.14","608745544b5e63f6a51e761e","bdp_wmem","Tue May 11 2021 22:07:28 GMT-0500 (Central Daylight Time)","609719","Match,No Match","","1469","","","","","","<div class='trialBorder'><div class='targDiv'><div class='tc'><img class='introPic' src='trustrating_stim/white_mw033.bmp'><br><font color='red'><strong>Keep</strong></font></div></div><div class='respDiv'><div class='respDivL'>Match<br>(e)</div><div class='respDivR'>No Match<br>(i)</div></div></div>","i","TARGET","3","trustrating_stim/white_00807_941205_fb_edt.bmp,trustrating_stim/white_mw033.bmp,trustrating_stim/white_mw012.bmp","1,0,1","Match","e","4500","trustrating_stim/white_mw033.bmp","red","Keep","REAL","0"
"html-keyboard-response","109","310253","0.0-7.0-5.14","608745544b5e63f6a51e761e","bdp_wmem","Tue May 11 2021 22:07:28 GMT-0500 (Central Daylight Time)","609719","Match,No Match","","null","","","","","","<div class='trialBorder'><div class='vertical-center'><img src='img/error.jpg'></div><div class='respDiv'><div class='respDivL'>Match<br>(e)</div><div class='respDivR'><font style='color:orange'>No Match<br>(i)</font></div></div></div>","null","FEEDBACK","","","","","","","","","","",""
"html-keyboard-response","110","310764","0.0-7.0-1.15","608745544b5e63f6a51e761e","bdp_wmem","Tue May 11 2021 22:07:28 GMT-0500 (Central Daylight Time)","609719","Match,No Match","","null","","","","","","<div class='trialBorder'><div class='vertical-center'><img src='img/fixation2_sml.jpg'</img></div></div>","null","FIX","","","","","","","","","","",""
"html-keyboard-response","111","312269","0.0-7.0-2.15","608745544b5e63f6a51e761e","bdp_wmem","Tue May 11 2021 22:07:28 GMT-0500 (Central Daylight Time)","609719","Match,No Match","","null","","","","","","<div class='trialBorder'><div class='vertical-center'><img style='vertical-align:center; align:center' src='img/fixation2_sml.jpg'></div><div class='arrayDiv1'><div class='tc'><img class='introPic' src='trustrating_stim/white_mw013.bmp'><br><font color='green'><strong>Share</strong></font></div></div></div>","null","ARRAY","1","trustrating_stim/white_mw013.bmp","1","noMatchFace","i","1500","","","","",""
"html-keyboard-response","112","316284","0.0-7.0-3.15","608745544b5e63f6a51e761e","bdp_wmem","Tue May 11 2021 22:07:28 GMT-0500 (Central Daylight Time)","609719","Match,No Match","","null","","","","","","<div class='trialBorder'><div class='vertical-center'><img src='img/fixation2_sml.jpg'</img></div></div>","null","DELAY","","","","","","","","","","",""
"html-keyboard-response","113","317320","0.0-7.0-4.15","608745544b5e63f6a51e761e","bdp_wmem","Tue May 11 2021 22:07:28 GMT-0500 (Central Daylight Time)","609719","Match,No Match","","1035","","","","","","<div class='trialBorder'><div class='targDiv'><div class='tc'><img class='introPic' src='trustrating_stim/white_mw070.bmp'><br><font color='green'><strong>Share</strong></font></div></div><div class='respDiv'><div class='respDivL'>Match<br>(e)</div><div class='respDivR'>No Match<br>(i)</div></div></div>","i","TARGET","1","trustrating_stim/white_mw013.bmp","1","noMatchFace","i","1500","trustrating_stim/white_mw070.bmp","green","Share","REAL","1"
"html-keyboard-response","114","317823","0.0-7.0-5.15","608745544b5e63f6a51e761e","bdp_wmem","Tue May 11 2021 22:07:28 GMT-0500 (Central Daylight Time)","609719","Match,No Match","","null","","","","","","<div class='trialBorder'><div class='vertical-center'><img src='img/correct.jpg'></div><div class='respDiv'><div class='respDivL'>Match<br>(e)</div><div class='respDivR'><font style='color:orange'>No Match<br>(i)</font></div></div></div>","null","FEEDBACK","","","","","","","","","","",""
"html-keyboard-response","115","318325","0.0-7.0-1.16","608745544b5e63f6a51e761e","bdp_wmem","Tue May 11 2021 22:07:28 GMT-0500 (Central Daylight Time)","609719","Match,No Match","","null","","","","","","<div class='trialBorder'><div class='vertical-center'><img src='img/fixation2_sml.jpg'</img></div></div>","null","FIX","","","","","","","","","","",""
"html-keyboard-response","116","321334","0.0-7.0-2.16","608745544b5e63f6a51e761e","bdp_wmem","Tue May 11 2021 22:07:28 GMT-0500 (Central Daylight Time)","609719","Match,No Match","","null","","","","","","<div class='trialBorder'><div class='vertical-center'><img style='vertical-align:center; align:center' src='img/fixation2_sml.jpg'></div><div class='arrayDiv2'><div class='tl'><img class='introPic' src='trustrating_stim/white_mw033.bmp'><br><font color='green'><strong>Share</strong></font></div><div class='tr'><img class='introPic' src='trustrating_stim/white_00807_941205_fb_edt.bmp'><br><font color='red'><strong>Keep</strong></font></div></div></div>","null","ARRAY","2","trustrating_stim/white_mw033.bmp,trustrating_stim/white_00807_941205_fb_edt.bmp","1,0","noMatchOutcome","i","3000","","","","",""
"html-keyboard-response","117","325338","0.0-7.0-3.16","608745544b5e63f6a51e761e","bdp_wmem","Tue May 11 2021 22:07:28 GMT-0500 (Central Daylight Time)","609719","Match,No Match","","null","","","","","","<div class='trialBorder'><div class='vertical-center'><img src='img/fixation2_sml.jpg'</img></div></div>","null","DELAY","","","","","","","","","","",""
"html-keyboard-response","118","326540","0.0-7.0-4.16","608745544b5e63f6a51e761e","bdp_wmem","Tue May 11 2021 22:07:28 GMT-0500 (Central Daylight Time)","609719","Match,No Match","","1200","","","","","","<div class='trialBorder'><div class='targDiv'><div class='tc'><img class='introPic' src='trustrating_stim/white_mw033.bmp'><br><font color='red'><strong>Keep</strong></font></div></div><div class='respDiv'><div class='respDivL'>Match<br>(e)</div><div class='respDivR'>No Match<br>(i)</div></div></div>","i","TARGET","2","trustrating_stim/white_mw033.bmp,trustrating_stim/white_00807_941205_fb_edt.bmp","1,0","noMatchOutcome","i","3000","trustrating_stim/white_mw033.bmp","red","Keep","REAL","1"
"html-keyboard-response","119","327049","0.0-7.0-5.16","608745544b5e63f6a51e761e","bdp_wmem","Tue May 11 2021 22:07:28 GMT-0500 (Central Daylight Time)","609719","Match,No Match","","null","","","","","","<div class='trialBorder'><div class='vertical-center'><img src='img/correct.jpg'></div><div class='respDiv'><div class='respDivL'>Match<br>(e)</div><div class='respDivR'><font style='color:orange'>No Match<br>(i)</font></div></div></div>","null","FEEDBACK","","","","","","","","","","",""
"html-keyboard-response","120","327554","0.0-7.0-1.17","608745544b5e63f6a51e761e","bdp_wmem","Tue May 11 2021 22:07:28 GMT-0500 (Central Daylight Time)","609719","Match,No Match","","null","","","","","","<div class='trialBorder'><div class='vertical-center'><img src='img/fixation2_sml.jpg'</img></div></div>","null","FIX","","","","","","","","","","",""
"html-keyboard-response","121","332065","0.0-7.0-2.17","608745544b5e63f6a51e761e","bdp_wmem","Tue May 11 2021 22:07:28 GMT-0500 (Central Daylight Time)","609719","Match,No Match","","null","","","","","","<div class='trialBorder'><div class='vertical-center'><img style='vertical-align:center; align:center' src='img/fixation2_sml.jpg'></div><div class='arrayDiv3'><div class='tl'><img class='introPic' src='trustrating_stim/white_mw038.bmp'><br><font color='green'><strong>Share</strong></font></div><div class='tc'><img class='introPic' src='trustrating_stim/white_mw003.bmp'><br><font color='red'><strong>Keep</strong></font></div><div class='tr'><img class='introPic' src='trustrating_stim/white_00050_931230_fa_edt.bmp'><br><font color='red'><strong>Keep</strong></font></div></div></div>","null","ARRAY","3","trustrating_stim/white_mw038.bmp,trustrating_stim/white_mw003.bmp,trustrating_stim/white_00050_931230_fa_edt.bmp","1,0,0","noMatchOutcome","i","4500","","","","",""
"html-keyboard-response","122","336068","0.0-7.0-3.17","608745544b5e63f6a51e761e","bdp_wmem","Tue May 11 2021 22:07:28 GMT-0500 (Central Daylight Time)","609719","Match,No Match","","null","","","","","","<div class='trialBorder'><div class='vertical-center'><img src='img/fixation2_sml.jpg'</img></div></div>","null","DELAY","","","","","","","","","","",""
"html-keyboard-response","123","337239","0.0-7.0-4.17","608745544b5e63f6a51e761e","bdp_wmem","Tue May 11 2021 22:07:28 GMT-0500 (Central Daylight Time)","609719","Match,No Match","","1169","","","","","","<div class='trialBorder'><div class='targDiv'><div class='tc'><img class='introPic' src='trustrating_stim/white_mw003.bmp'><br><font color='green'><strong>Share</strong></font></div></div><div class='respDiv'><div class='respDivL'>Match<br>(e)</div><div class='respDivR'>No Match<br>(i)</div></div></div>","i","TARGET","3","trustrating_stim/white_mw038.bmp,trustrating_stim/white_mw003.bmp,trustrating_stim/white_00050_931230_fa_edt.bmp","1,0,0","noMatchOutcome","i","4500","trustrating_stim/white_mw003.bmp","green","Share","REAL","1"
"html-keyboard-response","124","337747","0.0-7.0-5.17","608745544b5e63f6a51e761e","bdp_wmem","Tue May 11 2021 22:07:28 GMT-0500 (Central Daylight Time)","609719","Match,No Match","","null","","","","","","<div class='trialBorder'><div class='vertical-center'><img src='img/correct.jpg'></div><div class='respDiv'><div class='respDivL'>Match<br>(e)</div><div class='respDivR'><font style='color:orange'>No Match<br>(i)</font></div></div></div>","null","FEEDBACK","","","","","","","","","","",""
"html-keyboard-response","125","338251","0.0-7.0-1.18","608745544b5e63f6a51e761e","bdp_wmem","Tue May 11 2021 22:07:28 GMT-0500 (Central Daylight Time)","609719","Match,No Match","","null","","","","","","<div class='trialBorder'><div class='vertical-center'><img src='img/fixation2_sml.jpg'</img></div></div>","null","FIX","","","","","","","","","","",""
"html-keyboard-response","126","339765","0.0-7.0-2.18","608745544b5e63f6a51e761e","bdp_wmem","Tue May 11 2021 22:07:28 GMT-0500 (Central Daylight Time)","609719","Match,No Match","","null","","","","","","<div class='trialBorder'><div class='vertical-center'><img style='vertical-align:center; align:center' src='img/fixation2_sml.jpg'></div><div class='arrayDiv1'><div class='tc'><img class='introPic' src='trustrating_stim/white_mw015.bmp'><br><font color='red'><strong>Keep</strong></font></div></div></div>","null","ARRAY","1","trustrating_stim/white_mw015.bmp","0","Match","e","1500","","","","",""
"html-keyboard-response","127","343768","0.0-7.0-3.18","608745544b5e63f6a51e761e","bdp_wmem","Tue May 11 2021 22:07:28 GMT-0500 (Central Daylight Time)","609719","Match,No Match","","null","","","","","","<div class='trialBorder'><div class='vertical-center'><img src='img/fixation2_sml.jpg'</img></div></div>","null","DELAY","","","","","","","","","","",""
"html-keyboard-response","128","344944","0.0-7.0-4.18","608745544b5e63f6a51e761e","bdp_wmem","Tue May 11 2021 22:07:28 GMT-0500 (Central Daylight Time)","609719","Match,No Match","","1174","","","","","","<div class='trialBorder'><div class='targDiv'><div class='tc'><img class='introPic' src='trustrating_stim/white_mw015.bmp'><br><font color='red'><strong>Keep</strong></font></div></div><div class='respDiv'><div class='respDivL'>Match<br>(e)</div><div class='respDivR'>No Match<br>(i)</div></div></div>","e","TARGET","1","trustrating_stim/white_mw015.bmp","0","Match","e","1500","trustrating_stim/white_mw015.bmp","red","Keep","REAL","1"
"html-keyboard-response","129","345453","0.0-7.0-5.18","608745544b5e63f6a51e761e","bdp_wmem","Tue May 11 2021 22:07:28 GMT-0500 (Central Daylight Time)","609719","Match,No Match","","null","","","","","","<div class='trialBorder'><div class='vertical-center'><img src='img/correct.jpg'></div><div class='respDiv'><div class='respDivL'><font style='color:orange'>Match<br>(e)</font></div><div class='respDivR'>No Match<br>(i)</div></div></div>","null","FEEDBACK","","","","","","","","","","",""
"html-keyboard-response","130","345965","0.0-7.0-1.19","608745544b5e63f6a51e761e","bdp_wmem","Tue May 11 2021 22:07:28 GMT-0500 (Central Daylight Time)","609719","Match,No Match","","null","","","","","","<div class='trialBorder'><div class='vertical-center'><img src='img/fixation2_sml.jpg'</img></div></div>","null","FIX","","","","","","","","","","",""
"html-keyboard-response","131","347476","0.0-7.0-2.19","608745544b5e63f6a51e761e","bdp_wmem","Tue May 11 2021 22:07:28 GMT-0500 (Central Daylight Time)","609719","Match,No Match","","null","","","","","","<div class='trialBorder'><div class='vertical-center'><img style='vertical-align:center; align:center' src='img/fixation2_sml.jpg'></div><div class='arrayDiv1'><div class='tc'><img class='introPic' src='trustrating_stim/white_mw015.bmp'><br><font color='green'><strong>Share</strong></font></div></div></div>","null","ARRAY","1","trustrating_stim/white_mw015.bmp","1","Match","e","1500","","","","",""
"html-keyboard-response","132","351486","0.0-7.0-3.19","608745544b5e63f6a51e761e","bdp_wmem","Tue May 11 2021 22:07:28 GMT-0500 (Central Daylight Time)","609719","Match,No Match","","null","","","","","","<div class='trialBorder'><div class='vertical-center'><img src='img/fixation2_sml.jpg'</img></div></div>","null","DELAY","","","","","","","","","","",""
"html-keyboard-response","133","352584","0.0-7.0-4.19","608745544b5e63f6a51e761e","bdp_wmem","Tue May 11 2021 22:07:28 GMT-0500 (Central Daylight Time)","609719","Match,No Match","","1097","","","","","","<div class='trialBorder'><div class='targDiv'><div class='tc'><img class='introPic' src='trustrating_stim/white_mw015.bmp'><br><font color='green'><strong>Share</strong></font></div></div><div class='respDiv'><div class='respDivL'>Match<br>(e)</div><div class='respDivR'>No Match<br>(i)</div></div></div>","e","TARGET","1","trustrating_stim/white_mw015.bmp","1","Match","e","1500","trustrating_stim/white_mw015.bmp","green","Share","REAL","1"
"html-keyboard-response","134","353086","0.0-7.0-5.19","608745544b5e63f6a51e761e","bdp_wmem","Tue May 11 2021 22:07:28 GMT-0500 (Central Daylight Time)","609719","Match,No Match","","null","","","","","","<div class='trialBorder'><div class='vertical-center'><img src='img/correct.jpg'></div><div class='respDiv'><div class='respDivL'><font style='color:orange'>Match<br>(e)</font></div><div class='respDivR'>No Match<br>(i)</div></div></div>","null","FEEDBACK","","","","","","","","","","",""
"html-keyboard-response","135","353591","0.0-7.0-1.20","608745544b5e63f6a51e761e","bdp_wmem","Tue May 11 2021 22:07:28 GMT-0500 (Central Daylight Time)","609719","Match,No Match","","null","","","","","","<div class='trialBorder'><div class='vertical-center'><img src='img/fixation2_sml.jpg'</img></div></div>","null","FIX","","","","","","","","","","",""
"html-keyboard-response","136","356599","0.0-7.0-2.20","608745544b5e63f6a51e761e","bdp_wmem","Tue May 11 2021 22:07:28 GMT-0500 (Central Daylight Time)","609719","Match,No Match","","null","","","","","","<div class='trialBorder'><div class='vertical-center'><img style='vertical-align:center; align:center' src='img/fixation2_sml.jpg'></div><div class='arrayDiv2'><div class='tl'><img class='introPic' src='trustrating_stim/white_mw038.bmp'><br><font color='green'><strong>Share</strong></font></div><div class='tr'><img class='introPic' src='trustrating_stim/white_mw040.bmp'><br><font color='red'><strong>Keep</strong></font></div></div></div>","null","ARRAY","2","trustrating_stim/white_mw038.bmp,trustrating_stim/white_mw040.bmp","1,0","noMatchOutcome","i","3000","","","","",""
"html-keyboard-response","137","360609","0.0-7.0-3.20","608745544b5e63f6a51e761e","bdp_wmem","Tue May 11 2021 22:07:28 GMT-0500 (Central Daylight Time)","609719","Match,No Match","","null","","","","","","<div class='trialBorder'><div class='vertical-center'><img src='img/fixation2_sml.jpg'</img></div></div>","null","DELAY","","","","","","","","","","",""
"html-keyboard-response","138","361741","0.0-7.0-4.20","608745544b5e63f6a51e761e","bdp_wmem","Tue May 11 2021 22:07:28 GMT-0500 (Central Daylight Time)","609719","Match,No Match","","1129","","","","","","<div class='trialBorder'><div class='targDiv'><div class='tc'><img class='introPic' src='trustrating_stim/white_mw038.bmp'><br><font color='red'><strong>Keep</strong></font></div></div><div class='respDiv'><div class='respDivL'>Match<br>(e)</div><div class='respDivR'>No Match<br>(i)</div></div></div>","i","TARGET","2","trustrating_stim/white_mw038.bmp,trustrating_stim/white_mw040.bmp","1,0","noMatchOutcome","i","3000","trustrating_stim/white_mw038.bmp","red","Keep","REAL","1"
"html-keyboard-response","139","362248","0.0-7.0-5.20","608745544b5e63f6a51e761e","bdp_wmem","Tue May 11 2021 22:07:28 GMT-0500 (Central Daylight Time)","609719","Match,No Match","","null","","","","","","<div class='trialBorder'><div class='vertical-center'><img src='img/correct.jpg'></div><div class='respDiv'><div class='respDivL'>Match<br>(e)</div><div class='respDivR'><font style='color:orange'>No Match<br>(i)</font></div></div></div>","null","FEEDBACK","","","","","","","","","","",""
"html-keyboard-response","140","362750","0.0-7.0-1.21","608745544b5e63f6a51e761e","bdp_wmem","Tue May 11 2021 22:07:28 GMT-0500 (Central Daylight Time)","609719","Match,No Match","","null","","","","","","<div class='trialBorder'><div class='vertical-center'><img src='img/fixation2_sml.jpg'</img></div></div>","null","FIX","","","","","","","","","","",""
"html-keyboard-response","141","364260","0.0-7.0-2.21","608745544b5e63f6a51e761e","bdp_wmem","Tue May 11 2021 22:07:28 GMT-0500 (Central Daylight Time)","609719","Match,No Match","","null","","","","","","<div class='trialBorder'><div class='vertical-center'><img style='vertical-align:center; align:center' src='img/fixation2_sml.jpg'></div><div class='arrayDiv1'><div class='tc'><img class='introPic' src='trustrating_stim/white_mw003.bmp'><br><font color='green'><strong>Share</strong></font></div></div></div>","null","ARRAY","1","trustrating_stim/white_mw003.bmp","1","noMatchFace","i","1500","","","","",""
"html-keyboard-response","142","368266","0.0-7.0-3.21","608745544b5e63f6a51e761e","bdp_wmem","Tue May 11 2021 22:07:28 GMT-0500 (Central Daylight Time)","609719","Match,No Match","","null","","","","","","<div class='trialBorder'><div class='vertical-center'><img src='img/fixation2_sml.jpg'</img></div></div>","null","DELAY","","","","","","","","","","",""
"html-keyboard-response","143","369124","0.0-7.0-4.21","608745544b5e63f6a51e761e","bdp_wmem","Tue May 11 2021 22:07:28 GMT-0500 (Central Daylight Time)","609719","Match,No Match","","856","","","","","","<div class='trialBorder'><div class='targDiv'><div class='tc'><img class='introPic' src='trustrating_stim/white_mw092.bmp'><br><font color='green'><strong>Share</strong></font></div></div><div class='respDiv'><div class='respDivL'>Match<br>(e)</div><div class='respDivR'>No Match<br>(i)</div></div></div>","i","TARGET","1","trustrating_stim/white_mw003.bmp","1","noMatchFace","i","1500","trustrating_stim/white_mw092.bmp","green","Share","REAL","1"
"html-keyboard-response","144","369627","0.0-7.0-5.21","608745544b5e63f6a51e761e","bdp_wmem","Tue May 11 2021 22:07:28 GMT-0500 (Central Daylight Time)","609719","Match,No Match","","null","","","","","","<div class='trialBorder'><div class='vertical-center'><img src='img/correct.jpg'></div><div class='respDiv'><div class='respDivL'>Match<br>(e)</div><div class='respDivR'><font style='color:orange'>No Match<br>(i)</font></div></div></div>","null","FEEDBACK","","","","","","","","","","",""
"html-keyboard-response","145","370131","0.0-7.0-1.22","608745544b5e63f6a51e761e","bdp_wmem","Tue May 11 2021 22:07:28 GMT-0500 (Central Daylight Time)","609719","Match,No Match","","null","","","","","","<div class='trialBorder'><div class='vertical-center'><img src='img/fixation2_sml.jpg'</img></div></div>","null","FIX","","","","","","","","","","",""
"html-keyboard-response","146","374639","0.0-7.0-2.22","608745544b5e63f6a51e761e","bdp_wmem","Tue May 11 2021 22:07:28 GMT-0500 (Central Daylight Time)","609719","Match,No Match","","null","","","","","","<div class='trialBorder'><div class='vertical-center'><img style='vertical-align:center; align:center' src='img/fixation2_sml.jpg'></div><div class='arrayDiv3'><div class='tl'><img class='introPic' src='trustrating_stim/white_mw015.bmp'><br><font color='green'><strong>Share</strong></font></div><div class='tc'><img class='introPic' src='trustrating_stim/white_mw033.bmp'><br><font color='red'><strong>Keep</strong></font></div><div class='tr'><img class='introPic' src='trustrating_stim/white_mw070.bmp'><br><font color='green'><strong>Share</strong></font></div></div></div>","null","ARRAY","3","trustrating_stim/white_mw015.bmp,trustrating_stim/white_mw033.bmp,trustrating_stim/white_mw070.bmp","1,0,1","noMatchFace","i","4500","","","","",""
"html-keyboard-response","147","378646","0.0-7.0-3.22","608745544b5e63f6a51e761e","bdp_wmem","Tue May 11 2021 22:07:28 GMT-0500 (Central Daylight Time)","609719","Match,No Match","","null","","","","","","<div class='trialBorder'><div class='vertical-center'><img src='img/fixation2_sml.jpg'</img></div></div>","null","DELAY","","","","","","","","","","",""
"html-keyboard-response","148","380303","0.0-7.0-4.22","608745544b5e63f6a51e761e","bdp_wmem","Tue May 11 2021 22:07:28 GMT-0500 (Central Daylight Time)","609719","Match,No Match","","1655","","","","","","<div class='trialBorder'><div class='targDiv'><div class='tc'><img class='introPic' src='trustrating_stim/white_mw092.bmp'><br><font color='green'><strong>Share</strong></font></div></div><div class='respDiv'><div class='respDivL'>Match<br>(e)</div><div class='respDivR'>No Match<br>(i)</div></div></div>","e","TARGET","3","trustrating_stim/white_mw015.bmp,trustrating_stim/white_mw033.bmp,trustrating_stim/white_mw070.bmp","1,0,1","noMatchFace","i","4500","trustrating_stim/white_mw092.bmp","green","Share","REAL","0"
"html-keyboard-response","149","380813","0.0-7.0-5.22","608745544b5e63f6a51e761e","bdp_wmem","Tue May 11 2021 22:07:28 GMT-0500 (Central Daylight Time)","609719","Match,No Match","","null","","","","","","<div class='trialBorder'><div class='vertical-center'><img src='img/error.jpg'></div><div class='respDiv'><div class='respDivL'><font style='color:orange'>Match<br>(e)</font></div><div class='respDivR'>No Match<br>(i)</div></div></div>","null","FEEDBACK","","","","","","","","","","",""
"html-keyboard-response","150","381323","0.0-7.0-1.23","608745544b5e63f6a51e761e","bdp_wmem","Tue May 11 2021 22:07:28 GMT-0500 (Central Daylight Time)","609719","Match,No Match","","null","","","","","","<div class='trialBorder'><div class='vertical-center'><img src='img/fixation2_sml.jpg'</img></div></div>","null","FIX","","","","","","","","","","",""
"html-keyboard-response","151","384333","0.0-7.0-2.23","608745544b5e63f6a51e761e","bdp_wmem","Tue May 11 2021 22:07:28 GMT-0500 (Central Daylight Time)","609719","Match,No Match","","null","","","","","","<div class='trialBorder'><div class='vertical-center'><img style='vertical-align:center; align:center' src='img/fixation2_sml.jpg'></div><div class='arrayDiv2'><div class='tl'><img class='introPic' src='trustrating_stim/white_00050_931230_fa_edt.bmp'><br><font color='red'><strong>Keep</strong></font></div><div class='tr'><img class='introPic' src='trustrating_stim/white_mw070.bmp'><br><font color='green'><strong>Share</strong></font></div></div></div>","null","ARRAY","2","trustrating_stim/white_00050_931230_fa_edt.bmp,trustrating_stim/white_mw070.bmp","0,1","Match","e","3000","","","","",""
"html-keyboard-response","152","388348","0.0-7.0-3.23","608745544b5e63f6a51e761e","bdp_wmem","Tue May 11 2021 22:07:28 GMT-0500 (Central Daylight Time)","609719","Match,No Match","","null","","","","","","<div class='trialBorder'><div class='vertical-center'><img src='img/fixation2_sml.jpg'</img></div></div>","null","DELAY","","","","","","","","","","",""
"html-keyboard-response","153","389528","0.0-7.0-4.23","608745544b5e63f6a51e761e","bdp_wmem","Tue May 11 2021 22:07:28 GMT-0500 (Central Daylight Time)","609719","Match,No Match","","1178","","","","","","<div class='trialBorder'><div class='targDiv'><div class='tc'><img class='introPic' src='trustrating_stim/white_mw070.bmp'><br><font color='green'><strong>Share</strong></font></div></div><div class='respDiv'><div class='respDivL'>Match<br>(e)</div><div class='respDivR'>No Match<br>(i)</div></div></div>","e","TARGET","2","trustrating_stim/white_00050_931230_fa_edt.bmp,trustrating_stim/white_mw070.bmp","0,1","Match","e","3000","trustrating_stim/white_mw070.bmp","green","Share","REAL","1"
"html-keyboard-response","154","390035","0.0-7.0-5.23","608745544b5e63f6a51e761e","bdp_wmem","Tue May 11 2021 22:07:28 GMT-0500 (Central Daylight Time)","609719","Match,No Match","","null","","","","","","<div class='trialBorder'><div class='vertical-center'><img src='img/correct.jpg'></div><div class='respDiv'><div class='respDivL'><font style='color:orange'>Match<br>(e)</font></div><div class='respDivR'>No Match<br>(i)</div></div></div>","null","FEEDBACK","","","","","","","","","","",""
"html-keyboard-response","155","390539","0.0-7.0-1.24","608745544b5e63f6a51e761e","bdp_wmem","Tue May 11 2021 22:07:28 GMT-0500 (Central Daylight Time)","609719","Match,No Match","","null","","","","","","<div class='trialBorder'><div class='vertical-center'><img src='img/fixation2_sml.jpg'</img></div></div>","null","FIX","","","","","","","","","","",""
"html-keyboard-response","156","395041","0.0-7.0-2.24","608745544b5e63f6a51e761e","bdp_wmem","Tue May 11 2021 22:07:28 GMT-0500 (Central Daylight Time)","609719","Match,No Match","","null","","","","","","<div class='trialBorder'><div class='vertical-center'><img style='vertical-align:center; align:center' src='img/fixation2_sml.jpg'></div><div class='arrayDiv3'><div class='tl'><img class='introPic' src='trustrating_stim/white_mw033.bmp'><br><font color='red'><strong>Keep</strong></font></div><div class='tc'><img class='introPic' src='trustrating_stim/white_mw040.bmp'><br><font color='green'><strong>Share</strong></font></div><div class='tr'><img class='introPic' src='trustrating_stim/white_mw070.bmp'><br><font color='red'><strong>Keep</strong></font></div></div></div>","null","ARRAY","3","trustrating_stim/white_mw033.bmp,trustrating_stim/white_mw040.bmp,trustrating_stim/white_mw070.bmp","0,1,0","noMatchFace","i","4500","","","","",""
"html-keyboard-response","157","399048","0.0-7.0-3.24","608745544b5e63f6a51e761e","bdp_wmem","Tue May 11 2021 22:07:28 GMT-0500 (Central Daylight Time)","609719","Match,No Match","","null","","","","","","<div class='trialBorder'><div class='vertical-center'><img src='img/fixation2_sml.jpg'</img></div></div>","null","DELAY","","","","","","","","","","",""
"html-keyboard-response","158","400628","0.0-7.0-4.24","608745544b5e63f6a51e761e","bdp_wmem","Tue May 11 2021 22:07:28 GMT-0500 (Central Daylight Time)","609719","Match,No Match","","1577","","","","","","<div class='trialBorder'><div class='targDiv'><div class='tc'><img class='introPic' src='trustrating_stim/white_00050_931230_fa_edt.bmp'><br><font color='red'><strong>Keep</strong></font></div></div><div class='respDiv'><div class='respDivL'>Match<br>(e)</div><div class='respDivR'>No Match<br>(i)</div></div></div>","i","TARGET","3","trustrating_stim/white_mw033.bmp,trustrating_stim/white_mw040.bmp,trustrating_stim/white_mw070.bmp","0,1,0","noMatchFace","i","4500","trustrating_stim/white_00050_931230_fa_edt.bmp","red","Keep","REAL","1"
"html-keyboard-response","159","401132","0.0-7.0-5.24","608745544b5e63f6a51e761e","bdp_wmem","Tue May 11 2021 22:07:28 GMT-0500 (Central Daylight Time)","609719","Match,No Match","","null","","","","","","<div class='trialBorder'><div class='vertical-center'><img src='img/correct.jpg'></div><div class='respDiv'><div class='respDivL'>Match<br>(e)</div><div class='respDivR'><font style='color:orange'>No Match<br>(i)</font></div></div></div>","null","FEEDBACK","","","","","","","","","","",""
"html-keyboard-response","160","401633","0.0-7.0-1.25","608745544b5e63f6a51e761e","bdp_wmem","Tue May 11 2021 22:07:28 GMT-0500 (Central Daylight Time)","609719","Match,No Match","","null","","","","","","<div class='trialBorder'><div class='vertical-center'><img src='img/fixation2_sml.jpg'</img></div></div>","null","FIX","","","","","","","","","","",""
"html-keyboard-response","161","404646","0.0-7.0-2.25","608745544b5e63f6a51e761e","bdp_wmem","Tue May 11 2021 22:07:28 GMT-0500 (Central Daylight Time)","609719","Match,No Match","","null","","","","","","<div class='trialBorder'><div class='vertical-center'><img style='vertical-align:center; align:center' src='img/fixation2_sml.jpg'></div><div class='arrayDiv2'><div class='tl'><img class='introPic' src='trustrating_stim/white_mw015.bmp'><br><font color='green'><strong>Share</strong></font></div><div class='tr'><img class='introPic' src='trustrating_stim/white_mw038.bmp'><br><font color='red'><strong>Keep</strong></font></div></div></div>","null","ARRAY","2","trustrating_stim/white_mw015.bmp,trustrating_stim/white_mw038.bmp","1,0","Match","e","3000","","","","",""
"html-keyboard-response","162","408654","0.0-7.0-3.25","608745544b5e63f6a51e761e","bdp_wmem","Tue May 11 2021 22:07:28 GMT-0500 (Central Daylight Time)","609719","Match,No Match","","null","","","","","","<div class='trialBorder'><div class='vertical-center'><img src='img/fixation2_sml.jpg'</img></div></div>","null","DELAY","","","","","","","","","","",""
"html-keyboard-response","163","409680","0.0-7.0-4.25","608745544b5e63f6a51e761e","bdp_wmem","Tue May 11 2021 22:07:28 GMT-0500 (Central Daylight Time)","609719","Match,No Match","","1025","","","","","","<div class='trialBorder'><div class='targDiv'><div class='tc'><img class='introPic' src='trustrating_stim/white_mw015.bmp'><br><font color='green'><strong>Share</strong></font></div></div><div class='respDiv'><div class='respDivL'>Match<br>(e)</div><div class='respDivR'>No Match<br>(i)</div></div></div>","e","TARGET","2","trustrating_stim/white_mw015.bmp,trustrating_stim/white_mw038.bmp","1,0","Match","e","3000","trustrating_stim/white_mw015.bmp","green","Share","REAL","1"
"html-keyboard-response","164","410187","0.0-7.0-5.25","608745544b5e63f6a51e761e","bdp_wmem","Tue May 11 2021 22:07:28 GMT-0500 (Central Daylight Time)","609719","Match,No Match","","null","","","","","","<div class='trialBorder'><div class='vertical-center'><img src='img/correct.jpg'></div><div class='respDiv'><div class='respDivL'><font style='color:orange'>Match<br>(e)</font></div><div class='respDivR'>No Match<br>(i)</div></div></div>","null","FEEDBACK","","","","","","","","","","",""
"html-keyboard-response","165","410701","0.0-7.0-1.26","608745544b5e63f6a51e761e","bdp_wmem","Tue May 11 2021 22:07:28 GMT-0500 (Central Daylight Time)","609719","Match,No Match","","null","","","","","","<div class='trialBorder'><div class='vertical-center'><img src='img/fixation2_sml.jpg'</img></div></div>","null","FIX","","","","","","","","","","",""
"html-keyboard-response","166","413707","0.0-7.0-2.26","608745544b5e63f6a51e761e","bdp_wmem","Tue May 11 2021 22:07:28 GMT-0500 (Central Daylight Time)","609719","Match,No Match","","null","","","","","","<div class='trialBorder'><div class='vertical-center'><img style='vertical-align:center; align:center' src='img/fixation2_sml.jpg'></div><div class='arrayDiv2'><div class='tl'><img class='introPic' src='trustrating_stim/white_mw013.bmp'><br><font color='green'><strong>Share</strong></font></div><div class='tr'><img class='introPic' src='trustrating_stim/white_00807_941205_fb_edt.bmp'><br><font color='red'><strong>Keep</strong></font></div></div></div>","null","ARRAY","2","trustrating_stim/white_mw013.bmp,trustrating_stim/white_00807_941205_fb_edt.bmp","1,0","noMatchFace","i","3000","","","","",""
"html-keyboard-response","167","417715","0.0-7.0-3.26","608745544b5e63f6a51e761e","bdp_wmem","Tue May 11 2021 22:07:28 GMT-0500 (Central Daylight Time)","609719","Match,No Match","","null","","","","","","<div class='trialBorder'><div class='vertical-center'><img src='img/fixation2_sml.jpg'</img></div></div>","null","DELAY","","","","","","","","","","",""
"html-keyboard-response","168","418829","0.0-7.0-4.26","608745544b5e63f6a51e761e","bdp_wmem","Tue May 11 2021 22:07:28 GMT-0500 (Central Daylight Time)","609719","Match,No Match","","1112","","","","","","<div class='trialBorder'><div class='targDiv'><div class='tc'><img class='introPic' src='trustrating_stim/white_mw003.bmp'><br><font color='green'><strong>Share</strong></font></div></div><div class='respDiv'><div class='respDivL'>Match<br>(e)</div><div class='respDivR'>No Match<br>(i)</div></div></div>","i","TARGET","2","trustrating_stim/white_mw013.bmp,trustrating_stim/white_00807_941205_fb_edt.bmp","1,0","noMatchFace","i","3000","trustrating_stim/white_mw003.bmp","green","Share","REAL","1"
"html-keyboard-response","169","419336","0.0-7.0-5.26","608745544b5e63f6a51e761e","bdp_wmem","Tue May 11 2021 22:07:28 GMT-0500 (Central Daylight Time)","609719","Match,No Match","","null","","","","","","<div class='trialBorder'><div class='vertical-center'><img src='img/correct.jpg'></div><div class='respDiv'><div class='respDivL'>Match<br>(e)</div><div class='respDivR'><font style='color:orange'>No Match<br>(i)</font></div></div></div>","null","FEEDBACK","","","","","","","","","","",""
"html-keyboard-response","170","419838","0.0-7.0-1.27","608745544b5e63f6a51e761e","bdp_wmem","Tue May 11 2021 22:07:28 GMT-0500 (Central Daylight Time)","609719","Match,No Match","","null","","","","","","<div class='trialBorder'><div class='vertical-center'><img src='img/fixation2_sml.jpg'</img></div></div>","null","FIX","","","","","","","","","","",""
"html-keyboard-response","171","422843","0.0-7.0-2.27","608745544b5e63f6a51e761e","bdp_wmem","Tue May 11 2021 22:07:28 GMT-0500 (Central Daylight Time)","609719","Match,No Match","","null","","","","","","<div class='trialBorder'><div class='vertical-center'><img style='vertical-align:center; align:center' src='img/fixation2_sml.jpg'></div><div class='arrayDiv2'><div class='tl'><img class='introPic' src='trustrating_stim/white_mw013.bmp'><br><font color='green'><strong>Share</strong></font></div><div class='tr'><img class='introPic' src='trustrating_stim/white_mw091.bmp'><br><font color='red'><strong>Keep</strong></font></div></div></div>","null","ARRAY","2","trustrating_stim/white_mw013.bmp,trustrating_stim/white_mw091.bmp","1,0","Match","e","3000","","","","",""
"html-keyboard-response","172","426853","0.0-7.0-3.27","608745544b5e63f6a51e761e","bdp_wmem","Tue May 11 2021 22:07:28 GMT-0500 (Central Daylight Time)","609719","Match,No Match","","null","","","","","","<div class='trialBorder'><div class='vertical-center'><img src='img/fixation2_sml.jpg'</img></div></div>","null","DELAY","","","","","","","","","","",""
"html-keyboard-response","173","428229","0.0-7.0-4.27","608745544b5e63f6a51e761e","bdp_wmem","Tue May 11 2021 22:07:28 GMT-0500 (Central Daylight Time)","609719","Match,No Match","","1375","","","","","","<div class='trialBorder'><div class='targDiv'><div class='tc'><img class='introPic' src='trustrating_stim/white_mw091.bmp'><br><font color='red'><strong>Keep</strong></font></div></div><div class='respDiv'><div class='respDivL'>Match<br>(e)</div><div class='respDivR'>No Match<br>(i)</div></div></div>","e","TARGET","2","trustrating_stim/white_mw013.bmp,trustrating_stim/white_mw091.bmp","1,0","Match","e","3000","trustrating_stim/white_mw091.bmp","red","Keep","REAL","1"
"html-keyboard-response","174","428730","0.0-7.0-5.27","608745544b5e63f6a51e761e","bdp_wmem","Tue May 11 2021 22:07:28 GMT-0500 (Central Daylight Time)","609719","Match,No Match","","null","","","","","","<div class='trialBorder'><div class='vertical-center'><img src='img/correct.jpg'></div><div class='respDiv'><div class='respDivL'><font style='color:orange'>Match<br>(e)</font></div><div class='respDivR'>No Match<br>(i)</div></div></div>","null","FEEDBACK","","","","","","","","","","",""
"html-keyboard-response","175","429233","0.0-7.0-1.28","608745544b5e63f6a51e761e","bdp_wmem","Tue May 11 2021 22:07:28 GMT-0500 (Central Daylight Time)","609719","Match,No Match","","null","","","","","","<div class='trialBorder'><div class='vertical-center'><img src='img/fixation2_sml.jpg'</img></div></div>","null","FIX","","","","","","","","","","",""
"html-keyboard-response","176","432243","0.0-7.0-2.28","608745544b5e63f6a51e761e","bdp_wmem","Tue May 11 2021 22:07:28 GMT-0500 (Central Daylight Time)","609719","Match,No Match","","null","","","","","","<div class='trialBorder'><div class='vertical-center'><img style='vertical-align:center; align:center' src='img/fixation2_sml.jpg'></div><div class='arrayDiv2'><div class='tl'><img class='introPic' src='trustrating_stim/white_mw092.bmp'><br><font color='green'><strong>Share</strong></font></div><div class='tr'><img class='introPic' src='trustrating_stim/white_mw015.bmp'><br><font color='red'><strong>Keep</strong></font></div></div></div>","null","ARRAY","2","trustrating_stim/white_mw092.bmp,trustrating_stim/white_mw015.bmp","1,0","noMatchFace","i","3000","","","","",""
"html-keyboard-response","177","436247","0.0-7.0-3.28","608745544b5e63f6a51e761e","bdp_wmem","Tue May 11 2021 22:07:28 GMT-0500 (Central Daylight Time)","609719","Match,No Match","","null","","","","","","<div class='trialBorder'><div class='vertical-center'><img src='img/fixation2_sml.jpg'</img></div></div>","null","DELAY","","","","","","","","","","",""
"html-keyboard-response","178","437826","0.0-7.0-4.28","608745544b5e63f6a51e761e","bdp_wmem","Tue May 11 2021 22:07:28 GMT-0500 (Central Daylight Time)","609719","Match,No Match","","1577","","","","","","<div class='trialBorder'><div class='targDiv'><div class='tc'><img class='introPic' src='trustrating_stim/white_mw033.bmp'><br><font color='green'><strong>Share</strong></font></div></div><div class='respDiv'><div class='respDivL'>Match<br>(e)</div><div class='respDivR'>No Match<br>(i)</div></div></div>","i","TARGET","2","trustrating_stim/white_mw092.bmp,trustrating_stim/white_mw015.bmp","1,0","noMatchFace","i","3000","trustrating_stim/white_mw033.bmp","green","Share","REAL","1"
"html-keyboard-response","179","438332","0.0-7.0-5.28","608745544b5e63f6a51e761e","bdp_wmem","Tue May 11 2021 22:07:28 GMT-0500 (Central Daylight Time)","609719","Match,No Match","","null","","","","","","<div class='trialBorder'><div class='vertical-center'><img src='img/correct.jpg'></div><div class='respDiv'><div class='respDivL'>Match<br>(e)</div><div class='respDivR'><font style='color:orange'>No Match<br>(i)</font></div></div></div>","null","FEEDBACK","","","","","","","","","","",""
"html-keyboard-response","180","438835","0.0-7.0-1.29","608745544b5e63f6a51e761e","bdp_wmem","Tue May 11 2021 22:07:28 GMT-0500 (Central Daylight Time)","609719","Match,No Match","","null","","","","","","<div class='trialBorder'><div class='vertical-center'><img src='img/fixation2_sml.jpg'</img></div></div>","null","FIX","","","","","","","","","","",""
"html-keyboard-response","181","441844","0.0-7.0-2.29","608745544b5e63f6a51e761e","bdp_wmem","Tue May 11 2021 22:07:28 GMT-0500 (Central Daylight Time)","609719","Match,No Match","","null","","","","","","<div class='trialBorder'><div class='vertical-center'><img style='vertical-align:center; align:center' src='img/fixation2_sml.jpg'></div><div class='arrayDiv2'><div class='tl'><img class='introPic' src='trustrating_stim/white_mw013.bmp'><br><font color='red'><strong>Keep</strong></font></div><div class='tr'><img class='introPic' src='trustrating_stim/white_mw038.bmp'><br><font color='green'><strong>Share</strong></font></div></div></div>","null","ARRAY","2","trustrating_stim/white_mw013.bmp,trustrating_stim/white_mw038.bmp","0,1","Match","e","3000","","","","",""
"html-keyboard-response","182","445847","0.0-7.0-3.29","608745544b5e63f6a51e761e","bdp_wmem","Tue May 11 2021 22:07:28 GMT-0500 (Central Daylight Time)","609719","Match,No Match","","null","","","","","","<div class='trialBorder'><div class='vertical-center'><img src='img/fixation2_sml.jpg'</img></div></div>","null","DELAY","","","","","","","","","","",""
"html-keyboard-response","183","447064","0.0-7.0-4.29","608745544b5e63f6a51e761e","bdp_wmem","Tue May 11 2021 22:07:28 GMT-0500 (Central Daylight Time)","609719","Match,No Match","","1215","","","","","","<div class='trialBorder'><div class='targDiv'><div class='tc'><img class='introPic' src='trustrating_stim/white_mw013.bmp'><br><font color='red'><strong>Keep</strong></font></div></div><div class='respDiv'><div class='respDivL'>Match<br>(e)</div><div class='respDivR'>No Match<br>(i)</div></div></div>","e","TARGET","2","trustrating_stim/white_mw013.bmp,trustrating_stim/white_mw038.bmp","0,1","Match","e","3000","trustrating_stim/white_mw013.bmp","red","Keep","REAL","1"
"html-keyboard-response","184","447580","0.0-7.0-5.29","608745544b5e63f6a51e761e","bdp_wmem","Tue May 11 2021 22:07:28 GMT-0500 (Central Daylight Time)","609719","Match,No Match","","null","","","","","","<div class='trialBorder'><div class='vertical-center'><img src='img/correct.jpg'></div><div class='respDiv'><div class='respDivL'><font style='color:orange'>Match<br>(e)</font></div><div class='respDivR'>No Match<br>(i)</div></div></div>","null","FEEDBACK","","","","","","","","","","",""
"html-keyboard-response","185","448083","0.0-7.0-1.30","608745544b5e63f6a51e761e","bdp_wmem","Tue May 11 2021 22:07:28 GMT-0500 (Central Daylight Time)","609719","Match,No Match","","null","","","","","","<div class='trialBorder'><div class='vertical-center'><img src='img/fixation2_sml.jpg'</img></div></div>","null","FIX","","","","","","","","","","",""
