"trial_type","trial_index","time_elapsed","internal_node_id","subject_id","task","startTime","totalTime","labels","view_history","rt","event","trial","time","trialtype","success","stimulus","key_press","stimType","arraySize","arrayFaces","arrayOutcomes","matchType","corrResp","arrayDur","targFace","targCol","targOutcome","trialType","corr"
"pavlovia","0","12","0.0-0.0","5d4100b7c983e80001746d50","bdp_wmem","Tue May 11 2021 13:35:03 GMT-0500 (Central Daylight Time)","761476","Match,No Match","","","","","","","","","","","","","","","","","","","","",""
"instructions","1","3076","0.0-1.0","5d4100b7c983e80001746d50","bdp_wmem","Tue May 11 2021 13:35:03 GMT-0500 (Central Daylight Time)","761476","Match,No Match","[{""page_index"":0,""viewing_time"":3061}]","3062","","","","","","","","","","","","","","","","","","",""
"","","","","5d4100b7c983e80001746d50","bdp_wmem","Tue May 11 2021 13:35:03 GMT-0500 (Central Daylight Time)","761476","Match,No Match","","","fullscreenenter","2","6221","fullscreenenter","","","","","","","","","","","","","","",""
"fullscreen","2","7208","0.0-2.0","5d4100b7c983e80001746d50","bdp_wmem","Tue May 11 2021 13:35:03 GMT-0500 (Central Daylight Time)","761476","Match,No Match","","","","","","","true","","","","","","","","","","","","","",""
"instructions","3","135453","0.0-4.0","5d4100b7c983e80001746d50","bdp_wmem","Tue May 11 2021 13:35:03 GMT-0500 (Central Daylight Time)","761476","Match,No Match","[{""page_index"":0,""viewing_time"":71440},{""page_index"":1,""viewing_time"":31918},{""page_index"":2,""viewing_time"":6882},{""page_index"":3,""viewing_time"":9031},{""page_index"":4,""viewing_time"":8966}]","128238","","","","","","","","","","","","","","","","","","",""
"html-keyboard-response","4","135965","0.0-5.0-1.0","5d4100b7c983e80001746d50","bdp_wmem","Tue May 11 2021 13:35:03 GMT-0500 (Central Daylight Time)","761476","Match,No Match","","null","","","","","","<div class='trialBorder'><div class='vertical-center'><img src='img/fixation2_sml.jpg'</img></div></div>","null","FIX","","","","","","","","","","",""
"html-keyboard-response","5","140476","0.0-5.0-2.0","5d4100b7c983e80001746d50","bdp_wmem","Tue May 11 2021 13:35:03 GMT-0500 (Central Daylight Time)","761476","Match,No Match","","null","","","","","","<div class='trialBorder'><div class='vertical-center'><img style='vertical-align:center; align:center' src='img/fixation2_sml.jpg'></div><div class='arrayDiv3'><div class='tl'><img class='introPic' src='trustrating_stim/white_mw091.bmp'><br><font color='green'><strong>Share</strong></font></div><div class='tc'><img class='introPic' src='trustrating_stim/white_mw092.bmp'><br><font color='green'><strong>Share</strong></font></div><div class='tr'><img class='introPic' src='trustrating_stim/white_mw013.bmp'><br><font color='red'><strong>Keep</strong></font></div></div></div>","null","ARRAY","3","trustrating_stim/white_mw091.bmp,trustrating_stim/white_mw092.bmp,trustrating_stim/white_mw013.bmp","1,1,0","Match","e","4500","","","","",""
"html-keyboard-response","6","144483","0.0-5.0-3.0","5d4100b7c983e80001746d50","bdp_wmem","Tue May 11 2021 13:35:03 GMT-0500 (Central Daylight Time)","761476","Match,No Match","","null","","","","","","<div class='trialBorder'><div class='vertical-center'><img src='img/fixation2_sml.jpg'</img></div></div>","null","DELAY","","","","","","","","","","",""
"html-keyboard-response","7","147867","0.0-5.0-4.0","5d4100b7c983e80001746d50","bdp_wmem","Tue May 11 2021 13:35:03 GMT-0500 (Central Daylight Time)","761476","Match,No Match","","3376","","","","","","<div class='trialBorder'><div class='targDiv'><div class='tc'><img class='introPic' src='trustrating_stim/white_mw092.bmp'><br><font color='green'><strong>Share</strong></font></div></div><div class='respDiv'><div class='respDivL'>Match<br>(e)</div><div class='respDivR'>No Match<br>(i)</div></div></div>","e","TARGET","3","trustrating_stim/white_mw091.bmp,trustrating_stim/white_mw092.bmp,trustrating_stim/white_mw013.bmp","1,1,0","Match","e","4500","trustrating_stim/white_mw092.bmp","green","Share","PRACTICE","1"
"html-keyboard-response","8","148376","0.0-5.0-5.0","5d4100b7c983e80001746d50","bdp_wmem","Tue May 11 2021 13:35:03 GMT-0500 (Central Daylight Time)","761476","Match,No Match","","null","","","","","","<div class='trialBorder'><div class='vertical-center'><img src='img/correct.jpg'></div><div class='respDiv'><div class='respDivL'><font style='color:orange'>Match<br>(e)</font></div><div class='respDivR'>No Match<br>(i)</div></div></div>","null","FEEDBACK","","","","","","","","","","",""
"html-keyboard-response","9","148883","0.0-5.0-1.1","5d4100b7c983e80001746d50","bdp_wmem","Tue May 11 2021 13:35:03 GMT-0500 (Central Daylight Time)","761476","Match,No Match","","null","","","","","","<div class='trialBorder'><div class='vertical-center'><img src='img/fixation2_sml.jpg'</img></div></div>","null","FIX","","","","","","","","","","",""
"html-keyboard-response","10","153397","0.0-5.0-2.1","5d4100b7c983e80001746d50","bdp_wmem","Tue May 11 2021 13:35:03 GMT-0500 (Central Daylight Time)","761476","Match,No Match","","null","","","","","","<div class='trialBorder'><div class='vertical-center'><img style='vertical-align:center; align:center' src='img/fixation2_sml.jpg'></div><div class='arrayDiv3'><div class='tl'><img class='introPic' src='trustrating_stim/white_mw038.bmp'><br><font color='red'><strong>Keep</strong></font></div><div class='tc'><img class='introPic' src='trustrating_stim/white_mw070.bmp'><br><font color='red'><strong>Keep</strong></font></div><div class='tr'><img class='introPic' src='trustrating_stim/white_00807_941205_fb_edt.bmp'><br><font color='green'><strong>Share</strong></font></div></div></div>","null","ARRAY","3","trustrating_stim/white_mw038.bmp,trustrating_stim/white_mw070.bmp,trustrating_stim/white_00807_941205_fb_edt.bmp","0,0,1","noMatchOutcome","i","4500","","","","",""
"html-keyboard-response","11","157401","0.0-5.0-3.1","5d4100b7c983e80001746d50","bdp_wmem","Tue May 11 2021 13:35:03 GMT-0500 (Central Daylight Time)","761476","Match,No Match","","null","","","","","","<div class='trialBorder'><div class='vertical-center'><img src='img/fixation2_sml.jpg'</img></div></div>","null","DELAY","","","","","","","","","","",""
"html-keyboard-response","12","160137","0.0-5.0-4.1","5d4100b7c983e80001746d50","bdp_wmem","Tue May 11 2021 13:35:03 GMT-0500 (Central Daylight Time)","761476","Match,No Match","","2728","","","","","","<div class='trialBorder'><div class='targDiv'><div class='tc'><img class='introPic' src='trustrating_stim/white_mw070.bmp'><br><font color='green'><strong>Share</strong></font></div></div><div class='respDiv'><div class='respDivL'>Match<br>(e)</div><div class='respDivR'>No Match<br>(i)</div></div></div>","i","TARGET","3","trustrating_stim/white_mw038.bmp,trustrating_stim/white_mw070.bmp,trustrating_stim/white_00807_941205_fb_edt.bmp","0,0,1","noMatchOutcome","i","4500","trustrating_stim/white_mw070.bmp","green","Share","PRACTICE","1"
"html-keyboard-response","13","160643","0.0-5.0-5.1","5d4100b7c983e80001746d50","bdp_wmem","Tue May 11 2021 13:35:03 GMT-0500 (Central Daylight Time)","761476","Match,No Match","","null","","","","","","<div class='trialBorder'><div class='vertical-center'><img src='img/correct.jpg'></div><div class='respDiv'><div class='respDivL'>Match<br>(e)</div><div class='respDivR'><font style='color:orange'>No Match<br>(i)</font></div></div></div>","null","FEEDBACK","","","","","","","","","","",""
"html-keyboard-response","14","161149","0.0-5.0-1.2","5d4100b7c983e80001746d50","bdp_wmem","Tue May 11 2021 13:35:03 GMT-0500 (Central Daylight Time)","761476","Match,No Match","","null","","","","","","<div class='trialBorder'><div class='vertical-center'><img src='img/fixation2_sml.jpg'</img></div></div>","null","FIX","","","","","","","","","","",""
"html-keyboard-response","15","164160","0.0-5.0-2.2","5d4100b7c983e80001746d50","bdp_wmem","Tue May 11 2021 13:35:03 GMT-0500 (Central Daylight Time)","761476","Match,No Match","","null","","","","","","<div class='trialBorder'><div class='vertical-center'><img style='vertical-align:center; align:center' src='img/fixation2_sml.jpg'></div><div class='arrayDiv2'><div class='tl'><img class='introPic' src='trustrating_stim/white_mw092.bmp'><br><font color='red'><strong>Keep</strong></font></div><div class='tr'><img class='introPic' src='trustrating_stim/white_mw015.bmp'><br><font color='green'><strong>Share</strong></font></div></div></div>","null","ARRAY","2","trustrating_stim/white_mw092.bmp,trustrating_stim/white_mw015.bmp","0,1","noMatchOutcome","i","3000","","","","",""
"html-keyboard-response","16","168167","0.0-5.0-3.2","5d4100b7c983e80001746d50","bdp_wmem","Tue May 11 2021 13:35:03 GMT-0500 (Central Daylight Time)","761476","Match,No Match","","null","","","","","","<div class='trialBorder'><div class='vertical-center'><img src='img/fixation2_sml.jpg'</img></div></div>","null","DELAY","","","","","","","","","","",""
"html-keyboard-response","17","170160","0.0-5.0-4.2","5d4100b7c983e80001746d50","bdp_wmem","Tue May 11 2021 13:35:03 GMT-0500 (Central Daylight Time)","761476","Match,No Match","","1982","","","","","","<div class='trialBorder'><div class='targDiv'><div class='tc'><img class='introPic' src='trustrating_stim/white_mw092.bmp'><br><font color='green'><strong>Share</strong></font></div></div><div class='respDiv'><div class='respDivL'>Match<br>(e)</div><div class='respDivR'>No Match<br>(i)</div></div></div>","e","TARGET","2","trustrating_stim/white_mw092.bmp,trustrating_stim/white_mw015.bmp","0,1","noMatchOutcome","i","3000","trustrating_stim/white_mw092.bmp","green","Share","PRACTICE","0"
"html-keyboard-response","18","170667","0.0-5.0-5.2","5d4100b7c983e80001746d50","bdp_wmem","Tue May 11 2021 13:35:03 GMT-0500 (Central Daylight Time)","761476","Match,No Match","","null","","","","","","<div class='trialBorder'><div class='vertical-center'><img src='img/error.jpg'></div><div class='respDiv'><div class='respDivL'><font style='color:orange'>Match<br>(e)</font></div><div class='respDivR'>No Match<br>(i)</div></div></div>","null","FEEDBACK","","","","","","","","","","",""
"html-keyboard-response","19","171174","0.0-5.0-1.3","5d4100b7c983e80001746d50","bdp_wmem","Tue May 11 2021 13:35:03 GMT-0500 (Central Daylight Time)","761476","Match,No Match","","null","","","","","","<div class='trialBorder'><div class='vertical-center'><img src='img/fixation2_sml.jpg'</img></div></div>","null","FIX","","","","","","","","","","",""
"html-keyboard-response","20","174184","0.0-5.0-2.3","5d4100b7c983e80001746d50","bdp_wmem","Tue May 11 2021 13:35:03 GMT-0500 (Central Daylight Time)","761476","Match,No Match","","null","","","","","","<div class='trialBorder'><div class='vertical-center'><img style='vertical-align:center; align:center' src='img/fixation2_sml.jpg'></div><div class='arrayDiv2'><div class='tl'><img class='introPic' src='trustrating_stim/white_mw091.bmp'><br><font color='red'><strong>Keep</strong></font></div><div class='tr'><img class='introPic' src='trustrating_stim/white_mw012.bmp'><br><font color='green'><strong>Share</strong></font></div></div></div>","null","ARRAY","2","trustrating_stim/white_mw091.bmp,trustrating_stim/white_mw012.bmp","0,1","Match","e","3000","","","","",""
"html-keyboard-response","21","178191","0.0-5.0-3.3","5d4100b7c983e80001746d50","bdp_wmem","Tue May 11 2021 13:35:03 GMT-0500 (Central Daylight Time)","761476","Match,No Match","","null","","","","","","<div class='trialBorder'><div class='vertical-center'><img src='img/fixation2_sml.jpg'</img></div></div>","null","DELAY","","","","","","","","","","",""
"html-keyboard-response","22","179825","0.0-5.0-4.3","5d4100b7c983e80001746d50","bdp_wmem","Tue May 11 2021 13:35:03 GMT-0500 (Central Daylight Time)","761476","Match,No Match","","1626","","","","","","<div class='trialBorder'><div class='targDiv'><div class='tc'><img class='introPic' src='trustrating_stim/white_mw012.bmp'><br><font color='green'><strong>Share</strong></font></div></div><div class='respDiv'><div class='respDivL'>Match<br>(e)</div><div class='respDivR'>No Match<br>(i)</div></div></div>","i","TARGET","2","trustrating_stim/white_mw091.bmp,trustrating_stim/white_mw012.bmp","0,1","Match","e","3000","trustrating_stim/white_mw012.bmp","green","Share","PRACTICE","0"
"html-keyboard-response","23","180331","0.0-5.0-5.3","5d4100b7c983e80001746d50","bdp_wmem","Tue May 11 2021 13:35:03 GMT-0500 (Central Daylight Time)","761476","Match,No Match","","null","","","","","","<div class='trialBorder'><div class='vertical-center'><img src='img/error.jpg'></div><div class='respDiv'><div class='respDivL'>Match<br>(e)</div><div class='respDivR'><font style='color:orange'>No Match<br>(i)</font></div></div></div>","null","FEEDBACK","","","","","","","","","","",""
"html-keyboard-response","24","180837","0.0-5.0-1.4","5d4100b7c983e80001746d50","bdp_wmem","Tue May 11 2021 13:35:03 GMT-0500 (Central Daylight Time)","761476","Match,No Match","","null","","","","","","<div class='trialBorder'><div class='vertical-center'><img src='img/fixation2_sml.jpg'</img></div></div>","null","FIX","","","","","","","","","","",""
"html-keyboard-response","25","182343","0.0-5.0-2.4","5d4100b7c983e80001746d50","bdp_wmem","Tue May 11 2021 13:35:03 GMT-0500 (Central Daylight Time)","761476","Match,No Match","","null","","","","","","<div class='trialBorder'><div class='vertical-center'><img style='vertical-align:center; align:center' src='img/fixation2_sml.jpg'></div><div class='arrayDiv1'><div class='tc'><img class='introPic' src='trustrating_stim/white_mw012.bmp'><br><font color='green'><strong>Share</strong></font></div></div></div>","null","ARRAY","1","trustrating_stim/white_mw012.bmp","1","noMatchFace","i","1500","","","","",""
"html-keyboard-response","26","186350","0.0-5.0-3.4","5d4100b7c983e80001746d50","bdp_wmem","Tue May 11 2021 13:35:03 GMT-0500 (Central Daylight Time)","761476","Match,No Match","","null","","","","","","<div class='trialBorder'><div class='vertical-center'><img src='img/fixation2_sml.jpg'</img></div></div>","null","DELAY","","","","","","","","","","",""
"html-keyboard-response","27","187689","0.0-5.0-4.4","5d4100b7c983e80001746d50","bdp_wmem","Tue May 11 2021 13:35:03 GMT-0500 (Central Daylight Time)","761476","Match,No Match","","1332","","","","","","<div class='trialBorder'><div class='targDiv'><div class='tc'><img class='introPic' src='trustrating_stim/white_mw013.bmp'><br><font color='green'><strong>Share</strong></font></div></div><div class='respDiv'><div class='respDivL'>Match<br>(e)</div><div class='respDivR'>No Match<br>(i)</div></div></div>","i","TARGET","1","trustrating_stim/white_mw012.bmp","1","noMatchFace","i","1500","trustrating_stim/white_mw013.bmp","green","Share","PRACTICE","1"
"html-keyboard-response","28","188194","0.0-5.0-5.4","5d4100b7c983e80001746d50","bdp_wmem","Tue May 11 2021 13:35:03 GMT-0500 (Central Daylight Time)","761476","Match,No Match","","null","","","","","","<div class='trialBorder'><div class='vertical-center'><img src='img/correct.jpg'></div><div class='respDiv'><div class='respDivL'>Match<br>(e)</div><div class='respDivR'><font style='color:orange'>No Match<br>(i)</font></div></div></div>","null","FEEDBACK","","","","","","","","","","",""
"html-keyboard-response","29","188698","0.0-5.0-1.5","5d4100b7c983e80001746d50","bdp_wmem","Tue May 11 2021 13:35:03 GMT-0500 (Central Daylight Time)","761476","Match,No Match","","null","","","","","","<div class='trialBorder'><div class='vertical-center'><img src='img/fixation2_sml.jpg'</img></div></div>","null","FIX","","","","","","","","","","",""
"html-keyboard-response","30","190206","0.0-5.0-2.5","5d4100b7c983e80001746d50","bdp_wmem","Tue May 11 2021 13:35:03 GMT-0500 (Central Daylight Time)","761476","Match,No Match","","null","","","","","","<div class='trialBorder'><div class='vertical-center'><img style='vertical-align:center; align:center' src='img/fixation2_sml.jpg'></div><div class='arrayDiv1'><div class='tc'><img class='introPic' src='trustrating_stim/white_mw015.bmp'><br><font color='green'><strong>Share</strong></font></div></div></div>","null","ARRAY","1","trustrating_stim/white_mw015.bmp","1","Match","e","1500","","","","",""
"html-keyboard-response","31","194212","0.0-5.0-3.5","5d4100b7c983e80001746d50","bdp_wmem","Tue May 11 2021 13:35:03 GMT-0500 (Central Daylight Time)","761476","Match,No Match","","null","","","","","","<div class='trialBorder'><div class='vertical-center'><img src='img/fixation2_sml.jpg'</img></div></div>","null","DELAY","","","","","","","","","","",""
"html-keyboard-response","32","203103","0.0-5.0-4.5","5d4100b7c983e80001746d50","bdp_wmem","Tue May 11 2021 13:35:03 GMT-0500 (Central Daylight Time)","761476","Match,No Match","","8878","","","","","","<div class='trialBorder'><div class='targDiv'><div class='tc'><img class='introPic' src='trustrating_stim/white_mw015.bmp'><br><font color='green'><strong>Share</strong></font></div></div><div class='respDiv'><div class='respDivL'>Match<br>(e)</div><div class='respDivR'>No Match<br>(i)</div></div></div>","i","TARGET","1","trustrating_stim/white_mw015.bmp","1","Match","e","1500","trustrating_stim/white_mw015.bmp","green","Share","PRACTICE","0"
"html-keyboard-response","33","203608","0.0-5.0-5.5","5d4100b7c983e80001746d50","bdp_wmem","Tue May 11 2021 13:35:03 GMT-0500 (Central Daylight Time)","761476","Match,No Match","","null","","","","","","<div class='trialBorder'><div class='vertical-center'><img src='img/error.jpg'></div><div class='respDiv'><div class='respDivL'>Match<br>(e)</div><div class='respDivR'><font style='color:orange'>No Match<br>(i)</font></div></div></div>","null","FEEDBACK","","","","","","","","","","",""
"instructions","34","207998","0.0-6.0","5d4100b7c983e80001746d50","bdp_wmem","Tue May 11 2021 13:35:03 GMT-0500 (Central Daylight Time)","761476","Match,No Match","[{""page_index"":0,""viewing_time"":4386}]","4387","","","","","","","","","","","","","","","","","","",""
"html-keyboard-response","35","208504","0.0-7.0-1.0","5d4100b7c983e80001746d50","bdp_wmem","Tue May 11 2021 13:35:03 GMT-0500 (Central Daylight Time)","761476","Match,No Match","","null","","","","","","<div class='trialBorder'><div class='vertical-center'><img src='img/fixation2_sml.jpg'</img></div></div>","null","FIX","","","","","","","","","","",""
"html-keyboard-response","36","211513","0.0-7.0-2.0","5d4100b7c983e80001746d50","bdp_wmem","Tue May 11 2021 13:35:03 GMT-0500 (Central Daylight Time)","761476","Match,No Match","","null","","","","","","<div class='trialBorder'><div class='vertical-center'><img style='vertical-align:center; align:center' src='img/fixation2_sml.jpg'></div><div class='arrayDiv2'><div class='tl'><img class='introPic' src='trustrating_stim/white_mw070.bmp'><br><font color='green'><strong>Share</strong></font></div><div class='tr'><img class='introPic' src='trustrating_stim/white_mw013.bmp'><br><font color='red'><strong>Keep</strong></font></div></div></div>","null","ARRAY","2","trustrating_stim/white_mw070.bmp,trustrating_stim/white_mw013.bmp","1,0","Match","e","3000","","","","",""
"html-keyboard-response","37","215518","0.0-7.0-3.0","5d4100b7c983e80001746d50","bdp_wmem","Tue May 11 2021 13:35:03 GMT-0500 (Central Daylight Time)","761476","Match,No Match","","null","","","","","","<div class='trialBorder'><div class='vertical-center'><img src='img/fixation2_sml.jpg'</img></div></div>","null","DELAY","","","","","","","","","","",""
"html-keyboard-response","38","217575","0.0-7.0-4.0","5d4100b7c983e80001746d50","bdp_wmem","Tue May 11 2021 13:35:03 GMT-0500 (Central Daylight Time)","761476","Match,No Match","","2049","","","","","","<div class='trialBorder'><div class='targDiv'><div class='tc'><img class='introPic' src='trustrating_stim/white_mw013.bmp'><br><font color='red'><strong>Keep</strong></font></div></div><div class='respDiv'><div class='respDivL'>Match<br>(e)</div><div class='respDivR'>No Match<br>(i)</div></div></div>","e","TARGET","2","trustrating_stim/white_mw070.bmp,trustrating_stim/white_mw013.bmp","1,0","Match","e","3000","trustrating_stim/white_mw013.bmp","red","Keep","REAL","1"
"html-keyboard-response","39","218080","0.0-7.0-5.0","5d4100b7c983e80001746d50","bdp_wmem","Tue May 11 2021 13:35:03 GMT-0500 (Central Daylight Time)","761476","Match,No Match","","null","","","","","","<div class='trialBorder'><div class='vertical-center'><img src='img/correct.jpg'></div><div class='respDiv'><div class='respDivL'><font style='color:orange'>Match<br>(e)</font></div><div class='respDivR'>No Match<br>(i)</div></div></div>","null","FEEDBACK","","","","","","","","","","",""
"html-keyboard-response","40","218584","0.0-7.0-1.1","5d4100b7c983e80001746d50","bdp_wmem","Tue May 11 2021 13:35:03 GMT-0500 (Central Daylight Time)","761476","Match,No Match","","null","","","","","","<div class='trialBorder'><div class='vertical-center'><img src='img/fixation2_sml.jpg'</img></div></div>","null","FIX","","","","","","","","","","",""
"html-keyboard-response","41","223092","0.0-7.0-2.1","5d4100b7c983e80001746d50","bdp_wmem","Tue May 11 2021 13:35:03 GMT-0500 (Central Daylight Time)","761476","Match,No Match","","null","","","","","","<div class='trialBorder'><div class='vertical-center'><img style='vertical-align:center; align:center' src='img/fixation2_sml.jpg'></div><div class='arrayDiv3'><div class='tl'><img class='introPic' src='trustrating_stim/white_mw091.bmp'><br><font color='green'><strong>Share</strong></font></div><div class='tc'><img class='introPic' src='trustrating_stim/white_00807_941205_fb_edt.bmp'><br><font color='red'><strong>Keep</strong></font></div><div class='tr'><img class='introPic' src='trustrating_stim/white_mw070.bmp'><br><font color='green'><strong>Share</strong></font></div></div></div>","null","ARRAY","3","trustrating_stim/white_mw091.bmp,trustrating_stim/white_00807_941205_fb_edt.bmp,trustrating_stim/white_mw070.bmp","1,0,1","noMatchFace","i","4500","","","","",""
"html-keyboard-response","42","227096","0.0-7.0-3.1","5d4100b7c983e80001746d50","bdp_wmem","Tue May 11 2021 13:35:03 GMT-0500 (Central Daylight Time)","761476","Match,No Match","","null","","","","","","<div class='trialBorder'><div class='vertical-center'><img src='img/fixation2_sml.jpg'</img></div></div>","null","DELAY","","","","","","","","","","",""
"html-keyboard-response","43","228762","0.0-7.0-4.1","5d4100b7c983e80001746d50","bdp_wmem","Tue May 11 2021 13:35:03 GMT-0500 (Central Daylight Time)","761476","Match,No Match","","1656","","","","","","<div class='trialBorder'><div class='targDiv'><div class='tc'><img class='introPic' src='trustrating_stim/white_mw038.bmp'><br><font color='red'><strong>Keep</strong></font></div></div><div class='respDiv'><div class='respDivL'>Match<br>(e)</div><div class='respDivR'>No Match<br>(i)</div></div></div>","i","TARGET","3","trustrating_stim/white_mw091.bmp,trustrating_stim/white_00807_941205_fb_edt.bmp,trustrating_stim/white_mw070.bmp","1,0,1","noMatchFace","i","4500","trustrating_stim/white_mw038.bmp","red","Keep","REAL","1"
"html-keyboard-response","44","229265","0.0-7.0-5.1","5d4100b7c983e80001746d50","bdp_wmem","Tue May 11 2021 13:35:03 GMT-0500 (Central Daylight Time)","761476","Match,No Match","","null","","","","","","<div class='trialBorder'><div class='vertical-center'><img src='img/correct.jpg'></div><div class='respDiv'><div class='respDivL'>Match<br>(e)</div><div class='respDivR'><font style='color:orange'>No Match<br>(i)</font></div></div></div>","null","FEEDBACK","","","","","","","","","","",""
"html-keyboard-response","45","229769","0.0-7.0-1.2","5d4100b7c983e80001746d50","bdp_wmem","Tue May 11 2021 13:35:03 GMT-0500 (Central Daylight Time)","761476","Match,No Match","","null","","","","","","<div class='trialBorder'><div class='vertical-center'><img src='img/fixation2_sml.jpg'</img></div></div>","null","FIX","","","","","","","","","","",""
"html-keyboard-response","46","232779","0.0-7.0-2.2","5d4100b7c983e80001746d50","bdp_wmem","Tue May 11 2021 13:35:03 GMT-0500 (Central Daylight Time)","761476","Match,No Match","","null","","","","","","<div class='trialBorder'><div class='vertical-center'><img style='vertical-align:center; align:center' src='img/fixation2_sml.jpg'></div><div class='arrayDiv2'><div class='tl'><img class='introPic' src='trustrating_stim/white_00807_941205_fb_edt.bmp'><br><font color='green'><strong>Share</strong></font></div><div class='tr'><img class='introPic' src='trustrating_stim/white_mw003.bmp'><br><font color='red'><strong>Keep</strong></font></div></div></div>","null","ARRAY","2","trustrating_stim/white_00807_941205_fb_edt.bmp,trustrating_stim/white_mw003.bmp","1,0","Match","e","3000","","","","",""
"html-keyboard-response","47","236785","0.0-7.0-3.2","5d4100b7c983e80001746d50","bdp_wmem","Tue May 11 2021 13:35:03 GMT-0500 (Central Daylight Time)","761476","Match,No Match","","null","","","","","","<div class='trialBorder'><div class='vertical-center'><img src='img/fixation2_sml.jpg'</img></div></div>","null","DELAY","","","","","","","","","","",""
"html-keyboard-response","48","237981","0.0-7.0-4.2","5d4100b7c983e80001746d50","bdp_wmem","Tue May 11 2021 13:35:03 GMT-0500 (Central Daylight Time)","761476","Match,No Match","","1184","","","","","","<div class='trialBorder'><div class='targDiv'><div class='tc'><img class='introPic' src='trustrating_stim/white_00807_941205_fb_edt.bmp'><br><font color='green'><strong>Share</strong></font></div></div><div class='respDiv'><div class='respDivL'>Match<br>(e)</div><div class='respDivR'>No Match<br>(i)</div></div></div>","e","TARGET","2","trustrating_stim/white_00807_941205_fb_edt.bmp,trustrating_stim/white_mw003.bmp","1,0","Match","e","3000","trustrating_stim/white_00807_941205_fb_edt.bmp","green","Share","REAL","1"
"html-keyboard-response","49","238486","0.0-7.0-5.2","5d4100b7c983e80001746d50","bdp_wmem","Tue May 11 2021 13:35:03 GMT-0500 (Central Daylight Time)","761476","Match,No Match","","null","","","","","","<div class='trialBorder'><div class='vertical-center'><img src='img/correct.jpg'></div><div class='respDiv'><div class='respDivL'><font style='color:orange'>Match<br>(e)</font></div><div class='respDivR'>No Match<br>(i)</div></div></div>","null","FEEDBACK","","","","","","","","","","",""
"html-keyboard-response","50","238993","0.0-7.0-1.3","5d4100b7c983e80001746d50","bdp_wmem","Tue May 11 2021 13:35:03 GMT-0500 (Central Daylight Time)","761476","Match,No Match","","null","","","","","","<div class='trialBorder'><div class='vertical-center'><img src='img/fixation2_sml.jpg'</img></div></div>","null","FIX","","","","","","","","","","",""
"html-keyboard-response","51","243503","0.0-7.0-2.3","5d4100b7c983e80001746d50","bdp_wmem","Tue May 11 2021 13:35:03 GMT-0500 (Central Daylight Time)","761476","Match,No Match","","null","","","","","","<div class='trialBorder'><div class='vertical-center'><img style='vertical-align:center; align:center' src='img/fixation2_sml.jpg'></div><div class='arrayDiv3'><div class='tl'><img class='introPic' src='trustrating_stim/white_mw003.bmp'><br><font color='red'><strong>Keep</strong></font></div><div class='tc'><img class='introPic' src='trustrating_stim/white_mw038.bmp'><br><font color='green'><strong>Share</strong></font></div><div class='tr'><img class='introPic' src='trustrating_stim/white_mw092.bmp'><br><font color='red'><strong>Keep</strong></font></div></div></div>","null","ARRAY","3","trustrating_stim/white_mw003.bmp,trustrating_stim/white_mw038.bmp,trustrating_stim/white_mw092.bmp","0,1,0","noMatchOutcome","i","4500","","","","",""
"html-keyboard-response","52","247511","0.0-7.0-3.3","5d4100b7c983e80001746d50","bdp_wmem","Tue May 11 2021 13:35:03 GMT-0500 (Central Daylight Time)","761476","Match,No Match","","null","","","","","","<div class='trialBorder'><div class='vertical-center'><img src='img/fixation2_sml.jpg'</img></div></div>","null","DELAY","","","","","","","","","","",""
"html-keyboard-response","53","248986","0.0-7.0-4.3","5d4100b7c983e80001746d50","bdp_wmem","Tue May 11 2021 13:35:03 GMT-0500 (Central Daylight Time)","761476","Match,No Match","","1467","","","","","","<div class='trialBorder'><div class='targDiv'><div class='tc'><img class='introPic' src='trustrating_stim/white_mw092.bmp'><br><font color='green'><strong>Share</strong></font></div></div><div class='respDiv'><div class='respDivL'>Match<br>(e)</div><div class='respDivR'>No Match<br>(i)</div></div></div>","i","TARGET","3","trustrating_stim/white_mw003.bmp,trustrating_stim/white_mw038.bmp,trustrating_stim/white_mw092.bmp","0,1,0","noMatchOutcome","i","4500","trustrating_stim/white_mw092.bmp","green","Share","REAL","1"
"html-keyboard-response","54","249490","0.0-7.0-5.3","5d4100b7c983e80001746d50","bdp_wmem","Tue May 11 2021 13:35:03 GMT-0500 (Central Daylight Time)","761476","Match,No Match","","null","","","","","","<div class='trialBorder'><div class='vertical-center'><img src='img/correct.jpg'></div><div class='respDiv'><div class='respDivL'>Match<br>(e)</div><div class='respDivR'><font style='color:orange'>No Match<br>(i)</font></div></div></div>","null","FEEDBACK","","","","","","","","","","",""
"html-keyboard-response","55","249996","0.0-7.0-1.4","5d4100b7c983e80001746d50","bdp_wmem","Tue May 11 2021 13:35:03 GMT-0500 (Central Daylight Time)","761476","Match,No Match","","null","","","","","","<div class='trialBorder'><div class='vertical-center'><img src='img/fixation2_sml.jpg'</img></div></div>","null","FIX","","","","","","","","","","",""
"html-keyboard-response","56","254506","0.0-7.0-2.4","5d4100b7c983e80001746d50","bdp_wmem","Tue May 11 2021 13:35:03 GMT-0500 (Central Daylight Time)","761476","Match,No Match","","null","","","","","","<div class='trialBorder'><div class='vertical-center'><img style='vertical-align:center; align:center' src='img/fixation2_sml.jpg'></div><div class='arrayDiv3'><div class='tl'><img class='introPic' src='trustrating_stim/white_mw040.bmp'><br><font color='green'><strong>Share</strong></font></div><div class='tc'><img class='introPic' src='trustrating_stim/white_mw003.bmp'><br><font color='red'><strong>Keep</strong></font></div><div class='tr'><img class='introPic' src='trustrating_stim/white_00050_931230_fa_edt.bmp'><br><font color='red'><strong>Keep</strong></font></div></div></div>","null","ARRAY","3","trustrating_stim/white_mw040.bmp,trustrating_stim/white_mw003.bmp,trustrating_stim/white_00050_931230_fa_edt.bmp","1,0,0","Match","e","4500","","","","",""
"html-keyboard-response","57","258513","0.0-7.0-3.4","5d4100b7c983e80001746d50","bdp_wmem","Tue May 11 2021 13:35:03 GMT-0500 (Central Daylight Time)","761476","Match,No Match","","null","","","","","","<div class='trialBorder'><div class='vertical-center'><img src='img/fixation2_sml.jpg'</img></div></div>","null","DELAY","","","","","","","","","","",""
"html-keyboard-response","58","259895","0.0-7.0-4.4","5d4100b7c983e80001746d50","bdp_wmem","Tue May 11 2021 13:35:03 GMT-0500 (Central Daylight Time)","761476","Match,No Match","","1369","","","","","","<div class='trialBorder'><div class='targDiv'><div class='tc'><img class='introPic' src='trustrating_stim/white_00050_931230_fa_edt.bmp'><br><font color='red'><strong>Keep</strong></font></div></div><div class='respDiv'><div class='respDivL'>Match<br>(e)</div><div class='respDivR'>No Match<br>(i)</div></div></div>","i","TARGET","3","trustrating_stim/white_mw040.bmp,trustrating_stim/white_mw003.bmp,trustrating_stim/white_00050_931230_fa_edt.bmp","1,0,0","Match","e","4500","trustrating_stim/white_00050_931230_fa_edt.bmp","red","Keep","REAL","0"
"html-keyboard-response","59","260402","0.0-7.0-5.4","5d4100b7c983e80001746d50","bdp_wmem","Tue May 11 2021 13:35:03 GMT-0500 (Central Daylight Time)","761476","Match,No Match","","null","","","","","","<div class='trialBorder'><div class='vertical-center'><img src='img/error.jpg'></div><div class='respDiv'><div class='respDivL'>Match<br>(e)</div><div class='respDivR'><font style='color:orange'>No Match<br>(i)</font></div></div></div>","null","FEEDBACK","","","","","","","","","","",""
"html-keyboard-response","60","260908","0.0-7.0-1.5","5d4100b7c983e80001746d50","bdp_wmem","Tue May 11 2021 13:35:03 GMT-0500 (Central Daylight Time)","761476","Match,No Match","","null","","","","","","<div class='trialBorder'><div class='vertical-center'><img src='img/fixation2_sml.jpg'</img></div></div>","null","FIX","","","","","","","","","","",""
"html-keyboard-response","61","265420","0.0-7.0-2.5","5d4100b7c983e80001746d50","bdp_wmem","Tue May 11 2021 13:35:03 GMT-0500 (Central Daylight Time)","761476","Match,No Match","","null","","","","","","<div class='trialBorder'><div class='vertical-center'><img style='vertical-align:center; align:center' src='img/fixation2_sml.jpg'></div><div class='arrayDiv3'><div class='tl'><img class='introPic' src='trustrating_stim/white_mw091.bmp'><br><font color='green'><strong>Share</strong></font></div><div class='tc'><img class='introPic' src='trustrating_stim/white_mw038.bmp'><br><font color='red'><strong>Keep</strong></font></div><div class='tr'><img class='introPic' src='trustrating_stim/white_00807_941205_fb_edt.bmp'><br><font color='red'><strong>Keep</strong></font></div></div></div>","null","ARRAY","3","trustrating_stim/white_mw091.bmp,trustrating_stim/white_mw038.bmp,trustrating_stim/white_00807_941205_fb_edt.bmp","1,0,0","noMatchOutcome","i","4500","","","","",""
"html-keyboard-response","62","269425","0.0-7.0-3.5","5d4100b7c983e80001746d50","bdp_wmem","Tue May 11 2021 13:35:03 GMT-0500 (Central Daylight Time)","761476","Match,No Match","","null","","","","","","<div class='trialBorder'><div class='vertical-center'><img src='img/fixation2_sml.jpg'</img></div></div>","null","DELAY","","","","","","","","","","",""
"html-keyboard-response","63","270521","0.0-7.0-4.5","5d4100b7c983e80001746d50","bdp_wmem","Tue May 11 2021 13:35:03 GMT-0500 (Central Daylight Time)","761476","Match,No Match","","1086","","","","","","<div class='trialBorder'><div class='targDiv'><div class='tc'><img class='introPic' src='trustrating_stim/white_mw038.bmp'><br><font color='green'><strong>Share</strong></font></div></div><div class='respDiv'><div class='respDivL'>Match<br>(e)</div><div class='respDivR'>No Match<br>(i)</div></div></div>","e","TARGET","3","trustrating_stim/white_mw091.bmp,trustrating_stim/white_mw038.bmp,trustrating_stim/white_00807_941205_fb_edt.bmp","1,0,0","noMatchOutcome","i","4500","trustrating_stim/white_mw038.bmp","green","Share","REAL","0"
"html-keyboard-response","64","271027","0.0-7.0-5.5","5d4100b7c983e80001746d50","bdp_wmem","Tue May 11 2021 13:35:03 GMT-0500 (Central Daylight Time)","761476","Match,No Match","","null","","","","","","<div class='trialBorder'><div class='vertical-center'><img src='img/error.jpg'></div><div class='respDiv'><div class='respDivL'><font style='color:orange'>Match<br>(e)</font></div><div class='respDivR'>No Match<br>(i)</div></div></div>","null","FEEDBACK","","","","","","","","","","",""
"html-keyboard-response","65","271532","0.0-7.0-1.6","5d4100b7c983e80001746d50","bdp_wmem","Tue May 11 2021 13:35:03 GMT-0500 (Central Daylight Time)","761476","Match,No Match","","null","","","","","","<div class='trialBorder'><div class='vertical-center'><img src='img/fixation2_sml.jpg'</img></div></div>","null","FIX","","","","","","","","","","",""
"html-keyboard-response","66","274536","0.0-7.0-2.6","5d4100b7c983e80001746d50","bdp_wmem","Tue May 11 2021 13:35:03 GMT-0500 (Central Daylight Time)","761476","Match,No Match","","null","","","","","","<div class='trialBorder'><div class='vertical-center'><img style='vertical-align:center; align:center' src='img/fixation2_sml.jpg'></div><div class='arrayDiv2'><div class='tl'><img class='introPic' src='trustrating_stim/white_mw033.bmp'><br><font color='red'><strong>Keep</strong></font></div><div class='tr'><img class='introPic' src='trustrating_stim/white_mw092.bmp'><br><font color='green'><strong>Share</strong></font></div></div></div>","null","ARRAY","2","trustrating_stim/white_mw033.bmp,trustrating_stim/white_mw092.bmp","0,1","noMatchFace","i","3000","","","","",""
"html-keyboard-response","67","278543","0.0-7.0-3.6","5d4100b7c983e80001746d50","bdp_wmem","Tue May 11 2021 13:35:03 GMT-0500 (Central Daylight Time)","761476","Match,No Match","","null","","","","","","<div class='trialBorder'><div class='vertical-center'><img src='img/fixation2_sml.jpg'</img></div></div>","null","DELAY","","","","","","","","","","",""
"html-keyboard-response","68","280091","0.0-7.0-4.6","5d4100b7c983e80001746d50","bdp_wmem","Tue May 11 2021 13:35:03 GMT-0500 (Central Daylight Time)","761476","Match,No Match","","1534","","","","","","<div class='trialBorder'><div class='targDiv'><div class='tc'><img class='introPic' src='trustrating_stim/white_00050_931230_fa_edt.bmp'><br><font color='green'><strong>Share</strong></font></div></div><div class='respDiv'><div class='respDivL'>Match<br>(e)</div><div class='respDivR'>No Match<br>(i)</div></div></div>","i","TARGET","2","trustrating_stim/white_mw033.bmp,trustrating_stim/white_mw092.bmp","0,1","noMatchFace","i","3000","trustrating_stim/white_00050_931230_fa_edt.bmp","green","Share","REAL","1"
"html-keyboard-response","69","280601","0.0-7.0-5.6","5d4100b7c983e80001746d50","bdp_wmem","Tue May 11 2021 13:35:03 GMT-0500 (Central Daylight Time)","761476","Match,No Match","","null","","","","","","<div class='trialBorder'><div class='vertical-center'><img src='img/correct.jpg'></div><div class='respDiv'><div class='respDivL'>Match<br>(e)</div><div class='respDivR'><font style='color:orange'>No Match<br>(i)</font></div></div></div>","null","FEEDBACK","","","","","","","","","","",""
"html-keyboard-response","70","281108","0.0-7.0-1.7","5d4100b7c983e80001746d50","bdp_wmem","Tue May 11 2021 13:35:03 GMT-0500 (Central Daylight Time)","761476","Match,No Match","","null","","","","","","<div class='trialBorder'><div class='vertical-center'><img src='img/fixation2_sml.jpg'</img></div></div>","null","FIX","","","","","","","","","","",""
"html-keyboard-response","71","282617","0.0-7.0-2.7","5d4100b7c983e80001746d50","bdp_wmem","Tue May 11 2021 13:35:03 GMT-0500 (Central Daylight Time)","761476","Match,No Match","","null","","","","","","<div class='trialBorder'><div class='vertical-center'><img style='vertical-align:center; align:center' src='img/fixation2_sml.jpg'></div><div class='arrayDiv1'><div class='tc'><img class='introPic' src='trustrating_stim/white_mw091.bmp'><br><font color='green'><strong>Share</strong></font></div></div></div>","null","ARRAY","1","trustrating_stim/white_mw091.bmp","1","noMatchFace","i","1500","","","","",""
"html-keyboard-response","72","286622","0.0-7.0-3.7","5d4100b7c983e80001746d50","bdp_wmem","Tue May 11 2021 13:35:03 GMT-0500 (Central Daylight Time)","761476","Match,No Match","","null","","","","","","<div class='trialBorder'><div class='vertical-center'><img src='img/fixation2_sml.jpg'</img></div></div>","null","DELAY","","","","","","","","","","",""
"html-keyboard-response","73","288120","0.0-7.0-4.7","5d4100b7c983e80001746d50","bdp_wmem","Tue May 11 2021 13:35:03 GMT-0500 (Central Daylight Time)","761476","Match,No Match","","1490","","","","","","<div class='trialBorder'><div class='targDiv'><div class='tc'><img class='introPic' src='trustrating_stim/white_mw015.bmp'><br><font color='green'><strong>Share</strong></font></div></div><div class='respDiv'><div class='respDivL'>Match<br>(e)</div><div class='respDivR'>No Match<br>(i)</div></div></div>","i","TARGET","1","trustrating_stim/white_mw091.bmp","1","noMatchFace","i","1500","trustrating_stim/white_mw015.bmp","green","Share","REAL","1"
"html-keyboard-response","74","288626","0.0-7.0-5.7","5d4100b7c983e80001746d50","bdp_wmem","Tue May 11 2021 13:35:03 GMT-0500 (Central Daylight Time)","761476","Match,No Match","","null","","","","","","<div class='trialBorder'><div class='vertical-center'><img src='img/correct.jpg'></div><div class='respDiv'><div class='respDivL'>Match<br>(e)</div><div class='respDivR'><font style='color:orange'>No Match<br>(i)</font></div></div></div>","null","FEEDBACK","","","","","","","","","","",""
"html-keyboard-response","75","289132","0.0-7.0-1.8","5d4100b7c983e80001746d50","bdp_wmem","Tue May 11 2021 13:35:03 GMT-0500 (Central Daylight Time)","761476","Match,No Match","","null","","","","","","<div class='trialBorder'><div class='vertical-center'><img src='img/fixation2_sml.jpg'</img></div></div>","null","FIX","","","","","","","","","","",""
"html-keyboard-response","76","292145","0.0-7.0-2.8","5d4100b7c983e80001746d50","bdp_wmem","Tue May 11 2021 13:35:03 GMT-0500 (Central Daylight Time)","761476","Match,No Match","","null","","","","","","<div class='trialBorder'><div class='vertical-center'><img style='vertical-align:center; align:center' src='img/fixation2_sml.jpg'></div><div class='arrayDiv2'><div class='tl'><img class='introPic' src='trustrating_stim/white_mw012.bmp'><br><font color='green'><strong>Share</strong></font></div><div class='tr'><img class='introPic' src='trustrating_stim/white_mw070.bmp'><br><font color='red'><strong>Keep</strong></font></div></div></div>","null","ARRAY","2","trustrating_stim/white_mw012.bmp,trustrating_stim/white_mw070.bmp","1,0","noMatchOutcome","i","3000","","","","",""
"html-keyboard-response","77","296152","0.0-7.0-3.8","5d4100b7c983e80001746d50","bdp_wmem","Tue May 11 2021 13:35:03 GMT-0500 (Central Daylight Time)","761476","Match,No Match","","null","","","","","","<div class='trialBorder'><div class='vertical-center'><img src='img/fixation2_sml.jpg'</img></div></div>","null","DELAY","","","","","","","","","","",""
"html-keyboard-response","78","297907","0.0-7.0-4.8","5d4100b7c983e80001746d50","bdp_wmem","Tue May 11 2021 13:35:03 GMT-0500 (Central Daylight Time)","761476","Match,No Match","","1746","","","","","","<div class='trialBorder'><div class='targDiv'><div class='tc'><img class='introPic' src='trustrating_stim/white_mw070.bmp'><br><font color='green'><strong>Share</strong></font></div></div><div class='respDiv'><div class='respDivL'>Match<br>(e)</div><div class='respDivR'>No Match<br>(i)</div></div></div>","i","TARGET","2","trustrating_stim/white_mw012.bmp,trustrating_stim/white_mw070.bmp","1,0","noMatchOutcome","i","3000","trustrating_stim/white_mw070.bmp","green","Share","REAL","1"
"html-keyboard-response","79","298411","0.0-7.0-5.8","5d4100b7c983e80001746d50","bdp_wmem","Tue May 11 2021 13:35:03 GMT-0500 (Central Daylight Time)","761476","Match,No Match","","null","","","","","","<div class='trialBorder'><div class='vertical-center'><img src='img/correct.jpg'></div><div class='respDiv'><div class='respDivL'>Match<br>(e)</div><div class='respDivR'><font style='color:orange'>No Match<br>(i)</font></div></div></div>","null","FEEDBACK","","","","","","","","","","",""
"html-keyboard-response","80","298918","0.0-7.0-1.9","5d4100b7c983e80001746d50","bdp_wmem","Tue May 11 2021 13:35:03 GMT-0500 (Central Daylight Time)","761476","Match,No Match","","null","","","","","","<div class='trialBorder'><div class='vertical-center'><img src='img/fixation2_sml.jpg'</img></div></div>","null","FIX","","","","","","","","","","",""
"html-keyboard-response","81","303429","0.0-7.0-2.9","5d4100b7c983e80001746d50","bdp_wmem","Tue May 11 2021 13:35:03 GMT-0500 (Central Daylight Time)","761476","Match,No Match","","null","","","","","","<div class='trialBorder'><div class='vertical-center'><img style='vertical-align:center; align:center' src='img/fixation2_sml.jpg'></div><div class='arrayDiv3'><div class='tl'><img class='introPic' src='trustrating_stim/white_mw038.bmp'><br><font color='red'><strong>Keep</strong></font></div><div class='tc'><img class='introPic' src='trustrating_stim/white_mw092.bmp'><br><font color='green'><strong>Share</strong></font></div><div class='tr'><img class='introPic' src='trustrating_stim/white_00807_941205_fb_edt.bmp'><br><font color='green'><strong>Share</strong></font></div></div></div>","null","ARRAY","3","trustrating_stim/white_mw038.bmp,trustrating_stim/white_mw092.bmp,trustrating_stim/white_00807_941205_fb_edt.bmp","0,1,1","noMatchOutcome","i","4500","","","","",""
"html-keyboard-response","82","307434","0.0-7.0-3.9","5d4100b7c983e80001746d50","bdp_wmem","Tue May 11 2021 13:35:03 GMT-0500 (Central Daylight Time)","761476","Match,No Match","","null","","","","","","<div class='trialBorder'><div class='vertical-center'><img src='img/fixation2_sml.jpg'</img></div></div>","null","DELAY","","","","","","","","","","",""
"html-keyboard-response","83","308183","0.0-7.0-4.9","5d4100b7c983e80001746d50","bdp_wmem","Tue May 11 2021 13:35:03 GMT-0500 (Central Daylight Time)","761476","Match,No Match","","737","","","","","","<div class='trialBorder'><div class='targDiv'><div class='tc'><img class='introPic' src='trustrating_stim/white_00807_941205_fb_edt.bmp'><br><font color='red'><strong>Keep</strong></font></div></div><div class='respDiv'><div class='respDivL'>Match<br>(e)</div><div class='respDivR'>No Match<br>(i)</div></div></div>","e","TARGET","3","trustrating_stim/white_mw038.bmp,trustrating_stim/white_mw092.bmp,trustrating_stim/white_00807_941205_fb_edt.bmp","0,1,1","noMatchOutcome","i","4500","trustrating_stim/white_00807_941205_fb_edt.bmp","red","Keep","REAL","0"
"html-keyboard-response","84","308690","0.0-7.0-5.9","5d4100b7c983e80001746d50","bdp_wmem","Tue May 11 2021 13:35:03 GMT-0500 (Central Daylight Time)","761476","Match,No Match","","null","","","","","","<div class='trialBorder'><div class='vertical-center'><img src='img/error.jpg'></div><div class='respDiv'><div class='respDivL'><font style='color:orange'>Match<br>(e)</font></div><div class='respDivR'>No Match<br>(i)</div></div></div>","null","FEEDBACK","","","","","","","","","","",""
"html-keyboard-response","85","309196","0.0-7.0-1.10","5d4100b7c983e80001746d50","bdp_wmem","Tue May 11 2021 13:35:03 GMT-0500 (Central Daylight Time)","761476","Match,No Match","","null","","","","","","<div class='trialBorder'><div class='vertical-center'><img src='img/fixation2_sml.jpg'</img></div></div>","null","FIX","","","","","","","","","","",""
"html-keyboard-response","86","312204","0.0-7.0-2.10","5d4100b7c983e80001746d50","bdp_wmem","Tue May 11 2021 13:35:03 GMT-0500 (Central Daylight Time)","761476","Match,No Match","","null","","","","","","<div class='trialBorder'><div class='vertical-center'><img style='vertical-align:center; align:center' src='img/fixation2_sml.jpg'></div><div class='arrayDiv2'><div class='tl'><img class='introPic' src='trustrating_stim/white_mw092.bmp'><br><font color='red'><strong>Keep</strong></font></div><div class='tr'><img class='introPic' src='trustrating_stim/white_00050_931230_fa_edt.bmp'><br><font color='green'><strong>Share</strong></font></div></div></div>","null","ARRAY","2","trustrating_stim/white_mw092.bmp,trustrating_stim/white_00050_931230_fa_edt.bmp","0,1","Match","e","3000","","","","",""
"html-keyboard-response","87","316208","0.0-7.0-3.10","5d4100b7c983e80001746d50","bdp_wmem","Tue May 11 2021 13:35:03 GMT-0500 (Central Daylight Time)","761476","Match,No Match","","null","","","","","","<div class='trialBorder'><div class='vertical-center'><img src='img/fixation2_sml.jpg'</img></div></div>","null","DELAY","","","","","","","","","","",""
"html-keyboard-response","88","317469","0.0-7.0-4.10","5d4100b7c983e80001746d50","bdp_wmem","Tue May 11 2021 13:35:03 GMT-0500 (Central Daylight Time)","761476","Match,No Match","","1249","","","","","","<div class='trialBorder'><div class='targDiv'><div class='tc'><img class='introPic' src='trustrating_stim/white_mw092.bmp'><br><font color='red'><strong>Keep</strong></font></div></div><div class='respDiv'><div class='respDivL'>Match<br>(e)</div><div class='respDivR'>No Match<br>(i)</div></div></div>","i","TARGET","2","trustrating_stim/white_mw092.bmp,trustrating_stim/white_00050_931230_fa_edt.bmp","0,1","Match","e","3000","trustrating_stim/white_mw092.bmp","red","Keep","REAL","0"
"html-keyboard-response","89","317974","0.0-7.0-5.10","5d4100b7c983e80001746d50","bdp_wmem","Tue May 11 2021 13:35:03 GMT-0500 (Central Daylight Time)","761476","Match,No Match","","null","","","","","","<div class='trialBorder'><div class='vertical-center'><img src='img/error.jpg'></div><div class='respDiv'><div class='respDivL'>Match<br>(e)</div><div class='respDivR'><font style='color:orange'>No Match<br>(i)</font></div></div></div>","null","FEEDBACK","","","","","","","","","","",""
"html-keyboard-response","90","318481","0.0-7.0-1.11","5d4100b7c983e80001746d50","bdp_wmem","Tue May 11 2021 13:35:03 GMT-0500 (Central Daylight Time)","761476","Match,No Match","","null","","","","","","<div class='trialBorder'><div class='vertical-center'><img src='img/fixation2_sml.jpg'</img></div></div>","null","FIX","","","","","","","","","","",""
"html-keyboard-response","91","319986","0.0-7.0-2.11","5d4100b7c983e80001746d50","bdp_wmem","Tue May 11 2021 13:35:03 GMT-0500 (Central Daylight Time)","761476","Match,No Match","","null","","","","","","<div class='trialBorder'><div class='vertical-center'><img style='vertical-align:center; align:center' src='img/fixation2_sml.jpg'></div><div class='arrayDiv1'><div class='tc'><img class='introPic' src='trustrating_stim/white_mw012.bmp'><br><font color='red'><strong>Keep</strong></font></div></div></div>","null","ARRAY","1","trustrating_stim/white_mw012.bmp","0","Match","e","1500","","","","",""
"html-keyboard-response","92","323988","0.0-7.0-3.11","5d4100b7c983e80001746d50","bdp_wmem","Tue May 11 2021 13:35:03 GMT-0500 (Central Daylight Time)","761476","Match,No Match","","null","","","","","","<div class='trialBorder'><div class='vertical-center'><img src='img/fixation2_sml.jpg'</img></div></div>","null","DELAY","","","","","","","","","","",""
"html-keyboard-response","93","325556","0.0-7.0-4.11","5d4100b7c983e80001746d50","bdp_wmem","Tue May 11 2021 13:35:03 GMT-0500 (Central Daylight Time)","761476","Match,No Match","","1558","","","","","","<div class='trialBorder'><div class='targDiv'><div class='tc'><img class='introPic' src='trustrating_stim/white_mw012.bmp'><br><font color='red'><strong>Keep</strong></font></div></div><div class='respDiv'><div class='respDivL'>Match<br>(e)</div><div class='respDivR'>No Match<br>(i)</div></div></div>","e","TARGET","1","trustrating_stim/white_mw012.bmp","0","Match","e","1500","trustrating_stim/white_mw012.bmp","red","Keep","REAL","1"
"html-keyboard-response","94","326063","0.0-7.0-5.11","5d4100b7c983e80001746d50","bdp_wmem","Tue May 11 2021 13:35:03 GMT-0500 (Central Daylight Time)","761476","Match,No Match","","null","","","","","","<div class='trialBorder'><div class='vertical-center'><img src='img/correct.jpg'></div><div class='respDiv'><div class='respDivL'><font style='color:orange'>Match<br>(e)</font></div><div class='respDivR'>No Match<br>(i)</div></div></div>","null","FEEDBACK","","","","","","","","","","",""
"html-keyboard-response","95","326567","0.0-7.0-1.12","5d4100b7c983e80001746d50","bdp_wmem","Tue May 11 2021 13:35:03 GMT-0500 (Central Daylight Time)","761476","Match,No Match","","null","","","","","","<div class='trialBorder'><div class='vertical-center'><img src='img/fixation2_sml.jpg'</img></div></div>","null","FIX","","","","","","","","","","",""
"html-keyboard-response","96","329576","0.0-7.0-2.12","5d4100b7c983e80001746d50","bdp_wmem","Tue May 11 2021 13:35:03 GMT-0500 (Central Daylight Time)","761476","Match,No Match","","null","","","","","","<div class='trialBorder'><div class='vertical-center'><img style='vertical-align:center; align:center' src='img/fixation2_sml.jpg'></div><div class='arrayDiv2'><div class='tl'><img class='introPic' src='trustrating_stim/white_mw033.bmp'><br><font color='red'><strong>Keep</strong></font></div><div class='tr'><img class='introPic' src='trustrating_stim/white_mw092.bmp'><br><font color='green'><strong>Share</strong></font></div></div></div>","null","ARRAY","2","trustrating_stim/white_mw033.bmp,trustrating_stim/white_mw092.bmp","0,1","Match","e","3000","","","","",""
"html-keyboard-response","97","333584","0.0-7.0-3.12","5d4100b7c983e80001746d50","bdp_wmem","Tue May 11 2021 13:35:03 GMT-0500 (Central Daylight Time)","761476","Match,No Match","","null","","","","","","<div class='trialBorder'><div class='vertical-center'><img src='img/fixation2_sml.jpg'</img></div></div>","null","DELAY","","","","","","","","","","",""
"html-keyboard-response","98","339269","0.0-7.0-4.12","5d4100b7c983e80001746d50","bdp_wmem","Tue May 11 2021 13:35:03 GMT-0500 (Central Daylight Time)","761476","Match,No Match","","5675","","","","","","<div class='trialBorder'><div class='targDiv'><div class='tc'><img class='introPic' src='trustrating_stim/white_mw033.bmp'><br><font color='red'><strong>Keep</strong></font></div></div><div class='respDiv'><div class='respDivL'>Match<br>(e)</div><div class='respDivR'>No Match<br>(i)</div></div></div>","i","TARGET","2","trustrating_stim/white_mw033.bmp,trustrating_stim/white_mw092.bmp","0,1","Match","e","3000","trustrating_stim/white_mw033.bmp","red","Keep","REAL","0"
"html-keyboard-response","99","339772","0.0-7.0-5.12","5d4100b7c983e80001746d50","bdp_wmem","Tue May 11 2021 13:35:03 GMT-0500 (Central Daylight Time)","761476","Match,No Match","","null","","","","","","<div class='trialBorder'><div class='vertical-center'><img src='img/error.jpg'></div><div class='respDiv'><div class='respDivL'>Match<br>(e)</div><div class='respDivR'><font style='color:orange'>No Match<br>(i)</font></div></div></div>","null","FEEDBACK","","","","","","","","","","",""
"html-keyboard-response","100","340278","0.0-7.0-1.13","5d4100b7c983e80001746d50","bdp_wmem","Tue May 11 2021 13:35:03 GMT-0500 (Central Daylight Time)","761476","Match,No Match","","null","","","","","","<div class='trialBorder'><div class='vertical-center'><img src='img/fixation2_sml.jpg'</img></div></div>","null","FIX","","","","","","","","","","",""
"html-keyboard-response","101","343288","0.0-7.0-2.13","5d4100b7c983e80001746d50","bdp_wmem","Tue May 11 2021 13:35:03 GMT-0500 (Central Daylight Time)","761476","Match,No Match","","null","","","","","","<div class='trialBorder'><div class='vertical-center'><img style='vertical-align:center; align:center' src='img/fixation2_sml.jpg'></div><div class='arrayDiv2'><div class='tl'><img class='introPic' src='trustrating_stim/white_mw070.bmp'><br><font color='green'><strong>Share</strong></font></div><div class='tr'><img class='introPic' src='trustrating_stim/white_00807_941205_fb_edt.bmp'><br><font color='red'><strong>Keep</strong></font></div></div></div>","null","ARRAY","2","trustrating_stim/white_mw070.bmp,trustrating_stim/white_00807_941205_fb_edt.bmp","1,0","noMatchFace","i","3000","","","","",""
"html-keyboard-response","102","347301","0.0-7.0-3.13","5d4100b7c983e80001746d50","bdp_wmem","Tue May 11 2021 13:35:03 GMT-0500 (Central Daylight Time)","761476","Match,No Match","","null","","","","","","<div class='trialBorder'><div class='vertical-center'><img src='img/fixation2_sml.jpg'</img></div></div>","null","DELAY","","","","","","","","","","",""
"html-keyboard-response","103","350242","0.0-7.0-4.13","5d4100b7c983e80001746d50","bdp_wmem","Tue May 11 2021 13:35:03 GMT-0500 (Central Daylight Time)","761476","Match,No Match","","2934","","","","","","<div class='trialBorder'><div class='targDiv'><div class='tc'><img class='introPic' src='trustrating_stim/white_mw012.bmp'><br><font color='green'><strong>Share</strong></font></div></div><div class='respDiv'><div class='respDivL'>Match<br>(e)</div><div class='respDivR'>No Match<br>(i)</div></div></div>","e","TARGET","2","trustrating_stim/white_mw070.bmp,trustrating_stim/white_00807_941205_fb_edt.bmp","1,0","noMatchFace","i","3000","trustrating_stim/white_mw012.bmp","green","Share","REAL","0"
"html-keyboard-response","104","350750","0.0-7.0-5.13","5d4100b7c983e80001746d50","bdp_wmem","Tue May 11 2021 13:35:03 GMT-0500 (Central Daylight Time)","761476","Match,No Match","","null","","","","","","<div class='trialBorder'><div class='vertical-center'><img src='img/error.jpg'></div><div class='respDiv'><div class='respDivL'><font style='color:orange'>Match<br>(e)</font></div><div class='respDivR'>No Match<br>(i)</div></div></div>","null","FEEDBACK","","","","","","","","","","",""
"html-keyboard-response","105","351257","0.0-7.0-1.14","5d4100b7c983e80001746d50","bdp_wmem","Tue May 11 2021 13:35:03 GMT-0500 (Central Daylight Time)","761476","Match,No Match","","null","","","","","","<div class='trialBorder'><div class='vertical-center'><img src='img/fixation2_sml.jpg'</img></div></div>","null","FIX","","","","","","","","","","",""
"html-keyboard-response","106","354268","0.0-7.0-2.14","5d4100b7c983e80001746d50","bdp_wmem","Tue May 11 2021 13:35:03 GMT-0500 (Central Daylight Time)","761476","Match,No Match","","null","","","","","","<div class='trialBorder'><div class='vertical-center'><img style='vertical-align:center; align:center' src='img/fixation2_sml.jpg'></div><div class='arrayDiv2'><div class='tl'><img class='introPic' src='trustrating_stim/white_mw092.bmp'><br><font color='red'><strong>Keep</strong></font></div><div class='tr'><img class='introPic' src='trustrating_stim/white_mw015.bmp'><br><font color='green'><strong>Share</strong></font></div></div></div>","null","ARRAY","2","trustrating_stim/white_mw092.bmp,trustrating_stim/white_mw015.bmp","0,1","noMatchOutcome","i","3000","","","","",""
"html-keyboard-response","107","358273","0.0-7.0-3.14","5d4100b7c983e80001746d50","bdp_wmem","Tue May 11 2021 13:35:03 GMT-0500 (Central Daylight Time)","761476","Match,No Match","","null","","","","","","<div class='trialBorder'><div class='vertical-center'><img src='img/fixation2_sml.jpg'</img></div></div>","null","DELAY","","","","","","","","","","",""
"html-keyboard-response","108","360471","0.0-7.0-4.14","5d4100b7c983e80001746d50","bdp_wmem","Tue May 11 2021 13:35:03 GMT-0500 (Central Daylight Time)","761476","Match,No Match","","2189","","","","","","<div class='trialBorder'><div class='targDiv'><div class='tc'><img class='introPic' src='trustrating_stim/white_mw015.bmp'><br><font color='red'><strong>Keep</strong></font></div></div><div class='respDiv'><div class='respDivL'>Match<br>(e)</div><div class='respDivR'>No Match<br>(i)</div></div></div>","i","TARGET","2","trustrating_stim/white_mw092.bmp,trustrating_stim/white_mw015.bmp","0,1","noMatchOutcome","i","3000","trustrating_stim/white_mw015.bmp","red","Keep","REAL","1"
"html-keyboard-response","109","360976","0.0-7.0-5.14","5d4100b7c983e80001746d50","bdp_wmem","Tue May 11 2021 13:35:03 GMT-0500 (Central Daylight Time)","761476","Match,No Match","","null","","","","","","<div class='trialBorder'><div class='vertical-center'><img src='img/correct.jpg'></div><div class='respDiv'><div class='respDivL'>Match<br>(e)</div><div class='respDivR'><font style='color:orange'>No Match<br>(i)</font></div></div></div>","null","FEEDBACK","","","","","","","","","","",""
"html-keyboard-response","110","361481","0.0-7.0-1.15","5d4100b7c983e80001746d50","bdp_wmem","Tue May 11 2021 13:35:03 GMT-0500 (Central Daylight Time)","761476","Match,No Match","","null","","","","","","<div class='trialBorder'><div class='vertical-center'><img src='img/fixation2_sml.jpg'</img></div></div>","null","FIX","","","","","","","","","","",""
"html-keyboard-response","111","365989","0.0-7.0-2.15","5d4100b7c983e80001746d50","bdp_wmem","Tue May 11 2021 13:35:03 GMT-0500 (Central Daylight Time)","761476","Match,No Match","","null","","","","","","<div class='trialBorder'><div class='vertical-center'><img style='vertical-align:center; align:center' src='img/fixation2_sml.jpg'></div><div class='arrayDiv3'><div class='tl'><img class='introPic' src='trustrating_stim/white_mw070.bmp'><br><font color='green'><strong>Share</strong></font></div><div class='tc'><img class='introPic' src='trustrating_stim/white_mw092.bmp'><br><font color='red'><strong>Keep</strong></font></div><div class='tr'><img class='introPic' src='trustrating_stim/white_mw040.bmp'><br><font color='red'><strong>Keep</strong></font></div></div></div>","null","ARRAY","3","trustrating_stim/white_mw070.bmp,trustrating_stim/white_mw092.bmp,trustrating_stim/white_mw040.bmp","1,0,0","Match","e","4500","","","","",""
"html-keyboard-response","112","369995","0.0-7.0-3.15","5d4100b7c983e80001746d50","bdp_wmem","Tue May 11 2021 13:35:03 GMT-0500 (Central Daylight Time)","761476","Match,No Match","","null","","","","","","<div class='trialBorder'><div class='vertical-center'><img src='img/fixation2_sml.jpg'</img></div></div>","null","DELAY","","","","","","","","","","",""
"html-keyboard-response","113","375863","0.0-7.0-4.15","5d4100b7c983e80001746d50","bdp_wmem","Tue May 11 2021 13:35:03 GMT-0500 (Central Daylight Time)","761476","Match,No Match","","5864","","","","","","<div class='trialBorder'><div class='targDiv'><div class='tc'><img class='introPic' src='trustrating_stim/white_mw092.bmp'><br><font color='red'><strong>Keep</strong></font></div></div><div class='respDiv'><div class='respDivL'>Match<br>(e)</div><div class='respDivR'>No Match<br>(i)</div></div></div>","e","TARGET","3","trustrating_stim/white_mw070.bmp,trustrating_stim/white_mw092.bmp,trustrating_stim/white_mw040.bmp","1,0,0","Match","e","4500","trustrating_stim/white_mw092.bmp","red","Keep","REAL","1"
"html-keyboard-response","114","376369","0.0-7.0-5.15","5d4100b7c983e80001746d50","bdp_wmem","Tue May 11 2021 13:35:03 GMT-0500 (Central Daylight Time)","761476","Match,No Match","","null","","","","","","<div class='trialBorder'><div class='vertical-center'><img src='img/correct.jpg'></div><div class='respDiv'><div class='respDivL'><font style='color:orange'>Match<br>(e)</font></div><div class='respDivR'>No Match<br>(i)</div></div></div>","null","FEEDBACK","","","","","","","","","","",""
"html-keyboard-response","115","376873","0.0-7.0-1.16","5d4100b7c983e80001746d50","bdp_wmem","Tue May 11 2021 13:35:03 GMT-0500 (Central Daylight Time)","761476","Match,No Match","","null","","","","","","<div class='trialBorder'><div class='vertical-center'><img src='img/fixation2_sml.jpg'</img></div></div>","null","FIX","","","","","","","","","","",""
"html-keyboard-response","116","378385","0.0-7.0-2.16","5d4100b7c983e80001746d50","bdp_wmem","Tue May 11 2021 13:35:03 GMT-0500 (Central Daylight Time)","761476","Match,No Match","","null","","","","","","<div class='trialBorder'><div class='vertical-center'><img style='vertical-align:center; align:center' src='img/fixation2_sml.jpg'></div><div class='arrayDiv1'><div class='tc'><img class='introPic' src='trustrating_stim/white_mw033.bmp'><br><font color='green'><strong>Share</strong></font></div></div></div>","null","ARRAY","1","trustrating_stim/white_mw033.bmp","1","Match","e","1500","","","","",""
"html-keyboard-response","117","382390","0.0-7.0-3.16","5d4100b7c983e80001746d50","bdp_wmem","Tue May 11 2021 13:35:03 GMT-0500 (Central Daylight Time)","761476","Match,No Match","","null","","","","","","<div class='trialBorder'><div class='vertical-center'><img src='img/fixation2_sml.jpg'</img></div></div>","null","DELAY","","","","","","","","","","",""
"html-keyboard-response","118","384245","0.0-7.0-4.16","5d4100b7c983e80001746d50","bdp_wmem","Tue May 11 2021 13:35:03 GMT-0500 (Central Daylight Time)","761476","Match,No Match","","1845","","","","","","<div class='trialBorder'><div class='targDiv'><div class='tc'><img class='introPic' src='trustrating_stim/white_mw033.bmp'><br><font color='green'><strong>Share</strong></font></div></div><div class='respDiv'><div class='respDivL'>Match<br>(e)</div><div class='respDivR'>No Match<br>(i)</div></div></div>","e","TARGET","1","trustrating_stim/white_mw033.bmp","1","Match","e","1500","trustrating_stim/white_mw033.bmp","green","Share","REAL","1"
"html-keyboard-response","119","384749","0.0-7.0-5.16","5d4100b7c983e80001746d50","bdp_wmem","Tue May 11 2021 13:35:03 GMT-0500 (Central Daylight Time)","761476","Match,No Match","","null","","","","","","<div class='trialBorder'><div class='vertical-center'><img src='img/correct.jpg'></div><div class='respDiv'><div class='respDivL'><font style='color:orange'>Match<br>(e)</font></div><div class='respDivR'>No Match<br>(i)</div></div></div>","null","FEEDBACK","","","","","","","","","","",""
"html-keyboard-response","120","385253","0.0-7.0-1.17","5d4100b7c983e80001746d50","bdp_wmem","Tue May 11 2021 13:35:03 GMT-0500 (Central Daylight Time)","761476","Match,No Match","","null","","","","","","<div class='trialBorder'><div class='vertical-center'><img src='img/fixation2_sml.jpg'</img></div></div>","null","FIX","","","","","","","","","","",""
"html-keyboard-response","121","389766","0.0-7.0-2.17","5d4100b7c983e80001746d50","bdp_wmem","Tue May 11 2021 13:35:03 GMT-0500 (Central Daylight Time)","761476","Match,No Match","","null","","","","","","<div class='trialBorder'><div class='vertical-center'><img style='vertical-align:center; align:center' src='img/fixation2_sml.jpg'></div><div class='arrayDiv3'><div class='tl'><img class='introPic' src='trustrating_stim/white_mw012.bmp'><br><font color='green'><strong>Share</strong></font></div><div class='tc'><img class='introPic' src='trustrating_stim/white_mw070.bmp'><br><font color='red'><strong>Keep</strong></font></div><div class='tr'><img class='introPic' src='trustrating_stim/white_mw091.bmp'><br><font color='red'><strong>Keep</strong></font></div></div></div>","null","ARRAY","3","trustrating_stim/white_mw012.bmp,trustrating_stim/white_mw070.bmp,trustrating_stim/white_mw091.bmp","1,0,0","Match","e","4500","","","","",""
"html-keyboard-response","122","393772","0.0-7.0-3.17","5d4100b7c983e80001746d50","bdp_wmem","Tue May 11 2021 13:35:03 GMT-0500 (Central Daylight Time)","761476","Match,No Match","","null","","","","","","<div class='trialBorder'><div class='vertical-center'><img src='img/fixation2_sml.jpg'</img></div></div>","null","DELAY","","","","","","","","","","",""
"html-keyboard-response","123","394327","0.0-7.0-4.17","5d4100b7c983e80001746d50","bdp_wmem","Tue May 11 2021 13:35:03 GMT-0500 (Central Daylight Time)","761476","Match,No Match","","549","","","","","","<div class='trialBorder'><div class='targDiv'><div class='tc'><img class='introPic' src='trustrating_stim/white_mw091.bmp'><br><font color='red'><strong>Keep</strong></font></div></div><div class='respDiv'><div class='respDivL'>Match<br>(e)</div><div class='respDivR'>No Match<br>(i)</div></div></div>","i","TARGET","3","trustrating_stim/white_mw012.bmp,trustrating_stim/white_mw070.bmp,trustrating_stim/white_mw091.bmp","1,0,0","Match","e","4500","trustrating_stim/white_mw091.bmp","red","Keep","REAL","0"
"html-keyboard-response","124","394833","0.0-7.0-5.17","5d4100b7c983e80001746d50","bdp_wmem","Tue May 11 2021 13:35:03 GMT-0500 (Central Daylight Time)","761476","Match,No Match","","null","","","","","","<div class='trialBorder'><div class='vertical-center'><img src='img/error.jpg'></div><div class='respDiv'><div class='respDivL'>Match<br>(e)</div><div class='respDivR'><font style='color:orange'>No Match<br>(i)</font></div></div></div>","null","FEEDBACK","","","","","","","","","","",""
"html-keyboard-response","125","395339","0.0-7.0-1.18","5d4100b7c983e80001746d50","bdp_wmem","Tue May 11 2021 13:35:03 GMT-0500 (Central Daylight Time)","761476","Match,No Match","","null","","","","","","<div class='trialBorder'><div class='vertical-center'><img src='img/fixation2_sml.jpg'</img></div></div>","null","FIX","","","","","","","","","","",""
"html-keyboard-response","126","398346","0.0-7.0-2.18","5d4100b7c983e80001746d50","bdp_wmem","Tue May 11 2021 13:35:03 GMT-0500 (Central Daylight Time)","761476","Match,No Match","","null","","","","","","<div class='trialBorder'><div class='vertical-center'><img style='vertical-align:center; align:center' src='img/fixation2_sml.jpg'></div><div class='arrayDiv2'><div class='tl'><img class='introPic' src='trustrating_stim/white_mw003.bmp'><br><font color='red'><strong>Keep</strong></font></div><div class='tr'><img class='introPic' src='trustrating_stim/white_mw013.bmp'><br><font color='green'><strong>Share</strong></font></div></div></div>","null","ARRAY","2","trustrating_stim/white_mw003.bmp,trustrating_stim/white_mw013.bmp","0,1","Match","e","3000","","","","",""
"html-keyboard-response","127","402349","0.0-7.0-3.18","5d4100b7c983e80001746d50","bdp_wmem","Tue May 11 2021 13:35:03 GMT-0500 (Central Daylight Time)","761476","Match,No Match","","null","","","","","","<div class='trialBorder'><div class='vertical-center'><img src='img/fixation2_sml.jpg'</img></div></div>","null","DELAY","","","","","","","","","","",""
"html-keyboard-response","128","404856","0.0-7.0-4.18","5d4100b7c983e80001746d50","bdp_wmem","Tue May 11 2021 13:35:03 GMT-0500 (Central Daylight Time)","761476","Match,No Match","","2497","","","","","","<div class='trialBorder'><div class='targDiv'><div class='tc'><img class='introPic' src='trustrating_stim/white_mw003.bmp'><br><font color='red'><strong>Keep</strong></font></div></div><div class='respDiv'><div class='respDivL'>Match<br>(e)</div><div class='respDivR'>No Match<br>(i)</div></div></div>","e","TARGET","2","trustrating_stim/white_mw003.bmp,trustrating_stim/white_mw013.bmp","0,1","Match","e","3000","trustrating_stim/white_mw003.bmp","red","Keep","REAL","1"
"html-keyboard-response","129","405361","0.0-7.0-5.18","5d4100b7c983e80001746d50","bdp_wmem","Tue May 11 2021 13:35:03 GMT-0500 (Central Daylight Time)","761476","Match,No Match","","null","","","","","","<div class='trialBorder'><div class='vertical-center'><img src='img/correct.jpg'></div><div class='respDiv'><div class='respDivL'><font style='color:orange'>Match<br>(e)</font></div><div class='respDivR'>No Match<br>(i)</div></div></div>","null","FEEDBACK","","","","","","","","","","",""
"html-keyboard-response","130","405864","0.0-7.0-1.19","5d4100b7c983e80001746d50","bdp_wmem","Tue May 11 2021 13:35:03 GMT-0500 (Central Daylight Time)","761476","Match,No Match","","null","","","","","","<div class='trialBorder'><div class='vertical-center'><img src='img/fixation2_sml.jpg'</img></div></div>","null","FIX","","","","","","","","","","",""
"html-keyboard-response","131","407372","0.0-7.0-2.19","5d4100b7c983e80001746d50","bdp_wmem","Tue May 11 2021 13:35:03 GMT-0500 (Central Daylight Time)","761476","Match,No Match","","null","","","","","","<div class='trialBorder'><div class='vertical-center'><img style='vertical-align:center; align:center' src='img/fixation2_sml.jpg'></div><div class='arrayDiv1'><div class='tc'><img class='introPic' src='trustrating_stim/white_mw040.bmp'><br><font color='red'><strong>Keep</strong></font></div></div></div>","null","ARRAY","1","trustrating_stim/white_mw040.bmp","0","noMatchFace","i","1500","","","","",""
"html-keyboard-response","132","411375","0.0-7.0-3.19","5d4100b7c983e80001746d50","bdp_wmem","Tue May 11 2021 13:35:03 GMT-0500 (Central Daylight Time)","761476","Match,No Match","","null","","","","","","<div class='trialBorder'><div class='vertical-center'><img src='img/fixation2_sml.jpg'</img></div></div>","null","DELAY","","","","","","","","","","",""
"html-keyboard-response","133","412919","0.0-7.0-4.19","5d4100b7c983e80001746d50","bdp_wmem","Tue May 11 2021 13:35:03 GMT-0500 (Central Daylight Time)","761476","Match,No Match","","1538","","","","","","<div class='trialBorder'><div class='targDiv'><div class='tc'><img class='introPic' src='trustrating_stim/white_mw033.bmp'><br><font color='red'><strong>Keep</strong></font></div></div><div class='respDiv'><div class='respDivL'>Match<br>(e)</div><div class='respDivR'>No Match<br>(i)</div></div></div>","i","TARGET","1","trustrating_stim/white_mw040.bmp","0","noMatchFace","i","1500","trustrating_stim/white_mw033.bmp","red","Keep","REAL","1"
"html-keyboard-response","134","413424","0.0-7.0-5.19","5d4100b7c983e80001746d50","bdp_wmem","Tue May 11 2021 13:35:03 GMT-0500 (Central Daylight Time)","761476","Match,No Match","","null","","","","","","<div class='trialBorder'><div class='vertical-center'><img src='img/correct.jpg'></div><div class='respDiv'><div class='respDivL'>Match<br>(e)</div><div class='respDivR'><font style='color:orange'>No Match<br>(i)</font></div></div></div>","null","FEEDBACK","","","","","","","","","","",""
"html-keyboard-response","135","413929","0.0-7.0-1.20","5d4100b7c983e80001746d50","bdp_wmem","Tue May 11 2021 13:35:03 GMT-0500 (Central Daylight Time)","761476","Match,No Match","","null","","","","","","<div class='trialBorder'><div class='vertical-center'><img src='img/fixation2_sml.jpg'</img></div></div>","null","FIX","","","","","","","","","","",""
"html-keyboard-response","136","415437","0.0-7.0-2.20","5d4100b7c983e80001746d50","bdp_wmem","Tue May 11 2021 13:35:03 GMT-0500 (Central Daylight Time)","761476","Match,No Match","","null","","","","","","<div class='trialBorder'><div class='vertical-center'><img style='vertical-align:center; align:center' src='img/fixation2_sml.jpg'></div><div class='arrayDiv1'><div class='tc'><img class='introPic' src='trustrating_stim/white_mw070.bmp'><br><font color='red'><strong>Keep</strong></font></div></div></div>","null","ARRAY","1","trustrating_stim/white_mw070.bmp","0","noMatchFace","i","1500","","","","",""
"html-keyboard-response","137","419445","0.0-7.0-3.20","5d4100b7c983e80001746d50","bdp_wmem","Tue May 11 2021 13:35:03 GMT-0500 (Central Daylight Time)","761476","Match,No Match","","null","","","","","","<div class='trialBorder'><div class='vertical-center'><img src='img/fixation2_sml.jpg'</img></div></div>","null","DELAY","","","","","","","","","","",""
"html-keyboard-response","138","421275","0.0-7.0-4.20","5d4100b7c983e80001746d50","bdp_wmem","Tue May 11 2021 13:35:03 GMT-0500 (Central Daylight Time)","761476","Match,No Match","","1823","","","","","","<div class='trialBorder'><div class='targDiv'><div class='tc'><img class='introPic' src='trustrating_stim/white_mw015.bmp'><br><font color='red'><strong>Keep</strong></font></div></div><div class='respDiv'><div class='respDivL'>Match<br>(e)</div><div class='respDivR'>No Match<br>(i)</div></div></div>","i","TARGET","1","trustrating_stim/white_mw070.bmp","0","noMatchFace","i","1500","trustrating_stim/white_mw015.bmp","red","Keep","REAL","1"
"html-keyboard-response","139","421779","0.0-7.0-5.20","5d4100b7c983e80001746d50","bdp_wmem","Tue May 11 2021 13:35:03 GMT-0500 (Central Daylight Time)","761476","Match,No Match","","null","","","","","","<div class='trialBorder'><div class='vertical-center'><img src='img/correct.jpg'></div><div class='respDiv'><div class='respDivL'>Match<br>(e)</div><div class='respDivR'><font style='color:orange'>No Match<br>(i)</font></div></div></div>","null","FEEDBACK","","","","","","","","","","",""
"html-keyboard-response","140","422286","0.0-7.0-1.21","5d4100b7c983e80001746d50","bdp_wmem","Tue May 11 2021 13:35:03 GMT-0500 (Central Daylight Time)","761476","Match,No Match","","null","","","","","","<div class='trialBorder'><div class='vertical-center'><img src='img/fixation2_sml.jpg'</img></div></div>","null","FIX","","","","","","","","","","",""
"html-keyboard-response","141","425295","0.0-7.0-2.21","5d4100b7c983e80001746d50","bdp_wmem","Tue May 11 2021 13:35:03 GMT-0500 (Central Daylight Time)","761476","Match,No Match","","null","","","","","","<div class='trialBorder'><div class='vertical-center'><img style='vertical-align:center; align:center' src='img/fixation2_sml.jpg'></div><div class='arrayDiv2'><div class='tl'><img class='introPic' src='trustrating_stim/white_mw038.bmp'><br><font color='green'><strong>Share</strong></font></div><div class='tr'><img class='introPic' src='trustrating_stim/white_mw040.bmp'><br><font color='red'><strong>Keep</strong></font></div></div></div>","null","ARRAY","2","trustrating_stim/white_mw038.bmp,trustrating_stim/white_mw040.bmp","1,0","noMatchOutcome","i","3000","","","","",""
"html-keyboard-response","142","429300","0.0-7.0-3.21","5d4100b7c983e80001746d50","bdp_wmem","Tue May 11 2021 13:35:03 GMT-0500 (Central Daylight Time)","761476","Match,No Match","","null","","","","","","<div class='trialBorder'><div class='vertical-center'><img src='img/fixation2_sml.jpg'</img></div></div>","null","DELAY","","","","","","","","","","",""
"html-keyboard-response","143","430638","0.0-7.0-4.21","5d4100b7c983e80001746d50","bdp_wmem","Tue May 11 2021 13:35:03 GMT-0500 (Central Daylight Time)","761476","Match,No Match","","1332","","","","","","<div class='trialBorder'><div class='targDiv'><div class='tc'><img class='introPic' src='trustrating_stim/white_mw038.bmp'><br><font color='red'><strong>Keep</strong></font></div></div><div class='respDiv'><div class='respDivL'>Match<br>(e)</div><div class='respDivR'>No Match<br>(i)</div></div></div>","i","TARGET","2","trustrating_stim/white_mw038.bmp,trustrating_stim/white_mw040.bmp","1,0","noMatchOutcome","i","3000","trustrating_stim/white_mw038.bmp","red","Keep","REAL","1"
"html-keyboard-response","144","431143","0.0-7.0-5.21","5d4100b7c983e80001746d50","bdp_wmem","Tue May 11 2021 13:35:03 GMT-0500 (Central Daylight Time)","761476","Match,No Match","","null","","","","","","<div class='trialBorder'><div class='vertical-center'><img src='img/correct.jpg'></div><div class='respDiv'><div class='respDivL'>Match<br>(e)</div><div class='respDivR'><font style='color:orange'>No Match<br>(i)</font></div></div></div>","null","FEEDBACK","","","","","","","","","","",""
"html-keyboard-response","145","431649","0.0-7.0-1.22","5d4100b7c983e80001746d50","bdp_wmem","Tue May 11 2021 13:35:03 GMT-0500 (Central Daylight Time)","761476","Match,No Match","","null","","","","","","<div class='trialBorder'><div class='vertical-center'><img src='img/fixation2_sml.jpg'</img></div></div>","null","FIX","","","","","","","","","","",""
"html-keyboard-response","146","436157","0.0-7.0-2.22","5d4100b7c983e80001746d50","bdp_wmem","Tue May 11 2021 13:35:03 GMT-0500 (Central Daylight Time)","761476","Match,No Match","","null","","","","","","<div class='trialBorder'><div class='vertical-center'><img style='vertical-align:center; align:center' src='img/fixation2_sml.jpg'></div><div class='arrayDiv3'><div class='tl'><img class='introPic' src='trustrating_stim/white_mw003.bmp'><br><font color='green'><strong>Share</strong></font></div><div class='tc'><img class='introPic' src='trustrating_stim/white_mw038.bmp'><br><font color='red'><strong>Keep</strong></font></div><div class='tr'><img class='introPic' src='trustrating_stim/white_mw013.bmp'><br><font color='green'><strong>Share</strong></font></div></div></div>","null","ARRAY","3","trustrating_stim/white_mw003.bmp,trustrating_stim/white_mw038.bmp,trustrating_stim/white_mw013.bmp","1,0,1","Match","e","4500","","","","",""
"html-keyboard-response","147","440164","0.0-7.0-3.22","5d4100b7c983e80001746d50","bdp_wmem","Tue May 11 2021 13:35:03 GMT-0500 (Central Daylight Time)","761476","Match,No Match","","null","","","","","","<div class='trialBorder'><div class='vertical-center'><img src='img/fixation2_sml.jpg'</img></div></div>","null","DELAY","","","","","","","","","","",""
"html-keyboard-response","148","442582","0.0-7.0-4.22","5d4100b7c983e80001746d50","bdp_wmem","Tue May 11 2021 13:35:03 GMT-0500 (Central Daylight Time)","761476","Match,No Match","","2409","","","","","","<div class='trialBorder'><div class='targDiv'><div class='tc'><img class='introPic' src='trustrating_stim/white_mw013.bmp'><br><font color='green'><strong>Share</strong></font></div></div><div class='respDiv'><div class='respDivL'>Match<br>(e)</div><div class='respDivR'>No Match<br>(i)</div></div></div>","e","TARGET","3","trustrating_stim/white_mw003.bmp,trustrating_stim/white_mw038.bmp,trustrating_stim/white_mw013.bmp","1,0,1","Match","e","4500","trustrating_stim/white_mw013.bmp","green","Share","REAL","1"
"html-keyboard-response","149","443088","0.0-7.0-5.22","5d4100b7c983e80001746d50","bdp_wmem","Tue May 11 2021 13:35:03 GMT-0500 (Central Daylight Time)","761476","Match,No Match","","null","","","","","","<div class='trialBorder'><div class='vertical-center'><img src='img/correct.jpg'></div><div class='respDiv'><div class='respDivL'><font style='color:orange'>Match<br>(e)</font></div><div class='respDivR'>No Match<br>(i)</div></div></div>","null","FEEDBACK","","","","","","","","","","",""
"html-keyboard-response","150","443592","0.0-7.0-1.23","5d4100b7c983e80001746d50","bdp_wmem","Tue May 11 2021 13:35:03 GMT-0500 (Central Daylight Time)","761476","Match,No Match","","null","","","","","","<div class='trialBorder'><div class='vertical-center'><img src='img/fixation2_sml.jpg'</img></div></div>","null","FIX","","","","","","","","","","",""
"html-keyboard-response","151","446601","0.0-7.0-2.23","5d4100b7c983e80001746d50","bdp_wmem","Tue May 11 2021 13:35:03 GMT-0500 (Central Daylight Time)","761476","Match,No Match","","null","","","","","","<div class='trialBorder'><div class='vertical-center'><img style='vertical-align:center; align:center' src='img/fixation2_sml.jpg'></div><div class='arrayDiv2'><div class='tl'><img class='introPic' src='trustrating_stim/white_mw092.bmp'><br><font color='red'><strong>Keep</strong></font></div><div class='tr'><img class='introPic' src='trustrating_stim/white_00807_941205_fb_edt.bmp'><br><font color='green'><strong>Share</strong></font></div></div></div>","null","ARRAY","2","trustrating_stim/white_mw092.bmp,trustrating_stim/white_00807_941205_fb_edt.bmp","0,1","noMatchFace","i","3000","","","","",""
"html-keyboard-response","152","450605","0.0-7.0-3.23","5d4100b7c983e80001746d50","bdp_wmem","Tue May 11 2021 13:35:03 GMT-0500 (Central Daylight Time)","761476","Match,No Match","","null","","","","","","<div class='trialBorder'><div class='vertical-center'><img src='img/fixation2_sml.jpg'</img></div></div>","null","DELAY","","","","","","","","","","",""
"html-keyboard-response","153","451887","0.0-7.0-4.23","5d4100b7c983e80001746d50","bdp_wmem","Tue May 11 2021 13:35:03 GMT-0500 (Central Daylight Time)","761476","Match,No Match","","1274","","","","","","<div class='trialBorder'><div class='targDiv'><div class='tc'><img class='introPic' src='trustrating_stim/white_mw091.bmp'><br><font color='red'><strong>Keep</strong></font></div></div><div class='respDiv'><div class='respDivL'>Match<br>(e)</div><div class='respDivR'>No Match<br>(i)</div></div></div>","i","TARGET","2","trustrating_stim/white_mw092.bmp,trustrating_stim/white_00807_941205_fb_edt.bmp","0,1","noMatchFace","i","3000","trustrating_stim/white_mw091.bmp","red","Keep","REAL","1"
"html-keyboard-response","154","452391","0.0-7.0-5.23","5d4100b7c983e80001746d50","bdp_wmem","Tue May 11 2021 13:35:03 GMT-0500 (Central Daylight Time)","761476","Match,No Match","","null","","","","","","<div class='trialBorder'><div class='vertical-center'><img src='img/correct.jpg'></div><div class='respDiv'><div class='respDivL'>Match<br>(e)</div><div class='respDivR'><font style='color:orange'>No Match<br>(i)</font></div></div></div>","null","FEEDBACK","","","","","","","","","","",""
"html-keyboard-response","155","452896","0.0-7.0-1.24","5d4100b7c983e80001746d50","bdp_wmem","Tue May 11 2021 13:35:03 GMT-0500 (Central Daylight Time)","761476","Match,No Match","","null","","","","","","<div class='trialBorder'><div class='vertical-center'><img src='img/fixation2_sml.jpg'</img></div></div>","null","FIX","","","","","","","","","","",""
"html-keyboard-response","156","455903","0.0-7.0-2.24","5d4100b7c983e80001746d50","bdp_wmem","Tue May 11 2021 13:35:03 GMT-0500 (Central Daylight Time)","761476","Match,No Match","","null","","","","","","<div class='trialBorder'><div class='vertical-center'><img style='vertical-align:center; align:center' src='img/fixation2_sml.jpg'></div><div class='arrayDiv2'><div class='tl'><img class='introPic' src='trustrating_stim/white_mw013.bmp'><br><font color='green'><strong>Share</strong></font></div><div class='tr'><img class='introPic' src='trustrating_stim/white_mw038.bmp'><br><font color='red'><strong>Keep</strong></font></div></div></div>","null","ARRAY","2","trustrating_stim/white_mw013.bmp,trustrating_stim/white_mw038.bmp","1,0","Match","e","3000","","","","",""
"html-keyboard-response","157","459910","0.0-7.0-3.24","5d4100b7c983e80001746d50","bdp_wmem","Tue May 11 2021 13:35:03 GMT-0500 (Central Daylight Time)","761476","Match,No Match","","null","","","","","","<div class='trialBorder'><div class='vertical-center'><img src='img/fixation2_sml.jpg'</img></div></div>","null","DELAY","","","","","","","","","","",""
"html-keyboard-response","158","461163","0.0-7.0-4.24","5d4100b7c983e80001746d50","bdp_wmem","Tue May 11 2021 13:35:03 GMT-0500 (Central Daylight Time)","761476","Match,No Match","","1244","","","","","","<div class='trialBorder'><div class='targDiv'><div class='tc'><img class='introPic' src='trustrating_stim/white_mw013.bmp'><br><font color='green'><strong>Share</strong></font></div></div><div class='respDiv'><div class='respDivL'>Match<br>(e)</div><div class='respDivR'>No Match<br>(i)</div></div></div>","e","TARGET","2","trustrating_stim/white_mw013.bmp,trustrating_stim/white_mw038.bmp","1,0","Match","e","3000","trustrating_stim/white_mw013.bmp","green","Share","REAL","1"
"html-keyboard-response","159","461671","0.0-7.0-5.24","5d4100b7c983e80001746d50","bdp_wmem","Tue May 11 2021 13:35:03 GMT-0500 (Central Daylight Time)","761476","Match,No Match","","null","","","","","","<div class='trialBorder'><div class='vertical-center'><img src='img/correct.jpg'></div><div class='respDiv'><div class='respDivL'><font style='color:orange'>Match<br>(e)</font></div><div class='respDivR'>No Match<br>(i)</div></div></div>","null","FEEDBACK","","","","","","","","","","",""
"html-keyboard-response","160","462178","0.0-7.0-1.25","5d4100b7c983e80001746d50","bdp_wmem","Tue May 11 2021 13:35:03 GMT-0500 (Central Daylight Time)","761476","Match,No Match","","null","","","","","","<div class='trialBorder'><div class='vertical-center'><img src='img/fixation2_sml.jpg'</img></div></div>","null","FIX","","","","","","","","","","",""
"html-keyboard-response","161","463686","0.0-7.0-2.25","5d4100b7c983e80001746d50","bdp_wmem","Tue May 11 2021 13:35:03 GMT-0500 (Central Daylight Time)","761476","Match,No Match","","null","","","","","","<div class='trialBorder'><div class='vertical-center'><img style='vertical-align:center; align:center' src='img/fixation2_sml.jpg'></div><div class='arrayDiv1'><div class='tc'><img class='introPic' src='trustrating_stim/white_mw040.bmp'><br><font color='red'><strong>Keep</strong></font></div></div></div>","null","ARRAY","1","trustrating_stim/white_mw040.bmp","0","Match","e","1500","","","","",""
"html-keyboard-response","162","467693","0.0-7.0-3.25","5d4100b7c983e80001746d50","bdp_wmem","Tue May 11 2021 13:35:03 GMT-0500 (Central Daylight Time)","761476","Match,No Match","","null","","","","","","<div class='trialBorder'><div class='vertical-center'><img src='img/fixation2_sml.jpg'</img></div></div>","null","DELAY","","","","","","","","","","",""
"html-keyboard-response","163","469634","0.0-7.0-4.25","5d4100b7c983e80001746d50","bdp_wmem","Tue May 11 2021 13:35:03 GMT-0500 (Central Daylight Time)","761476","Match,No Match","","1933","","","","","","<div class='trialBorder'><div class='targDiv'><div class='tc'><img class='introPic' src='trustrating_stim/white_mw040.bmp'><br><font color='red'><strong>Keep</strong></font></div></div><div class='respDiv'><div class='respDivL'>Match<br>(e)</div><div class='respDivR'>No Match<br>(i)</div></div></div>","i","TARGET","1","trustrating_stim/white_mw040.bmp","0","Match","e","1500","trustrating_stim/white_mw040.bmp","red","Keep","REAL","0"
"html-keyboard-response","164","470139","0.0-7.0-5.25","5d4100b7c983e80001746d50","bdp_wmem","Tue May 11 2021 13:35:03 GMT-0500 (Central Daylight Time)","761476","Match,No Match","","null","","","","","","<div class='trialBorder'><div class='vertical-center'><img src='img/error.jpg'></div><div class='respDiv'><div class='respDivL'>Match<br>(e)</div><div class='respDivR'><font style='color:orange'>No Match<br>(i)</font></div></div></div>","null","FEEDBACK","","","","","","","","","","",""
"html-keyboard-response","165","470647","0.0-7.0-1.26","5d4100b7c983e80001746d50","bdp_wmem","Tue May 11 2021 13:35:03 GMT-0500 (Central Daylight Time)","761476","Match,No Match","","null","","","","","","<div class='trialBorder'><div class='vertical-center'><img src='img/fixation2_sml.jpg'</img></div></div>","null","FIX","","","","","","","","","","",""
"html-keyboard-response","166","473655","0.0-7.0-2.26","5d4100b7c983e80001746d50","bdp_wmem","Tue May 11 2021 13:35:03 GMT-0500 (Central Daylight Time)","761476","Match,No Match","","null","","","","","","<div class='trialBorder'><div class='vertical-center'><img style='vertical-align:center; align:center' src='img/fixation2_sml.jpg'></div><div class='arrayDiv2'><div class='tl'><img class='introPic' src='trustrating_stim/white_mw003.bmp'><br><font color='green'><strong>Share</strong></font></div><div class='tr'><img class='introPic' src='trustrating_stim/white_mw092.bmp'><br><font color='red'><strong>Keep</strong></font></div></div></div>","null","ARRAY","2","trustrating_stim/white_mw003.bmp,trustrating_stim/white_mw092.bmp","1,0","Match","e","3000","","","","",""
"html-keyboard-response","167","477662","0.0-7.0-3.26","5d4100b7c983e80001746d50","bdp_wmem","Tue May 11 2021 13:35:03 GMT-0500 (Central Daylight Time)","761476","Match,No Match","","null","","","","","","<div class='trialBorder'><div class='vertical-center'><img src='img/fixation2_sml.jpg'</img></div></div>","null","DELAY","","","","","","","","","","",""
"html-keyboard-response","168","478454","0.0-7.0-4.26","5d4100b7c983e80001746d50","bdp_wmem","Tue May 11 2021 13:35:03 GMT-0500 (Central Daylight Time)","761476","Match,No Match","","784","","","","","","<div class='trialBorder'><div class='targDiv'><div class='tc'><img class='introPic' src='trustrating_stim/white_mw092.bmp'><br><font color='red'><strong>Keep</strong></font></div></div><div class='respDiv'><div class='respDivL'>Match<br>(e)</div><div class='respDivR'>No Match<br>(i)</div></div></div>","e","TARGET","2","trustrating_stim/white_mw003.bmp,trustrating_stim/white_mw092.bmp","1,0","Match","e","3000","trustrating_stim/white_mw092.bmp","red","Keep","REAL","1"
"html-keyboard-response","169","478959","0.0-7.0-5.26","5d4100b7c983e80001746d50","bdp_wmem","Tue May 11 2021 13:35:03 GMT-0500 (Central Daylight Time)","761476","Match,No Match","","null","","","","","","<div class='trialBorder'><div class='vertical-center'><img src='img/correct.jpg'></div><div class='respDiv'><div class='respDivL'><font style='color:orange'>Match<br>(e)</font></div><div class='respDivR'>No Match<br>(i)</div></div></div>","null","FEEDBACK","","","","","","","","","","",""
"html-keyboard-response","170","479463","0.0-7.0-1.27","5d4100b7c983e80001746d50","bdp_wmem","Tue May 11 2021 13:35:03 GMT-0500 (Central Daylight Time)","761476","Match,No Match","","null","","","","","","<div class='trialBorder'><div class='vertical-center'><img src='img/fixation2_sml.jpg'</img></div></div>","null","FIX","","","","","","","","","","",""
"html-keyboard-response","171","482474","0.0-7.0-2.27","5d4100b7c983e80001746d50","bdp_wmem","Tue May 11 2021 13:35:03 GMT-0500 (Central Daylight Time)","761476","Match,No Match","","null","","","","","","<div class='trialBorder'><div class='vertical-center'><img style='vertical-align:center; align:center' src='img/fixation2_sml.jpg'></div><div class='arrayDiv2'><div class='tl'><img class='introPic' src='trustrating_stim/white_mw003.bmp'><br><font color='red'><strong>Keep</strong></font></div><div class='tr'><img class='introPic' src='trustrating_stim/white_mw033.bmp'><br><font color='green'><strong>Share</strong></font></div></div></div>","null","ARRAY","2","trustrating_stim/white_mw003.bmp,trustrating_stim/white_mw033.bmp","0,1","noMatchFace","i","3000","","","","",""
"html-keyboard-response","172","486479","0.0-7.0-3.27","5d4100b7c983e80001746d50","bdp_wmem","Tue May 11 2021 13:35:03 GMT-0500 (Central Daylight Time)","761476","Match,No Match","","null","","","","","","<div class='trialBorder'><div class='vertical-center'><img src='img/fixation2_sml.jpg'</img></div></div>","null","DELAY","","","","","","","","","","",""
"html-keyboard-response","173","488040","0.0-7.0-4.27","5d4100b7c983e80001746d50","bdp_wmem","Tue May 11 2021 13:35:03 GMT-0500 (Central Daylight Time)","761476","Match,No Match","","1552","","","","","","<div class='trialBorder'><div class='targDiv'><div class='tc'><img class='introPic' src='trustrating_stim/white_mw040.bmp'><br><font color='green'><strong>Share</strong></font></div></div><div class='respDiv'><div class='respDivL'>Match<br>(e)</div><div class='respDivR'>No Match<br>(i)</div></div></div>","e","TARGET","2","trustrating_stim/white_mw003.bmp,trustrating_stim/white_mw033.bmp","0,1","noMatchFace","i","3000","trustrating_stim/white_mw040.bmp","green","Share","REAL","0"
"html-keyboard-response","174","488546","0.0-7.0-5.27","5d4100b7c983e80001746d50","bdp_wmem","Tue May 11 2021 13:35:03 GMT-0500 (Central Daylight Time)","761476","Match,No Match","","null","","","","","","<div class='trialBorder'><div class='vertical-center'><img src='img/error.jpg'></div><div class='respDiv'><div class='respDivL'><font style='color:orange'>Match<br>(e)</font></div><div class='respDivR'>No Match<br>(i)</div></div></div>","null","FEEDBACK","","","","","","","","","","",""
"html-keyboard-response","175","489051","0.0-7.0-1.28","5d4100b7c983e80001746d50","bdp_wmem","Tue May 11 2021 13:35:03 GMT-0500 (Central Daylight Time)","761476","Match,No Match","","null","","","","","","<div class='trialBorder'><div class='vertical-center'><img src='img/fixation2_sml.jpg'</img></div></div>","null","FIX","","","","","","","","","","",""
"html-keyboard-response","176","490560","0.0-7.0-2.28","5d4100b7c983e80001746d50","bdp_wmem","Tue May 11 2021 13:35:03 GMT-0500 (Central Daylight Time)","761476","Match,No Match","","null","","","","","","<div class='trialBorder'><div class='vertical-center'><img style='vertical-align:center; align:center' src='img/fixation2_sml.jpg'></div><div class='arrayDiv1'><div class='tc'><img class='introPic' src='trustrating_stim/white_mw040.bmp'><br><font color='green'><strong>Share</strong></font></div></div></div>","null","ARRAY","1","trustrating_stim/white_mw040.bmp","1","noMatchFace","i","1500","","","","",""
"html-keyboard-response","177","494566","0.0-7.0-3.28","5d4100b7c983e80001746d50","bdp_wmem","Tue May 11 2021 13:35:03 GMT-0500 (Central Daylight Time)","761476","Match,No Match","","null","","","","","","<div class='trialBorder'><div class='vertical-center'><img src='img/fixation2_sml.jpg'</img></div></div>","null","DELAY","","","","","","","","","","",""
"html-keyboard-response","178","496001","0.0-7.0-4.28","5d4100b7c983e80001746d50","bdp_wmem","Tue May 11 2021 13:35:03 GMT-0500 (Central Daylight Time)","761476","Match,No Match","","1425","","","","","","<div class='trialBorder'><div class='targDiv'><div class='tc'><img class='introPic' src='trustrating_stim/white_00050_931230_fa_edt.bmp'><br><font color='green'><strong>Share</strong></font></div></div><div class='respDiv'><div class='respDivL'>Match<br>(e)</div><div class='respDivR'>No Match<br>(i)</div></div></div>","i","TARGET","1","trustrating_stim/white_mw040.bmp","1","noMatchFace","i","1500","trustrating_stim/white_00050_931230_fa_edt.bmp","green","Share","REAL","1"
"html-keyboard-response","179","496507","0.0-7.0-5.28","5d4100b7c983e80001746d50","bdp_wmem","Tue May 11 2021 13:35:03 GMT-0500 (Central Daylight Time)","761476","Match,No Match","","null","","","","","","<div class='trialBorder'><div class='vertical-center'><img src='img/correct.jpg'></div><div class='respDiv'><div class='respDivL'>Match<br>(e)</div><div class='respDivR'><font style='color:orange'>No Match<br>(i)</font></div></div></div>","null","FEEDBACK","","","","","","","","","","",""
"html-keyboard-response","180","497013","0.0-7.0-1.29","5d4100b7c983e80001746d50","bdp_wmem","Tue May 11 2021 13:35:03 GMT-0500 (Central Daylight Time)","761476","Match,No Match","","null","","","","","","<div class='trialBorder'><div class='vertical-center'><img src='img/fixation2_sml.jpg'</img></div></div>","null","FIX","","","","","","","","","","",""
"html-keyboard-response","181","501525","0.0-7.0-2.29","5d4100b7c983e80001746d50","bdp_wmem","Tue May 11 2021 13:35:03 GMT-0500 (Central Daylight Time)","761476","Match,No Match","","null","","","","","","<div class='trialBorder'><div class='vertical-center'><img style='vertical-align:center; align:center' src='img/fixation2_sml.jpg'></div><div class='arrayDiv3'><div class='tl'><img class='introPic' src='trustrating_stim/white_00050_931230_fa_edt.bmp'><br><font color='green'><strong>Share</strong></font></div><div class='tc'><img class='introPic' src='trustrating_stim/white_mw015.bmp'><br><font color='red'><strong>Keep</strong></font></div><div class='tr'><img class='introPic' src='trustrating_stim/white_00807_941205_fb_edt.bmp'><br><font color='red'><strong>Keep</strong></font></div></div></div>","null","ARRAY","3","trustrating_stim/white_00050_931230_fa_edt.bmp,trustrating_stim/white_mw015.bmp,trustrating_stim/white_00807_941205_fb_edt.bmp","1,0,0","noMatchFace","i","4500","","","","",""
"html-keyboard-response","182","505532","0.0-7.0-3.29","5d4100b7c983e80001746d50","bdp_wmem","Tue May 11 2021 13:35:03 GMT-0500 (Central Daylight Time)","761476","Match,No Match","","null","","","","","","<div class='trialBorder'><div class='vertical-center'><img src='img/fixation2_sml.jpg'</img></div></div>","null","DELAY","","","","","","","","","","",""
"html-keyboard-response","183","507187","0.0-7.0-4.29","5d4100b7c983e80001746d50","bdp_wmem","Tue May 11 2021 13:35:03 GMT-0500 (Central Daylight Time)","761476","Match,No Match","","1647","","","","","","<div class='trialBorder'><div class='targDiv'><div class='tc'><img class='introPic' src='trustrating_stim/white_mw038.bmp'><br><font color='red'><strong>Keep</strong></font></div></div><div class='respDiv'><div class='respDivL'>Match<br>(e)</div><div class='respDivR'>No Match<br>(i)</div></div></div>","i","TARGET","3","trustrating_stim/white_00050_931230_fa_edt.bmp,trustrating_stim/white_mw015.bmp,trustrating_stim/white_00807_941205_fb_edt.bmp","1,0,0","noMatchFace","i","4500","trustrating_stim/white_mw038.bmp","red","Keep","REAL","1"
"html-keyboard-response","184","507693","0.0-7.0-5.29","5d4100b7c983e80001746d50","bdp_wmem","Tue May 11 2021 13:35:03 GMT-0500 (Central Daylight Time)","761476","Match,No Match","","null","","","","","","<div class='trialBorder'><div class='vertical-center'><img src='img/correct.jpg'></div><div class='respDiv'><div class='respDivL'>Match<br>(e)</div><div class='respDivR'><font style='color:orange'>No Match<br>(i)</font></div></div></div>","null","FEEDBACK","","","","","","","","","","",""
"html-keyboard-response","185","508198","0.0-7.0-1.30","5d4100b7c983e80001746d50","bdp_wmem","Tue May 11 2021 13:35:03 GMT-0500 (Central Daylight Time)","761476","Match,No Match","","null","","","","","","<div class='trialBorder'><div class='vertical-center'><img src='img/fixation2_sml.jpg'</img></div></div>","null","FIX","","","","","","","","","","",""
