"event","trial","time","trialtype","subject_id","task","startTime","totalTime","labels","trial_type","trial_index","time_elapsed","internal_node_id","view_history","rt","success","stimulus","key_press","stimType","arraySize","arrayFaces","arrayOutcomes","matchType","corrResp","arrayDur","targFace","targCol","targOutcome","trialType","corr"
"focus","0","0","focusevent","5fc70f3bd255c10f0b2346ba","bdp_wmem","Mon Mar 13 2023 21:54:56 GMT-0700 (Pacific Daylight Time)","651055","Match,No Match","","","","","","","","","","","","","","","","","","","","",""
"","","","","5fc70f3bd255c10f0b2346ba","bdp_wmem","Mon Mar 13 2023 21:54:56 GMT-0700 (Pacific Daylight Time)","651055","Match,No Match","pavlovia","0","1","0.0-0.0","","","","","","","","","","","","","","","","",""
"","","","","5fc70f3bd255c10f0b2346ba","bdp_wmem","Mon Mar 13 2023 21:54:56 GMT-0700 (Pacific Daylight Time)","651055","Match,No Match","instructions","1","2489","0.0-1.0","[{""page_index"":0,""viewing_time"":2488}]","2488","","","","","","","","","","","","","","",""
"fullscreenexit","2","6991","fullscreenexit","5fc70f3bd255c10f0b2346ba","bdp_wmem","Mon Mar 13 2023 21:54:56 GMT-0700 (Pacific Daylight Time)","651055","Match,No Match","","","","","","","","","","","","","","","","","","","","",""
"","","","","5fc70f3bd255c10f0b2346ba","bdp_wmem","Mon Mar 13 2023 21:54:56 GMT-0700 (Pacific Daylight Time)","651055","Match,No Match","fullscreen","2","7767","0.0-2.0","","","true","","","","","","","","","","","","","",""
"","","","fullscreenfail","5fc70f3bd255c10f0b2346ba","bdp_wmem","Mon Mar 13 2023 21:54:56 GMT-0700 (Pacific Daylight Time)","651055","Match,No Match","image-keyboard-response","3","10736","0.0-3.0-0.0","","2963","","","32","","","","","","","","","","","",""
"","","","","5fc70f3bd255c10f0b2346ba","bdp_wmem","Mon Mar 13 2023 21:54:56 GMT-0700 (Pacific Daylight Time)","651055","Match,No Match","instructions","4","116066","0.0-4.0","[{""page_index"":0,""viewing_time"":17787},{""page_index"":1,""viewing_time"":39726},{""page_index"":2,""viewing_time"":17117},{""page_index"":3,""viewing_time"":12894},{""page_index"":4,""viewing_time"":17549}]","105073","","","","","","","","","","","","","","",""
"","","","","5fc70f3bd255c10f0b2346ba","bdp_wmem","Mon Mar 13 2023 21:54:56 GMT-0700 (Pacific Daylight Time)","651055","Match,No Match","html-keyboard-response","5","116574","0.0-5.0-1.0","","null","","<div class='trialBorder'><div class='vertical-center'><img src='img/fixation2_sml.jpg'</img></div></div>","null","FIX","","","","","","","","","","",""
"","","","","5fc70f3bd255c10f0b2346ba","bdp_wmem","Mon Mar 13 2023 21:54:56 GMT-0700 (Pacific Daylight Time)","651055","Match,No Match","html-keyboard-response","6","118083","0.0-5.0-2.0","","null","","<div class='trialBorder'><div class='vertical-center'><img style='vertical-align:center; align:center' src='img/fixation2_sml.jpg'></div><div class='arrayDiv1'><div class='tc'><img class='introPic' src='trustrating_stim/white_mw003.bmp'><br><font color='green'><strong>Share</strong></font></div></div></div>","null","ARRAY","1","trustrating_stim/white_mw003.bmp","1","Match","e","1500","","","","",""
"","","","","5fc70f3bd255c10f0b2346ba","bdp_wmem","Mon Mar 13 2023 21:54:56 GMT-0700 (Pacific Daylight Time)","651055","Match,No Match","html-keyboard-response","7","122091","0.0-5.0-3.0","","null","","<div class='trialBorder'><div class='vertical-center'><img src='img/fixation2_sml.jpg'</img></div></div>","null","DELAY","","","","","","","","","","",""
"","","","","5fc70f3bd255c10f0b2346ba","bdp_wmem","Mon Mar 13 2023 21:54:56 GMT-0700 (Pacific Daylight Time)","651055","Match,No Match","html-keyboard-response","8","123550","0.0-5.0-4.0","","1459","","<div class='trialBorder'><div class='targDiv'><div class='tc'><img class='introPic' src='trustrating_stim/white_mw003.bmp'><br><font color='green'><strong>Share</strong></font></div></div><div class='respDiv'><div class='respDivL'>Match<br>(e)</div><div class='respDivR'>No Match<br>(i)</div></div></div>","e","TARGET","1","trustrating_stim/white_mw003.bmp","1","Match","e","1500","trustrating_stim/white_mw003.bmp","green","Share","PRACTICE","1"
"","","","","5fc70f3bd255c10f0b2346ba","bdp_wmem","Mon Mar 13 2023 21:54:56 GMT-0700 (Pacific Daylight Time)","651055","Match,No Match","html-keyboard-response","9","124056","0.0-5.0-5.0","","null","","<div class='trialBorder'><div class='vertical-center'><img src='img/correct.jpg'></div><div class='respDiv'><div class='respDivL'><font style='color:orange'>Match<br>(e)</font></div><div class='respDivR'>No Match<br>(i)</div></div></div>","null","FEEDBACK","","","","","","","","","","",""
"","","","","5fc70f3bd255c10f0b2346ba","bdp_wmem","Mon Mar 13 2023 21:54:56 GMT-0700 (Pacific Daylight Time)","651055","Match,No Match","html-keyboard-response","10","124558","0.0-5.0-1.1","","null","","<div class='trialBorder'><div class='vertical-center'><img src='img/fixation2_sml.jpg'</img></div></div>","null","FIX","","","","","","","","","","",""
"","","","","5fc70f3bd255c10f0b2346ba","bdp_wmem","Mon Mar 13 2023 21:54:56 GMT-0700 (Pacific Daylight Time)","651055","Match,No Match","html-keyboard-response","11","127563","0.0-5.0-2.1","","null","","<div class='trialBorder'><div class='vertical-center'><img style='vertical-align:center; align:center' src='img/fixation2_sml.jpg'></div><div class='arrayDiv2'><div class='tl'><img class='introPic' src='trustrating_stim/white_mw070.bmp'><br><font color='red'><strong>Keep</strong></font></div><div class='tr'><img class='introPic' src='trustrating_stim/white_mw040.bmp'><br><font color='green'><strong>Share</strong></font></div></div></div>","null","ARRAY","2","trustrating_stim/white_mw070.bmp,trustrating_stim/white_mw040.bmp","0,1","Match","e","3000","","","","",""
"","","","","5fc70f3bd255c10f0b2346ba","bdp_wmem","Mon Mar 13 2023 21:54:56 GMT-0700 (Pacific Daylight Time)","651055","Match,No Match","html-keyboard-response","12","131569","0.0-5.0-3.1","","null","","<div class='trialBorder'><div class='vertical-center'><img src='img/fixation2_sml.jpg'</img></div></div>","null","DELAY","","","","","","","","","","",""
"","","","","5fc70f3bd255c10f0b2346ba","bdp_wmem","Mon Mar 13 2023 21:54:56 GMT-0700 (Pacific Daylight Time)","651055","Match,No Match","html-keyboard-response","13","133036","0.0-5.0-4.1","","1465","","<div class='trialBorder'><div class='targDiv'><div class='tc'><img class='introPic' src='trustrating_stim/white_mw070.bmp'><br><font color='red'><strong>Keep</strong></font></div></div><div class='respDiv'><div class='respDivL'>Match<br>(e)</div><div class='respDivR'>No Match<br>(i)</div></div></div>","e","TARGET","2","trustrating_stim/white_mw070.bmp,trustrating_stim/white_mw040.bmp","0,1","Match","e","3000","trustrating_stim/white_mw070.bmp","red","Keep","PRACTICE","1"
"","","","","5fc70f3bd255c10f0b2346ba","bdp_wmem","Mon Mar 13 2023 21:54:56 GMT-0700 (Pacific Daylight Time)","651055","Match,No Match","html-keyboard-response","14","133542","0.0-5.0-5.1","","null","","<div class='trialBorder'><div class='vertical-center'><img src='img/correct.jpg'></div><div class='respDiv'><div class='respDivL'><font style='color:orange'>Match<br>(e)</font></div><div class='respDivR'>No Match<br>(i)</div></div></div>","null","FEEDBACK","","","","","","","","","","",""
"","","","","5fc70f3bd255c10f0b2346ba","bdp_wmem","Mon Mar 13 2023 21:54:56 GMT-0700 (Pacific Daylight Time)","651055","Match,No Match","html-keyboard-response","15","134047","0.0-5.0-1.2","","null","","<div class='trialBorder'><div class='vertical-center'><img src='img/fixation2_sml.jpg'</img></div></div>","null","FIX","","","","","","","","","","",""
"","","","","5fc70f3bd255c10f0b2346ba","bdp_wmem","Mon Mar 13 2023 21:54:56 GMT-0700 (Pacific Daylight Time)","651055","Match,No Match","html-keyboard-response","16","135554","0.0-5.0-2.2","","null","","<div class='trialBorder'><div class='vertical-center'><img style='vertical-align:center; align:center' src='img/fixation2_sml.jpg'></div><div class='arrayDiv1'><div class='tc'><img class='introPic' src='trustrating_stim/white_mw003.bmp'><br><font color='red'><strong>Keep</strong></font></div></div></div>","null","ARRAY","1","trustrating_stim/white_mw003.bmp","0","noMatchFace","i","1500","","","","",""
"","","","","5fc70f3bd255c10f0b2346ba","bdp_wmem","Mon Mar 13 2023 21:54:56 GMT-0700 (Pacific Daylight Time)","651055","Match,No Match","html-keyboard-response","17","139557","0.0-5.0-3.2","","null","","<div class='trialBorder'><div class='vertical-center'><img src='img/fixation2_sml.jpg'</img></div></div>","null","DELAY","","","","","","","","","","",""
"","","","","5fc70f3bd255c10f0b2346ba","bdp_wmem","Mon Mar 13 2023 21:54:56 GMT-0700 (Pacific Daylight Time)","651055","Match,No Match","html-keyboard-response","18","141070","0.0-5.0-4.2","","1512","","<div class='trialBorder'><div class='targDiv'><div class='tc'><img class='introPic' src='trustrating_stim/white_mw012.bmp'><br><font color='red'><strong>Keep</strong></font></div></div><div class='respDiv'><div class='respDivL'>Match<br>(e)</div><div class='respDivR'>No Match<br>(i)</div></div></div>","i","TARGET","1","trustrating_stim/white_mw003.bmp","0","noMatchFace","i","1500","trustrating_stim/white_mw012.bmp","red","Keep","PRACTICE","1"
"","","","","5fc70f3bd255c10f0b2346ba","bdp_wmem","Mon Mar 13 2023 21:54:56 GMT-0700 (Pacific Daylight Time)","651055","Match,No Match","html-keyboard-response","19","141575","0.0-5.0-5.2","","null","","<div class='trialBorder'><div class='vertical-center'><img src='img/correct.jpg'></div><div class='respDiv'><div class='respDivL'>Match<br>(e)</div><div class='respDivR'><font style='color:orange'>No Match<br>(i)</font></div></div></div>","null","FEEDBACK","","","","","","","","","","",""
"","","","","5fc70f3bd255c10f0b2346ba","bdp_wmem","Mon Mar 13 2023 21:54:56 GMT-0700 (Pacific Daylight Time)","651055","Match,No Match","html-keyboard-response","20","142081","0.0-5.0-1.3","","null","","<div class='trialBorder'><div class='vertical-center'><img src='img/fixation2_sml.jpg'</img></div></div>","null","FIX","","","","","","","","","","",""
"","","","","5fc70f3bd255c10f0b2346ba","bdp_wmem","Mon Mar 13 2023 21:54:56 GMT-0700 (Pacific Daylight Time)","651055","Match,No Match","html-keyboard-response","21","146584","0.0-5.0-2.3","","null","","<div class='trialBorder'><div class='vertical-center'><img style='vertical-align:center; align:center' src='img/fixation2_sml.jpg'></div><div class='arrayDiv3'><div class='tl'><img class='introPic' src='trustrating_stim/white_mw013.bmp'><br><font color='green'><strong>Share</strong></font></div><div class='tc'><img class='introPic' src='trustrating_stim/white_mw038.bmp'><br><font color='green'><strong>Share</strong></font></div><div class='tr'><img class='introPic' src='trustrating_stim/white_mw042.bmp'><br><font color='red'><strong>Keep</strong></font></div></div></div>","null","ARRAY","3","trustrating_stim/white_mw013.bmp,trustrating_stim/white_mw038.bmp,trustrating_stim/white_mw042.bmp","1,1,0","noMatchOutcome","i","4500","","","","",""
"","","","","5fc70f3bd255c10f0b2346ba","bdp_wmem","Mon Mar 13 2023 21:54:56 GMT-0700 (Pacific Daylight Time)","651055","Match,No Match","html-keyboard-response","22","150585","0.0-5.0-3.3","","null","","<div class='trialBorder'><div class='vertical-center'><img src='img/fixation2_sml.jpg'</img></div></div>","null","DELAY","","","","","","","","","","",""
"","","","","5fc70f3bd255c10f0b2346ba","bdp_wmem","Mon Mar 13 2023 21:54:56 GMT-0700 (Pacific Daylight Time)","651055","Match,No Match","html-keyboard-response","23","153700","0.0-5.0-4.3","","3114","","<div class='trialBorder'><div class='targDiv'><div class='tc'><img class='introPic' src='trustrating_stim/white_mw013.bmp'><br><font color='red'><strong>Keep</strong></font></div></div><div class='respDiv'><div class='respDivL'>Match<br>(e)</div><div class='respDivR'>No Match<br>(i)</div></div></div>","e","TARGET","3","trustrating_stim/white_mw013.bmp,trustrating_stim/white_mw038.bmp,trustrating_stim/white_mw042.bmp","1,1,0","noMatchOutcome","i","4500","trustrating_stim/white_mw013.bmp","red","Keep","PRACTICE","0"
"","","","","5fc70f3bd255c10f0b2346ba","bdp_wmem","Mon Mar 13 2023 21:54:56 GMT-0700 (Pacific Daylight Time)","651055","Match,No Match","html-keyboard-response","24","154206","0.0-5.0-5.3","","null","","<div class='trialBorder'><div class='vertical-center'><img src='img/error.jpg'></div><div class='respDiv'><div class='respDivL'><font style='color:orange'>Match<br>(e)</font></div><div class='respDivR'>No Match<br>(i)</div></div></div>","null","FEEDBACK","","","","","","","","","","",""
"","","","","5fc70f3bd255c10f0b2346ba","bdp_wmem","Mon Mar 13 2023 21:54:56 GMT-0700 (Pacific Daylight Time)","651055","Match,No Match","html-keyboard-response","25","154712","0.0-5.0-1.4","","null","","<div class='trialBorder'><div class='vertical-center'><img src='img/fixation2_sml.jpg'</img></div></div>","null","FIX","","","","","","","","","","",""
"","","","","5fc70f3bd255c10f0b2346ba","bdp_wmem","Mon Mar 13 2023 21:54:56 GMT-0700 (Pacific Daylight Time)","651055","Match,No Match","html-keyboard-response","26","157719","0.0-5.0-2.4","","null","","<div class='trialBorder'><div class='vertical-center'><img style='vertical-align:center; align:center' src='img/fixation2_sml.jpg'></div><div class='arrayDiv2'><div class='tl'><img class='introPic' src='trustrating_stim/white_mw003.bmp'><br><font color='red'><strong>Keep</strong></font></div><div class='tr'><img class='introPic' src='trustrating_stim/white_mw038.bmp'><br><font color='green'><strong>Share</strong></font></div></div></div>","null","ARRAY","2","trustrating_stim/white_mw003.bmp,trustrating_stim/white_mw038.bmp","0,1","noMatchOutcome","i","3000","","","","",""
"","","","","5fc70f3bd255c10f0b2346ba","bdp_wmem","Mon Mar 13 2023 21:54:56 GMT-0700 (Pacific Daylight Time)","651055","Match,No Match","html-keyboard-response","27","161723","0.0-5.0-3.4","","null","","<div class='trialBorder'><div class='vertical-center'><img src='img/fixation2_sml.jpg'</img></div></div>","null","DELAY","","","","","","","","","","",""
"","","","","5fc70f3bd255c10f0b2346ba","bdp_wmem","Mon Mar 13 2023 21:54:56 GMT-0700 (Pacific Daylight Time)","651055","Match,No Match","html-keyboard-response","28","163618","0.0-5.0-4.4","","1895","","<div class='trialBorder'><div class='targDiv'><div class='tc'><img class='introPic' src='trustrating_stim/white_mw003.bmp'><br><font color='green'><strong>Share</strong></font></div></div><div class='respDiv'><div class='respDivL'>Match<br>(e)</div><div class='respDivR'>No Match<br>(i)</div></div></div>","e","TARGET","2","trustrating_stim/white_mw003.bmp,trustrating_stim/white_mw038.bmp","0,1","noMatchOutcome","i","3000","trustrating_stim/white_mw003.bmp","green","Share","PRACTICE","0"
"","","","","5fc70f3bd255c10f0b2346ba","bdp_wmem","Mon Mar 13 2023 21:54:56 GMT-0700 (Pacific Daylight Time)","651055","Match,No Match","html-keyboard-response","29","164119","0.0-5.0-5.4","","null","","<div class='trialBorder'><div class='vertical-center'><img src='img/error.jpg'></div><div class='respDiv'><div class='respDivL'><font style='color:orange'>Match<br>(e)</font></div><div class='respDivR'>No Match<br>(i)</div></div></div>","null","FEEDBACK","","","","","","","","","","",""
"","","","","5fc70f3bd255c10f0b2346ba","bdp_wmem","Mon Mar 13 2023 21:54:56 GMT-0700 (Pacific Daylight Time)","651055","Match,No Match","html-keyboard-response","30","164625","0.0-5.0-1.5","","null","","<div class='trialBorder'><div class='vertical-center'><img src='img/fixation2_sml.jpg'</img></div></div>","null","FIX","","","","","","","","","","",""
"","","","","5fc70f3bd255c10f0b2346ba","bdp_wmem","Mon Mar 13 2023 21:54:56 GMT-0700 (Pacific Daylight Time)","651055","Match,No Match","html-keyboard-response","31","169130","0.0-5.0-2.5","","null","","<div class='trialBorder'><div class='vertical-center'><img style='vertical-align:center; align:center' src='img/fixation2_sml.jpg'></div><div class='arrayDiv3'><div class='tl'><img class='introPic' src='trustrating_stim/white_mw042.bmp'><br><font color='green'><strong>Share</strong></font></div><div class='tc'><img class='introPic' src='trustrating_stim/white_mw092.bmp'><br><font color='green'><strong>Share</strong></font></div><div class='tr'><img class='introPic' src='trustrating_stim/white_mw040.bmp'><br><font color='red'><strong>Keep</strong></font></div></div></div>","null","ARRAY","3","trustrating_stim/white_mw042.bmp,trustrating_stim/white_mw092.bmp,trustrating_stim/white_mw040.bmp","1,1,0","Match","e","4500","","","","",""
"","","","","5fc70f3bd255c10f0b2346ba","bdp_wmem","Mon Mar 13 2023 21:54:56 GMT-0700 (Pacific Daylight Time)","651055","Match,No Match","html-keyboard-response","32","173136","0.0-5.0-3.5","","null","","<div class='trialBorder'><div class='vertical-center'><img src='img/fixation2_sml.jpg'</img></div></div>","null","DELAY","","","","","","","","","","",""
"","","","","5fc70f3bd255c10f0b2346ba","bdp_wmem","Mon Mar 13 2023 21:54:56 GMT-0700 (Pacific Daylight Time)","651055","Match,No Match","html-keyboard-response","33","174884","0.0-5.0-4.5","","1747","","<div class='trialBorder'><div class='targDiv'><div class='tc'><img class='introPic' src='trustrating_stim/white_mw092.bmp'><br><font color='green'><strong>Share</strong></font></div></div><div class='respDiv'><div class='respDivL'>Match<br>(e)</div><div class='respDivR'>No Match<br>(i)</div></div></div>","e","TARGET","3","trustrating_stim/white_mw042.bmp,trustrating_stim/white_mw092.bmp,trustrating_stim/white_mw040.bmp","1,1,0","Match","e","4500","trustrating_stim/white_mw092.bmp","green","Share","PRACTICE","1"
"","","","","5fc70f3bd255c10f0b2346ba","bdp_wmem","Mon Mar 13 2023 21:54:56 GMT-0700 (Pacific Daylight Time)","651055","Match,No Match","html-keyboard-response","34","175387","0.0-5.0-5.5","","null","","<div class='trialBorder'><div class='vertical-center'><img src='img/correct.jpg'></div><div class='respDiv'><div class='respDivL'><font style='color:orange'>Match<br>(e)</font></div><div class='respDivR'>No Match<br>(i)</div></div></div>","null","FEEDBACK","","","","","","","","","","",""
"","","","","5fc70f3bd255c10f0b2346ba","bdp_wmem","Mon Mar 13 2023 21:54:56 GMT-0700 (Pacific Daylight Time)","651055","Match,No Match","instructions","35","185116","0.0-6.0","[{""page_index"":0,""viewing_time"":9729}]","9729","","","","","","","","","","","","","","",""
"","","","","5fc70f3bd255c10f0b2346ba","bdp_wmem","Mon Mar 13 2023 21:54:56 GMT-0700 (Pacific Daylight Time)","651055","Match,No Match","html-keyboard-response","36","185621","0.0-7.0-1.0","","null","","<div class='trialBorder'><div class='vertical-center'><img src='img/fixation2_sml.jpg'</img></div></div>","null","FIX","","","","","","","","","","",""
"","","","","5fc70f3bd255c10f0b2346ba","bdp_wmem","Mon Mar 13 2023 21:54:56 GMT-0700 (Pacific Daylight Time)","651055","Match,No Match","html-keyboard-response","37","188627","0.0-7.0-2.0","","null","","<div class='trialBorder'><div class='vertical-center'><img style='vertical-align:center; align:center' src='img/fixation2_sml.jpg'></div><div class='arrayDiv2'><div class='tl'><img class='introPic' src='trustrating_stim/white_mw040.bmp'><br><font color='green'><strong>Share</strong></font></div><div class='tr'><img class='introPic' src='trustrating_stim/white_mw091.bmp'><br><font color='red'><strong>Keep</strong></font></div></div></div>","null","ARRAY","2","trustrating_stim/white_mw040.bmp,trustrating_stim/white_mw091.bmp","1,0","Match","e","3000","","","","",""
"","","","","5fc70f3bd255c10f0b2346ba","bdp_wmem","Mon Mar 13 2023 21:54:56 GMT-0700 (Pacific Daylight Time)","651055","Match,No Match","html-keyboard-response","38","192631","0.0-7.0-3.0","","null","","<div class='trialBorder'><div class='vertical-center'><img src='img/fixation2_sml.jpg'</img></div></div>","null","DELAY","","","","","","","","","","",""
"","","","","5fc70f3bd255c10f0b2346ba","bdp_wmem","Mon Mar 13 2023 21:54:56 GMT-0700 (Pacific Daylight Time)","651055","Match,No Match","html-keyboard-response","39","195063","0.0-7.0-4.0","","2430","","<div class='trialBorder'><div class='targDiv'><div class='tc'><img class='introPic' src='trustrating_stim/white_mw091.bmp'><br><font color='red'><strong>Keep</strong></font></div></div><div class='respDiv'><div class='respDivL'>Match<br>(e)</div><div class='respDivR'>No Match<br>(i)</div></div></div>","i","TARGET","2","trustrating_stim/white_mw040.bmp,trustrating_stim/white_mw091.bmp","1,0","Match","e","3000","trustrating_stim/white_mw091.bmp","red","Keep","REAL","0"
"","","","","5fc70f3bd255c10f0b2346ba","bdp_wmem","Mon Mar 13 2023 21:54:56 GMT-0700 (Pacific Daylight Time)","651055","Match,No Match","html-keyboard-response","40","195567","0.0-7.0-5.0","","null","","<div class='trialBorder'><div class='vertical-center'><img src='img/error.jpg'></div><div class='respDiv'><div class='respDivL'>Match<br>(e)</div><div class='respDivR'><font style='color:orange'>No Match<br>(i)</font></div></div></div>","null","FEEDBACK","","","","","","","","","","",""
"","","","","5fc70f3bd255c10f0b2346ba","bdp_wmem","Mon Mar 13 2023 21:54:56 GMT-0700 (Pacific Daylight Time)","651055","Match,No Match","html-keyboard-response","41","196072","0.0-7.0-1.1","","null","","<div class='trialBorder'><div class='vertical-center'><img src='img/fixation2_sml.jpg'</img></div></div>","null","FIX","","","","","","","","","","",""
"","","","","5fc70f3bd255c10f0b2346ba","bdp_wmem","Mon Mar 13 2023 21:54:56 GMT-0700 (Pacific Daylight Time)","651055","Match,No Match","html-keyboard-response","42","197578","0.0-7.0-2.1","","null","","<div class='trialBorder'><div class='vertical-center'><img style='vertical-align:center; align:center' src='img/fixation2_sml.jpg'></div><div class='arrayDiv1'><div class='tc'><img class='introPic' src='trustrating_stim/white_mw042.bmp'><br><font color='red'><strong>Keep</strong></font></div></div></div>","null","ARRAY","1","trustrating_stim/white_mw042.bmp","0","Match","e","1500","","","","",""
"","","","","5fc70f3bd255c10f0b2346ba","bdp_wmem","Mon Mar 13 2023 21:54:56 GMT-0700 (Pacific Daylight Time)","651055","Match,No Match","html-keyboard-response","43","201583","0.0-7.0-3.1","","null","","<div class='trialBorder'><div class='vertical-center'><img src='img/fixation2_sml.jpg'</img></div></div>","null","DELAY","","","","","","","","","","",""
"","","","","5fc70f3bd255c10f0b2346ba","bdp_wmem","Mon Mar 13 2023 21:54:56 GMT-0700 (Pacific Daylight Time)","651055","Match,No Match","html-keyboard-response","44","202726","0.0-7.0-4.1","","1143","","<div class='trialBorder'><div class='targDiv'><div class='tc'><img class='introPic' src='trustrating_stim/white_mw042.bmp'><br><font color='red'><strong>Keep</strong></font></div></div><div class='respDiv'><div class='respDivL'>Match<br>(e)</div><div class='respDivR'>No Match<br>(i)</div></div></div>","e","TARGET","1","trustrating_stim/white_mw042.bmp","0","Match","e","1500","trustrating_stim/white_mw042.bmp","red","Keep","REAL","1"
"","","","","5fc70f3bd255c10f0b2346ba","bdp_wmem","Mon Mar 13 2023 21:54:56 GMT-0700 (Pacific Daylight Time)","651055","Match,No Match","html-keyboard-response","45","203232","0.0-7.0-5.1","","null","","<div class='trialBorder'><div class='vertical-center'><img src='img/correct.jpg'></div><div class='respDiv'><div class='respDivL'><font style='color:orange'>Match<br>(e)</font></div><div class='respDivR'>No Match<br>(i)</div></div></div>","null","FEEDBACK","","","","","","","","","","",""
"","","","","5fc70f3bd255c10f0b2346ba","bdp_wmem","Mon Mar 13 2023 21:54:56 GMT-0700 (Pacific Daylight Time)","651055","Match,No Match","html-keyboard-response","46","203738","0.0-7.0-1.2","","null","","<div class='trialBorder'><div class='vertical-center'><img src='img/fixation2_sml.jpg'</img></div></div>","null","FIX","","","","","","","","","","",""
"","","","","5fc70f3bd255c10f0b2346ba","bdp_wmem","Mon Mar 13 2023 21:54:56 GMT-0700 (Pacific Daylight Time)","651055","Match,No Match","html-keyboard-response","47","205243","0.0-7.0-2.2","","null","","<div class='trialBorder'><div class='vertical-center'><img style='vertical-align:center; align:center' src='img/fixation2_sml.jpg'></div><div class='arrayDiv1'><div class='tc'><img class='introPic' src='trustrating_stim/white_mw038.bmp'><br><font color='green'><strong>Share</strong></font></div></div></div>","null","ARRAY","1","trustrating_stim/white_mw038.bmp","1","Match","e","1500","","","","",""
"","","","","5fc70f3bd255c10f0b2346ba","bdp_wmem","Mon Mar 13 2023 21:54:56 GMT-0700 (Pacific Daylight Time)","651055","Match,No Match","html-keyboard-response","48","209249","0.0-7.0-3.2","","null","","<div class='trialBorder'><div class='vertical-center'><img src='img/fixation2_sml.jpg'</img></div></div>","null","DELAY","","","","","","","","","","",""
"","","","","5fc70f3bd255c10f0b2346ba","bdp_wmem","Mon Mar 13 2023 21:54:56 GMT-0700 (Pacific Daylight Time)","651055","Match,No Match","html-keyboard-response","49","210753","0.0-7.0-4.2","","1502","","<div class='trialBorder'><div class='targDiv'><div class='tc'><img class='introPic' src='trustrating_stim/white_mw038.bmp'><br><font color='green'><strong>Share</strong></font></div></div><div class='respDiv'><div class='respDivL'>Match<br>(e)</div><div class='respDivR'>No Match<br>(i)</div></div></div>","e","TARGET","1","trustrating_stim/white_mw038.bmp","1","Match","e","1500","trustrating_stim/white_mw038.bmp","green","Share","REAL","1"
"","","","","5fc70f3bd255c10f0b2346ba","bdp_wmem","Mon Mar 13 2023 21:54:56 GMT-0700 (Pacific Daylight Time)","651055","Match,No Match","html-keyboard-response","50","211259","0.0-7.0-5.2","","null","","<div class='trialBorder'><div class='vertical-center'><img src='img/correct.jpg'></div><div class='respDiv'><div class='respDivL'><font style='color:orange'>Match<br>(e)</font></div><div class='respDivR'>No Match<br>(i)</div></div></div>","null","FEEDBACK","","","","","","","","","","",""
"","","","","5fc70f3bd255c10f0b2346ba","bdp_wmem","Mon Mar 13 2023 21:54:56 GMT-0700 (Pacific Daylight Time)","651055","Match,No Match","html-keyboard-response","51","211765","0.0-7.0-1.3","","null","","<div class='trialBorder'><div class='vertical-center'><img src='img/fixation2_sml.jpg'</img></div></div>","null","FIX","","","","","","","","","","",""
"","","","","5fc70f3bd255c10f0b2346ba","bdp_wmem","Mon Mar 13 2023 21:54:56 GMT-0700 (Pacific Daylight Time)","651055","Match,No Match","html-keyboard-response","52","216267","0.0-7.0-2.3","","null","","<div class='trialBorder'><div class='vertical-center'><img style='vertical-align:center; align:center' src='img/fixation2_sml.jpg'></div><div class='arrayDiv3'><div class='tl'><img class='introPic' src='trustrating_stim/white_mw070.bmp'><br><font color='red'><strong>Keep</strong></font></div><div class='tc'><img class='introPic' src='trustrating_stim/white_mw038.bmp'><br><font color='red'><strong>Keep</strong></font></div><div class='tr'><img class='introPic' src='trustrating_stim/white_mw078.bmp'><br><font color='green'><strong>Share</strong></font></div></div></div>","null","ARRAY","3","trustrating_stim/white_mw070.bmp,trustrating_stim/white_mw038.bmp,trustrating_stim/white_mw078.bmp","0,0,1","Match","e","4500","","","","",""
"","","","","5fc70f3bd255c10f0b2346ba","bdp_wmem","Mon Mar 13 2023 21:54:56 GMT-0700 (Pacific Daylight Time)","651055","Match,No Match","html-keyboard-response","53","220273","0.0-7.0-3.3","","null","","<div class='trialBorder'><div class='vertical-center'><img src='img/fixation2_sml.jpg'</img></div></div>","null","DELAY","","","","","","","","","","",""
"","","","","5fc70f3bd255c10f0b2346ba","bdp_wmem","Mon Mar 13 2023 21:54:56 GMT-0700 (Pacific Daylight Time)","651055","Match,No Match","html-keyboard-response","54","225181","0.0-7.0-4.3","","4908","","<div class='trialBorder'><div class='targDiv'><div class='tc'><img class='introPic' src='trustrating_stim/white_mw070.bmp'><br><font color='red'><strong>Keep</strong></font></div></div><div class='respDiv'><div class='respDivL'>Match<br>(e)</div><div class='respDivR'>No Match<br>(i)</div></div></div>","i","TARGET","3","trustrating_stim/white_mw070.bmp,trustrating_stim/white_mw038.bmp,trustrating_stim/white_mw078.bmp","0,0,1","Match","e","4500","trustrating_stim/white_mw070.bmp","red","Keep","REAL","0"
"","","","","5fc70f3bd255c10f0b2346ba","bdp_wmem","Mon Mar 13 2023 21:54:56 GMT-0700 (Pacific Daylight Time)","651055","Match,No Match","html-keyboard-response","55","225686","0.0-7.0-5.3","","null","","<div class='trialBorder'><div class='vertical-center'><img src='img/error.jpg'></div><div class='respDiv'><div class='respDivL'>Match<br>(e)</div><div class='respDivR'><font style='color:orange'>No Match<br>(i)</font></div></div></div>","null","FEEDBACK","","","","","","","","","","",""
"","","","","5fc70f3bd255c10f0b2346ba","bdp_wmem","Mon Mar 13 2023 21:54:56 GMT-0700 (Pacific Daylight Time)","651055","Match,No Match","html-keyboard-response","56","226189","0.0-7.0-1.4","","null","","<div class='trialBorder'><div class='vertical-center'><img src='img/fixation2_sml.jpg'</img></div></div>","null","FIX","","","","","","","","","","",""
"","","","","5fc70f3bd255c10f0b2346ba","bdp_wmem","Mon Mar 13 2023 21:54:56 GMT-0700 (Pacific Daylight Time)","651055","Match,No Match","html-keyboard-response","57","227691","0.0-7.0-2.4","","null","","<div class='trialBorder'><div class='vertical-center'><img style='vertical-align:center; align:center' src='img/fixation2_sml.jpg'></div><div class='arrayDiv1'><div class='tc'><img class='introPic' src='trustrating_stim/white_mw038.bmp'><br><font color='green'><strong>Share</strong></font></div></div></div>","null","ARRAY","1","trustrating_stim/white_mw038.bmp","1","noMatchFace","i","1500","","","","",""
"","","","","5fc70f3bd255c10f0b2346ba","bdp_wmem","Mon Mar 13 2023 21:54:56 GMT-0700 (Pacific Daylight Time)","651055","Match,No Match","html-keyboard-response","58","231691","0.0-7.0-3.4","","null","","<div class='trialBorder'><div class='vertical-center'><img src='img/fixation2_sml.jpg'</img></div></div>","null","DELAY","","","","","","","","","","",""
"","","","","5fc70f3bd255c10f0b2346ba","bdp_wmem","Mon Mar 13 2023 21:54:56 GMT-0700 (Pacific Daylight Time)","651055","Match,No Match","html-keyboard-response","59","232853","0.0-7.0-4.4","","1161","","<div class='trialBorder'><div class='targDiv'><div class='tc'><img class='introPic' src='trustrating_stim/white_mw003.bmp'><br><font color='green'><strong>Share</strong></font></div></div><div class='respDiv'><div class='respDivL'>Match<br>(e)</div><div class='respDivR'>No Match<br>(i)</div></div></div>","i","TARGET","1","trustrating_stim/white_mw038.bmp","1","noMatchFace","i","1500","trustrating_stim/white_mw003.bmp","green","Share","REAL","1"
"","","","","5fc70f3bd255c10f0b2346ba","bdp_wmem","Mon Mar 13 2023 21:54:56 GMT-0700 (Pacific Daylight Time)","651055","Match,No Match","html-keyboard-response","60","233359","0.0-7.0-5.4","","null","","<div class='trialBorder'><div class='vertical-center'><img src='img/correct.jpg'></div><div class='respDiv'><div class='respDivL'>Match<br>(e)</div><div class='respDivR'><font style='color:orange'>No Match<br>(i)</font></div></div></div>","null","FEEDBACK","","","","","","","","","","",""
"","","","","5fc70f3bd255c10f0b2346ba","bdp_wmem","Mon Mar 13 2023 21:54:56 GMT-0700 (Pacific Daylight Time)","651055","Match,No Match","html-keyboard-response","61","233864","0.0-7.0-1.5","","null","","<div class='trialBorder'><div class='vertical-center'><img src='img/fixation2_sml.jpg'</img></div></div>","null","FIX","","","","","","","","","","",""
"","","","","5fc70f3bd255c10f0b2346ba","bdp_wmem","Mon Mar 13 2023 21:54:56 GMT-0700 (Pacific Daylight Time)","651055","Match,No Match","html-keyboard-response","62","235370","0.0-7.0-2.5","","null","","<div class='trialBorder'><div class='vertical-center'><img style='vertical-align:center; align:center' src='img/fixation2_sml.jpg'></div><div class='arrayDiv1'><div class='tc'><img class='introPic' src='trustrating_stim/white_mw092.bmp'><br><font color='green'><strong>Share</strong></font></div></div></div>","null","ARRAY","1","trustrating_stim/white_mw092.bmp","1","Match","e","1500","","","","",""
"","","","","5fc70f3bd255c10f0b2346ba","bdp_wmem","Mon Mar 13 2023 21:54:56 GMT-0700 (Pacific Daylight Time)","651055","Match,No Match","html-keyboard-response","63","239374","0.0-7.0-3.5","","null","","<div class='trialBorder'><div class='vertical-center'><img src='img/fixation2_sml.jpg'</img></div></div>","null","DELAY","","","","","","","","","","",""
"","","","","5fc70f3bd255c10f0b2346ba","bdp_wmem","Mon Mar 13 2023 21:54:56 GMT-0700 (Pacific Daylight Time)","651055","Match,No Match","html-keyboard-response","64","240659","0.0-7.0-4.5","","1285","","<div class='trialBorder'><div class='targDiv'><div class='tc'><img class='introPic' src='trustrating_stim/white_mw092.bmp'><br><font color='green'><strong>Share</strong></font></div></div><div class='respDiv'><div class='respDivL'>Match<br>(e)</div><div class='respDivR'>No Match<br>(i)</div></div></div>","e","TARGET","1","trustrating_stim/white_mw092.bmp","1","Match","e","1500","trustrating_stim/white_mw092.bmp","green","Share","REAL","1"
"","","","","5fc70f3bd255c10f0b2346ba","bdp_wmem","Mon Mar 13 2023 21:54:56 GMT-0700 (Pacific Daylight Time)","651055","Match,No Match","html-keyboard-response","65","241165","0.0-7.0-5.5","","null","","<div class='trialBorder'><div class='vertical-center'><img src='img/correct.jpg'></div><div class='respDiv'><div class='respDivL'><font style='color:orange'>Match<br>(e)</font></div><div class='respDivR'>No Match<br>(i)</div></div></div>","null","FEEDBACK","","","","","","","","","","",""
"","","","","5fc70f3bd255c10f0b2346ba","bdp_wmem","Mon Mar 13 2023 21:54:56 GMT-0700 (Pacific Daylight Time)","651055","Match,No Match","html-keyboard-response","66","241671","0.0-7.0-1.6","","null","","<div class='trialBorder'><div class='vertical-center'><img src='img/fixation2_sml.jpg'</img></div></div>","null","FIX","","","","","","","","","","",""
"","","","","5fc70f3bd255c10f0b2346ba","bdp_wmem","Mon Mar 13 2023 21:54:56 GMT-0700 (Pacific Daylight Time)","651055","Match,No Match","html-keyboard-response","67","246173","0.0-7.0-2.6","","null","","<div class='trialBorder'><div class='vertical-center'><img style='vertical-align:center; align:center' src='img/fixation2_sml.jpg'></div><div class='arrayDiv3'><div class='tl'><img class='introPic' src='trustrating_stim/white_mw012.bmp'><br><font color='red'><strong>Keep</strong></font></div><div class='tc'><img class='introPic' src='trustrating_stim/white_mw040.bmp'><br><font color='green'><strong>Share</strong></font></div><div class='tr'><img class='introPic' src='trustrating_stim/white_mw092.bmp'><br><font color='green'><strong>Share</strong></font></div></div></div>","null","ARRAY","3","trustrating_stim/white_mw012.bmp,trustrating_stim/white_mw040.bmp,trustrating_stim/white_mw092.bmp","0,1,1","noMatchOutcome","i","4500","","","","",""
"","","","","5fc70f3bd255c10f0b2346ba","bdp_wmem","Mon Mar 13 2023 21:54:56 GMT-0700 (Pacific Daylight Time)","651055","Match,No Match","html-keyboard-response","68","250179","0.0-7.0-3.6","","null","","<div class='trialBorder'><div class='vertical-center'><img src='img/fixation2_sml.jpg'</img></div></div>","null","DELAY","","","","","","","","","","",""
"","","","","5fc70f3bd255c10f0b2346ba","bdp_wmem","Mon Mar 13 2023 21:54:56 GMT-0700 (Pacific Daylight Time)","651055","Match,No Match","html-keyboard-response","69","251746","0.0-7.0-4.6","","1566","","<div class='trialBorder'><div class='targDiv'><div class='tc'><img class='introPic' src='trustrating_stim/white_mw012.bmp'><br><font color='green'><strong>Share</strong></font></div></div><div class='respDiv'><div class='respDivL'>Match<br>(e)</div><div class='respDivR'>No Match<br>(i)</div></div></div>","e","TARGET","3","trustrating_stim/white_mw012.bmp,trustrating_stim/white_mw040.bmp,trustrating_stim/white_mw092.bmp","0,1,1","noMatchOutcome","i","4500","trustrating_stim/white_mw012.bmp","green","Share","REAL","0"
"","","","","5fc70f3bd255c10f0b2346ba","bdp_wmem","Mon Mar 13 2023 21:54:56 GMT-0700 (Pacific Daylight Time)","651055","Match,No Match","html-keyboard-response","70","252248","0.0-7.0-5.6","","null","","<div class='trialBorder'><div class='vertical-center'><img src='img/error.jpg'></div><div class='respDiv'><div class='respDivL'><font style='color:orange'>Match<br>(e)</font></div><div class='respDivR'>No Match<br>(i)</div></div></div>","null","FEEDBACK","","","","","","","","","","",""
"","","","","5fc70f3bd255c10f0b2346ba","bdp_wmem","Mon Mar 13 2023 21:54:56 GMT-0700 (Pacific Daylight Time)","651055","Match,No Match","html-keyboard-response","71","252748","0.0-7.0-1.7","","null","","<div class='trialBorder'><div class='vertical-center'><img src='img/fixation2_sml.jpg'</img></div></div>","null","FIX","","","","","","","","","","",""
"","","","","5fc70f3bd255c10f0b2346ba","bdp_wmem","Mon Mar 13 2023 21:54:56 GMT-0700 (Pacific Daylight Time)","651055","Match,No Match","html-keyboard-response","72","257253","0.0-7.0-2.7","","null","","<div class='trialBorder'><div class='vertical-center'><img style='vertical-align:center; align:center' src='img/fixation2_sml.jpg'></div><div class='arrayDiv3'><div class='tl'><img class='introPic' src='trustrating_stim/white_mw003.bmp'><br><font color='green'><strong>Share</strong></font></div><div class='tc'><img class='introPic' src='trustrating_stim/white_mw013.bmp'><br><font color='red'><strong>Keep</strong></font></div><div class='tr'><img class='introPic' src='trustrating_stim/white_mw091.bmp'><br><font color='red'><strong>Keep</strong></font></div></div></div>","null","ARRAY","3","trustrating_stim/white_mw003.bmp,trustrating_stim/white_mw013.bmp,trustrating_stim/white_mw091.bmp","1,0,0","Match","e","4500","","","","",""
"","","","","5fc70f3bd255c10f0b2346ba","bdp_wmem","Mon Mar 13 2023 21:54:56 GMT-0700 (Pacific Daylight Time)","651055","Match,No Match","html-keyboard-response","73","261257","0.0-7.0-3.7","","null","","<div class='trialBorder'><div class='vertical-center'><img src='img/fixation2_sml.jpg'</img></div></div>","null","DELAY","","","","","","","","","","",""
"","","","","5fc70f3bd255c10f0b2346ba","bdp_wmem","Mon Mar 13 2023 21:54:56 GMT-0700 (Pacific Daylight Time)","651055","Match,No Match","html-keyboard-response","74","263126","0.0-7.0-4.7","","1868","","<div class='trialBorder'><div class='targDiv'><div class='tc'><img class='introPic' src='trustrating_stim/white_mw013.bmp'><br><font color='red'><strong>Keep</strong></font></div></div><div class='respDiv'><div class='respDivL'>Match<br>(e)</div><div class='respDivR'>No Match<br>(i)</div></div></div>","e","TARGET","3","trustrating_stim/white_mw003.bmp,trustrating_stim/white_mw013.bmp,trustrating_stim/white_mw091.bmp","1,0,0","Match","e","4500","trustrating_stim/white_mw013.bmp","red","Keep","REAL","1"
"","","","","5fc70f3bd255c10f0b2346ba","bdp_wmem","Mon Mar 13 2023 21:54:56 GMT-0700 (Pacific Daylight Time)","651055","Match,No Match","html-keyboard-response","75","263631","0.0-7.0-5.7","","null","","<div class='trialBorder'><div class='vertical-center'><img src='img/correct.jpg'></div><div class='respDiv'><div class='respDivL'><font style='color:orange'>Match<br>(e)</font></div><div class='respDivR'>No Match<br>(i)</div></div></div>","null","FEEDBACK","","","","","","","","","","",""
"","","","","5fc70f3bd255c10f0b2346ba","bdp_wmem","Mon Mar 13 2023 21:54:56 GMT-0700 (Pacific Daylight Time)","651055","Match,No Match","html-keyboard-response","76","264132","0.0-7.0-1.8","","null","","<div class='trialBorder'><div class='vertical-center'><img src='img/fixation2_sml.jpg'</img></div></div>","null","FIX","","","","","","","","","","",""
"","","","","5fc70f3bd255c10f0b2346ba","bdp_wmem","Mon Mar 13 2023 21:54:56 GMT-0700 (Pacific Daylight Time)","651055","Match,No Match","html-keyboard-response","77","267136","0.0-7.0-2.8","","null","","<div class='trialBorder'><div class='vertical-center'><img style='vertical-align:center; align:center' src='img/fixation2_sml.jpg'></div><div class='arrayDiv2'><div class='tl'><img class='introPic' src='trustrating_stim/white_mw003.bmp'><br><font color='red'><strong>Keep</strong></font></div><div class='tr'><img class='introPic' src='trustrating_stim/white_mw012.bmp'><br><font color='green'><strong>Share</strong></font></div></div></div>","null","ARRAY","2","trustrating_stim/white_mw003.bmp,trustrating_stim/white_mw012.bmp","0,1","Match","e","3000","","","","",""
"","","","","5fc70f3bd255c10f0b2346ba","bdp_wmem","Mon Mar 13 2023 21:54:56 GMT-0700 (Pacific Daylight Time)","651055","Match,No Match","html-keyboard-response","78","271144","0.0-7.0-3.8","","null","","<div class='trialBorder'><div class='vertical-center'><img src='img/fixation2_sml.jpg'</img></div></div>","null","DELAY","","","","","","","","","","",""
"","","","","5fc70f3bd255c10f0b2346ba","bdp_wmem","Mon Mar 13 2023 21:54:56 GMT-0700 (Pacific Daylight Time)","651055","Match,No Match","html-keyboard-response","79","272593","0.0-7.0-4.8","","1448","","<div class='trialBorder'><div class='targDiv'><div class='tc'><img class='introPic' src='trustrating_stim/white_mw012.bmp'><br><font color='green'><strong>Share</strong></font></div></div><div class='respDiv'><div class='respDivL'>Match<br>(e)</div><div class='respDivR'>No Match<br>(i)</div></div></div>","e","TARGET","2","trustrating_stim/white_mw003.bmp,trustrating_stim/white_mw012.bmp","0,1","Match","e","3000","trustrating_stim/white_mw012.bmp","green","Share","REAL","1"
"","","","","5fc70f3bd255c10f0b2346ba","bdp_wmem","Mon Mar 13 2023 21:54:56 GMT-0700 (Pacific Daylight Time)","651055","Match,No Match","html-keyboard-response","80","273096","0.0-7.0-5.8","","null","","<div class='trialBorder'><div class='vertical-center'><img src='img/correct.jpg'></div><div class='respDiv'><div class='respDivL'><font style='color:orange'>Match<br>(e)</font></div><div class='respDivR'>No Match<br>(i)</div></div></div>","null","FEEDBACK","","","","","","","","","","",""
"","","","","5fc70f3bd255c10f0b2346ba","bdp_wmem","Mon Mar 13 2023 21:54:56 GMT-0700 (Pacific Daylight Time)","651055","Match,No Match","html-keyboard-response","81","273600","0.0-7.0-1.9","","null","","<div class='trialBorder'><div class='vertical-center'><img src='img/fixation2_sml.jpg'</img></div></div>","null","FIX","","","","","","","","","","",""
"","","","","5fc70f3bd255c10f0b2346ba","bdp_wmem","Mon Mar 13 2023 21:54:56 GMT-0700 (Pacific Daylight Time)","651055","Match,No Match","html-keyboard-response","82","276606","0.0-7.0-2.9","","null","","<div class='trialBorder'><div class='vertical-center'><img style='vertical-align:center; align:center' src='img/fixation2_sml.jpg'></div><div class='arrayDiv2'><div class='tl'><img class='introPic' src='trustrating_stim/white_mw010.bmp'><br><font color='green'><strong>Share</strong></font></div><div class='tr'><img class='introPic' src='trustrating_stim/white_mw042.bmp'><br><font color='red'><strong>Keep</strong></font></div></div></div>","null","ARRAY","2","trustrating_stim/white_mw010.bmp,trustrating_stim/white_mw042.bmp","1,0","Match","e","3000","","","","",""
"","","","","5fc70f3bd255c10f0b2346ba","bdp_wmem","Mon Mar 13 2023 21:54:56 GMT-0700 (Pacific Daylight Time)","651055","Match,No Match","html-keyboard-response","83","280606","0.0-7.0-3.9","","null","","<div class='trialBorder'><div class='vertical-center'><img src='img/fixation2_sml.jpg'</img></div></div>","null","DELAY","","","","","","","","","","",""
"","","","","5fc70f3bd255c10f0b2346ba","bdp_wmem","Mon Mar 13 2023 21:54:56 GMT-0700 (Pacific Daylight Time)","651055","Match,No Match","html-keyboard-response","84","282475","0.0-7.0-4.9","","1868","","<div class='trialBorder'><div class='targDiv'><div class='tc'><img class='introPic' src='trustrating_stim/white_mw042.bmp'><br><font color='red'><strong>Keep</strong></font></div></div><div class='respDiv'><div class='respDivL'>Match<br>(e)</div><div class='respDivR'>No Match<br>(i)</div></div></div>","e","TARGET","2","trustrating_stim/white_mw010.bmp,trustrating_stim/white_mw042.bmp","1,0","Match","e","3000","trustrating_stim/white_mw042.bmp","red","Keep","REAL","1"
"","","","","5fc70f3bd255c10f0b2346ba","bdp_wmem","Mon Mar 13 2023 21:54:56 GMT-0700 (Pacific Daylight Time)","651055","Match,No Match","html-keyboard-response","85","282979","0.0-7.0-5.9","","null","","<div class='trialBorder'><div class='vertical-center'><img src='img/correct.jpg'></div><div class='respDiv'><div class='respDivL'><font style='color:orange'>Match<br>(e)</font></div><div class='respDivR'>No Match<br>(i)</div></div></div>","null","FEEDBACK","","","","","","","","","","",""
"","","","","5fc70f3bd255c10f0b2346ba","bdp_wmem","Mon Mar 13 2023 21:54:56 GMT-0700 (Pacific Daylight Time)","651055","Match,No Match","html-keyboard-response","86","283479","0.0-7.0-1.10","","null","","<div class='trialBorder'><div class='vertical-center'><img src='img/fixation2_sml.jpg'</img></div></div>","null","FIX","","","","","","","","","","",""
"","","","","5fc70f3bd255c10f0b2346ba","bdp_wmem","Mon Mar 13 2023 21:54:56 GMT-0700 (Pacific Daylight Time)","651055","Match,No Match","html-keyboard-response","87","287981","0.0-7.0-2.10","","null","","<div class='trialBorder'><div class='vertical-center'><img style='vertical-align:center; align:center' src='img/fixation2_sml.jpg'></div><div class='arrayDiv3'><div class='tl'><img class='introPic' src='trustrating_stim/white_mw078.bmp'><br><font color='green'><strong>Share</strong></font></div><div class='tc'><img class='introPic' src='trustrating_stim/white_mw042.bmp'><br><font color='green'><strong>Share</strong></font></div><div class='tr'><img class='introPic' src='trustrating_stim/white_mw012.bmp'><br><font color='red'><strong>Keep</strong></font></div></div></div>","null","ARRAY","3","trustrating_stim/white_mw078.bmp,trustrating_stim/white_mw042.bmp,trustrating_stim/white_mw012.bmp","1,1,0","noMatchFace","i","4500","","","","",""
"","","","","5fc70f3bd255c10f0b2346ba","bdp_wmem","Mon Mar 13 2023 21:54:56 GMT-0700 (Pacific Daylight Time)","651055","Match,No Match","html-keyboard-response","88","291987","0.0-7.0-3.10","","null","","<div class='trialBorder'><div class='vertical-center'><img src='img/fixation2_sml.jpg'</img></div></div>","null","DELAY","","","","","","","","","","",""
"","","","","5fc70f3bd255c10f0b2346ba","bdp_wmem","Mon Mar 13 2023 21:54:56 GMT-0700 (Pacific Daylight Time)","651055","Match,No Match","html-keyboard-response","89","293393","0.0-7.0-4.10","","1405","","<div class='trialBorder'><div class='targDiv'><div class='tc'><img class='introPic' src='trustrating_stim/white_mw092.bmp'><br><font color='red'><strong>Keep</strong></font></div></div><div class='respDiv'><div class='respDivL'>Match<br>(e)</div><div class='respDivR'>No Match<br>(i)</div></div></div>","i","TARGET","3","trustrating_stim/white_mw078.bmp,trustrating_stim/white_mw042.bmp,trustrating_stim/white_mw012.bmp","1,1,0","noMatchFace","i","4500","trustrating_stim/white_mw092.bmp","red","Keep","REAL","1"
"","","","","5fc70f3bd255c10f0b2346ba","bdp_wmem","Mon Mar 13 2023 21:54:56 GMT-0700 (Pacific Daylight Time)","651055","Match,No Match","html-keyboard-response","90","293899","0.0-7.0-5.10","","null","","<div class='trialBorder'><div class='vertical-center'><img src='img/correct.jpg'></div><div class='respDiv'><div class='respDivL'>Match<br>(e)</div><div class='respDivR'><font style='color:orange'>No Match<br>(i)</font></div></div></div>","null","FEEDBACK","","","","","","","","","","",""
"","","","","5fc70f3bd255c10f0b2346ba","bdp_wmem","Mon Mar 13 2023 21:54:56 GMT-0700 (Pacific Daylight Time)","651055","Match,No Match","html-keyboard-response","91","294405","0.0-7.0-1.11","","null","","<div class='trialBorder'><div class='vertical-center'><img src='img/fixation2_sml.jpg'</img></div></div>","null","FIX","","","","","","","","","","",""
"","","","","5fc70f3bd255c10f0b2346ba","bdp_wmem","Mon Mar 13 2023 21:54:56 GMT-0700 (Pacific Daylight Time)","651055","Match,No Match","html-keyboard-response","92","297407","0.0-7.0-2.11","","null","","<div class='trialBorder'><div class='vertical-center'><img style='vertical-align:center; align:center' src='img/fixation2_sml.jpg'></div><div class='arrayDiv2'><div class='tl'><img class='introPic' src='trustrating_stim/white_mw012.bmp'><br><font color='green'><strong>Share</strong></font></div><div class='tr'><img class='introPic' src='trustrating_stim/white_mw040.bmp'><br><font color='red'><strong>Keep</strong></font></div></div></div>","null","ARRAY","2","trustrating_stim/white_mw012.bmp,trustrating_stim/white_mw040.bmp","1,0","Match","e","3000","","","","",""
"","","","","5fc70f3bd255c10f0b2346ba","bdp_wmem","Mon Mar 13 2023 21:54:56 GMT-0700 (Pacific Daylight Time)","651055","Match,No Match","html-keyboard-response","93","301412","0.0-7.0-3.11","","null","","<div class='trialBorder'><div class='vertical-center'><img src='img/fixation2_sml.jpg'</img></div></div>","null","DELAY","","","","","","","","","","",""
"","","","","5fc70f3bd255c10f0b2346ba","bdp_wmem","Mon Mar 13 2023 21:54:56 GMT-0700 (Pacific Daylight Time)","651055","Match,No Match","html-keyboard-response","94","302983","0.0-7.0-4.11","","1571","","<div class='trialBorder'><div class='targDiv'><div class='tc'><img class='introPic' src='trustrating_stim/white_mw012.bmp'><br><font color='green'><strong>Share</strong></font></div></div><div class='respDiv'><div class='respDivL'>Match<br>(e)</div><div class='respDivR'>No Match<br>(i)</div></div></div>","e","TARGET","2","trustrating_stim/white_mw012.bmp,trustrating_stim/white_mw040.bmp","1,0","Match","e","3000","trustrating_stim/white_mw012.bmp","green","Share","REAL","1"
"","","","","5fc70f3bd255c10f0b2346ba","bdp_wmem","Mon Mar 13 2023 21:54:56 GMT-0700 (Pacific Daylight Time)","651055","Match,No Match","html-keyboard-response","95","303488","0.0-7.0-5.11","","null","","<div class='trialBorder'><div class='vertical-center'><img src='img/correct.jpg'></div><div class='respDiv'><div class='respDivL'><font style='color:orange'>Match<br>(e)</font></div><div class='respDivR'>No Match<br>(i)</div></div></div>","null","FEEDBACK","","","","","","","","","","",""
"","","","","5fc70f3bd255c10f0b2346ba","bdp_wmem","Mon Mar 13 2023 21:54:56 GMT-0700 (Pacific Daylight Time)","651055","Match,No Match","html-keyboard-response","96","303994","0.0-7.0-1.12","","null","","<div class='trialBorder'><div class='vertical-center'><img src='img/fixation2_sml.jpg'</img></div></div>","null","FIX","","","","","","","","","","",""
"","","","","5fc70f3bd255c10f0b2346ba","bdp_wmem","Mon Mar 13 2023 21:54:56 GMT-0700 (Pacific Daylight Time)","651055","Match,No Match","html-keyboard-response","97","305495","0.0-7.0-2.12","","null","","<div class='trialBorder'><div class='vertical-center'><img style='vertical-align:center; align:center' src='img/fixation2_sml.jpg'></div><div class='arrayDiv1'><div class='tc'><img class='introPic' src='trustrating_stim/white_mw038.bmp'><br><font color='red'><strong>Keep</strong></font></div></div></div>","null","ARRAY","1","trustrating_stim/white_mw038.bmp","0","noMatchOutcome","i","1500","","","","",""
"","","","","5fc70f3bd255c10f0b2346ba","bdp_wmem","Mon Mar 13 2023 21:54:56 GMT-0700 (Pacific Daylight Time)","651055","Match,No Match","html-keyboard-response","98","309497","0.0-7.0-3.12","","null","","<div class='trialBorder'><div class='vertical-center'><img src='img/fixation2_sml.jpg'</img></div></div>","null","DELAY","","","","","","","","","","",""
"","","","","5fc70f3bd255c10f0b2346ba","bdp_wmem","Mon Mar 13 2023 21:54:56 GMT-0700 (Pacific Daylight Time)","651055","Match,No Match","html-keyboard-response","99","310692","0.0-7.0-4.12","","1193","","<div class='trialBorder'><div class='targDiv'><div class='tc'><img class='introPic' src='trustrating_stim/white_mw038.bmp'><br><font color='green'><strong>Share</strong></font></div></div><div class='respDiv'><div class='respDivL'>Match<br>(e)</div><div class='respDivR'>No Match<br>(i)</div></div></div>","i","TARGET","1","trustrating_stim/white_mw038.bmp","0","noMatchOutcome","i","1500","trustrating_stim/white_mw038.bmp","green","Share","REAL","1"
"","","","","5fc70f3bd255c10f0b2346ba","bdp_wmem","Mon Mar 13 2023 21:54:56 GMT-0700 (Pacific Daylight Time)","651055","Match,No Match","html-keyboard-response","100","311197","0.0-7.0-5.12","","null","","<div class='trialBorder'><div class='vertical-center'><img src='img/correct.jpg'></div><div class='respDiv'><div class='respDivL'>Match<br>(e)</div><div class='respDivR'><font style='color:orange'>No Match<br>(i)</font></div></div></div>","null","FEEDBACK","","","","","","","","","","",""
"","","","","5fc70f3bd255c10f0b2346ba","bdp_wmem","Mon Mar 13 2023 21:54:56 GMT-0700 (Pacific Daylight Time)","651055","Match,No Match","html-keyboard-response","101","311701","0.0-7.0-1.13","","null","","<div class='trialBorder'><div class='vertical-center'><img src='img/fixation2_sml.jpg'</img></div></div>","null","FIX","","","","","","","","","","",""
"","","","","5fc70f3bd255c10f0b2346ba","bdp_wmem","Mon Mar 13 2023 21:54:56 GMT-0700 (Pacific Daylight Time)","651055","Match,No Match","html-keyboard-response","102","316204","0.0-7.0-2.13","","null","","<div class='trialBorder'><div class='vertical-center'><img style='vertical-align:center; align:center' src='img/fixation2_sml.jpg'></div><div class='arrayDiv3'><div class='tl'><img class='introPic' src='trustrating_stim/white_mw010.bmp'><br><font color='red'><strong>Keep</strong></font></div><div class='tc'><img class='introPic' src='trustrating_stim/white_mw012.bmp'><br><font color='red'><strong>Keep</strong></font></div><div class='tr'><img class='introPic' src='trustrating_stim/white_mw078.bmp'><br><font color='green'><strong>Share</strong></font></div></div></div>","null","ARRAY","3","trustrating_stim/white_mw010.bmp,trustrating_stim/white_mw012.bmp,trustrating_stim/white_mw078.bmp","0,0,1","Match","e","4500","","","","",""
"","","","","5fc70f3bd255c10f0b2346ba","bdp_wmem","Mon Mar 13 2023 21:54:56 GMT-0700 (Pacific Daylight Time)","651055","Match,No Match","html-keyboard-response","103","320206","0.0-7.0-3.13","","null","","<div class='trialBorder'><div class='vertical-center'><img src='img/fixation2_sml.jpg'</img></div></div>","null","DELAY","","","","","","","","","","",""
"","","","","5fc70f3bd255c10f0b2346ba","bdp_wmem","Mon Mar 13 2023 21:54:56 GMT-0700 (Pacific Daylight Time)","651055","Match,No Match","html-keyboard-response","104","321842","0.0-7.0-4.13","","1632","","<div class='trialBorder'><div class='targDiv'><div class='tc'><img class='introPic' src='trustrating_stim/white_mw078.bmp'><br><font color='green'><strong>Share</strong></font></div></div><div class='respDiv'><div class='respDivL'>Match<br>(e)</div><div class='respDivR'>No Match<br>(i)</div></div></div>","e","TARGET","3","trustrating_stim/white_mw010.bmp,trustrating_stim/white_mw012.bmp,trustrating_stim/white_mw078.bmp","0,0,1","Match","e","4500","trustrating_stim/white_mw078.bmp","green","Share","REAL","1"
"","","","","5fc70f3bd255c10f0b2346ba","bdp_wmem","Mon Mar 13 2023 21:54:56 GMT-0700 (Pacific Daylight Time)","651055","Match,No Match","html-keyboard-response","105","322345","0.0-7.0-5.13","","null","","<div class='trialBorder'><div class='vertical-center'><img src='img/correct.jpg'></div><div class='respDiv'><div class='respDivL'><font style='color:orange'>Match<br>(e)</font></div><div class='respDivR'>No Match<br>(i)</div></div></div>","null","FEEDBACK","","","","","","","","","","",""
"","","","","5fc70f3bd255c10f0b2346ba","bdp_wmem","Mon Mar 13 2023 21:54:56 GMT-0700 (Pacific Daylight Time)","651055","Match,No Match","html-keyboard-response","106","322846","0.0-7.0-1.14","","null","","<div class='trialBorder'><div class='vertical-center'><img src='img/fixation2_sml.jpg'</img></div></div>","null","FIX","","","","","","","","","","",""
"","","","","5fc70f3bd255c10f0b2346ba","bdp_wmem","Mon Mar 13 2023 21:54:56 GMT-0700 (Pacific Daylight Time)","651055","Match,No Match","html-keyboard-response","107","325852","0.0-7.0-2.14","","null","","<div class='trialBorder'><div class='vertical-center'><img style='vertical-align:center; align:center' src='img/fixation2_sml.jpg'></div><div class='arrayDiv2'><div class='tl'><img class='introPic' src='trustrating_stim/white_mw091.bmp'><br><font color='red'><strong>Keep</strong></font></div><div class='tr'><img class='introPic' src='trustrating_stim/white_mw078.bmp'><br><font color='green'><strong>Share</strong></font></div></div></div>","null","ARRAY","2","trustrating_stim/white_mw091.bmp,trustrating_stim/white_mw078.bmp","0,1","Match","e","3000","","","","",""
"","","","","5fc70f3bd255c10f0b2346ba","bdp_wmem","Mon Mar 13 2023 21:54:56 GMT-0700 (Pacific Daylight Time)","651055","Match,No Match","html-keyboard-response","108","329856","0.0-7.0-3.14","","null","","<div class='trialBorder'><div class='vertical-center'><img src='img/fixation2_sml.jpg'</img></div></div>","null","DELAY","","","","","","","","","","",""
"","","","","5fc70f3bd255c10f0b2346ba","bdp_wmem","Mon Mar 13 2023 21:54:56 GMT-0700 (Pacific Daylight Time)","651055","Match,No Match","html-keyboard-response","109","332501","0.0-7.0-4.14","","2643","","<div class='trialBorder'><div class='targDiv'><div class='tc'><img class='introPic' src='trustrating_stim/white_mw078.bmp'><br><font color='green'><strong>Share</strong></font></div></div><div class='respDiv'><div class='respDivL'>Match<br>(e)</div><div class='respDivR'>No Match<br>(i)</div></div></div>","i","TARGET","2","trustrating_stim/white_mw091.bmp,trustrating_stim/white_mw078.bmp","0,1","Match","e","3000","trustrating_stim/white_mw078.bmp","green","Share","REAL","0"
"","","","","5fc70f3bd255c10f0b2346ba","bdp_wmem","Mon Mar 13 2023 21:54:56 GMT-0700 (Pacific Daylight Time)","651055","Match,No Match","html-keyboard-response","110","333007","0.0-7.0-5.14","","null","","<div class='trialBorder'><div class='vertical-center'><img src='img/error.jpg'></div><div class='respDiv'><div class='respDivL'>Match<br>(e)</div><div class='respDivR'><font style='color:orange'>No Match<br>(i)</font></div></div></div>","null","FEEDBACK","","","","","","","","","","",""
"","","","","5fc70f3bd255c10f0b2346ba","bdp_wmem","Mon Mar 13 2023 21:54:56 GMT-0700 (Pacific Daylight Time)","651055","Match,No Match","html-keyboard-response","111","333509","0.0-7.0-1.15","","null","","<div class='trialBorder'><div class='vertical-center'><img src='img/fixation2_sml.jpg'</img></div></div>","null","FIX","","","","","","","","","","",""
"","","","","5fc70f3bd255c10f0b2346ba","bdp_wmem","Mon Mar 13 2023 21:54:56 GMT-0700 (Pacific Daylight Time)","651055","Match,No Match","html-keyboard-response","112","335015","0.0-7.0-2.15","","null","","<div class='trialBorder'><div class='vertical-center'><img style='vertical-align:center; align:center' src='img/fixation2_sml.jpg'></div><div class='arrayDiv1'><div class='tc'><img class='introPic' src='trustrating_stim/white_mw003.bmp'><br><font color='red'><strong>Keep</strong></font></div></div></div>","null","ARRAY","1","trustrating_stim/white_mw003.bmp","0","noMatchOutcome","i","1500","","","","",""
"","","","","5fc70f3bd255c10f0b2346ba","bdp_wmem","Mon Mar 13 2023 21:54:56 GMT-0700 (Pacific Daylight Time)","651055","Match,No Match","html-keyboard-response","113","339020","0.0-7.0-3.15","","null","","<div class='trialBorder'><div class='vertical-center'><img src='img/fixation2_sml.jpg'</img></div></div>","null","DELAY","","","","","","","","","","",""
"","","","","5fc70f3bd255c10f0b2346ba","bdp_wmem","Mon Mar 13 2023 21:54:56 GMT-0700 (Pacific Daylight Time)","651055","Match,No Match","html-keyboard-response","114","340766","0.0-7.0-4.15","","1744","","<div class='trialBorder'><div class='targDiv'><div class='tc'><img class='introPic' src='trustrating_stim/white_mw003.bmp'><br><font color='green'><strong>Share</strong></font></div></div><div class='respDiv'><div class='respDivL'>Match<br>(e)</div><div class='respDivR'>No Match<br>(i)</div></div></div>","i","TARGET","1","trustrating_stim/white_mw003.bmp","0","noMatchOutcome","i","1500","trustrating_stim/white_mw003.bmp","green","Share","REAL","1"
"","","","","5fc70f3bd255c10f0b2346ba","bdp_wmem","Mon Mar 13 2023 21:54:56 GMT-0700 (Pacific Daylight Time)","651055","Match,No Match","html-keyboard-response","115","341270","0.0-7.0-5.15","","null","","<div class='trialBorder'><div class='vertical-center'><img src='img/correct.jpg'></div><div class='respDiv'><div class='respDivL'>Match<br>(e)</div><div class='respDivR'><font style='color:orange'>No Match<br>(i)</font></div></div></div>","null","FEEDBACK","","","","","","","","","","",""
"","","","","5fc70f3bd255c10f0b2346ba","bdp_wmem","Mon Mar 13 2023 21:54:56 GMT-0700 (Pacific Daylight Time)","651055","Match,No Match","html-keyboard-response","116","341776","0.0-7.0-1.16","","null","","<div class='trialBorder'><div class='vertical-center'><img src='img/fixation2_sml.jpg'</img></div></div>","null","FIX","","","","","","","","","","",""
"","","","","5fc70f3bd255c10f0b2346ba","bdp_wmem","Mon Mar 13 2023 21:54:56 GMT-0700 (Pacific Daylight Time)","651055","Match,No Match","html-keyboard-response","117","344782","0.0-7.0-2.16","","null","","<div class='trialBorder'><div class='vertical-center'><img style='vertical-align:center; align:center' src='img/fixation2_sml.jpg'></div><div class='arrayDiv2'><div class='tl'><img class='introPic' src='trustrating_stim/white_mw091.bmp'><br><font color='green'><strong>Share</strong></font></div><div class='tr'><img class='introPic' src='trustrating_stim/white_mw070.bmp'><br><font color='red'><strong>Keep</strong></font></div></div></div>","null","ARRAY","2","trustrating_stim/white_mw091.bmp,trustrating_stim/white_mw070.bmp","1,0","noMatchFace","i","3000","","","","",""
"","","","","5fc70f3bd255c10f0b2346ba","bdp_wmem","Mon Mar 13 2023 21:54:56 GMT-0700 (Pacific Daylight Time)","651055","Match,No Match","html-keyboard-response","118","348788","0.0-7.0-3.16","","null","","<div class='trialBorder'><div class='vertical-center'><img src='img/fixation2_sml.jpg'</img></div></div>","null","DELAY","","","","","","","","","","",""
"","","","","5fc70f3bd255c10f0b2346ba","bdp_wmem","Mon Mar 13 2023 21:54:56 GMT-0700 (Pacific Daylight Time)","651055","Match,No Match","html-keyboard-response","119","351704","0.0-7.0-4.16","","2915","","<div class='trialBorder'><div class='targDiv'><div class='tc'><img class='introPic' src='trustrating_stim/white_mw038.bmp'><br><font color='red'><strong>Keep</strong></font></div></div><div class='respDiv'><div class='respDivL'>Match<br>(e)</div><div class='respDivR'>No Match<br>(i)</div></div></div>","i","TARGET","2","trustrating_stim/white_mw091.bmp,trustrating_stim/white_mw070.bmp","1,0","noMatchFace","i","3000","trustrating_stim/white_mw038.bmp","red","Keep","REAL","1"
"","","","","5fc70f3bd255c10f0b2346ba","bdp_wmem","Mon Mar 13 2023 21:54:56 GMT-0700 (Pacific Daylight Time)","651055","Match,No Match","html-keyboard-response","120","352205","0.0-7.0-5.16","","null","","<div class='trialBorder'><div class='vertical-center'><img src='img/correct.jpg'></div><div class='respDiv'><div class='respDivL'>Match<br>(e)</div><div class='respDivR'><font style='color:orange'>No Match<br>(i)</font></div></div></div>","null","FEEDBACK","","","","","","","","","","",""
"","","","","5fc70f3bd255c10f0b2346ba","bdp_wmem","Mon Mar 13 2023 21:54:56 GMT-0700 (Pacific Daylight Time)","651055","Match,No Match","html-keyboard-response","121","352709","0.0-7.0-1.17","","null","","<div class='trialBorder'><div class='vertical-center'><img src='img/fixation2_sml.jpg'</img></div></div>","null","FIX","","","","","","","","","","",""
"","","","","5fc70f3bd255c10f0b2346ba","bdp_wmem","Mon Mar 13 2023 21:54:56 GMT-0700 (Pacific Daylight Time)","651055","Match,No Match","html-keyboard-response","122","355712","0.0-7.0-2.17","","null","","<div class='trialBorder'><div class='vertical-center'><img style='vertical-align:center; align:center' src='img/fixation2_sml.jpg'></div><div class='arrayDiv2'><div class='tl'><img class='introPic' src='trustrating_stim/white_mw042.bmp'><br><font color='red'><strong>Keep</strong></font></div><div class='tr'><img class='introPic' src='trustrating_stim/white_mw070.bmp'><br><font color='green'><strong>Share</strong></font></div></div></div>","null","ARRAY","2","trustrating_stim/white_mw042.bmp,trustrating_stim/white_mw070.bmp","0,1","Match","e","3000","","","","",""
"","","","","5fc70f3bd255c10f0b2346ba","bdp_wmem","Mon Mar 13 2023 21:54:56 GMT-0700 (Pacific Daylight Time)","651055","Match,No Match","html-keyboard-response","123","359716","0.0-7.0-3.17","","null","","<div class='trialBorder'><div class='vertical-center'><img src='img/fixation2_sml.jpg'</img></div></div>","null","DELAY","","","","","","","","","","",""
"","","","","5fc70f3bd255c10f0b2346ba","bdp_wmem","Mon Mar 13 2023 21:54:56 GMT-0700 (Pacific Daylight Time)","651055","Match,No Match","html-keyboard-response","124","361112","0.0-7.0-4.17","","1396","","<div class='trialBorder'><div class='targDiv'><div class='tc'><img class='introPic' src='trustrating_stim/white_mw042.bmp'><br><font color='red'><strong>Keep</strong></font></div></div><div class='respDiv'><div class='respDivL'>Match<br>(e)</div><div class='respDivR'>No Match<br>(i)</div></div></div>","e","TARGET","2","trustrating_stim/white_mw042.bmp,trustrating_stim/white_mw070.bmp","0,1","Match","e","3000","trustrating_stim/white_mw042.bmp","red","Keep","REAL","1"
"","","","","5fc70f3bd255c10f0b2346ba","bdp_wmem","Mon Mar 13 2023 21:54:56 GMT-0700 (Pacific Daylight Time)","651055","Match,No Match","html-keyboard-response","125","361616","0.0-7.0-5.17","","null","","<div class='trialBorder'><div class='vertical-center'><img src='img/correct.jpg'></div><div class='respDiv'><div class='respDivL'><font style='color:orange'>Match<br>(e)</font></div><div class='respDivR'>No Match<br>(i)</div></div></div>","null","FEEDBACK","","","","","","","","","","",""
"","","","","5fc70f3bd255c10f0b2346ba","bdp_wmem","Mon Mar 13 2023 21:54:56 GMT-0700 (Pacific Daylight Time)","651055","Match,No Match","html-keyboard-response","126","362123","0.0-7.0-1.18","","null","","<div class='trialBorder'><div class='vertical-center'><img src='img/fixation2_sml.jpg'</img></div></div>","null","FIX","","","","","","","","","","",""
"","","","","5fc70f3bd255c10f0b2346ba","bdp_wmem","Mon Mar 13 2023 21:54:56 GMT-0700 (Pacific Daylight Time)","651055","Match,No Match","html-keyboard-response","127","363625","0.0-7.0-2.18","","null","","<div class='trialBorder'><div class='vertical-center'><img style='vertical-align:center; align:center' src='img/fixation2_sml.jpg'></div><div class='arrayDiv1'><div class='tc'><img class='introPic' src='trustrating_stim/white_mw092.bmp'><br><font color='green'><strong>Share</strong></font></div></div></div>","null","ARRAY","1","trustrating_stim/white_mw092.bmp","1","Match","e","1500","","","","",""
"","","","","5fc70f3bd255c10f0b2346ba","bdp_wmem","Mon Mar 13 2023 21:54:56 GMT-0700 (Pacific Daylight Time)","651055","Match,No Match","html-keyboard-response","128","367630","0.0-7.0-3.18","","null","","<div class='trialBorder'><div class='vertical-center'><img src='img/fixation2_sml.jpg'</img></div></div>","null","DELAY","","","","","","","","","","",""
"","","","","5fc70f3bd255c10f0b2346ba","bdp_wmem","Mon Mar 13 2023 21:54:56 GMT-0700 (Pacific Daylight Time)","651055","Match,No Match","html-keyboard-response","129","368884","0.0-7.0-4.18","","1253","","<div class='trialBorder'><div class='targDiv'><div class='tc'><img class='introPic' src='trustrating_stim/white_mw092.bmp'><br><font color='green'><strong>Share</strong></font></div></div><div class='respDiv'><div class='respDivL'>Match<br>(e)</div><div class='respDivR'>No Match<br>(i)</div></div></div>","e","TARGET","1","trustrating_stim/white_mw092.bmp","1","Match","e","1500","trustrating_stim/white_mw092.bmp","green","Share","REAL","1"
"","","","","5fc70f3bd255c10f0b2346ba","bdp_wmem","Mon Mar 13 2023 21:54:56 GMT-0700 (Pacific Daylight Time)","651055","Match,No Match","html-keyboard-response","130","369390","0.0-7.0-5.18","","null","","<div class='trialBorder'><div class='vertical-center'><img src='img/correct.jpg'></div><div class='respDiv'><div class='respDivL'><font style='color:orange'>Match<br>(e)</font></div><div class='respDivR'>No Match<br>(i)</div></div></div>","null","FEEDBACK","","","","","","","","","","",""
"","","","","5fc70f3bd255c10f0b2346ba","bdp_wmem","Mon Mar 13 2023 21:54:56 GMT-0700 (Pacific Daylight Time)","651055","Match,No Match","html-keyboard-response","131","369896","0.0-7.0-1.19","","null","","<div class='trialBorder'><div class='vertical-center'><img src='img/fixation2_sml.jpg'</img></div></div>","null","FIX","","","","","","","","","","",""
"","","","","5fc70f3bd255c10f0b2346ba","bdp_wmem","Mon Mar 13 2023 21:54:56 GMT-0700 (Pacific Daylight Time)","651055","Match,No Match","html-keyboard-response","132","374402","0.0-7.0-2.19","","null","","<div class='trialBorder'><div class='vertical-center'><img style='vertical-align:center; align:center' src='img/fixation2_sml.jpg'></div><div class='arrayDiv3'><div class='tl'><img class='introPic' src='trustrating_stim/white_mw040.bmp'><br><font color='green'><strong>Share</strong></font></div><div class='tc'><img class='introPic' src='trustrating_stim/white_mw013.bmp'><br><font color='red'><strong>Keep</strong></font></div><div class='tr'><img class='introPic' src='trustrating_stim/white_mw092.bmp'><br><font color='green'><strong>Share</strong></font></div></div></div>","null","ARRAY","3","trustrating_stim/white_mw040.bmp,trustrating_stim/white_mw013.bmp,trustrating_stim/white_mw092.bmp","1,0,1","Match","e","4500","","","","",""
"","","","","5fc70f3bd255c10f0b2346ba","bdp_wmem","Mon Mar 13 2023 21:54:56 GMT-0700 (Pacific Daylight Time)","651055","Match,No Match","html-keyboard-response","133","378407","0.0-7.0-3.19","","null","","<div class='trialBorder'><div class='vertical-center'><img src='img/fixation2_sml.jpg'</img></div></div>","null","DELAY","","","","","","","","","","",""
"","","","","5fc70f3bd255c10f0b2346ba","bdp_wmem","Mon Mar 13 2023 21:54:56 GMT-0700 (Pacific Daylight Time)","651055","Match,No Match","html-keyboard-response","134","379759","0.0-7.0-4.19","","1352","","<div class='trialBorder'><div class='targDiv'><div class='tc'><img class='introPic' src='trustrating_stim/white_mw040.bmp'><br><font color='green'><strong>Share</strong></font></div></div><div class='respDiv'><div class='respDivL'>Match<br>(e)</div><div class='respDivR'>No Match<br>(i)</div></div></div>","e","TARGET","3","trustrating_stim/white_mw040.bmp,trustrating_stim/white_mw013.bmp,trustrating_stim/white_mw092.bmp","1,0,1","Match","e","4500","trustrating_stim/white_mw040.bmp","green","Share","REAL","1"
"","","","","5fc70f3bd255c10f0b2346ba","bdp_wmem","Mon Mar 13 2023 21:54:56 GMT-0700 (Pacific Daylight Time)","651055","Match,No Match","html-keyboard-response","135","380263","0.0-7.0-5.19","","null","","<div class='trialBorder'><div class='vertical-center'><img src='img/correct.jpg'></div><div class='respDiv'><div class='respDivL'><font style='color:orange'>Match<br>(e)</font></div><div class='respDivR'>No Match<br>(i)</div></div></div>","null","FEEDBACK","","","","","","","","","","",""
"","","","","5fc70f3bd255c10f0b2346ba","bdp_wmem","Mon Mar 13 2023 21:54:56 GMT-0700 (Pacific Daylight Time)","651055","Match,No Match","html-keyboard-response","136","380765","0.0-7.0-1.20","","null","","<div class='trialBorder'><div class='vertical-center'><img src='img/fixation2_sml.jpg'</img></div></div>","null","FIX","","","","","","","","","","",""
"","","","","5fc70f3bd255c10f0b2346ba","bdp_wmem","Mon Mar 13 2023 21:54:56 GMT-0700 (Pacific Daylight Time)","651055","Match,No Match","html-keyboard-response","137","385268","0.0-7.0-2.20","","null","","<div class='trialBorder'><div class='vertical-center'><img style='vertical-align:center; align:center' src='img/fixation2_sml.jpg'></div><div class='arrayDiv3'><div class='tl'><img class='introPic' src='trustrating_stim/white_mw010.bmp'><br><font color='green'><strong>Share</strong></font></div><div class='tc'><img class='introPic' src='trustrating_stim/white_mw012.bmp'><br><font color='red'><strong>Keep</strong></font></div><div class='tr'><img class='introPic' src='trustrating_stim/white_mw078.bmp'><br><font color='red'><strong>Keep</strong></font></div></div></div>","null","ARRAY","3","trustrating_stim/white_mw010.bmp,trustrating_stim/white_mw012.bmp,trustrating_stim/white_mw078.bmp","1,0,0","noMatchFace","i","4500","","","","",""
"","","","","5fc70f3bd255c10f0b2346ba","bdp_wmem","Mon Mar 13 2023 21:54:56 GMT-0700 (Pacific Daylight Time)","651055","Match,No Match","html-keyboard-response","138","389268","0.0-7.0-3.20","","null","","<div class='trialBorder'><div class='vertical-center'><img src='img/fixation2_sml.jpg'</img></div></div>","null","DELAY","","","","","","","","","","",""
"","","","","5fc70f3bd255c10f0b2346ba","bdp_wmem","Mon Mar 13 2023 21:54:56 GMT-0700 (Pacific Daylight Time)","651055","Match,No Match","html-keyboard-response","139","391894","0.0-7.0-4.20","","2625","","<div class='trialBorder'><div class='targDiv'><div class='tc'><img class='introPic' src='trustrating_stim/white_mw042.bmp'><br><font color='red'><strong>Keep</strong></font></div></div><div class='respDiv'><div class='respDivL'>Match<br>(e)</div><div class='respDivR'>No Match<br>(i)</div></div></div>","e","TARGET","3","trustrating_stim/white_mw010.bmp,trustrating_stim/white_mw012.bmp,trustrating_stim/white_mw078.bmp","1,0,0","noMatchFace","i","4500","trustrating_stim/white_mw042.bmp","red","Keep","REAL","0"
"","","","","5fc70f3bd255c10f0b2346ba","bdp_wmem","Mon Mar 13 2023 21:54:56 GMT-0700 (Pacific Daylight Time)","651055","Match,No Match","html-keyboard-response","140","392399","0.0-7.0-5.20","","null","","<div class='trialBorder'><div class='vertical-center'><img src='img/error.jpg'></div><div class='respDiv'><div class='respDivL'><font style='color:orange'>Match<br>(e)</font></div><div class='respDivR'>No Match<br>(i)</div></div></div>","null","FEEDBACK","","","","","","","","","","",""
"","","","","5fc70f3bd255c10f0b2346ba","bdp_wmem","Mon Mar 13 2023 21:54:56 GMT-0700 (Pacific Daylight Time)","651055","Match,No Match","html-keyboard-response","141","392904","0.0-7.0-1.21","","null","","<div class='trialBorder'><div class='vertical-center'><img src='img/fixation2_sml.jpg'</img></div></div>","null","FIX","","","","","","","","","","",""
"","","","","5fc70f3bd255c10f0b2346ba","bdp_wmem","Mon Mar 13 2023 21:54:56 GMT-0700 (Pacific Daylight Time)","651055","Match,No Match","html-keyboard-response","142","397410","0.0-7.0-2.21","","null","","<div class='trialBorder'><div class='vertical-center'><img style='vertical-align:center; align:center' src='img/fixation2_sml.jpg'></div><div class='arrayDiv3'><div class='tl'><img class='introPic' src='trustrating_stim/white_mw012.bmp'><br><font color='red'><strong>Keep</strong></font></div><div class='tc'><img class='introPic' src='trustrating_stim/white_mw070.bmp'><br><font color='red'><strong>Keep</strong></font></div><div class='tr'><img class='introPic' src='trustrating_stim/white_mw040.bmp'><br><font color='green'><strong>Share</strong></font></div></div></div>","null","ARRAY","3","trustrating_stim/white_mw012.bmp,trustrating_stim/white_mw070.bmp,trustrating_stim/white_mw040.bmp","0,0,1","noMatchOutcome","i","4500","","","","",""
"","","","","5fc70f3bd255c10f0b2346ba","bdp_wmem","Mon Mar 13 2023 21:54:56 GMT-0700 (Pacific Daylight Time)","651055","Match,No Match","html-keyboard-response","143","401415","0.0-7.0-3.21","","null","","<div class='trialBorder'><div class='vertical-center'><img src='img/fixation2_sml.jpg'</img></div></div>","null","DELAY","","","","","","","","","","",""
"","","","","5fc70f3bd255c10f0b2346ba","bdp_wmem","Mon Mar 13 2023 21:54:56 GMT-0700 (Pacific Daylight Time)","651055","Match,No Match","html-keyboard-response","144","402851","0.0-7.0-4.21","","1436","","<div class='trialBorder'><div class='targDiv'><div class='tc'><img class='introPic' src='trustrating_stim/white_mw012.bmp'><br><font color='green'><strong>Share</strong></font></div></div><div class='respDiv'><div class='respDivL'>Match<br>(e)</div><div class='respDivR'>No Match<br>(i)</div></div></div>","e","TARGET","3","trustrating_stim/white_mw012.bmp,trustrating_stim/white_mw070.bmp,trustrating_stim/white_mw040.bmp","0,0,1","noMatchOutcome","i","4500","trustrating_stim/white_mw012.bmp","green","Share","REAL","0"
"","","","","5fc70f3bd255c10f0b2346ba","bdp_wmem","Mon Mar 13 2023 21:54:56 GMT-0700 (Pacific Daylight Time)","651055","Match,No Match","html-keyboard-response","145","403356","0.0-7.0-5.21","","null","","<div class='trialBorder'><div class='vertical-center'><img src='img/error.jpg'></div><div class='respDiv'><div class='respDivL'><font style='color:orange'>Match<br>(e)</font></div><div class='respDivR'>No Match<br>(i)</div></div></div>","null","FEEDBACK","","","","","","","","","","",""
"","","","","5fc70f3bd255c10f0b2346ba","bdp_wmem","Mon Mar 13 2023 21:54:56 GMT-0700 (Pacific Daylight Time)","651055","Match,No Match","html-keyboard-response","146","403858","0.0-7.0-1.22","","null","","<div class='trialBorder'><div class='vertical-center'><img src='img/fixation2_sml.jpg'</img></div></div>","null","FIX","","","","","","","","","","",""
"","","","","5fc70f3bd255c10f0b2346ba","bdp_wmem","Mon Mar 13 2023 21:54:56 GMT-0700 (Pacific Daylight Time)","651055","Match,No Match","html-keyboard-response","147","405364","0.0-7.0-2.22","","null","","<div class='trialBorder'><div class='vertical-center'><img style='vertical-align:center; align:center' src='img/fixation2_sml.jpg'></div><div class='arrayDiv1'><div class='tc'><img class='introPic' src='trustrating_stim/white_mw013.bmp'><br><font color='red'><strong>Keep</strong></font></div></div></div>","null","ARRAY","1","trustrating_stim/white_mw013.bmp","0","Match","e","1500","","","","",""
"","","","","5fc70f3bd255c10f0b2346ba","bdp_wmem","Mon Mar 13 2023 21:54:56 GMT-0700 (Pacific Daylight Time)","651055","Match,No Match","html-keyboard-response","148","409365","0.0-7.0-3.22","","null","","<div class='trialBorder'><div class='vertical-center'><img src='img/fixation2_sml.jpg'</img></div></div>","null","DELAY","","","","","","","","","","",""
"","","","","5fc70f3bd255c10f0b2346ba","bdp_wmem","Mon Mar 13 2023 21:54:56 GMT-0700 (Pacific Daylight Time)","651055","Match,No Match","html-keyboard-response","149","410308","0.0-7.0-4.22","","942","","<div class='trialBorder'><div class='targDiv'><div class='tc'><img class='introPic' src='trustrating_stim/white_mw013.bmp'><br><font color='red'><strong>Keep</strong></font></div></div><div class='respDiv'><div class='respDivL'>Match<br>(e)</div><div class='respDivR'>No Match<br>(i)</div></div></div>","e","TARGET","1","trustrating_stim/white_mw013.bmp","0","Match","e","1500","trustrating_stim/white_mw013.bmp","red","Keep","REAL","1"
"","","","","5fc70f3bd255c10f0b2346ba","bdp_wmem","Mon Mar 13 2023 21:54:56 GMT-0700 (Pacific Daylight Time)","651055","Match,No Match","html-keyboard-response","150","410810","0.0-7.0-5.22","","null","","<div class='trialBorder'><div class='vertical-center'><img src='img/correct.jpg'></div><div class='respDiv'><div class='respDivL'><font style='color:orange'>Match<br>(e)</font></div><div class='respDivR'>No Match<br>(i)</div></div></div>","null","FEEDBACK","","","","","","","","","","",""
"","","","","5fc70f3bd255c10f0b2346ba","bdp_wmem","Mon Mar 13 2023 21:54:56 GMT-0700 (Pacific Daylight Time)","651055","Match,No Match","html-keyboard-response","151","411315","0.0-7.0-1.23","","null","","<div class='trialBorder'><div class='vertical-center'><img src='img/fixation2_sml.jpg'</img></div></div>","null","FIX","","","","","","","","","","",""
"","","","","5fc70f3bd255c10f0b2346ba","bdp_wmem","Mon Mar 13 2023 21:54:56 GMT-0700 (Pacific Daylight Time)","651055","Match,No Match","html-keyboard-response","152","414322","0.0-7.0-2.23","","null","","<div class='trialBorder'><div class='vertical-center'><img style='vertical-align:center; align:center' src='img/fixation2_sml.jpg'></div><div class='arrayDiv2'><div class='tl'><img class='introPic' src='trustrating_stim/white_mw013.bmp'><br><font color='green'><strong>Share</strong></font></div><div class='tr'><img class='introPic' src='trustrating_stim/white_mw003.bmp'><br><font color='red'><strong>Keep</strong></font></div></div></div>","null","ARRAY","2","trustrating_stim/white_mw013.bmp,trustrating_stim/white_mw003.bmp","1,0","noMatchFace","i","3000","","","","",""
"","","","","5fc70f3bd255c10f0b2346ba","bdp_wmem","Mon Mar 13 2023 21:54:56 GMT-0700 (Pacific Daylight Time)","651055","Match,No Match","html-keyboard-response","153","418324","0.0-7.0-3.23","","null","","<div class='trialBorder'><div class='vertical-center'><img src='img/fixation2_sml.jpg'</img></div></div>","null","DELAY","","","","","","","","","","",""
"","","","","5fc70f3bd255c10f0b2346ba","bdp_wmem","Mon Mar 13 2023 21:54:56 GMT-0700 (Pacific Daylight Time)","651055","Match,No Match","html-keyboard-response","154","419584","0.0-7.0-4.23","","1259","","<div class='trialBorder'><div class='targDiv'><div class='tc'><img class='introPic' src='trustrating_stim/white_mw042.bmp'><br><font color='red'><strong>Keep</strong></font></div></div><div class='respDiv'><div class='respDivL'>Match<br>(e)</div><div class='respDivR'>No Match<br>(i)</div></div></div>","i","TARGET","2","trustrating_stim/white_mw013.bmp,trustrating_stim/white_mw003.bmp","1,0","noMatchFace","i","3000","trustrating_stim/white_mw042.bmp","red","Keep","REAL","1"
"","","","","5fc70f3bd255c10f0b2346ba","bdp_wmem","Mon Mar 13 2023 21:54:56 GMT-0700 (Pacific Daylight Time)","651055","Match,No Match","html-keyboard-response","155","420086","0.0-7.0-5.23","","null","","<div class='trialBorder'><div class='vertical-center'><img src='img/correct.jpg'></div><div class='respDiv'><div class='respDivL'>Match<br>(e)</div><div class='respDivR'><font style='color:orange'>No Match<br>(i)</font></div></div></div>","null","FEEDBACK","","","","","","","","","","",""
"","","","","5fc70f3bd255c10f0b2346ba","bdp_wmem","Mon Mar 13 2023 21:54:56 GMT-0700 (Pacific Daylight Time)","651055","Match,No Match","html-keyboard-response","156","420591","0.0-7.0-1.24","","null","","<div class='trialBorder'><div class='vertical-center'><img src='img/fixation2_sml.jpg'</img></div></div>","null","FIX","","","","","","","","","","",""
"","","","","5fc70f3bd255c10f0b2346ba","bdp_wmem","Mon Mar 13 2023 21:54:56 GMT-0700 (Pacific Daylight Time)","651055","Match,No Match","html-keyboard-response","157","423592","0.0-7.0-2.24","","null","","<div class='trialBorder'><div class='vertical-center'><img style='vertical-align:center; align:center' src='img/fixation2_sml.jpg'></div><div class='arrayDiv2'><div class='tl'><img class='introPic' src='trustrating_stim/white_mw070.bmp'><br><font color='green'><strong>Share</strong></font></div><div class='tr'><img class='introPic' src='trustrating_stim/white_mw092.bmp'><br><font color='red'><strong>Keep</strong></font></div></div></div>","null","ARRAY","2","trustrating_stim/white_mw070.bmp,trustrating_stim/white_mw092.bmp","1,0","noMatchFace","i","3000","","","","",""
"","","","","5fc70f3bd255c10f0b2346ba","bdp_wmem","Mon Mar 13 2023 21:54:56 GMT-0700 (Pacific Daylight Time)","651055","Match,No Match","html-keyboard-response","158","427597","0.0-7.0-3.24","","null","","<div class='trialBorder'><div class='vertical-center'><img src='img/fixation2_sml.jpg'</img></div></div>","null","DELAY","","","","","","","","","","",""
"","","","","5fc70f3bd255c10f0b2346ba","bdp_wmem","Mon Mar 13 2023 21:54:56 GMT-0700 (Pacific Daylight Time)","651055","Match,No Match","html-keyboard-response","159","428656","0.0-7.0-4.24","","1058","","<div class='trialBorder'><div class='targDiv'><div class='tc'><img class='introPic' src='trustrating_stim/white_mw078.bmp'><br><font color='red'><strong>Keep</strong></font></div></div><div class='respDiv'><div class='respDivL'>Match<br>(e)</div><div class='respDivR'>No Match<br>(i)</div></div></div>","i","TARGET","2","trustrating_stim/white_mw070.bmp,trustrating_stim/white_mw092.bmp","1,0","noMatchFace","i","3000","trustrating_stim/white_mw078.bmp","red","Keep","REAL","1"
"","","","","5fc70f3bd255c10f0b2346ba","bdp_wmem","Mon Mar 13 2023 21:54:56 GMT-0700 (Pacific Daylight Time)","651055","Match,No Match","html-keyboard-response","160","429161","0.0-7.0-5.24","","null","","<div class='trialBorder'><div class='vertical-center'><img src='img/correct.jpg'></div><div class='respDiv'><div class='respDivL'>Match<br>(e)</div><div class='respDivR'><font style='color:orange'>No Match<br>(i)</font></div></div></div>","null","FEEDBACK","","","","","","","","","","",""
"","","","","5fc70f3bd255c10f0b2346ba","bdp_wmem","Mon Mar 13 2023 21:54:56 GMT-0700 (Pacific Daylight Time)","651055","Match,No Match","html-keyboard-response","161","429670","0.0-7.0-1.25","","null","","<div class='trialBorder'><div class='vertical-center'><img src='img/fixation2_sml.jpg'</img></div></div>","null","FIX","","","","","","","","","","",""
"","","","","5fc70f3bd255c10f0b2346ba","bdp_wmem","Mon Mar 13 2023 21:54:56 GMT-0700 (Pacific Daylight Time)","651055","Match,No Match","html-keyboard-response","162","432678","0.0-7.0-2.25","","null","","<div class='trialBorder'><div class='vertical-center'><img style='vertical-align:center; align:center' src='img/fixation2_sml.jpg'></div><div class='arrayDiv2'><div class='tl'><img class='introPic' src='trustrating_stim/white_mw012.bmp'><br><font color='green'><strong>Share</strong></font></div><div class='tr'><img class='introPic' src='trustrating_stim/white_mw085.bmp'><br><font color='red'><strong>Keep</strong></font></div></div></div>","null","ARRAY","2","trustrating_stim/white_mw012.bmp,trustrating_stim/white_mw085.bmp","1,0","noMatchOutcome","i","3000","","","","",""
"","","","","5fc70f3bd255c10f0b2346ba","bdp_wmem","Mon Mar 13 2023 21:54:56 GMT-0700 (Pacific Daylight Time)","651055","Match,No Match","html-keyboard-response","163","436686","0.0-7.0-3.25","","null","","<div class='trialBorder'><div class='vertical-center'><img src='img/fixation2_sml.jpg'</img></div></div>","null","DELAY","","","","","","","","","","",""
"","","","","5fc70f3bd255c10f0b2346ba","bdp_wmem","Mon Mar 13 2023 21:54:56 GMT-0700 (Pacific Daylight Time)","651055","Match,No Match","html-keyboard-response","164","438104","0.0-7.0-4.25","","1416","","<div class='trialBorder'><div class='targDiv'><div class='tc'><img class='introPic' src='trustrating_stim/white_mw085.bmp'><br><font color='green'><strong>Share</strong></font></div></div><div class='respDiv'><div class='respDivL'>Match<br>(e)</div><div class='respDivR'>No Match<br>(i)</div></div></div>","i","TARGET","2","trustrating_stim/white_mw012.bmp,trustrating_stim/white_mw085.bmp","1,0","noMatchOutcome","i","3000","trustrating_stim/white_mw085.bmp","green","Share","REAL","1"
"","","","","5fc70f3bd255c10f0b2346ba","bdp_wmem","Mon Mar 13 2023 21:54:56 GMT-0700 (Pacific Daylight Time)","651055","Match,No Match","html-keyboard-response","165","438610","0.0-7.0-5.25","","null","","<div class='trialBorder'><div class='vertical-center'><img src='img/correct.jpg'></div><div class='respDiv'><div class='respDivL'>Match<br>(e)</div><div class='respDivR'><font style='color:orange'>No Match<br>(i)</font></div></div></div>","null","FEEDBACK","","","","","","","","","","",""
"","","","","5fc70f3bd255c10f0b2346ba","bdp_wmem","Mon Mar 13 2023 21:54:56 GMT-0700 (Pacific Daylight Time)","651055","Match,No Match","html-keyboard-response","166","439111","0.0-7.0-1.26","","null","","<div class='trialBorder'><div class='vertical-center'><img src='img/fixation2_sml.jpg'</img></div></div>","null","FIX","","","","","","","","","","",""
"","","","","5fc70f3bd255c10f0b2346ba","bdp_wmem","Mon Mar 13 2023 21:54:56 GMT-0700 (Pacific Daylight Time)","651055","Match,No Match","html-keyboard-response","167","442115","0.0-7.0-2.26","","null","","<div class='trialBorder'><div class='vertical-center'><img style='vertical-align:center; align:center' src='img/fixation2_sml.jpg'></div><div class='arrayDiv2'><div class='tl'><img class='introPic' src='trustrating_stim/white_mw003.bmp'><br><font color='green'><strong>Share</strong></font></div><div class='tr'><img class='introPic' src='trustrating_stim/white_mw010.bmp'><br><font color='red'><strong>Keep</strong></font></div></div></div>","null","ARRAY","2","trustrating_stim/white_mw003.bmp,trustrating_stim/white_mw010.bmp","1,0","noMatchOutcome","i","3000","","","","",""
"","","","","5fc70f3bd255c10f0b2346ba","bdp_wmem","Mon Mar 13 2023 21:54:56 GMT-0700 (Pacific Daylight Time)","651055","Match,No Match","html-keyboard-response","168","446120","0.0-7.0-3.26","","null","","<div class='trialBorder'><div class='vertical-center'><img src='img/fixation2_sml.jpg'</img></div></div>","null","DELAY","","","","","","","","","","",""
"","","","","5fc70f3bd255c10f0b2346ba","bdp_wmem","Mon Mar 13 2023 21:54:56 GMT-0700 (Pacific Daylight Time)","651055","Match,No Match","html-keyboard-response","169","447377","0.0-7.0-4.26","","1256","","<div class='trialBorder'><div class='targDiv'><div class='tc'><img class='introPic' src='trustrating_stim/white_mw010.bmp'><br><font color='green'><strong>Share</strong></font></div></div><div class='respDiv'><div class='respDivL'>Match<br>(e)</div><div class='respDivR'>No Match<br>(i)</div></div></div>","i","TARGET","2","trustrating_stim/white_mw003.bmp,trustrating_stim/white_mw010.bmp","1,0","noMatchOutcome","i","3000","trustrating_stim/white_mw010.bmp","green","Share","REAL","1"
"","","","","5fc70f3bd255c10f0b2346ba","bdp_wmem","Mon Mar 13 2023 21:54:56 GMT-0700 (Pacific Daylight Time)","651055","Match,No Match","html-keyboard-response","170","447880","0.0-7.0-5.26","","null","","<div class='trialBorder'><div class='vertical-center'><img src='img/correct.jpg'></div><div class='respDiv'><div class='respDivL'>Match<br>(e)</div><div class='respDivR'><font style='color:orange'>No Match<br>(i)</font></div></div></div>","null","FEEDBACK","","","","","","","","","","",""
"","","","","5fc70f3bd255c10f0b2346ba","bdp_wmem","Mon Mar 13 2023 21:54:56 GMT-0700 (Pacific Daylight Time)","651055","Match,No Match","html-keyboard-response","171","448385","0.0-7.0-1.27","","null","","<div class='trialBorder'><div class='vertical-center'><img src='img/fixation2_sml.jpg'</img></div></div>","null","FIX","","","","","","","","","","",""
"","","","","5fc70f3bd255c10f0b2346ba","bdp_wmem","Mon Mar 13 2023 21:54:56 GMT-0700 (Pacific Daylight Time)","651055","Match,No Match","html-keyboard-response","172","452889","0.0-7.0-2.27","","null","","<div class='trialBorder'><div class='vertical-center'><img style='vertical-align:center; align:center' src='img/fixation2_sml.jpg'></div><div class='arrayDiv3'><div class='tl'><img class='introPic' src='trustrating_stim/white_mw010.bmp'><br><font color='green'><strong>Share</strong></font></div><div class='tc'><img class='introPic' src='trustrating_stim/white_mw070.bmp'><br><font color='red'><strong>Keep</strong></font></div><div class='tr'><img class='introPic' src='trustrating_stim/white_mw038.bmp'><br><font color='green'><strong>Share</strong></font></div></div></div>","null","ARRAY","3","trustrating_stim/white_mw010.bmp,trustrating_stim/white_mw070.bmp,trustrating_stim/white_mw038.bmp","1,0,1","noMatchFace","i","4500","","","","",""
"","","","","5fc70f3bd255c10f0b2346ba","bdp_wmem","Mon Mar 13 2023 21:54:56 GMT-0700 (Pacific Daylight Time)","651055","Match,No Match","html-keyboard-response","173","456896","0.0-7.0-3.27","","null","","<div class='trialBorder'><div class='vertical-center'><img src='img/fixation2_sml.jpg'</img></div></div>","null","DELAY","","","","","","","","","","",""
"","","","","5fc70f3bd255c10f0b2346ba","bdp_wmem","Mon Mar 13 2023 21:54:56 GMT-0700 (Pacific Daylight Time)","651055","Match,No Match","html-keyboard-response","174","458217","0.0-7.0-4.27","","1320","","<div class='trialBorder'><div class='targDiv'><div class='tc'><img class='introPic' src='trustrating_stim/white_mw012.bmp'><br><font color='red'><strong>Keep</strong></font></div></div><div class='respDiv'><div class='respDivL'>Match<br>(e)</div><div class='respDivR'>No Match<br>(i)</div></div></div>","i","TARGET","3","trustrating_stim/white_mw010.bmp,trustrating_stim/white_mw070.bmp,trustrating_stim/white_mw038.bmp","1,0,1","noMatchFace","i","4500","trustrating_stim/white_mw012.bmp","red","Keep","REAL","1"
"","","","","5fc70f3bd255c10f0b2346ba","bdp_wmem","Mon Mar 13 2023 21:54:56 GMT-0700 (Pacific Daylight Time)","651055","Match,No Match","html-keyboard-response","175","458724","0.0-7.0-5.27","","null","","<div class='trialBorder'><div class='vertical-center'><img src='img/correct.jpg'></div><div class='respDiv'><div class='respDivL'>Match<br>(e)</div><div class='respDivR'><font style='color:orange'>No Match<br>(i)</font></div></div></div>","null","FEEDBACK","","","","","","","","","","",""
"","","","","5fc70f3bd255c10f0b2346ba","bdp_wmem","Mon Mar 13 2023 21:54:56 GMT-0700 (Pacific Daylight Time)","651055","Match,No Match","html-keyboard-response","176","459230","0.0-7.0-1.28","","null","","<div class='trialBorder'><div class='vertical-center'><img src='img/fixation2_sml.jpg'</img></div></div>","null","FIX","","","","","","","","","","",""
"","","","","5fc70f3bd255c10f0b2346ba","bdp_wmem","Mon Mar 13 2023 21:54:56 GMT-0700 (Pacific Daylight Time)","651055","Match,No Match","html-keyboard-response","177","463738","0.0-7.0-2.28","","null","","<div class='trialBorder'><div class='vertical-center'><img style='vertical-align:center; align:center' src='img/fixation2_sml.jpg'></div><div class='arrayDiv3'><div class='tl'><img class='introPic' src='trustrating_stim/white_mw042.bmp'><br><font color='red'><strong>Keep</strong></font></div><div class='tc'><img class='introPic' src='trustrating_stim/white_mw012.bmp'><br><font color='green'><strong>Share</strong></font></div><div class='tr'><img class='introPic' src='trustrating_stim/white_mw040.bmp'><br><font color='green'><strong>Share</strong></font></div></div></div>","null","ARRAY","3","trustrating_stim/white_mw042.bmp,trustrating_stim/white_mw012.bmp,trustrating_stim/white_mw040.bmp","0,1,1","noMatchFace","i","4500","","","","",""
"","","","","5fc70f3bd255c10f0b2346ba","bdp_wmem","Mon Mar 13 2023 21:54:56 GMT-0700 (Pacific Daylight Time)","651055","Match,No Match","html-keyboard-response","178","467741","0.0-7.0-3.28","","null","","<div class='trialBorder'><div class='vertical-center'><img src='img/fixation2_sml.jpg'</img></div></div>","null","DELAY","","","","","","","","","","",""
"","","","","5fc70f3bd255c10f0b2346ba","bdp_wmem","Mon Mar 13 2023 21:54:56 GMT-0700 (Pacific Daylight Time)","651055","Match,No Match","html-keyboard-response","179","469094","0.0-7.0-4.28","","1351","","<div class='trialBorder'><div class='targDiv'><div class='tc'><img class='introPic' src='trustrating_stim/white_mw070.bmp'><br><font color='red'><strong>Keep</strong></font></div></div><div class='respDiv'><div class='respDivL'>Match<br>(e)</div><div class='respDivR'>No Match<br>(i)</div></div></div>","i","TARGET","3","trustrating_stim/white_mw042.bmp,trustrating_stim/white_mw012.bmp,trustrating_stim/white_mw040.bmp","0,1,1","noMatchFace","i","4500","trustrating_stim/white_mw070.bmp","red","Keep","REAL","1"
"","","","","5fc70f3bd255c10f0b2346ba","bdp_wmem","Mon Mar 13 2023 21:54:56 GMT-0700 (Pacific Daylight Time)","651055","Match,No Match","html-keyboard-response","180","469598","0.0-7.0-5.28","","null","","<div class='trialBorder'><div class='vertical-center'><img src='img/correct.jpg'></div><div class='respDiv'><div class='respDivL'>Match<br>(e)</div><div class='respDivR'><font style='color:orange'>No Match<br>(i)</font></div></div></div>","null","FEEDBACK","","","","","","","","","","",""
"","","","","5fc70f3bd255c10f0b2346ba","bdp_wmem","Mon Mar 13 2023 21:54:56 GMT-0700 (Pacific Daylight Time)","651055","Match,No Match","html-keyboard-response","181","470105","0.0-7.0-1.29","","null","","<div class='trialBorder'><div class='vertical-center'><img src='img/fixation2_sml.jpg'</img></div></div>","null","FIX","","","","","","","","","","",""
"","","","","5fc70f3bd255c10f0b2346ba","bdp_wmem","Mon Mar 13 2023 21:54:56 GMT-0700 (Pacific Daylight Time)","651055","Match,No Match","html-keyboard-response","182","473112","0.0-7.0-2.29","","null","","<div class='trialBorder'><div class='vertical-center'><img style='vertical-align:center; align:center' src='img/fixation2_sml.jpg'></div><div class='arrayDiv2'><div class='tl'><img class='introPic' src='trustrating_stim/white_mw078.bmp'><br><font color='red'><strong>Keep</strong></font></div><div class='tr'><img class='introPic' src='trustrating_stim/white_mw040.bmp'><br><font color='green'><strong>Share</strong></font></div></div></div>","null","ARRAY","2","trustrating_stim/white_mw078.bmp,trustrating_stim/white_mw040.bmp","0,1","noMatchFace","i","3000","","","","",""
"","","","","5fc70f3bd255c10f0b2346ba","bdp_wmem","Mon Mar 13 2023 21:54:56 GMT-0700 (Pacific Daylight Time)","651055","Match,No Match","html-keyboard-response","183","477116","0.0-7.0-3.29","","null","","<div class='trialBorder'><div class='vertical-center'><img src='img/fixation2_sml.jpg'</img></div></div>","null","DELAY","","","","","","","","","","",""
"","","","","5fc70f3bd255c10f0b2346ba","bdp_wmem","Mon Mar 13 2023 21:54:56 GMT-0700 (Pacific Daylight Time)","651055","Match,No Match","html-keyboard-response","184","478621","0.0-7.0-4.29","","1502","","<div class='trialBorder'><div class='targDiv'><div class='tc'><img class='introPic' src='trustrating_stim/white_mw038.bmp'><br><font color='green'><strong>Share</strong></font></div></div><div class='respDiv'><div class='respDivL'>Match<br>(e)</div><div class='respDivR'>No Match<br>(i)</div></div></div>","i","TARGET","2","trustrating_stim/white_mw078.bmp,trustrating_stim/white_mw040.bmp","0,1","noMatchFace","i","3000","trustrating_stim/white_mw038.bmp","green","Share","REAL","1"
"","","","","5fc70f3bd255c10f0b2346ba","bdp_wmem","Mon Mar 13 2023 21:54:56 GMT-0700 (Pacific Daylight Time)","651055","Match,No Match","html-keyboard-response","185","479122","0.0-7.0-5.29","","null","","<div class='trialBorder'><div class='vertical-center'><img src='img/correct.jpg'></div><div class='respDiv'><div class='respDivL'>Match<br>(e)</div><div class='respDivR'><font style='color:orange'>No Match<br>(i)</font></div></div></div>","null","FEEDBACK","","","","","","","","","","",""
"","","","","5fc70f3bd255c10f0b2346ba","bdp_wmem","Mon Mar 13 2023 21:54:56 GMT-0700 (Pacific Daylight Time)","651055","Match,No Match","html-keyboard-response","186","479629","0.0-7.0-1.30","","null","","<div class='trialBorder'><div class='vertical-center'><img src='img/fixation2_sml.jpg'</img></div></div>","null","FIX","","","","","","","","","","",""
