"trial_type","trial_index","time_elapsed","internal_node_id","subject_id","task","startTime","totalTime","labels","view_history","rt","event","trial","time","trialtype","success","stimulus","key_press","stimType","arraySize","arrayFaces","arrayOutcomes","matchType","corrResp","arrayDur","targFace","targCol","targOutcome","trialType","corr"
"pavlovia","0","12","0.0-0.0","6108566c73124d23384f3e0a","bdp_wmem","Wed Jul 27 2022 12:02:52 GMT-0500 (Central Daylight Time)","605227","Match,No Match","","","","","","","","","","","","","","","","","","","","",""
"instructions","1","13106","0.0-1.0","6108566c73124d23384f3e0a","bdp_wmem","Wed Jul 27 2022 12:02:52 GMT-0500 (Central Daylight Time)","605227","Match,No Match","[{""page_index"":0,""viewing_time"":13090}]","13090","","","","","","","","","","","","","","","","","","",""
"","","","","6108566c73124d23384f3e0a","bdp_wmem","Wed Jul 27 2022 12:02:52 GMT-0500 (Central Daylight Time)","605227","Match,No Match","","","fullscreenenter","2","16048","fullscreenenter","","","","","","","","","","","","","","",""
"fullscreen","2","17049","0.0-2.0","6108566c73124d23384f3e0a","bdp_wmem","Wed Jul 27 2022 12:02:52 GMT-0500 (Central Daylight Time)","605227","Match,No Match","","","","","","","true","","","","","","","","","","","","","",""
"instructions","3","76725","0.0-4.0","6108566c73124d23384f3e0a","bdp_wmem","Wed Jul 27 2022 12:02:52 GMT-0500 (Central Daylight Time)","605227","Match,No Match","[{""page_index"":0,""viewing_time"":27906},{""page_index"":1,""viewing_time"":19806},{""page_index"":2,""viewing_time"":3773},{""page_index"":3,""viewing_time"":2847},{""page_index"":4,""viewing_time"":5338}]","59671","","","","","","","","","","","","","","","","","","",""
"html-keyboard-response","4","77238","0.0-5.0-1.0","6108566c73124d23384f3e0a","bdp_wmem","Wed Jul 27 2022 12:02:52 GMT-0500 (Central Daylight Time)","605227","Match,No Match","","null","","","","","","<div class='trialBorder'><div class='vertical-center'><img src='img/fixation2_sml.jpg'</img></div></div>","null","FIX","","","","","","","","","","",""
"html-keyboard-response","5","81745","0.0-5.0-2.0","6108566c73124d23384f3e0a","bdp_wmem","Wed Jul 27 2022 12:02:52 GMT-0500 (Central Daylight Time)","605227","Match,No Match","","null","","","","","","<div class='trialBorder'><div class='vertical-center'><img style='vertical-align:center; align:center' src='img/fixation2_sml.jpg'></div><div class='arrayDiv3'><div class='tl'><img class='introPic' src='trustrating_stim/white_mw091.bmp'><br><font color='red'><strong>Keep</strong></font></div><div class='tc'><img class='introPic' src='trustrating_stim/white_mw013.bmp'><br><font color='red'><strong>Keep</strong></font></div><div class='tr'><img class='introPic' src='trustrating_stim/white_mw078.bmp'><br><font color='green'><strong>Share</strong></font></div></div></div>","null","ARRAY","3","trustrating_stim/white_mw091.bmp,trustrating_stim/white_mw013.bmp,trustrating_stim/white_mw078.bmp","0,0,1","Match","e","4500","","","","",""
"html-keyboard-response","6","85752","0.0-5.0-3.0","6108566c73124d23384f3e0a","bdp_wmem","Wed Jul 27 2022 12:02:52 GMT-0500 (Central Daylight Time)","605227","Match,No Match","","null","","","","","","<div class='trialBorder'><div class='vertical-center'><img src='img/fixation2_sml.jpg'</img></div></div>","null","DELAY","","","","","","","","","","",""
"html-keyboard-response","7","89373","0.0-5.0-4.0","6108566c73124d23384f3e0a","bdp_wmem","Wed Jul 27 2022 12:02:52 GMT-0500 (Central Daylight Time)","605227","Match,No Match","","3617","","","","","","<div class='trialBorder'><div class='targDiv'><div class='tc'><img class='introPic' src='trustrating_stim/white_mw078.bmp'><br><font color='green'><strong>Share</strong></font></div></div><div class='respDiv'><div class='respDivL'>Match<br>(e)</div><div class='respDivR'>No Match<br>(i)</div></div></div>","e","TARGET","3","trustrating_stim/white_mw091.bmp,trustrating_stim/white_mw013.bmp,trustrating_stim/white_mw078.bmp","0,0,1","Match","e","4500","trustrating_stim/white_mw078.bmp","green","Share","PRACTICE","1"
"html-keyboard-response","8","89880","0.0-5.0-5.0","6108566c73124d23384f3e0a","bdp_wmem","Wed Jul 27 2022 12:02:52 GMT-0500 (Central Daylight Time)","605227","Match,No Match","","null","","","","","","<div class='trialBorder'><div class='vertical-center'><img src='img/correct.jpg'></div><div class='respDiv'><div class='respDivL'><font style='color:orange'>Match<br>(e)</font></div><div class='respDivR'>No Match<br>(i)</div></div></div>","null","FEEDBACK","","","","","","","","","","",""
"html-keyboard-response","9","90386","0.0-5.0-1.1","6108566c73124d23384f3e0a","bdp_wmem","Wed Jul 27 2022 12:02:52 GMT-0500 (Central Daylight Time)","605227","Match,No Match","","null","","","","","","<div class='trialBorder'><div class='vertical-center'><img src='img/fixation2_sml.jpg'</img></div></div>","null","FIX","","","","","","","","","","",""
"html-keyboard-response","10","94891","0.0-5.0-2.1","6108566c73124d23384f3e0a","bdp_wmem","Wed Jul 27 2022 12:02:52 GMT-0500 (Central Daylight Time)","605227","Match,No Match","","null","","","","","","<div class='trialBorder'><div class='vertical-center'><img style='vertical-align:center; align:center' src='img/fixation2_sml.jpg'></div><div class='arrayDiv3'><div class='tl'><img class='introPic' src='trustrating_stim/white_mw078.bmp'><br><font color='red'><strong>Keep</strong></font></div><div class='tc'><img class='introPic' src='trustrating_stim/white_mw091.bmp'><br><font color='red'><strong>Keep</strong></font></div><div class='tr'><img class='introPic' src='trustrating_stim/white_mw085.bmp'><br><font color='green'><strong>Share</strong></font></div></div></div>","null","ARRAY","3","trustrating_stim/white_mw078.bmp,trustrating_stim/white_mw091.bmp,trustrating_stim/white_mw085.bmp","0,0,1","noMatchOutcome","i","4500","","","","",""
"html-keyboard-response","11","98896","0.0-5.0-3.1","6108566c73124d23384f3e0a","bdp_wmem","Wed Jul 27 2022 12:02:52 GMT-0500 (Central Daylight Time)","605227","Match,No Match","","null","","","","","","<div class='trialBorder'><div class='vertical-center'><img src='img/fixation2_sml.jpg'</img></div></div>","null","DELAY","","","","","","","","","","",""
"html-keyboard-response","12","101112","0.0-5.0-4.1","6108566c73124d23384f3e0a","bdp_wmem","Wed Jul 27 2022 12:02:52 GMT-0500 (Central Daylight Time)","605227","Match,No Match","","2211","","","","","","<div class='trialBorder'><div class='targDiv'><div class='tc'><img class='introPic' src='trustrating_stim/white_mw078.bmp'><br><font color='green'><strong>Share</strong></font></div></div><div class='respDiv'><div class='respDivL'>Match<br>(e)</div><div class='respDivR'>No Match<br>(i)</div></div></div>","i","TARGET","3","trustrating_stim/white_mw078.bmp,trustrating_stim/white_mw091.bmp,trustrating_stim/white_mw085.bmp","0,0,1","noMatchOutcome","i","4500","trustrating_stim/white_mw078.bmp","green","Share","PRACTICE","1"
"html-keyboard-response","13","101619","0.0-5.0-5.1","6108566c73124d23384f3e0a","bdp_wmem","Wed Jul 27 2022 12:02:52 GMT-0500 (Central Daylight Time)","605227","Match,No Match","","null","","","","","","<div class='trialBorder'><div class='vertical-center'><img src='img/correct.jpg'></div><div class='respDiv'><div class='respDivL'>Match<br>(e)</div><div class='respDivR'><font style='color:orange'>No Match<br>(i)</font></div></div></div>","null","FEEDBACK","","","","","","","","","","",""
"html-keyboard-response","14","102125","0.0-5.0-1.2","6108566c73124d23384f3e0a","bdp_wmem","Wed Jul 27 2022 12:02:52 GMT-0500 (Central Daylight Time)","605227","Match,No Match","","null","","","","","","<div class='trialBorder'><div class='vertical-center'><img src='img/fixation2_sml.jpg'</img></div></div>","null","FIX","","","","","","","","","","",""
"html-keyboard-response","15","105137","0.0-5.0-2.2","6108566c73124d23384f3e0a","bdp_wmem","Wed Jul 27 2022 12:02:52 GMT-0500 (Central Daylight Time)","605227","Match,No Match","","null","","","","","","<div class='trialBorder'><div class='vertical-center'><img style='vertical-align:center; align:center' src='img/fixation2_sml.jpg'></div><div class='arrayDiv2'><div class='tl'><img class='introPic' src='trustrating_stim/white_mw038.bmp'><br><font color='red'><strong>Keep</strong></font></div><div class='tr'><img class='introPic' src='trustrating_stim/white_mw010.bmp'><br><font color='green'><strong>Share</strong></font></div></div></div>","null","ARRAY","2","trustrating_stim/white_mw038.bmp,trustrating_stim/white_mw010.bmp","0,1","Match","e","3000","","","","",""
"html-keyboard-response","16","109144","0.0-5.0-3.2","6108566c73124d23384f3e0a","bdp_wmem","Wed Jul 27 2022 12:02:52 GMT-0500 (Central Daylight Time)","605227","Match,No Match","","null","","","","","","<div class='trialBorder'><div class='vertical-center'><img src='img/fixation2_sml.jpg'</img></div></div>","null","DELAY","","","","","","","","","","",""
"html-keyboard-response","17","110805","0.0-5.0-4.2","6108566c73124d23384f3e0a","bdp_wmem","Wed Jul 27 2022 12:02:52 GMT-0500 (Central Daylight Time)","605227","Match,No Match","","1657","","","","","","<div class='trialBorder'><div class='targDiv'><div class='tc'><img class='introPic' src='trustrating_stim/white_mw038.bmp'><br><font color='red'><strong>Keep</strong></font></div></div><div class='respDiv'><div class='respDivL'>Match<br>(e)</div><div class='respDivR'>No Match<br>(i)</div></div></div>","e","TARGET","2","trustrating_stim/white_mw038.bmp,trustrating_stim/white_mw010.bmp","0,1","Match","e","3000","trustrating_stim/white_mw038.bmp","red","Keep","PRACTICE","1"
"html-keyboard-response","18","111312","0.0-5.0-5.2","6108566c73124d23384f3e0a","bdp_wmem","Wed Jul 27 2022 12:02:52 GMT-0500 (Central Daylight Time)","605227","Match,No Match","","null","","","","","","<div class='trialBorder'><div class='vertical-center'><img src='img/correct.jpg'></div><div class='respDiv'><div class='respDivL'><font style='color:orange'>Match<br>(e)</font></div><div class='respDivR'>No Match<br>(i)</div></div></div>","null","FEEDBACK","","","","","","","","","","",""
"html-keyboard-response","19","111816","0.0-5.0-1.3","6108566c73124d23384f3e0a","bdp_wmem","Wed Jul 27 2022 12:02:52 GMT-0500 (Central Daylight Time)","605227","Match,No Match","","null","","","","","","<div class='trialBorder'><div class='vertical-center'><img src='img/fixation2_sml.jpg'</img></div></div>","null","FIX","","","","","","","","","","",""
"html-keyboard-response","20","113324","0.0-5.0-2.3","6108566c73124d23384f3e0a","bdp_wmem","Wed Jul 27 2022 12:02:52 GMT-0500 (Central Daylight Time)","605227","Match,No Match","","null","","","","","","<div class='trialBorder'><div class='vertical-center'><img style='vertical-align:center; align:center' src='img/fixation2_sml.jpg'></div><div class='arrayDiv1'><div class='tc'><img class='introPic' src='trustrating_stim/white_mw010.bmp'><br><font color='green'><strong>Share</strong></font></div></div></div>","null","ARRAY","1","trustrating_stim/white_mw010.bmp","1","Match","e","1500","","","","",""
"html-keyboard-response","21","117333","0.0-5.0-3.3","6108566c73124d23384f3e0a","bdp_wmem","Wed Jul 27 2022 12:02:52 GMT-0500 (Central Daylight Time)","605227","Match,No Match","","null","","","","","","<div class='trialBorder'><div class='vertical-center'><img src='img/fixation2_sml.jpg'</img></div></div>","null","DELAY","","","","","","","","","","",""
"html-keyboard-response","22","118014","0.0-5.0-4.3","6108566c73124d23384f3e0a","bdp_wmem","Wed Jul 27 2022 12:02:52 GMT-0500 (Central Daylight Time)","605227","Match,No Match","","678","","","","","","<div class='trialBorder'><div class='targDiv'><div class='tc'><img class='introPic' src='trustrating_stim/white_mw010.bmp'><br><font color='green'><strong>Share</strong></font></div></div><div class='respDiv'><div class='respDivL'>Match<br>(e)</div><div class='respDivR'>No Match<br>(i)</div></div></div>","e","TARGET","1","trustrating_stim/white_mw010.bmp","1","Match","e","1500","trustrating_stim/white_mw010.bmp","green","Share","PRACTICE","1"
"html-keyboard-response","23","118523","0.0-5.0-5.3","6108566c73124d23384f3e0a","bdp_wmem","Wed Jul 27 2022 12:02:52 GMT-0500 (Central Daylight Time)","605227","Match,No Match","","null","","","","","","<div class='trialBorder'><div class='vertical-center'><img src='img/correct.jpg'></div><div class='respDiv'><div class='respDivL'><font style='color:orange'>Match<br>(e)</font></div><div class='respDivR'>No Match<br>(i)</div></div></div>","null","FEEDBACK","","","","","","","","","","",""
"html-keyboard-response","24","119031","0.0-5.0-1.4","6108566c73124d23384f3e0a","bdp_wmem","Wed Jul 27 2022 12:02:52 GMT-0500 (Central Daylight Time)","605227","Match,No Match","","null","","","","","","<div class='trialBorder'><div class='vertical-center'><img src='img/fixation2_sml.jpg'</img></div></div>","null","FIX","","","","","","","","","","",""
"html-keyboard-response","25","122042","0.0-5.0-2.4","6108566c73124d23384f3e0a","bdp_wmem","Wed Jul 27 2022 12:02:52 GMT-0500 (Central Daylight Time)","605227","Match,No Match","","null","","","","","","<div class='trialBorder'><div class='vertical-center'><img style='vertical-align:center; align:center' src='img/fixation2_sml.jpg'></div><div class='arrayDiv2'><div class='tl'><img class='introPic' src='trustrating_stim/white_mw012.bmp'><br><font color='red'><strong>Keep</strong></font></div><div class='tr'><img class='introPic' src='trustrating_stim/white_mw003.bmp'><br><font color='green'><strong>Share</strong></font></div></div></div>","null","ARRAY","2","trustrating_stim/white_mw012.bmp,trustrating_stim/white_mw003.bmp","0,1","noMatchOutcome","i","3000","","","","",""
"html-keyboard-response","26","126054","0.0-5.0-3.4","6108566c73124d23384f3e0a","bdp_wmem","Wed Jul 27 2022 12:02:52 GMT-0500 (Central Daylight Time)","605227","Match,No Match","","null","","","","","","<div class='trialBorder'><div class='vertical-center'><img src='img/fixation2_sml.jpg'</img></div></div>","null","DELAY","","","","","","","","","","",""
"html-keyboard-response","27","127226","0.0-5.0-4.4","6108566c73124d23384f3e0a","bdp_wmem","Wed Jul 27 2022 12:02:52 GMT-0500 (Central Daylight Time)","605227","Match,No Match","","1167","","","","","","<div class='trialBorder'><div class='targDiv'><div class='tc'><img class='introPic' src='trustrating_stim/white_mw012.bmp'><br><font color='green'><strong>Share</strong></font></div></div><div class='respDiv'><div class='respDivL'>Match<br>(e)</div><div class='respDivR'>No Match<br>(i)</div></div></div>","i","TARGET","2","trustrating_stim/white_mw012.bmp,trustrating_stim/white_mw003.bmp","0,1","noMatchOutcome","i","3000","trustrating_stim/white_mw012.bmp","green","Share","PRACTICE","1"
"html-keyboard-response","28","127732","0.0-5.0-5.4","6108566c73124d23384f3e0a","bdp_wmem","Wed Jul 27 2022 12:02:52 GMT-0500 (Central Daylight Time)","605227","Match,No Match","","null","","","","","","<div class='trialBorder'><div class='vertical-center'><img src='img/correct.jpg'></div><div class='respDiv'><div class='respDivL'>Match<br>(e)</div><div class='respDivR'><font style='color:orange'>No Match<br>(i)</font></div></div></div>","null","FEEDBACK","","","","","","","","","","",""
"html-keyboard-response","29","128237","0.0-5.0-1.5","6108566c73124d23384f3e0a","bdp_wmem","Wed Jul 27 2022 12:02:52 GMT-0500 (Central Daylight Time)","605227","Match,No Match","","null","","","","","","<div class='trialBorder'><div class='vertical-center'><img src='img/fixation2_sml.jpg'</img></div></div>","null","FIX","","","","","","","","","","",""
"html-keyboard-response","30","129744","0.0-5.0-2.5","6108566c73124d23384f3e0a","bdp_wmem","Wed Jul 27 2022 12:02:52 GMT-0500 (Central Daylight Time)","605227","Match,No Match","","null","","","","","","<div class='trialBorder'><div class='vertical-center'><img style='vertical-align:center; align:center' src='img/fixation2_sml.jpg'></div><div class='arrayDiv1'><div class='tc'><img class='introPic' src='trustrating_stim/white_mw070.bmp'><br><font color='red'><strong>Keep</strong></font></div></div></div>","null","ARRAY","1","trustrating_stim/white_mw070.bmp","0","noMatchFace","i","1500","","","","",""
"html-keyboard-response","31","133751","0.0-5.0-3.5","6108566c73124d23384f3e0a","bdp_wmem","Wed Jul 27 2022 12:02:52 GMT-0500 (Central Daylight Time)","605227","Match,No Match","","null","","","","","","<div class='trialBorder'><div class='vertical-center'><img src='img/fixation2_sml.jpg'</img></div></div>","null","DELAY","","","","","","","","","","",""
"html-keyboard-response","32","134946","0.0-5.0-4.5","6108566c73124d23384f3e0a","bdp_wmem","Wed Jul 27 2022 12:02:52 GMT-0500 (Central Daylight Time)","605227","Match,No Match","","1191","","","","","","<div class='trialBorder'><div class='targDiv'><div class='tc'><img class='introPic' src='trustrating_stim/white_mw012.bmp'><br><font color='red'><strong>Keep</strong></font></div></div><div class='respDiv'><div class='respDivL'>Match<br>(e)</div><div class='respDivR'>No Match<br>(i)</div></div></div>","e","TARGET","1","trustrating_stim/white_mw070.bmp","0","noMatchFace","i","1500","trustrating_stim/white_mw012.bmp","red","Keep","PRACTICE","0"
"html-keyboard-response","33","135452","0.0-5.0-5.5","6108566c73124d23384f3e0a","bdp_wmem","Wed Jul 27 2022 12:02:52 GMT-0500 (Central Daylight Time)","605227","Match,No Match","","null","","","","","","<div class='trialBorder'><div class='vertical-center'><img src='img/error.jpg'></div><div class='respDiv'><div class='respDivL'><font style='color:orange'>Match<br>(e)</font></div><div class='respDivR'>No Match<br>(i)</div></div></div>","null","FEEDBACK","","","","","","","","","","",""
"instructions","34","139936","0.0-6.0","6108566c73124d23384f3e0a","bdp_wmem","Wed Jul 27 2022 12:02:52 GMT-0500 (Central Daylight Time)","605227","Match,No Match","[{""page_index"":0,""viewing_time"":4482}]","4483","","","","","","","","","","","","","","","","","","",""
"html-keyboard-response","35","140446","0.0-7.0-1.0","6108566c73124d23384f3e0a","bdp_wmem","Wed Jul 27 2022 12:02:52 GMT-0500 (Central Daylight Time)","605227","Match,No Match","","null","","","","","","<div class='trialBorder'><div class='vertical-center'><img src='img/fixation2_sml.jpg'</img></div></div>","null","FIX","","","","","","","","","","",""
"html-keyboard-response","36","144960","0.0-7.0-2.0","6108566c73124d23384f3e0a","bdp_wmem","Wed Jul 27 2022 12:02:52 GMT-0500 (Central Daylight Time)","605227","Match,No Match","","null","","","","","","<div class='trialBorder'><div class='vertical-center'><img style='vertical-align:center; align:center' src='img/fixation2_sml.jpg'></div><div class='arrayDiv3'><div class='tl'><img class='introPic' src='trustrating_stim/white_mw070.bmp'><br><font color='green'><strong>Share</strong></font></div><div class='tc'><img class='introPic' src='trustrating_stim/white_mw091.bmp'><br><font color='green'><strong>Share</strong></font></div><div class='tr'><img class='introPic' src='trustrating_stim/white_mw085.bmp'><br><font color='red'><strong>Keep</strong></font></div></div></div>","null","ARRAY","3","trustrating_stim/white_mw070.bmp,trustrating_stim/white_mw091.bmp,trustrating_stim/white_mw085.bmp","1,1,0","noMatchFace","i","4500","","","","",""
"html-keyboard-response","37","148966","0.0-7.0-3.0","6108566c73124d23384f3e0a","bdp_wmem","Wed Jul 27 2022 12:02:52 GMT-0500 (Central Daylight Time)","605227","Match,No Match","","null","","","","","","<div class='trialBorder'><div class='vertical-center'><img src='img/fixation2_sml.jpg'</img></div></div>","null","DELAY","","","","","","","","","","",""
"html-keyboard-response","38","150653","0.0-7.0-4.0","6108566c73124d23384f3e0a","bdp_wmem","Wed Jul 27 2022 12:02:52 GMT-0500 (Central Daylight Time)","605227","Match,No Match","","1684","","","","","","<div class='trialBorder'><div class='targDiv'><div class='tc'><img class='introPic' src='trustrating_stim/white_mw010.bmp'><br><font color='red'><strong>Keep</strong></font></div></div><div class='respDiv'><div class='respDivL'>Match<br>(e)</div><div class='respDivR'>No Match<br>(i)</div></div></div>","i","TARGET","3","trustrating_stim/white_mw070.bmp,trustrating_stim/white_mw091.bmp,trustrating_stim/white_mw085.bmp","1,1,0","noMatchFace","i","4500","trustrating_stim/white_mw010.bmp","red","Keep","REAL","1"
"html-keyboard-response","39","151157","0.0-7.0-5.0","6108566c73124d23384f3e0a","bdp_wmem","Wed Jul 27 2022 12:02:52 GMT-0500 (Central Daylight Time)","605227","Match,No Match","","null","","","","","","<div class='trialBorder'><div class='vertical-center'><img src='img/correct.jpg'></div><div class='respDiv'><div class='respDivL'>Match<br>(e)</div><div class='respDivR'><font style='color:orange'>No Match<br>(i)</font></div></div></div>","null","FEEDBACK","","","","","","","","","","",""
"html-keyboard-response","40","151662","0.0-7.0-1.1","6108566c73124d23384f3e0a","bdp_wmem","Wed Jul 27 2022 12:02:52 GMT-0500 (Central Daylight Time)","605227","Match,No Match","","null","","","","","","<div class='trialBorder'><div class='vertical-center'><img src='img/fixation2_sml.jpg'</img></div></div>","null","FIX","","","","","","","","","","",""
"html-keyboard-response","41","153165","0.0-7.0-2.1","6108566c73124d23384f3e0a","bdp_wmem","Wed Jul 27 2022 12:02:52 GMT-0500 (Central Daylight Time)","605227","Match,No Match","","null","","","","","","<div class='trialBorder'><div class='vertical-center'><img style='vertical-align:center; align:center' src='img/fixation2_sml.jpg'></div><div class='arrayDiv1'><div class='tc'><img class='introPic' src='trustrating_stim/white_mw013.bmp'><br><font color='green'><strong>Share</strong></font></div></div></div>","null","ARRAY","1","trustrating_stim/white_mw013.bmp","1","noMatchFace","i","1500","","","","",""
"html-keyboard-response","42","157174","0.0-7.0-3.1","6108566c73124d23384f3e0a","bdp_wmem","Wed Jul 27 2022 12:02:52 GMT-0500 (Central Daylight Time)","605227","Match,No Match","","null","","","","","","<div class='trialBorder'><div class='vertical-center'><img src='img/fixation2_sml.jpg'</img></div></div>","null","DELAY","","","","","","","","","","",""
"html-keyboard-response","43","158476","0.0-7.0-4.1","6108566c73124d23384f3e0a","bdp_wmem","Wed Jul 27 2022 12:02:52 GMT-0500 (Central Daylight Time)","605227","Match,No Match","","1298","","","","","","<div class='trialBorder'><div class='targDiv'><div class='tc'><img class='introPic' src='trustrating_stim/white_mw092.bmp'><br><font color='green'><strong>Share</strong></font></div></div><div class='respDiv'><div class='respDivL'>Match<br>(e)</div><div class='respDivR'>No Match<br>(i)</div></div></div>","i","TARGET","1","trustrating_stim/white_mw013.bmp","1","noMatchFace","i","1500","trustrating_stim/white_mw092.bmp","green","Share","REAL","1"
"html-keyboard-response","44","158983","0.0-7.0-5.1","6108566c73124d23384f3e0a","bdp_wmem","Wed Jul 27 2022 12:02:52 GMT-0500 (Central Daylight Time)","605227","Match,No Match","","null","","","","","","<div class='trialBorder'><div class='vertical-center'><img src='img/correct.jpg'></div><div class='respDiv'><div class='respDivL'>Match<br>(e)</div><div class='respDivR'><font style='color:orange'>No Match<br>(i)</font></div></div></div>","null","FEEDBACK","","","","","","","","","","",""
"html-keyboard-response","45","159492","0.0-7.0-1.2","6108566c73124d23384f3e0a","bdp_wmem","Wed Jul 27 2022 12:02:52 GMT-0500 (Central Daylight Time)","605227","Match,No Match","","null","","","","","","<div class='trialBorder'><div class='vertical-center'><img src='img/fixation2_sml.jpg'</img></div></div>","null","FIX","","","","","","","","","","",""
"html-keyboard-response","46","161001","0.0-7.0-2.2","6108566c73124d23384f3e0a","bdp_wmem","Wed Jul 27 2022 12:02:52 GMT-0500 (Central Daylight Time)","605227","Match,No Match","","null","","","","","","<div class='trialBorder'><div class='vertical-center'><img style='vertical-align:center; align:center' src='img/fixation2_sml.jpg'></div><div class='arrayDiv1'><div class='tc'><img class='introPic' src='trustrating_stim/white_mw013.bmp'><br><font color='red'><strong>Keep</strong></font></div></div></div>","null","ARRAY","1","trustrating_stim/white_mw013.bmp","0","noMatchOutcome","i","1500","","","","",""
"html-keyboard-response","47","165006","0.0-7.0-3.2","6108566c73124d23384f3e0a","bdp_wmem","Wed Jul 27 2022 12:02:52 GMT-0500 (Central Daylight Time)","605227","Match,No Match","","null","","","","","","<div class='trialBorder'><div class='vertical-center'><img src='img/fixation2_sml.jpg'</img></div></div>","null","DELAY","","","","","","","","","","",""
"html-keyboard-response","48","167590","0.0-7.0-4.2","6108566c73124d23384f3e0a","bdp_wmem","Wed Jul 27 2022 12:02:52 GMT-0500 (Central Daylight Time)","605227","Match,No Match","","2581","","","","","","<div class='trialBorder'><div class='targDiv'><div class='tc'><img class='introPic' src='trustrating_stim/white_mw013.bmp'><br><font color='green'><strong>Share</strong></font></div></div><div class='respDiv'><div class='respDivL'>Match<br>(e)</div><div class='respDivR'>No Match<br>(i)</div></div></div>","e","TARGET","1","trustrating_stim/white_mw013.bmp","0","noMatchOutcome","i","1500","trustrating_stim/white_mw013.bmp","green","Share","REAL","0"
"html-keyboard-response","49","168094","0.0-7.0-5.2","6108566c73124d23384f3e0a","bdp_wmem","Wed Jul 27 2022 12:02:52 GMT-0500 (Central Daylight Time)","605227","Match,No Match","","null","","","","","","<div class='trialBorder'><div class='vertical-center'><img src='img/error.jpg'></div><div class='respDiv'><div class='respDivL'><font style='color:orange'>Match<br>(e)</font></div><div class='respDivR'>No Match<br>(i)</div></div></div>","null","FEEDBACK","","","","","","","","","","",""
"html-keyboard-response","50","168600","0.0-7.0-1.3","6108566c73124d23384f3e0a","bdp_wmem","Wed Jul 27 2022 12:02:52 GMT-0500 (Central Daylight Time)","605227","Match,No Match","","null","","","","","","<div class='trialBorder'><div class='vertical-center'><img src='img/fixation2_sml.jpg'</img></div></div>","null","FIX","","","","","","","","","","",""
"html-keyboard-response","51","170106","0.0-7.0-2.3","6108566c73124d23384f3e0a","bdp_wmem","Wed Jul 27 2022 12:02:52 GMT-0500 (Central Daylight Time)","605227","Match,No Match","","null","","","","","","<div class='trialBorder'><div class='vertical-center'><img style='vertical-align:center; align:center' src='img/fixation2_sml.jpg'></div><div class='arrayDiv1'><div class='tc'><img class='introPic' src='trustrating_stim/white_mw013.bmp'><br><font color='red'><strong>Keep</strong></font></div></div></div>","null","ARRAY","1","trustrating_stim/white_mw013.bmp","0","Match","e","1500","","","","",""
"html-keyboard-response","52","174113","0.0-7.0-3.3","6108566c73124d23384f3e0a","bdp_wmem","Wed Jul 27 2022 12:02:52 GMT-0500 (Central Daylight Time)","605227","Match,No Match","","null","","","","","","<div class='trialBorder'><div class='vertical-center'><img src='img/fixation2_sml.jpg'</img></div></div>","null","DELAY","","","","","","","","","","",""
"html-keyboard-response","53","175448","0.0-7.0-4.3","6108566c73124d23384f3e0a","bdp_wmem","Wed Jul 27 2022 12:02:52 GMT-0500 (Central Daylight Time)","605227","Match,No Match","","1332","","","","","","<div class='trialBorder'><div class='targDiv'><div class='tc'><img class='introPic' src='trustrating_stim/white_mw013.bmp'><br><font color='red'><strong>Keep</strong></font></div></div><div class='respDiv'><div class='respDivL'>Match<br>(e)</div><div class='respDivR'>No Match<br>(i)</div></div></div>","e","TARGET","1","trustrating_stim/white_mw013.bmp","0","Match","e","1500","trustrating_stim/white_mw013.bmp","red","Keep","REAL","1"
"html-keyboard-response","54","175953","0.0-7.0-5.3","6108566c73124d23384f3e0a","bdp_wmem","Wed Jul 27 2022 12:02:52 GMT-0500 (Central Daylight Time)","605227","Match,No Match","","null","","","","","","<div class='trialBorder'><div class='vertical-center'><img src='img/correct.jpg'></div><div class='respDiv'><div class='respDivL'><font style='color:orange'>Match<br>(e)</font></div><div class='respDivR'>No Match<br>(i)</div></div></div>","null","FEEDBACK","","","","","","","","","","",""
"html-keyboard-response","55","176462","0.0-7.0-1.4","6108566c73124d23384f3e0a","bdp_wmem","Wed Jul 27 2022 12:02:52 GMT-0500 (Central Daylight Time)","605227","Match,No Match","","null","","","","","","<div class='trialBorder'><div class='vertical-center'><img src='img/fixation2_sml.jpg'</img></div></div>","null","FIX","","","","","","","","","","",""
"html-keyboard-response","56","179471","0.0-7.0-2.4","6108566c73124d23384f3e0a","bdp_wmem","Wed Jul 27 2022 12:02:52 GMT-0500 (Central Daylight Time)","605227","Match,No Match","","null","","","","","","<div class='trialBorder'><div class='vertical-center'><img style='vertical-align:center; align:center' src='img/fixation2_sml.jpg'></div><div class='arrayDiv2'><div class='tl'><img class='introPic' src='trustrating_stim/white_mw038.bmp'><br><font color='green'><strong>Share</strong></font></div><div class='tr'><img class='introPic' src='trustrating_stim/white_mw010.bmp'><br><font color='red'><strong>Keep</strong></font></div></div></div>","null","ARRAY","2","trustrating_stim/white_mw038.bmp,trustrating_stim/white_mw010.bmp","1,0","Match","e","3000","","","","",""
"html-keyboard-response","57","183475","0.0-7.0-3.4","6108566c73124d23384f3e0a","bdp_wmem","Wed Jul 27 2022 12:02:52 GMT-0500 (Central Daylight Time)","605227","Match,No Match","","null","","","","","","<div class='trialBorder'><div class='vertical-center'><img src='img/fixation2_sml.jpg'</img></div></div>","null","DELAY","","","","","","","","","","",""
"html-keyboard-response","58","184639","0.0-7.0-4.4","6108566c73124d23384f3e0a","bdp_wmem","Wed Jul 27 2022 12:02:52 GMT-0500 (Central Daylight Time)","605227","Match,No Match","","1160","","","","","","<div class='trialBorder'><div class='targDiv'><div class='tc'><img class='introPic' src='trustrating_stim/white_mw038.bmp'><br><font color='green'><strong>Share</strong></font></div></div><div class='respDiv'><div class='respDivL'>Match<br>(e)</div><div class='respDivR'>No Match<br>(i)</div></div></div>","e","TARGET","2","trustrating_stim/white_mw038.bmp,trustrating_stim/white_mw010.bmp","1,0","Match","e","3000","trustrating_stim/white_mw038.bmp","green","Share","REAL","1"
"html-keyboard-response","59","185147","0.0-7.0-5.4","6108566c73124d23384f3e0a","bdp_wmem","Wed Jul 27 2022 12:02:52 GMT-0500 (Central Daylight Time)","605227","Match,No Match","","null","","","","","","<div class='trialBorder'><div class='vertical-center'><img src='img/correct.jpg'></div><div class='respDiv'><div class='respDivL'><font style='color:orange'>Match<br>(e)</font></div><div class='respDivR'>No Match<br>(i)</div></div></div>","null","FEEDBACK","","","","","","","","","","",""
"html-keyboard-response","60","185663","0.0-7.0-1.5","6108566c73124d23384f3e0a","bdp_wmem","Wed Jul 27 2022 12:02:52 GMT-0500 (Central Daylight Time)","605227","Match,No Match","","null","","","","","","<div class='trialBorder'><div class='vertical-center'><img src='img/fixation2_sml.jpg'</img></div></div>","null","FIX","","","","","","","","","","",""
"html-keyboard-response","61","190174","0.0-7.0-2.5","6108566c73124d23384f3e0a","bdp_wmem","Wed Jul 27 2022 12:02:52 GMT-0500 (Central Daylight Time)","605227","Match,No Match","","null","","","","","","<div class='trialBorder'><div class='vertical-center'><img style='vertical-align:center; align:center' src='img/fixation2_sml.jpg'></div><div class='arrayDiv3'><div class='tl'><img class='introPic' src='trustrating_stim/white_mw070.bmp'><br><font color='green'><strong>Share</strong></font></div><div class='tc'><img class='introPic' src='trustrating_stim/white_mw013.bmp'><br><font color='red'><strong>Keep</strong></font></div><div class='tr'><img class='introPic' src='trustrating_stim/white_mw091.bmp'><br><font color='red'><strong>Keep</strong></font></div></div></div>","null","ARRAY","3","trustrating_stim/white_mw070.bmp,trustrating_stim/white_mw013.bmp,trustrating_stim/white_mw091.bmp","1,0,0","Match","e","4500","","","","",""
"html-keyboard-response","62","194178","0.0-7.0-3.5","6108566c73124d23384f3e0a","bdp_wmem","Wed Jul 27 2022 12:02:52 GMT-0500 (Central Daylight Time)","605227","Match,No Match","","null","","","","","","<div class='trialBorder'><div class='vertical-center'><img src='img/fixation2_sml.jpg'</img></div></div>","null","DELAY","","","","","","","","","","",""
"html-keyboard-response","63","195235","0.0-7.0-4.5","6108566c73124d23384f3e0a","bdp_wmem","Wed Jul 27 2022 12:02:52 GMT-0500 (Central Daylight Time)","605227","Match,No Match","","1053","","","","","","<div class='trialBorder'><div class='targDiv'><div class='tc'><img class='introPic' src='trustrating_stim/white_mw091.bmp'><br><font color='red'><strong>Keep</strong></font></div></div><div class='respDiv'><div class='respDivL'>Match<br>(e)</div><div class='respDivR'>No Match<br>(i)</div></div></div>","e","TARGET","3","trustrating_stim/white_mw070.bmp,trustrating_stim/white_mw013.bmp,trustrating_stim/white_mw091.bmp","1,0,0","Match","e","4500","trustrating_stim/white_mw091.bmp","red","Keep","REAL","1"
"html-keyboard-response","64","195746","0.0-7.0-5.5","6108566c73124d23384f3e0a","bdp_wmem","Wed Jul 27 2022 12:02:52 GMT-0500 (Central Daylight Time)","605227","Match,No Match","","null","","","","","","<div class='trialBorder'><div class='vertical-center'><img src='img/correct.jpg'></div><div class='respDiv'><div class='respDivL'><font style='color:orange'>Match<br>(e)</font></div><div class='respDivR'>No Match<br>(i)</div></div></div>","null","FEEDBACK","","","","","","","","","","",""
"html-keyboard-response","65","196256","0.0-7.0-1.6","6108566c73124d23384f3e0a","bdp_wmem","Wed Jul 27 2022 12:02:52 GMT-0500 (Central Daylight Time)","605227","Match,No Match","","null","","","","","","<div class='trialBorder'><div class='vertical-center'><img src='img/fixation2_sml.jpg'</img></div></div>","null","FIX","","","","","","","","","","",""
"html-keyboard-response","66","200771","0.0-7.0-2.6","6108566c73124d23384f3e0a","bdp_wmem","Wed Jul 27 2022 12:02:52 GMT-0500 (Central Daylight Time)","605227","Match,No Match","","null","","","","","","<div class='trialBorder'><div class='vertical-center'><img style='vertical-align:center; align:center' src='img/fixation2_sml.jpg'></div><div class='arrayDiv3'><div class='tl'><img class='introPic' src='trustrating_stim/white_mw070.bmp'><br><font color='green'><strong>Share</strong></font></div><div class='tc'><img class='introPic' src='trustrating_stim/white_mw038.bmp'><br><font color='red'><strong>Keep</strong></font></div><div class='tr'><img class='introPic' src='trustrating_stim/white_mw078.bmp'><br><font color='green'><strong>Share</strong></font></div></div></div>","null","ARRAY","3","trustrating_stim/white_mw070.bmp,trustrating_stim/white_mw038.bmp,trustrating_stim/white_mw078.bmp","1,0,1","noMatchOutcome","i","4500","","","","",""
"html-keyboard-response","67","204780","0.0-7.0-3.6","6108566c73124d23384f3e0a","bdp_wmem","Wed Jul 27 2022 12:02:52 GMT-0500 (Central Daylight Time)","605227","Match,No Match","","null","","","","","","<div class='trialBorder'><div class='vertical-center'><img src='img/fixation2_sml.jpg'</img></div></div>","null","DELAY","","","","","","","","","","",""
"html-keyboard-response","68","205975","0.0-7.0-4.6","6108566c73124d23384f3e0a","bdp_wmem","Wed Jul 27 2022 12:02:52 GMT-0500 (Central Daylight Time)","605227","Match,No Match","","1190","","","","","","<div class='trialBorder'><div class='targDiv'><div class='tc'><img class='introPic' src='trustrating_stim/white_mw038.bmp'><br><font color='green'><strong>Share</strong></font></div></div><div class='respDiv'><div class='respDivL'>Match<br>(e)</div><div class='respDivR'>No Match<br>(i)</div></div></div>","i","TARGET","3","trustrating_stim/white_mw070.bmp,trustrating_stim/white_mw038.bmp,trustrating_stim/white_mw078.bmp","1,0,1","noMatchOutcome","i","4500","trustrating_stim/white_mw038.bmp","green","Share","REAL","1"
"html-keyboard-response","69","206479","0.0-7.0-5.6","6108566c73124d23384f3e0a","bdp_wmem","Wed Jul 27 2022 12:02:52 GMT-0500 (Central Daylight Time)","605227","Match,No Match","","null","","","","","","<div class='trialBorder'><div class='vertical-center'><img src='img/correct.jpg'></div><div class='respDiv'><div class='respDivL'>Match<br>(e)</div><div class='respDivR'><font style='color:orange'>No Match<br>(i)</font></div></div></div>","null","FEEDBACK","","","","","","","","","","",""
"html-keyboard-response","70","206988","0.0-7.0-1.7","6108566c73124d23384f3e0a","bdp_wmem","Wed Jul 27 2022 12:02:52 GMT-0500 (Central Daylight Time)","605227","Match,No Match","","null","","","","","","<div class='trialBorder'><div class='vertical-center'><img src='img/fixation2_sml.jpg'</img></div></div>","null","FIX","","","","","","","","","","",""
"html-keyboard-response","71","209994","0.0-7.0-2.7","6108566c73124d23384f3e0a","bdp_wmem","Wed Jul 27 2022 12:02:52 GMT-0500 (Central Daylight Time)","605227","Match,No Match","","null","","","","","","<div class='trialBorder'><div class='vertical-center'><img style='vertical-align:center; align:center' src='img/fixation2_sml.jpg'></div><div class='arrayDiv2'><div class='tl'><img class='introPic' src='trustrating_stim/white_mw010.bmp'><br><font color='green'><strong>Share</strong></font></div><div class='tr'><img class='introPic' src='trustrating_stim/white_mw042.bmp'><br><font color='red'><strong>Keep</strong></font></div></div></div>","null","ARRAY","2","trustrating_stim/white_mw010.bmp,trustrating_stim/white_mw042.bmp","1,0","noMatchOutcome","i","3000","","","","",""
"html-keyboard-response","72","214004","0.0-7.0-3.7","6108566c73124d23384f3e0a","bdp_wmem","Wed Jul 27 2022 12:02:52 GMT-0500 (Central Daylight Time)","605227","Match,No Match","","null","","","","","","<div class='trialBorder'><div class='vertical-center'><img src='img/fixation2_sml.jpg'</img></div></div>","null","DELAY","","","","","","","","","","",""
"html-keyboard-response","73","215329","0.0-7.0-4.7","6108566c73124d23384f3e0a","bdp_wmem","Wed Jul 27 2022 12:02:52 GMT-0500 (Central Daylight Time)","605227","Match,No Match","","1322","","","","","","<div class='trialBorder'><div class='targDiv'><div class='tc'><img class='introPic' src='trustrating_stim/white_mw042.bmp'><br><font color='green'><strong>Share</strong></font></div></div><div class='respDiv'><div class='respDivL'>Match<br>(e)</div><div class='respDivR'>No Match<br>(i)</div></div></div>","i","TARGET","2","trustrating_stim/white_mw010.bmp,trustrating_stim/white_mw042.bmp","1,0","noMatchOutcome","i","3000","trustrating_stim/white_mw042.bmp","green","Share","REAL","1"
"html-keyboard-response","74","215837","0.0-7.0-5.7","6108566c73124d23384f3e0a","bdp_wmem","Wed Jul 27 2022 12:02:52 GMT-0500 (Central Daylight Time)","605227","Match,No Match","","null","","","","","","<div class='trialBorder'><div class='vertical-center'><img src='img/correct.jpg'></div><div class='respDiv'><div class='respDivL'>Match<br>(e)</div><div class='respDivR'><font style='color:orange'>No Match<br>(i)</font></div></div></div>","null","FEEDBACK","","","","","","","","","","",""
"html-keyboard-response","75","216348","0.0-7.0-1.8","6108566c73124d23384f3e0a","bdp_wmem","Wed Jul 27 2022 12:02:52 GMT-0500 (Central Daylight Time)","605227","Match,No Match","","null","","","","","","<div class='trialBorder'><div class='vertical-center'><img src='img/fixation2_sml.jpg'</img></div></div>","null","FIX","","","","","","","","","","",""
"html-keyboard-response","76","219356","0.0-7.0-2.8","6108566c73124d23384f3e0a","bdp_wmem","Wed Jul 27 2022 12:02:52 GMT-0500 (Central Daylight Time)","605227","Match,No Match","","null","","","","","","<div class='trialBorder'><div class='vertical-center'><img style='vertical-align:center; align:center' src='img/fixation2_sml.jpg'></div><div class='arrayDiv2'><div class='tl'><img class='introPic' src='trustrating_stim/white_mw092.bmp'><br><font color='green'><strong>Share</strong></font></div><div class='tr'><img class='introPic' src='trustrating_stim/white_mw040.bmp'><br><font color='red'><strong>Keep</strong></font></div></div></div>","null","ARRAY","2","trustrating_stim/white_mw092.bmp,trustrating_stim/white_mw040.bmp","1,0","Match","e","3000","","","","",""
"html-keyboard-response","77","223362","0.0-7.0-3.8","6108566c73124d23384f3e0a","bdp_wmem","Wed Jul 27 2022 12:02:52 GMT-0500 (Central Daylight Time)","605227","Match,No Match","","null","","","","","","<div class='trialBorder'><div class='vertical-center'><img src='img/fixation2_sml.jpg'</img></div></div>","null","DELAY","","","","","","","","","","",""
"html-keyboard-response","78","224805","0.0-7.0-4.8","6108566c73124d23384f3e0a","bdp_wmem","Wed Jul 27 2022 12:02:52 GMT-0500 (Central Daylight Time)","605227","Match,No Match","","1439","","","","","","<div class='trialBorder'><div class='targDiv'><div class='tc'><img class='introPic' src='trustrating_stim/white_mw092.bmp'><br><font color='green'><strong>Share</strong></font></div></div><div class='respDiv'><div class='respDivL'>Match<br>(e)</div><div class='respDivR'>No Match<br>(i)</div></div></div>","e","TARGET","2","trustrating_stim/white_mw092.bmp,trustrating_stim/white_mw040.bmp","1,0","Match","e","3000","trustrating_stim/white_mw092.bmp","green","Share","REAL","1"
"html-keyboard-response","79","225310","0.0-7.0-5.8","6108566c73124d23384f3e0a","bdp_wmem","Wed Jul 27 2022 12:02:52 GMT-0500 (Central Daylight Time)","605227","Match,No Match","","null","","","","","","<div class='trialBorder'><div class='vertical-center'><img src='img/correct.jpg'></div><div class='respDiv'><div class='respDivL'><font style='color:orange'>Match<br>(e)</font></div><div class='respDivR'>No Match<br>(i)</div></div></div>","null","FEEDBACK","","","","","","","","","","",""
"html-keyboard-response","80","225819","0.0-7.0-1.9","6108566c73124d23384f3e0a","bdp_wmem","Wed Jul 27 2022 12:02:52 GMT-0500 (Central Daylight Time)","605227","Match,No Match","","null","","","","","","<div class='trialBorder'><div class='vertical-center'><img src='img/fixation2_sml.jpg'</img></div></div>","null","FIX","","","","","","","","","","",""
"html-keyboard-response","81","228830","0.0-7.0-2.9","6108566c73124d23384f3e0a","bdp_wmem","Wed Jul 27 2022 12:02:52 GMT-0500 (Central Daylight Time)","605227","Match,No Match","","null","","","","","","<div class='trialBorder'><div class='vertical-center'><img style='vertical-align:center; align:center' src='img/fixation2_sml.jpg'></div><div class='arrayDiv2'><div class='tl'><img class='introPic' src='trustrating_stim/white_mw013.bmp'><br><font color='green'><strong>Share</strong></font></div><div class='tr'><img class='introPic' src='trustrating_stim/white_mw092.bmp'><br><font color='red'><strong>Keep</strong></font></div></div></div>","null","ARRAY","2","trustrating_stim/white_mw013.bmp,trustrating_stim/white_mw092.bmp","1,0","noMatchFace","i","3000","","","","",""
"html-keyboard-response","82","232838","0.0-7.0-3.9","6108566c73124d23384f3e0a","bdp_wmem","Wed Jul 27 2022 12:02:52 GMT-0500 (Central Daylight Time)","605227","Match,No Match","","null","","","","","","<div class='trialBorder'><div class='vertical-center'><img src='img/fixation2_sml.jpg'</img></div></div>","null","DELAY","","","","","","","","","","",""
"html-keyboard-response","83","235347","0.0-7.0-4.9","6108566c73124d23384f3e0a","bdp_wmem","Wed Jul 27 2022 12:02:52 GMT-0500 (Central Daylight Time)","605227","Match,No Match","","2505","","","","","","<div class='trialBorder'><div class='targDiv'><div class='tc'><img class='introPic' src='trustrating_stim/white_mw003.bmp'><br><font color='red'><strong>Keep</strong></font></div></div><div class='respDiv'><div class='respDivL'>Match<br>(e)</div><div class='respDivR'>No Match<br>(i)</div></div></div>","e","TARGET","2","trustrating_stim/white_mw013.bmp,trustrating_stim/white_mw092.bmp","1,0","noMatchFace","i","3000","trustrating_stim/white_mw003.bmp","red","Keep","REAL","0"
"html-keyboard-response","84","235857","0.0-7.0-5.9","6108566c73124d23384f3e0a","bdp_wmem","Wed Jul 27 2022 12:02:52 GMT-0500 (Central Daylight Time)","605227","Match,No Match","","null","","","","","","<div class='trialBorder'><div class='vertical-center'><img src='img/error.jpg'></div><div class='respDiv'><div class='respDivL'><font style='color:orange'>Match<br>(e)</font></div><div class='respDivR'>No Match<br>(i)</div></div></div>","null","FEEDBACK","","","","","","","","","","",""
"html-keyboard-response","85","236365","0.0-7.0-1.10","6108566c73124d23384f3e0a","bdp_wmem","Wed Jul 27 2022 12:02:52 GMT-0500 (Central Daylight Time)","605227","Match,No Match","","null","","","","","","<div class='trialBorder'><div class='vertical-center'><img src='img/fixation2_sml.jpg'</img></div></div>","null","FIX","","","","","","","","","","",""
"html-keyboard-response","86","240878","0.0-7.0-2.10","6108566c73124d23384f3e0a","bdp_wmem","Wed Jul 27 2022 12:02:52 GMT-0500 (Central Daylight Time)","605227","Match,No Match","","null","","","","","","<div class='trialBorder'><div class='vertical-center'><img style='vertical-align:center; align:center' src='img/fixation2_sml.jpg'></div><div class='arrayDiv3'><div class='tl'><img class='introPic' src='trustrating_stim/white_mw070.bmp'><br><font color='green'><strong>Share</strong></font></div><div class='tc'><img class='introPic' src='trustrating_stim/white_mw085.bmp'><br><font color='red'><strong>Keep</strong></font></div><div class='tr'><img class='introPic' src='trustrating_stim/white_mw010.bmp'><br><font color='green'><strong>Share</strong></font></div></div></div>","null","ARRAY","3","trustrating_stim/white_mw070.bmp,trustrating_stim/white_mw085.bmp,trustrating_stim/white_mw010.bmp","1,0,1","noMatchOutcome","i","4500","","","","",""
"html-keyboard-response","87","244881","0.0-7.0-3.10","6108566c73124d23384f3e0a","bdp_wmem","Wed Jul 27 2022 12:02:52 GMT-0500 (Central Daylight Time)","605227","Match,No Match","","null","","","","","","<div class='trialBorder'><div class='vertical-center'><img src='img/fixation2_sml.jpg'</img></div></div>","null","DELAY","","","","","","","","","","",""
"html-keyboard-response","88","247854","0.0-7.0-4.10","6108566c73124d23384f3e0a","bdp_wmem","Wed Jul 27 2022 12:02:52 GMT-0500 (Central Daylight Time)","605227","Match,No Match","","2969","","","","","","<div class='trialBorder'><div class='targDiv'><div class='tc'><img class='introPic' src='trustrating_stim/white_mw070.bmp'><br><font color='red'><strong>Keep</strong></font></div></div><div class='respDiv'><div class='respDivL'>Match<br>(e)</div><div class='respDivR'>No Match<br>(i)</div></div></div>","e","TARGET","3","trustrating_stim/white_mw070.bmp,trustrating_stim/white_mw085.bmp,trustrating_stim/white_mw010.bmp","1,0,1","noMatchOutcome","i","4500","trustrating_stim/white_mw070.bmp","red","Keep","REAL","0"
"html-keyboard-response","89","248358","0.0-7.0-5.10","6108566c73124d23384f3e0a","bdp_wmem","Wed Jul 27 2022 12:02:52 GMT-0500 (Central Daylight Time)","605227","Match,No Match","","null","","","","","","<div class='trialBorder'><div class='vertical-center'><img src='img/error.jpg'></div><div class='respDiv'><div class='respDivL'><font style='color:orange'>Match<br>(e)</font></div><div class='respDivR'>No Match<br>(i)</div></div></div>","null","FEEDBACK","","","","","","","","","","",""
"html-keyboard-response","90","248863","0.0-7.0-1.11","6108566c73124d23384f3e0a","bdp_wmem","Wed Jul 27 2022 12:02:52 GMT-0500 (Central Daylight Time)","605227","Match,No Match","","null","","","","","","<div class='trialBorder'><div class='vertical-center'><img src='img/fixation2_sml.jpg'</img></div></div>","null","FIX","","","","","","","","","","",""
"html-keyboard-response","91","253369","0.0-7.0-2.11","6108566c73124d23384f3e0a","bdp_wmem","Wed Jul 27 2022 12:02:52 GMT-0500 (Central Daylight Time)","605227","Match,No Match","","null","","","","","","<div class='trialBorder'><div class='vertical-center'><img style='vertical-align:center; align:center' src='img/fixation2_sml.jpg'></div><div class='arrayDiv3'><div class='tl'><img class='introPic' src='trustrating_stim/white_mw012.bmp'><br><font color='green'><strong>Share</strong></font></div><div class='tc'><img class='introPic' src='trustrating_stim/white_mw038.bmp'><br><font color='red'><strong>Keep</strong></font></div><div class='tr'><img class='introPic' src='trustrating_stim/white_mw085.bmp'><br><font color='green'><strong>Share</strong></font></div></div></div>","null","ARRAY","3","trustrating_stim/white_mw012.bmp,trustrating_stim/white_mw038.bmp,trustrating_stim/white_mw085.bmp","1,0,1","Match","e","4500","","","","",""
"html-keyboard-response","92","257378","0.0-7.0-3.11","6108566c73124d23384f3e0a","bdp_wmem","Wed Jul 27 2022 12:02:52 GMT-0500 (Central Daylight Time)","605227","Match,No Match","","null","","","","","","<div class='trialBorder'><div class='vertical-center'><img src='img/fixation2_sml.jpg'</img></div></div>","null","DELAY","","","","","","","","","","",""
"html-keyboard-response","93","259921","0.0-7.0-4.11","6108566c73124d23384f3e0a","bdp_wmem","Wed Jul 27 2022 12:02:52 GMT-0500 (Central Daylight Time)","605227","Match,No Match","","2538","","","","","","<div class='trialBorder'><div class='targDiv'><div class='tc'><img class='introPic' src='trustrating_stim/white_mw085.bmp'><br><font color='green'><strong>Share</strong></font></div></div><div class='respDiv'><div class='respDivL'>Match<br>(e)</div><div class='respDivR'>No Match<br>(i)</div></div></div>","i","TARGET","3","trustrating_stim/white_mw012.bmp,trustrating_stim/white_mw038.bmp,trustrating_stim/white_mw085.bmp","1,0,1","Match","e","4500","trustrating_stim/white_mw085.bmp","green","Share","REAL","0"
"html-keyboard-response","94","260425","0.0-7.0-5.11","6108566c73124d23384f3e0a","bdp_wmem","Wed Jul 27 2022 12:02:52 GMT-0500 (Central Daylight Time)","605227","Match,No Match","","null","","","","","","<div class='trialBorder'><div class='vertical-center'><img src='img/error.jpg'></div><div class='respDiv'><div class='respDivL'>Match<br>(e)</div><div class='respDivR'><font style='color:orange'>No Match<br>(i)</font></div></div></div>","null","FEEDBACK","","","","","","","","","","",""
"html-keyboard-response","95","260934","0.0-7.0-1.12","6108566c73124d23384f3e0a","bdp_wmem","Wed Jul 27 2022 12:02:52 GMT-0500 (Central Daylight Time)","605227","Match,No Match","","null","","","","","","<div class='trialBorder'><div class='vertical-center'><img src='img/fixation2_sml.jpg'</img></div></div>","null","FIX","","","","","","","","","","",""
"html-keyboard-response","96","265446","0.0-7.0-2.12","6108566c73124d23384f3e0a","bdp_wmem","Wed Jul 27 2022 12:02:52 GMT-0500 (Central Daylight Time)","605227","Match,No Match","","null","","","","","","<div class='trialBorder'><div class='vertical-center'><img style='vertical-align:center; align:center' src='img/fixation2_sml.jpg'></div><div class='arrayDiv3'><div class='tl'><img class='introPic' src='trustrating_stim/white_mw092.bmp'><br><font color='red'><strong>Keep</strong></font></div><div class='tc'><img class='introPic' src='trustrating_stim/white_mw091.bmp'><br><font color='green'><strong>Share</strong></font></div><div class='tr'><img class='introPic' src='trustrating_stim/white_mw013.bmp'><br><font color='green'><strong>Share</strong></font></div></div></div>","null","ARRAY","3","trustrating_stim/white_mw092.bmp,trustrating_stim/white_mw091.bmp,trustrating_stim/white_mw013.bmp","0,1,1","noMatchFace","i","4500","","","","",""
"html-keyboard-response","97","269448","0.0-7.0-3.12","6108566c73124d23384f3e0a","bdp_wmem","Wed Jul 27 2022 12:02:52 GMT-0500 (Central Daylight Time)","605227","Match,No Match","","null","","","","","","<div class='trialBorder'><div class='vertical-center'><img src='img/fixation2_sml.jpg'</img></div></div>","null","DELAY","","","","","","","","","","",""
"html-keyboard-response","98","271001","0.0-7.0-4.12","6108566c73124d23384f3e0a","bdp_wmem","Wed Jul 27 2022 12:02:52 GMT-0500 (Central Daylight Time)","605227","Match,No Match","","1549","","","","","","<div class='trialBorder'><div class='targDiv'><div class='tc'><img class='introPic' src='trustrating_stim/white_mw040.bmp'><br><font color='green'><strong>Share</strong></font></div></div><div class='respDiv'><div class='respDivL'>Match<br>(e)</div><div class='respDivR'>No Match<br>(i)</div></div></div>","e","TARGET","3","trustrating_stim/white_mw092.bmp,trustrating_stim/white_mw091.bmp,trustrating_stim/white_mw013.bmp","0,1,1","noMatchFace","i","4500","trustrating_stim/white_mw040.bmp","green","Share","REAL","0"
"html-keyboard-response","99","271510","0.0-7.0-5.12","6108566c73124d23384f3e0a","bdp_wmem","Wed Jul 27 2022 12:02:52 GMT-0500 (Central Daylight Time)","605227","Match,No Match","","null","","","","","","<div class='trialBorder'><div class='vertical-center'><img src='img/error.jpg'></div><div class='respDiv'><div class='respDivL'><font style='color:orange'>Match<br>(e)</font></div><div class='respDivR'>No Match<br>(i)</div></div></div>","null","FEEDBACK","","","","","","","","","","",""
"html-keyboard-response","100","272014","0.0-7.0-1.13","6108566c73124d23384f3e0a","bdp_wmem","Wed Jul 27 2022 12:02:52 GMT-0500 (Central Daylight Time)","605227","Match,No Match","","null","","","","","","<div class='trialBorder'><div class='vertical-center'><img src='img/fixation2_sml.jpg'</img></div></div>","null","FIX","","","","","","","","","","",""
"html-keyboard-response","101","273522","0.0-7.0-2.13","6108566c73124d23384f3e0a","bdp_wmem","Wed Jul 27 2022 12:02:52 GMT-0500 (Central Daylight Time)","605227","Match,No Match","","null","","","","","","<div class='trialBorder'><div class='vertical-center'><img style='vertical-align:center; align:center' src='img/fixation2_sml.jpg'></div><div class='arrayDiv1'><div class='tc'><img class='introPic' src='trustrating_stim/white_mw010.bmp'><br><font color='green'><strong>Share</strong></font></div></div></div>","null","ARRAY","1","trustrating_stim/white_mw010.bmp","1","Match","e","1500","","","","",""
"html-keyboard-response","102","277532","0.0-7.0-3.13","6108566c73124d23384f3e0a","bdp_wmem","Wed Jul 27 2022 12:02:52 GMT-0500 (Central Daylight Time)","605227","Match,No Match","","null","","","","","","<div class='trialBorder'><div class='vertical-center'><img src='img/fixation2_sml.jpg'</img></div></div>","null","DELAY","","","","","","","","","","",""
"html-keyboard-response","103","278863","0.0-7.0-4.13","6108566c73124d23384f3e0a","bdp_wmem","Wed Jul 27 2022 12:02:52 GMT-0500 (Central Daylight Time)","605227","Match,No Match","","1328","","","","","","<div class='trialBorder'><div class='targDiv'><div class='tc'><img class='introPic' src='trustrating_stim/white_mw010.bmp'><br><font color='green'><strong>Share</strong></font></div></div><div class='respDiv'><div class='respDivL'>Match<br>(e)</div><div class='respDivR'>No Match<br>(i)</div></div></div>","e","TARGET","1","trustrating_stim/white_mw010.bmp","1","Match","e","1500","trustrating_stim/white_mw010.bmp","green","Share","REAL","1"
"html-keyboard-response","104","279367","0.0-7.0-5.13","6108566c73124d23384f3e0a","bdp_wmem","Wed Jul 27 2022 12:02:52 GMT-0500 (Central Daylight Time)","605227","Match,No Match","","null","","","","","","<div class='trialBorder'><div class='vertical-center'><img src='img/correct.jpg'></div><div class='respDiv'><div class='respDivL'><font style='color:orange'>Match<br>(e)</font></div><div class='respDivR'>No Match<br>(i)</div></div></div>","null","FEEDBACK","","","","","","","","","","",""
"html-keyboard-response","105","279879","0.0-7.0-1.14","6108566c73124d23384f3e0a","bdp_wmem","Wed Jul 27 2022 12:02:52 GMT-0500 (Central Daylight Time)","605227","Match,No Match","","null","","","","","","<div class='trialBorder'><div class='vertical-center'><img src='img/fixation2_sml.jpg'</img></div></div>","null","FIX","","","","","","","","","","",""
"html-keyboard-response","106","282892","0.0-7.0-2.14","6108566c73124d23384f3e0a","bdp_wmem","Wed Jul 27 2022 12:02:52 GMT-0500 (Central Daylight Time)","605227","Match,No Match","","null","","","","","","<div class='trialBorder'><div class='vertical-center'><img style='vertical-align:center; align:center' src='img/fixation2_sml.jpg'></div><div class='arrayDiv2'><div class='tl'><img class='introPic' src='trustrating_stim/white_mw013.bmp'><br><font color='green'><strong>Share</strong></font></div><div class='tr'><img class='introPic' src='trustrating_stim/white_mw010.bmp'><br><font color='red'><strong>Keep</strong></font></div></div></div>","null","ARRAY","2","trustrating_stim/white_mw013.bmp,trustrating_stim/white_mw010.bmp","1,0","noMatchOutcome","i","3000","","","","",""
"html-keyboard-response","107","286897","0.0-7.0-3.14","6108566c73124d23384f3e0a","bdp_wmem","Wed Jul 27 2022 12:02:52 GMT-0500 (Central Daylight Time)","605227","Match,No Match","","null","","","","","","<div class='trialBorder'><div class='vertical-center'><img src='img/fixation2_sml.jpg'</img></div></div>","null","DELAY","","","","","","","","","","",""
"html-keyboard-response","108","288193","0.0-7.0-4.14","6108566c73124d23384f3e0a","bdp_wmem","Wed Jul 27 2022 12:02:52 GMT-0500 (Central Daylight Time)","605227","Match,No Match","","1292","","","","","","<div class='trialBorder'><div class='targDiv'><div class='tc'><img class='introPic' src='trustrating_stim/white_mw013.bmp'><br><font color='red'><strong>Keep</strong></font></div></div><div class='respDiv'><div class='respDivL'>Match<br>(e)</div><div class='respDivR'>No Match<br>(i)</div></div></div>","i","TARGET","2","trustrating_stim/white_mw013.bmp,trustrating_stim/white_mw010.bmp","1,0","noMatchOutcome","i","3000","trustrating_stim/white_mw013.bmp","red","Keep","REAL","1"
"html-keyboard-response","109","288696","0.0-7.0-5.14","6108566c73124d23384f3e0a","bdp_wmem","Wed Jul 27 2022 12:02:52 GMT-0500 (Central Daylight Time)","605227","Match,No Match","","null","","","","","","<div class='trialBorder'><div class='vertical-center'><img src='img/correct.jpg'></div><div class='respDiv'><div class='respDivL'>Match<br>(e)</div><div class='respDivR'><font style='color:orange'>No Match<br>(i)</font></div></div></div>","null","FEEDBACK","","","","","","","","","","",""
"html-keyboard-response","110","289203","0.0-7.0-1.15","6108566c73124d23384f3e0a","bdp_wmem","Wed Jul 27 2022 12:02:52 GMT-0500 (Central Daylight Time)","605227","Match,No Match","","null","","","","","","<div class='trialBorder'><div class='vertical-center'><img src='img/fixation2_sml.jpg'</img></div></div>","null","FIX","","","","","","","","","","",""
"html-keyboard-response","111","290713","0.0-7.0-2.15","6108566c73124d23384f3e0a","bdp_wmem","Wed Jul 27 2022 12:02:52 GMT-0500 (Central Daylight Time)","605227","Match,No Match","","null","","","","","","<div class='trialBorder'><div class='vertical-center'><img style='vertical-align:center; align:center' src='img/fixation2_sml.jpg'></div><div class='arrayDiv1'><div class='tc'><img class='introPic' src='trustrating_stim/white_mw078.bmp'><br><font color='green'><strong>Share</strong></font></div></div></div>","null","ARRAY","1","trustrating_stim/white_mw078.bmp","1","noMatchFace","i","1500","","","","",""
"html-keyboard-response","112","294724","0.0-7.0-3.15","6108566c73124d23384f3e0a","bdp_wmem","Wed Jul 27 2022 12:02:52 GMT-0500 (Central Daylight Time)","605227","Match,No Match","","null","","","","","","<div class='trialBorder'><div class='vertical-center'><img src='img/fixation2_sml.jpg'</img></div></div>","null","DELAY","","","","","","","","","","",""
"html-keyboard-response","113","295542","0.0-7.0-4.15","6108566c73124d23384f3e0a","bdp_wmem","Wed Jul 27 2022 12:02:52 GMT-0500 (Central Daylight Time)","605227","Match,No Match","","815","","","","","","<div class='trialBorder'><div class='targDiv'><div class='tc'><img class='introPic' src='trustrating_stim/white_mw013.bmp'><br><font color='green'><strong>Share</strong></font></div></div><div class='respDiv'><div class='respDivL'>Match<br>(e)</div><div class='respDivR'>No Match<br>(i)</div></div></div>","i","TARGET","1","trustrating_stim/white_mw078.bmp","1","noMatchFace","i","1500","trustrating_stim/white_mw013.bmp","green","Share","REAL","1"
"html-keyboard-response","114","296046","0.0-7.0-5.15","6108566c73124d23384f3e0a","bdp_wmem","Wed Jul 27 2022 12:02:52 GMT-0500 (Central Daylight Time)","605227","Match,No Match","","null","","","","","","<div class='trialBorder'><div class='vertical-center'><img src='img/correct.jpg'></div><div class='respDiv'><div class='respDivL'>Match<br>(e)</div><div class='respDivR'><font style='color:orange'>No Match<br>(i)</font></div></div></div>","null","FEEDBACK","","","","","","","","","","",""
"html-keyboard-response","115","296554","0.0-7.0-1.16","6108566c73124d23384f3e0a","bdp_wmem","Wed Jul 27 2022 12:02:52 GMT-0500 (Central Daylight Time)","605227","Match,No Match","","null","","","","","","<div class='trialBorder'><div class='vertical-center'><img src='img/fixation2_sml.jpg'</img></div></div>","null","FIX","","","","","","","","","","",""
"html-keyboard-response","116","299562","0.0-7.0-2.16","6108566c73124d23384f3e0a","bdp_wmem","Wed Jul 27 2022 12:02:52 GMT-0500 (Central Daylight Time)","605227","Match,No Match","","null","","","","","","<div class='trialBorder'><div class='vertical-center'><img style='vertical-align:center; align:center' src='img/fixation2_sml.jpg'></div><div class='arrayDiv2'><div class='tl'><img class='introPic' src='trustrating_stim/white_mw042.bmp'><br><font color='green'><strong>Share</strong></font></div><div class='tr'><img class='introPic' src='trustrating_stim/white_mw070.bmp'><br><font color='red'><strong>Keep</strong></font></div></div></div>","null","ARRAY","2","trustrating_stim/white_mw042.bmp,trustrating_stim/white_mw070.bmp","1,0","noMatchOutcome","i","3000","","","","",""
"html-keyboard-response","117","303577","0.0-7.0-3.16","6108566c73124d23384f3e0a","bdp_wmem","Wed Jul 27 2022 12:02:52 GMT-0500 (Central Daylight Time)","605227","Match,No Match","","null","","","","","","<div class='trialBorder'><div class='vertical-center'><img src='img/fixation2_sml.jpg'</img></div></div>","null","DELAY","","","","","","","","","","",""
"html-keyboard-response","118","304848","0.0-7.0-4.16","6108566c73124d23384f3e0a","bdp_wmem","Wed Jul 27 2022 12:02:52 GMT-0500 (Central Daylight Time)","605227","Match,No Match","","1268","","","","","","<div class='trialBorder'><div class='targDiv'><div class='tc'><img class='introPic' src='trustrating_stim/white_mw042.bmp'><br><font color='red'><strong>Keep</strong></font></div></div><div class='respDiv'><div class='respDivL'>Match<br>(e)</div><div class='respDivR'>No Match<br>(i)</div></div></div>","i","TARGET","2","trustrating_stim/white_mw042.bmp,trustrating_stim/white_mw070.bmp","1,0","noMatchOutcome","i","3000","trustrating_stim/white_mw042.bmp","red","Keep","REAL","1"
"html-keyboard-response","119","305353","0.0-7.0-5.16","6108566c73124d23384f3e0a","bdp_wmem","Wed Jul 27 2022 12:02:52 GMT-0500 (Central Daylight Time)","605227","Match,No Match","","null","","","","","","<div class='trialBorder'><div class='vertical-center'><img src='img/correct.jpg'></div><div class='respDiv'><div class='respDivL'>Match<br>(e)</div><div class='respDivR'><font style='color:orange'>No Match<br>(i)</font></div></div></div>","null","FEEDBACK","","","","","","","","","","",""
"html-keyboard-response","120","305857","0.0-7.0-1.17","6108566c73124d23384f3e0a","bdp_wmem","Wed Jul 27 2022 12:02:52 GMT-0500 (Central Daylight Time)","605227","Match,No Match","","null","","","","","","<div class='trialBorder'><div class='vertical-center'><img src='img/fixation2_sml.jpg'</img></div></div>","null","FIX","","","","","","","","","","",""
"html-keyboard-response","121","307369","0.0-7.0-2.17","6108566c73124d23384f3e0a","bdp_wmem","Wed Jul 27 2022 12:02:52 GMT-0500 (Central Daylight Time)","605227","Match,No Match","","null","","","","","","<div class='trialBorder'><div class='vertical-center'><img style='vertical-align:center; align:center' src='img/fixation2_sml.jpg'></div><div class='arrayDiv1'><div class='tc'><img class='introPic' src='trustrating_stim/white_mw042.bmp'><br><font color='red'><strong>Keep</strong></font></div></div></div>","null","ARRAY","1","trustrating_stim/white_mw042.bmp","0","Match","e","1500","","","","",""
"html-keyboard-response","122","311376","0.0-7.0-3.17","6108566c73124d23384f3e0a","bdp_wmem","Wed Jul 27 2022 12:02:52 GMT-0500 (Central Daylight Time)","605227","Match,No Match","","null","","","","","","<div class='trialBorder'><div class='vertical-center'><img src='img/fixation2_sml.jpg'</img></div></div>","null","DELAY","","","","","","","","","","",""
"html-keyboard-response","123","312335","0.0-7.0-4.17","6108566c73124d23384f3e0a","bdp_wmem","Wed Jul 27 2022 12:02:52 GMT-0500 (Central Daylight Time)","605227","Match,No Match","","956","","","","","","<div class='trialBorder'><div class='targDiv'><div class='tc'><img class='introPic' src='trustrating_stim/white_mw042.bmp'><br><font color='red'><strong>Keep</strong></font></div></div><div class='respDiv'><div class='respDivL'>Match<br>(e)</div><div class='respDivR'>No Match<br>(i)</div></div></div>","e","TARGET","1","trustrating_stim/white_mw042.bmp","0","Match","e","1500","trustrating_stim/white_mw042.bmp","red","Keep","REAL","1"
"html-keyboard-response","124","312845","0.0-7.0-5.17","6108566c73124d23384f3e0a","bdp_wmem","Wed Jul 27 2022 12:02:52 GMT-0500 (Central Daylight Time)","605227","Match,No Match","","null","","","","","","<div class='trialBorder'><div class='vertical-center'><img src='img/correct.jpg'></div><div class='respDiv'><div class='respDivL'><font style='color:orange'>Match<br>(e)</font></div><div class='respDivR'>No Match<br>(i)</div></div></div>","null","FEEDBACK","","","","","","","","","","",""
"html-keyboard-response","125","313352","0.0-7.0-1.18","6108566c73124d23384f3e0a","bdp_wmem","Wed Jul 27 2022 12:02:52 GMT-0500 (Central Daylight Time)","605227","Match,No Match","","null","","","","","","<div class='trialBorder'><div class='vertical-center'><img src='img/fixation2_sml.jpg'</img></div></div>","null","FIX","","","","","","","","","","",""
"html-keyboard-response","126","317859","0.0-7.0-2.18","6108566c73124d23384f3e0a","bdp_wmem","Wed Jul 27 2022 12:02:52 GMT-0500 (Central Daylight Time)","605227","Match,No Match","","null","","","","","","<div class='trialBorder'><div class='vertical-center'><img style='vertical-align:center; align:center' src='img/fixation2_sml.jpg'></div><div class='arrayDiv3'><div class='tl'><img class='introPic' src='trustrating_stim/white_mw042.bmp'><br><font color='green'><strong>Share</strong></font></div><div class='tc'><img class='introPic' src='trustrating_stim/white_mw038.bmp'><br><font color='green'><strong>Share</strong></font></div><div class='tr'><img class='introPic' src='trustrating_stim/white_mw010.bmp'><br><font color='red'><strong>Keep</strong></font></div></div></div>","null","ARRAY","3","trustrating_stim/white_mw042.bmp,trustrating_stim/white_mw038.bmp,trustrating_stim/white_mw010.bmp","1,1,0","Match","e","4500","","","","",""
"html-keyboard-response","127","321867","0.0-7.0-3.18","6108566c73124d23384f3e0a","bdp_wmem","Wed Jul 27 2022 12:02:52 GMT-0500 (Central Daylight Time)","605227","Match,No Match","","null","","","","","","<div class='trialBorder'><div class='vertical-center'><img src='img/fixation2_sml.jpg'</img></div></div>","null","DELAY","","","","","","","","","","",""
"html-keyboard-response","128","323336","0.0-7.0-4.18","6108566c73124d23384f3e0a","bdp_wmem","Wed Jul 27 2022 12:02:52 GMT-0500 (Central Daylight Time)","605227","Match,No Match","","1465","","","","","","<div class='trialBorder'><div class='targDiv'><div class='tc'><img class='introPic' src='trustrating_stim/white_mw010.bmp'><br><font color='red'><strong>Keep</strong></font></div></div><div class='respDiv'><div class='respDivL'>Match<br>(e)</div><div class='respDivR'>No Match<br>(i)</div></div></div>","e","TARGET","3","trustrating_stim/white_mw042.bmp,trustrating_stim/white_mw038.bmp,trustrating_stim/white_mw010.bmp","1,1,0","Match","e","4500","trustrating_stim/white_mw010.bmp","red","Keep","REAL","1"
"html-keyboard-response","129","323847","0.0-7.0-5.18","6108566c73124d23384f3e0a","bdp_wmem","Wed Jul 27 2022 12:02:52 GMT-0500 (Central Daylight Time)","605227","Match,No Match","","null","","","","","","<div class='trialBorder'><div class='vertical-center'><img src='img/correct.jpg'></div><div class='respDiv'><div class='respDivL'><font style='color:orange'>Match<br>(e)</font></div><div class='respDivR'>No Match<br>(i)</div></div></div>","null","FEEDBACK","","","","","","","","","","",""
"html-keyboard-response","130","324352","0.0-7.0-1.19","6108566c73124d23384f3e0a","bdp_wmem","Wed Jul 27 2022 12:02:52 GMT-0500 (Central Daylight Time)","605227","Match,No Match","","null","","","","","","<div class='trialBorder'><div class='vertical-center'><img src='img/fixation2_sml.jpg'</img></div></div>","null","FIX","","","","","","","","","","",""
"html-keyboard-response","131","327364","0.0-7.0-2.19","6108566c73124d23384f3e0a","bdp_wmem","Wed Jul 27 2022 12:02:52 GMT-0500 (Central Daylight Time)","605227","Match,No Match","","null","","","","","","<div class='trialBorder'><div class='vertical-center'><img style='vertical-align:center; align:center' src='img/fixation2_sml.jpg'></div><div class='arrayDiv2'><div class='tl'><img class='introPic' src='trustrating_stim/white_mw003.bmp'><br><font color='green'><strong>Share</strong></font></div><div class='tr'><img class='introPic' src='trustrating_stim/white_mw091.bmp'><br><font color='red'><strong>Keep</strong></font></div></div></div>","null","ARRAY","2","trustrating_stim/white_mw003.bmp,trustrating_stim/white_mw091.bmp","1,0","noMatchFace","i","3000","","","","",""
"html-keyboard-response","132","331367","0.0-7.0-3.19","6108566c73124d23384f3e0a","bdp_wmem","Wed Jul 27 2022 12:02:52 GMT-0500 (Central Daylight Time)","605227","Match,No Match","","null","","","","","","<div class='trialBorder'><div class='vertical-center'><img src='img/fixation2_sml.jpg'</img></div></div>","null","DELAY","","","","","","","","","","",""
"html-keyboard-response","133","332457","0.0-7.0-4.19","6108566c73124d23384f3e0a","bdp_wmem","Wed Jul 27 2022 12:02:52 GMT-0500 (Central Daylight Time)","605227","Match,No Match","","1086","","","","","","<div class='trialBorder'><div class='targDiv'><div class='tc'><img class='introPic' src='trustrating_stim/white_mw038.bmp'><br><font color='red'><strong>Keep</strong></font></div></div><div class='respDiv'><div class='respDivL'>Match<br>(e)</div><div class='respDivR'>No Match<br>(i)</div></div></div>","i","TARGET","2","trustrating_stim/white_mw003.bmp,trustrating_stim/white_mw091.bmp","1,0","noMatchFace","i","3000","trustrating_stim/white_mw038.bmp","red","Keep","REAL","1"
"html-keyboard-response","134","332963","0.0-7.0-5.19","6108566c73124d23384f3e0a","bdp_wmem","Wed Jul 27 2022 12:02:52 GMT-0500 (Central Daylight Time)","605227","Match,No Match","","null","","","","","","<div class='trialBorder'><div class='vertical-center'><img src='img/correct.jpg'></div><div class='respDiv'><div class='respDivL'>Match<br>(e)</div><div class='respDivR'><font style='color:orange'>No Match<br>(i)</font></div></div></div>","null","FEEDBACK","","","","","","","","","","",""
"html-keyboard-response","135","333473","0.0-7.0-1.20","6108566c73124d23384f3e0a","bdp_wmem","Wed Jul 27 2022 12:02:52 GMT-0500 (Central Daylight Time)","605227","Match,No Match","","null","","","","","","<div class='trialBorder'><div class='vertical-center'><img src='img/fixation2_sml.jpg'</img></div></div>","null","FIX","","","","","","","","","","",""
"html-keyboard-response","136","334982","0.0-7.0-2.20","6108566c73124d23384f3e0a","bdp_wmem","Wed Jul 27 2022 12:02:52 GMT-0500 (Central Daylight Time)","605227","Match,No Match","","null","","","","","","<div class='trialBorder'><div class='vertical-center'><img style='vertical-align:center; align:center' src='img/fixation2_sml.jpg'></div><div class='arrayDiv1'><div class='tc'><img class='introPic' src='trustrating_stim/white_mw070.bmp'><br><font color='green'><strong>Share</strong></font></div></div></div>","null","ARRAY","1","trustrating_stim/white_mw070.bmp","1","noMatchOutcome","i","1500","","","","",""
"html-keyboard-response","137","339000","0.0-7.0-3.20","6108566c73124d23384f3e0a","bdp_wmem","Wed Jul 27 2022 12:02:52 GMT-0500 (Central Daylight Time)","605227","Match,No Match","","null","","","","","","<div class='trialBorder'><div class='vertical-center'><img src='img/fixation2_sml.jpg'</img></div></div>","null","DELAY","","","","","","","","","","",""
"html-keyboard-response","138","340894","0.0-7.0-4.20","6108566c73124d23384f3e0a","bdp_wmem","Wed Jul 27 2022 12:02:52 GMT-0500 (Central Daylight Time)","605227","Match,No Match","","1889","","","","","","<div class='trialBorder'><div class='targDiv'><div class='tc'><img class='introPic' src='trustrating_stim/white_mw070.bmp'><br><font color='red'><strong>Keep</strong></font></div></div><div class='respDiv'><div class='respDivL'>Match<br>(e)</div><div class='respDivR'>No Match<br>(i)</div></div></div>","e","TARGET","1","trustrating_stim/white_mw070.bmp","1","noMatchOutcome","i","1500","trustrating_stim/white_mw070.bmp","red","Keep","REAL","0"
"html-keyboard-response","139","341405","0.0-7.0-5.20","6108566c73124d23384f3e0a","bdp_wmem","Wed Jul 27 2022 12:02:52 GMT-0500 (Central Daylight Time)","605227","Match,No Match","","null","","","","","","<div class='trialBorder'><div class='vertical-center'><img src='img/error.jpg'></div><div class='respDiv'><div class='respDivL'><font style='color:orange'>Match<br>(e)</font></div><div class='respDivR'>No Match<br>(i)</div></div></div>","null","FEEDBACK","","","","","","","","","","",""
"html-keyboard-response","140","341910","0.0-7.0-1.21","6108566c73124d23384f3e0a","bdp_wmem","Wed Jul 27 2022 12:02:52 GMT-0500 (Central Daylight Time)","605227","Match,No Match","","null","","","","","","<div class='trialBorder'><div class='vertical-center'><img src='img/fixation2_sml.jpg'</img></div></div>","null","FIX","","","","","","","","","","",""
"html-keyboard-response","141","344921","0.0-7.0-2.21","6108566c73124d23384f3e0a","bdp_wmem","Wed Jul 27 2022 12:02:52 GMT-0500 (Central Daylight Time)","605227","Match,No Match","","null","","","","","","<div class='trialBorder'><div class='vertical-center'><img style='vertical-align:center; align:center' src='img/fixation2_sml.jpg'></div><div class='arrayDiv2'><div class='tl'><img class='introPic' src='trustrating_stim/white_mw040.bmp'><br><font color='green'><strong>Share</strong></font></div><div class='tr'><img class='introPic' src='trustrating_stim/white_mw003.bmp'><br><font color='red'><strong>Keep</strong></font></div></div></div>","null","ARRAY","2","trustrating_stim/white_mw040.bmp,trustrating_stim/white_mw003.bmp","1,0","noMatchFace","i","3000","","","","",""
"html-keyboard-response","142","348927","0.0-7.0-3.21","6108566c73124d23384f3e0a","bdp_wmem","Wed Jul 27 2022 12:02:52 GMT-0500 (Central Daylight Time)","605227","Match,No Match","","null","","","","","","<div class='trialBorder'><div class='vertical-center'><img src='img/fixation2_sml.jpg'</img></div></div>","null","DELAY","","","","","","","","","","",""
"html-keyboard-response","143","350947","0.0-7.0-4.21","6108566c73124d23384f3e0a","bdp_wmem","Wed Jul 27 2022 12:02:52 GMT-0500 (Central Daylight Time)","605227","Match,No Match","","2016","","","","","","<div class='trialBorder'><div class='targDiv'><div class='tc'><img class='introPic' src='trustrating_stim/white_mw085.bmp'><br><font color='green'><strong>Share</strong></font></div></div><div class='respDiv'><div class='respDivL'>Match<br>(e)</div><div class='respDivR'>No Match<br>(i)</div></div></div>","i","TARGET","2","trustrating_stim/white_mw040.bmp,trustrating_stim/white_mw003.bmp","1,0","noMatchFace","i","3000","trustrating_stim/white_mw085.bmp","green","Share","REAL","1"
"html-keyboard-response","144","351457","0.0-7.0-5.21","6108566c73124d23384f3e0a","bdp_wmem","Wed Jul 27 2022 12:02:52 GMT-0500 (Central Daylight Time)","605227","Match,No Match","","null","","","","","","<div class='trialBorder'><div class='vertical-center'><img src='img/correct.jpg'></div><div class='respDiv'><div class='respDivL'>Match<br>(e)</div><div class='respDivR'><font style='color:orange'>No Match<br>(i)</font></div></div></div>","null","FEEDBACK","","","","","","","","","","",""
"html-keyboard-response","145","351963","0.0-7.0-1.22","6108566c73124d23384f3e0a","bdp_wmem","Wed Jul 27 2022 12:02:52 GMT-0500 (Central Daylight Time)","605227","Match,No Match","","null","","","","","","<div class='trialBorder'><div class='vertical-center'><img src='img/fixation2_sml.jpg'</img></div></div>","null","FIX","","","","","","","","","","",""
"html-keyboard-response","146","354972","0.0-7.0-2.22","6108566c73124d23384f3e0a","bdp_wmem","Wed Jul 27 2022 12:02:52 GMT-0500 (Central Daylight Time)","605227","Match,No Match","","null","","","","","","<div class='trialBorder'><div class='vertical-center'><img style='vertical-align:center; align:center' src='img/fixation2_sml.jpg'></div><div class='arrayDiv2'><div class='tl'><img class='introPic' src='trustrating_stim/white_mw078.bmp'><br><font color='red'><strong>Keep</strong></font></div><div class='tr'><img class='introPic' src='trustrating_stim/white_mw040.bmp'><br><font color='green'><strong>Share</strong></font></div></div></div>","null","ARRAY","2","trustrating_stim/white_mw078.bmp,trustrating_stim/white_mw040.bmp","0,1","Match","e","3000","","","","",""
"html-keyboard-response","147","358978","0.0-7.0-3.22","6108566c73124d23384f3e0a","bdp_wmem","Wed Jul 27 2022 12:02:52 GMT-0500 (Central Daylight Time)","605227","Match,No Match","","null","","","","","","<div class='trialBorder'><div class='vertical-center'><img src='img/fixation2_sml.jpg'</img></div></div>","null","DELAY","","","","","","","","","","",""
"html-keyboard-response","148","359837","0.0-7.0-4.22","6108566c73124d23384f3e0a","bdp_wmem","Wed Jul 27 2022 12:02:52 GMT-0500 (Central Daylight Time)","605227","Match,No Match","","856","","","","","","<div class='trialBorder'><div class='targDiv'><div class='tc'><img class='introPic' src='trustrating_stim/white_mw078.bmp'><br><font color='red'><strong>Keep</strong></font></div></div><div class='respDiv'><div class='respDivL'>Match<br>(e)</div><div class='respDivR'>No Match<br>(i)</div></div></div>","i","TARGET","2","trustrating_stim/white_mw078.bmp,trustrating_stim/white_mw040.bmp","0,1","Match","e","3000","trustrating_stim/white_mw078.bmp","red","Keep","REAL","0"
"html-keyboard-response","149","360344","0.0-7.0-5.22","6108566c73124d23384f3e0a","bdp_wmem","Wed Jul 27 2022 12:02:52 GMT-0500 (Central Daylight Time)","605227","Match,No Match","","null","","","","","","<div class='trialBorder'><div class='vertical-center'><img src='img/error.jpg'></div><div class='respDiv'><div class='respDivL'>Match<br>(e)</div><div class='respDivR'><font style='color:orange'>No Match<br>(i)</font></div></div></div>","null","FEEDBACK","","","","","","","","","","",""
"html-keyboard-response","150","360854","0.0-7.0-1.23","6108566c73124d23384f3e0a","bdp_wmem","Wed Jul 27 2022 12:02:52 GMT-0500 (Central Daylight Time)","605227","Match,No Match","","null","","","","","","<div class='trialBorder'><div class='vertical-center'><img src='img/fixation2_sml.jpg'</img></div></div>","null","FIX","","","","","","","","","","",""
"html-keyboard-response","151","363862","0.0-7.0-2.23","6108566c73124d23384f3e0a","bdp_wmem","Wed Jul 27 2022 12:02:52 GMT-0500 (Central Daylight Time)","605227","Match,No Match","","null","","","","","","<div class='trialBorder'><div class='vertical-center'><img style='vertical-align:center; align:center' src='img/fixation2_sml.jpg'></div><div class='arrayDiv2'><div class='tl'><img class='introPic' src='trustrating_stim/white_mw038.bmp'><br><font color='red'><strong>Keep</strong></font></div><div class='tr'><img class='introPic' src='trustrating_stim/white_mw040.bmp'><br><font color='green'><strong>Share</strong></font></div></div></div>","null","ARRAY","2","trustrating_stim/white_mw038.bmp,trustrating_stim/white_mw040.bmp","0,1","Match","e","3000","","","","",""
"html-keyboard-response","152","367866","0.0-7.0-3.23","6108566c73124d23384f3e0a","bdp_wmem","Wed Jul 27 2022 12:02:52 GMT-0500 (Central Daylight Time)","605227","Match,No Match","","null","","","","","","<div class='trialBorder'><div class='vertical-center'><img src='img/fixation2_sml.jpg'</img></div></div>","null","DELAY","","","","","","","","","","",""
"html-keyboard-response","153","369675","0.0-7.0-4.23","6108566c73124d23384f3e0a","bdp_wmem","Wed Jul 27 2022 12:02:52 GMT-0500 (Central Daylight Time)","605227","Match,No Match","","1806","","","","","","<div class='trialBorder'><div class='targDiv'><div class='tc'><img class='introPic' src='trustrating_stim/white_mw040.bmp'><br><font color='green'><strong>Share</strong></font></div></div><div class='respDiv'><div class='respDivL'>Match<br>(e)</div><div class='respDivR'>No Match<br>(i)</div></div></div>","e","TARGET","2","trustrating_stim/white_mw038.bmp,trustrating_stim/white_mw040.bmp","0,1","Match","e","3000","trustrating_stim/white_mw040.bmp","green","Share","REAL","1"
"html-keyboard-response","154","370178","0.0-7.0-5.23","6108566c73124d23384f3e0a","bdp_wmem","Wed Jul 27 2022 12:02:52 GMT-0500 (Central Daylight Time)","605227","Match,No Match","","null","","","","","","<div class='trialBorder'><div class='vertical-center'><img src='img/correct.jpg'></div><div class='respDiv'><div class='respDivL'><font style='color:orange'>Match<br>(e)</font></div><div class='respDivR'>No Match<br>(i)</div></div></div>","null","FEEDBACK","","","","","","","","","","",""
"html-keyboard-response","155","370686","0.0-7.0-1.24","6108566c73124d23384f3e0a","bdp_wmem","Wed Jul 27 2022 12:02:52 GMT-0500 (Central Daylight Time)","605227","Match,No Match","","null","","","","","","<div class='trialBorder'><div class='vertical-center'><img src='img/fixation2_sml.jpg'</img></div></div>","null","FIX","","","","","","","","","","",""
"html-keyboard-response","156","372194","0.0-7.0-2.24","6108566c73124d23384f3e0a","bdp_wmem","Wed Jul 27 2022 12:02:52 GMT-0500 (Central Daylight Time)","605227","Match,No Match","","null","","","","","","<div class='trialBorder'><div class='vertical-center'><img style='vertical-align:center; align:center' src='img/fixation2_sml.jpg'></div><div class='arrayDiv1'><div class='tc'><img class='introPic' src='trustrating_stim/white_mw042.bmp'><br><font color='red'><strong>Keep</strong></font></div></div></div>","null","ARRAY","1","trustrating_stim/white_mw042.bmp","0","noMatchFace","i","1500","","","","",""
"html-keyboard-response","157","376199","0.0-7.0-3.24","6108566c73124d23384f3e0a","bdp_wmem","Wed Jul 27 2022 12:02:52 GMT-0500 (Central Daylight Time)","605227","Match,No Match","","null","","","","","","<div class='trialBorder'><div class='vertical-center'><img src='img/fixation2_sml.jpg'</img></div></div>","null","DELAY","","","","","","","","","","",""
"html-keyboard-response","158","377302","0.0-7.0-4.24","6108566c73124d23384f3e0a","bdp_wmem","Wed Jul 27 2022 12:02:52 GMT-0500 (Central Daylight Time)","605227","Match,No Match","","1100","","","","","","<div class='trialBorder'><div class='targDiv'><div class='tc'><img class='introPic' src='trustrating_stim/white_mw092.bmp'><br><font color='red'><strong>Keep</strong></font></div></div><div class='respDiv'><div class='respDivL'>Match<br>(e)</div><div class='respDivR'>No Match<br>(i)</div></div></div>","i","TARGET","1","trustrating_stim/white_mw042.bmp","0","noMatchFace","i","1500","trustrating_stim/white_mw092.bmp","red","Keep","REAL","1"
"html-keyboard-response","159","377806","0.0-7.0-5.24","6108566c73124d23384f3e0a","bdp_wmem","Wed Jul 27 2022 12:02:52 GMT-0500 (Central Daylight Time)","605227","Match,No Match","","null","","","","","","<div class='trialBorder'><div class='vertical-center'><img src='img/correct.jpg'></div><div class='respDiv'><div class='respDivL'>Match<br>(e)</div><div class='respDivR'><font style='color:orange'>No Match<br>(i)</font></div></div></div>","null","FEEDBACK","","","","","","","","","","",""
"html-keyboard-response","160","378314","0.0-7.0-1.25","6108566c73124d23384f3e0a","bdp_wmem","Wed Jul 27 2022 12:02:52 GMT-0500 (Central Daylight Time)","605227","Match,No Match","","null","","","","","","<div class='trialBorder'><div class='vertical-center'><img src='img/fixation2_sml.jpg'</img></div></div>","null","FIX","","","","","","","","","","",""
"html-keyboard-response","161","382825","0.0-7.0-2.25","6108566c73124d23384f3e0a","bdp_wmem","Wed Jul 27 2022 12:02:52 GMT-0500 (Central Daylight Time)","605227","Match,No Match","","null","","","","","","<div class='trialBorder'><div class='vertical-center'><img style='vertical-align:center; align:center' src='img/fixation2_sml.jpg'></div><div class='arrayDiv3'><div class='tl'><img class='introPic' src='trustrating_stim/white_mw091.bmp'><br><font color='green'><strong>Share</strong></font></div><div class='tc'><img class='introPic' src='trustrating_stim/white_mw085.bmp'><br><font color='red'><strong>Keep</strong></font></div><div class='tr'><img class='introPic' src='trustrating_stim/white_mw010.bmp'><br><font color='red'><strong>Keep</strong></font></div></div></div>","null","ARRAY","3","trustrating_stim/white_mw091.bmp,trustrating_stim/white_mw085.bmp,trustrating_stim/white_mw010.bmp","1,0,0","noMatchFace","i","4500","","","","",""
"html-keyboard-response","162","386835","0.0-7.0-3.25","6108566c73124d23384f3e0a","bdp_wmem","Wed Jul 27 2022 12:02:52 GMT-0500 (Central Daylight Time)","605227","Match,No Match","","null","","","","","","<div class='trialBorder'><div class='vertical-center'><img src='img/fixation2_sml.jpg'</img></div></div>","null","DELAY","","","","","","","","","","",""
"html-keyboard-response","163","388758","0.0-7.0-4.25","6108566c73124d23384f3e0a","bdp_wmem","Wed Jul 27 2022 12:02:52 GMT-0500 (Central Daylight Time)","605227","Match,No Match","","1919","","","","","","<div class='trialBorder'><div class='targDiv'><div class='tc'><img class='introPic' src='trustrating_stim/white_mw040.bmp'><br><font color='red'><strong>Keep</strong></font></div></div><div class='respDiv'><div class='respDivL'>Match<br>(e)</div><div class='respDivR'>No Match<br>(i)</div></div></div>","e","TARGET","3","trustrating_stim/white_mw091.bmp,trustrating_stim/white_mw085.bmp,trustrating_stim/white_mw010.bmp","1,0,0","noMatchFace","i","4500","trustrating_stim/white_mw040.bmp","red","Keep","REAL","0"
"html-keyboard-response","164","389264","0.0-7.0-5.25","6108566c73124d23384f3e0a","bdp_wmem","Wed Jul 27 2022 12:02:52 GMT-0500 (Central Daylight Time)","605227","Match,No Match","","null","","","","","","<div class='trialBorder'><div class='vertical-center'><img src='img/error.jpg'></div><div class='respDiv'><div class='respDivL'><font style='color:orange'>Match<br>(e)</font></div><div class='respDivR'>No Match<br>(i)</div></div></div>","null","FEEDBACK","","","","","","","","","","",""
"html-keyboard-response","165","389773","0.0-7.0-1.26","6108566c73124d23384f3e0a","bdp_wmem","Wed Jul 27 2022 12:02:52 GMT-0500 (Central Daylight Time)","605227","Match,No Match","","null","","","","","","<div class='trialBorder'><div class='vertical-center'><img src='img/fixation2_sml.jpg'</img></div></div>","null","FIX","","","","","","","","","","",""
"html-keyboard-response","166","391280","0.0-7.0-2.26","6108566c73124d23384f3e0a","bdp_wmem","Wed Jul 27 2022 12:02:52 GMT-0500 (Central Daylight Time)","605227","Match,No Match","","null","","","","","","<div class='trialBorder'><div class='vertical-center'><img style='vertical-align:center; align:center' src='img/fixation2_sml.jpg'></div><div class='arrayDiv1'><div class='tc'><img class='introPic' src='trustrating_stim/white_mw013.bmp'><br><font color='green'><strong>Share</strong></font></div></div></div>","null","ARRAY","1","trustrating_stim/white_mw013.bmp","1","Match","e","1500","","","","",""
"html-keyboard-response","167","395287","0.0-7.0-3.26","6108566c73124d23384f3e0a","bdp_wmem","Wed Jul 27 2022 12:02:52 GMT-0500 (Central Daylight Time)","605227","Match,No Match","","null","","","","","","<div class='trialBorder'><div class='vertical-center'><img src='img/fixation2_sml.jpg'</img></div></div>","null","DELAY","","","","","","","","","","",""
"html-keyboard-response","168","396870","0.0-7.0-4.26","6108566c73124d23384f3e0a","bdp_wmem","Wed Jul 27 2022 12:02:52 GMT-0500 (Central Daylight Time)","605227","Match,No Match","","1579","","","","","","<div class='trialBorder'><div class='targDiv'><div class='tc'><img class='introPic' src='trustrating_stim/white_mw013.bmp'><br><font color='green'><strong>Share</strong></font></div></div><div class='respDiv'><div class='respDivL'>Match<br>(e)</div><div class='respDivR'>No Match<br>(i)</div></div></div>","e","TARGET","1","trustrating_stim/white_mw013.bmp","1","Match","e","1500","trustrating_stim/white_mw013.bmp","green","Share","REAL","1"
"html-keyboard-response","169","397373","0.0-7.0-5.26","6108566c73124d23384f3e0a","bdp_wmem","Wed Jul 27 2022 12:02:52 GMT-0500 (Central Daylight Time)","605227","Match,No Match","","null","","","","","","<div class='trialBorder'><div class='vertical-center'><img src='img/correct.jpg'></div><div class='respDiv'><div class='respDivL'><font style='color:orange'>Match<br>(e)</font></div><div class='respDivR'>No Match<br>(i)</div></div></div>","null","FEEDBACK","","","","","","","","","","",""
"html-keyboard-response","170","397878","0.0-7.0-1.27","6108566c73124d23384f3e0a","bdp_wmem","Wed Jul 27 2022 12:02:52 GMT-0500 (Central Daylight Time)","605227","Match,No Match","","null","","","","","","<div class='trialBorder'><div class='vertical-center'><img src='img/fixation2_sml.jpg'</img></div></div>","null","FIX","","","","","","","","","","",""
"html-keyboard-response","171","402383","0.0-7.0-2.27","6108566c73124d23384f3e0a","bdp_wmem","Wed Jul 27 2022 12:02:52 GMT-0500 (Central Daylight Time)","605227","Match,No Match","","null","","","","","","<div class='trialBorder'><div class='vertical-center'><img style='vertical-align:center; align:center' src='img/fixation2_sml.jpg'></div><div class='arrayDiv3'><div class='tl'><img class='introPic' src='trustrating_stim/white_mw003.bmp'><br><font color='red'><strong>Keep</strong></font></div><div class='tc'><img class='introPic' src='trustrating_stim/white_mw010.bmp'><br><font color='red'><strong>Keep</strong></font></div><div class='tr'><img class='introPic' src='trustrating_stim/white_mw042.bmp'><br><font color='green'><strong>Share</strong></font></div></div></div>","null","ARRAY","3","trustrating_stim/white_mw003.bmp,trustrating_stim/white_mw010.bmp,trustrating_stim/white_mw042.bmp","0,0,1","Match","e","4500","","","","",""
"html-keyboard-response","172","406388","0.0-7.0-3.27","6108566c73124d23384f3e0a","bdp_wmem","Wed Jul 27 2022 12:02:52 GMT-0500 (Central Daylight Time)","605227","Match,No Match","","null","","","","","","<div class='trialBorder'><div class='vertical-center'><img src='img/fixation2_sml.jpg'</img></div></div>","null","DELAY","","","","","","","","","","",""
"html-keyboard-response","173","407620","0.0-7.0-4.27","6108566c73124d23384f3e0a","bdp_wmem","Wed Jul 27 2022 12:02:52 GMT-0500 (Central Daylight Time)","605227","Match,No Match","","1228","","","","","","<div class='trialBorder'><div class='targDiv'><div class='tc'><img class='introPic' src='trustrating_stim/white_mw042.bmp'><br><font color='green'><strong>Share</strong></font></div></div><div class='respDiv'><div class='respDivL'>Match<br>(e)</div><div class='respDivR'>No Match<br>(i)</div></div></div>","i","TARGET","3","trustrating_stim/white_mw003.bmp,trustrating_stim/white_mw010.bmp,trustrating_stim/white_mw042.bmp","0,0,1","Match","e","4500","trustrating_stim/white_mw042.bmp","green","Share","REAL","0"
"html-keyboard-response","174","408123","0.0-7.0-5.27","6108566c73124d23384f3e0a","bdp_wmem","Wed Jul 27 2022 12:02:52 GMT-0500 (Central Daylight Time)","605227","Match,No Match","","null","","","","","","<div class='trialBorder'><div class='vertical-center'><img src='img/error.jpg'></div><div class='respDiv'><div class='respDivL'>Match<br>(e)</div><div class='respDivR'><font style='color:orange'>No Match<br>(i)</font></div></div></div>","null","FEEDBACK","","","","","","","","","","",""
"html-keyboard-response","175","408636","0.0-7.0-1.28","6108566c73124d23384f3e0a","bdp_wmem","Wed Jul 27 2022 12:02:52 GMT-0500 (Central Daylight Time)","605227","Match,No Match","","null","","","","","","<div class='trialBorder'><div class='vertical-center'><img src='img/fixation2_sml.jpg'</img></div></div>","null","FIX","","","","","","","","","","",""
"html-keyboard-response","176","411646","0.0-7.0-2.28","6108566c73124d23384f3e0a","bdp_wmem","Wed Jul 27 2022 12:02:52 GMT-0500 (Central Daylight Time)","605227","Match,No Match","","null","","","","","","<div class='trialBorder'><div class='vertical-center'><img style='vertical-align:center; align:center' src='img/fixation2_sml.jpg'></div><div class='arrayDiv2'><div class='tl'><img class='introPic' src='trustrating_stim/white_mw042.bmp'><br><font color='red'><strong>Keep</strong></font></div><div class='tr'><img class='introPic' src='trustrating_stim/white_mw070.bmp'><br><font color='green'><strong>Share</strong></font></div></div></div>","null","ARRAY","2","trustrating_stim/white_mw042.bmp,trustrating_stim/white_mw070.bmp","0,1","Match","e","3000","","","","",""
"html-keyboard-response","177","415653","0.0-7.0-3.28","6108566c73124d23384f3e0a","bdp_wmem","Wed Jul 27 2022 12:02:52 GMT-0500 (Central Daylight Time)","605227","Match,No Match","","null","","","","","","<div class='trialBorder'><div class='vertical-center'><img src='img/fixation2_sml.jpg'</img></div></div>","null","DELAY","","","","","","","","","","",""
"html-keyboard-response","178","416328","0.0-7.0-4.28","6108566c73124d23384f3e0a","bdp_wmem","Wed Jul 27 2022 12:02:52 GMT-0500 (Central Daylight Time)","605227","Match,No Match","","672","","","","","","<div class='trialBorder'><div class='targDiv'><div class='tc'><img class='introPic' src='trustrating_stim/white_mw070.bmp'><br><font color='green'><strong>Share</strong></font></div></div><div class='respDiv'><div class='respDivL'>Match<br>(e)</div><div class='respDivR'>No Match<br>(i)</div></div></div>","e","TARGET","2","trustrating_stim/white_mw042.bmp,trustrating_stim/white_mw070.bmp","0,1","Match","e","3000","trustrating_stim/white_mw070.bmp","green","Share","REAL","1"
"html-keyboard-response","179","416838","0.0-7.0-5.28","6108566c73124d23384f3e0a","bdp_wmem","Wed Jul 27 2022 12:02:52 GMT-0500 (Central Daylight Time)","605227","Match,No Match","","null","","","","","","<div class='trialBorder'><div class='vertical-center'><img src='img/correct.jpg'></div><div class='respDiv'><div class='respDivL'><font style='color:orange'>Match<br>(e)</font></div><div class='respDivR'>No Match<br>(i)</div></div></div>","null","FEEDBACK","","","","","","","","","","",""
"html-keyboard-response","180","417341","0.0-7.0-1.29","6108566c73124d23384f3e0a","bdp_wmem","Wed Jul 27 2022 12:02:52 GMT-0500 (Central Daylight Time)","605227","Match,No Match","","null","","","","","","<div class='trialBorder'><div class='vertical-center'><img src='img/fixation2_sml.jpg'</img></div></div>","null","FIX","","","","","","","","","","",""
"html-keyboard-response","181","418851","0.0-7.0-2.29","6108566c73124d23384f3e0a","bdp_wmem","Wed Jul 27 2022 12:02:52 GMT-0500 (Central Daylight Time)","605227","Match,No Match","","null","","","","","","<div class='trialBorder'><div class='vertical-center'><img style='vertical-align:center; align:center' src='img/fixation2_sml.jpg'></div><div class='arrayDiv1'><div class='tc'><img class='introPic' src='trustrating_stim/white_mw003.bmp'><br><font color='green'><strong>Share</strong></font></div></div></div>","null","ARRAY","1","trustrating_stim/white_mw003.bmp","1","Match","e","1500","","","","",""
"html-keyboard-response","182","422855","0.0-7.0-3.29","6108566c73124d23384f3e0a","bdp_wmem","Wed Jul 27 2022 12:02:52 GMT-0500 (Central Daylight Time)","605227","Match,No Match","","null","","","","","","<div class='trialBorder'><div class='vertical-center'><img src='img/fixation2_sml.jpg'</img></div></div>","null","DELAY","","","","","","","","","","",""
"html-keyboard-response","183","423964","0.0-7.0-4.29","6108566c73124d23384f3e0a","bdp_wmem","Wed Jul 27 2022 12:02:52 GMT-0500 (Central Daylight Time)","605227","Match,No Match","","1105","","","","","","<div class='trialBorder'><div class='targDiv'><div class='tc'><img class='introPic' src='trustrating_stim/white_mw003.bmp'><br><font color='green'><strong>Share</strong></font></div></div><div class='respDiv'><div class='respDivL'>Match<br>(e)</div><div class='respDivR'>No Match<br>(i)</div></div></div>","e","TARGET","1","trustrating_stim/white_mw003.bmp","1","Match","e","1500","trustrating_stim/white_mw003.bmp","green","Share","REAL","1"
"html-keyboard-response","184","424469","0.0-7.0-5.29","6108566c73124d23384f3e0a","bdp_wmem","Wed Jul 27 2022 12:02:52 GMT-0500 (Central Daylight Time)","605227","Match,No Match","","null","","","","","","<div class='trialBorder'><div class='vertical-center'><img src='img/correct.jpg'></div><div class='respDiv'><div class='respDivL'><font style='color:orange'>Match<br>(e)</font></div><div class='respDivR'>No Match<br>(i)</div></div></div>","null","FEEDBACK","","","","","","","","","","",""
"html-keyboard-response","185","424974","0.0-7.0-1.30","6108566c73124d23384f3e0a","bdp_wmem","Wed Jul 27 2022 12:02:52 GMT-0500 (Central Daylight Time)","605227","Match,No Match","","null","","","","","","<div class='trialBorder'><div class='vertical-center'><img src='img/fixation2_sml.jpg'</img></div></div>","null","FIX","","","","","","","","","","",""
"html-keyboard-response","186","429483","0.0-7.0-2.30","6108566c73124d23384f3e0a","bdp_wmem","Wed Jul 27 2022 12:02:52 GMT-0500 (Central Daylight Time)","605227","Match,No Match","","null","","","","","","<div class='trialBorder'><div class='vertical-center'><img style='vertical-align:center; align:center' src='img/fixation2_sml.jpg'></div><div class='arrayDiv3'><div class='tl'><img class='introPic' src='trustrating_stim/white_mw038.bmp'><br><font color='green'><strong>Share</strong></font></div><div class='tc'><img class='introPic' src='trustrating_stim/white_mw070.bmp'><br><font color='red'><strong>Keep</strong></font></div><div class='tr'><img class='introPic' src='trustrating_stim/white_mw085.bmp'><br><font color='green'><strong>Share</strong></font></div></div></div>","null","ARRAY","3","trustrating_stim/white_mw038.bmp,trustrating_stim/white_mw070.bmp,trustrating_stim/white_mw085.bmp","1,0,1","noMatchOutcome","i","4500","","","","",""
"html-keyboard-response","187","433489","0.0-7.0-3.30","6108566c73124d23384f3e0a","bdp_wmem","Wed Jul 27 2022 12:02:52 GMT-0500 (Central Daylight Time)","605227","Match,No Match","","null","","","","","","<div class='trialBorder'><div class='vertical-center'><img src='img/fixation2_sml.jpg'</img></div></div>","null","DELAY","","","","","","","","","","",""
