"trial_type","trial_index","time_elapsed","internal_node_id","subject_id","task","startTime","totalTime","labels","view_history","rt","event","trial","time","trialtype","success","stimulus","key_press","stimType","arraySize","arrayFaces","arrayOutcomes","matchType","corrResp","arrayDur","targFace","targCol","targOutcome","trialType","corr"
"pavlovia","0","7","0.0-0.0","5d7850851841fc0001e9c64d","bdp_wmem","Tue Mar 14 2023 00:06:53 GMT-0400 (Eastern Daylight Time)","534994","Match,No Match","","","","","","","","","","","","","","","","","","","","",""
"instructions","1","1890","0.0-1.0","5d7850851841fc0001e9c64d","bdp_wmem","Tue Mar 14 2023 00:06:53 GMT-0400 (Eastern Daylight Time)","534994","Match,No Match","[{""page_index"":0,""viewing_time"":1882}]","1882","","","","","","","","","","","","","","","","","","",""
"","","","","5d7850851841fc0001e9c64d","bdp_wmem","Tue Mar 14 2023 00:06:53 GMT-0400 (Eastern Daylight Time)","534994","Match,No Match","","","fullscreenenter","2","4189","fullscreenenter","","","","","","","","","","","","","","",""
"fullscreen","2","5179","0.0-2.0","5d7850851841fc0001e9c64d","bdp_wmem","Tue Mar 14 2023 00:06:53 GMT-0400 (Eastern Daylight Time)","534994","Match,No Match","","","","","","","true","","","","","","","","","","","","","",""
"instructions","3","54941","0.0-4.0","5d7850851841fc0001e9c64d","bdp_wmem","Tue Mar 14 2023 00:06:53 GMT-0400 (Eastern Daylight Time)","534994","Match,No Match","[{""page_index"":0,""viewing_time"":13730},{""page_index"":1,""viewing_time"":13912},{""page_index"":2,""viewing_time"":16728},{""page_index"":3,""viewing_time"":1884},{""page_index"":4,""viewing_time"":3503}]","49757","","","","","","","","","","","","","","","","","","",""
"html-keyboard-response","4","55445","0.0-5.0-1.0","5d7850851841fc0001e9c64d","bdp_wmem","Tue Mar 14 2023 00:06:53 GMT-0400 (Eastern Daylight Time)","534994","Match,No Match","","null","","","","","","<div class='trialBorder'><div class='vertical-center'><img src='img/fixation2_sml.jpg'</img></div></div>","null","FIX","","","","","","","","","","",""
"html-keyboard-response","5","58449","0.0-5.0-2.0","5d7850851841fc0001e9c64d","bdp_wmem","Tue Mar 14 2023 00:06:53 GMT-0400 (Eastern Daylight Time)","534994","Match,No Match","","null","","","","","","<div class='trialBorder'><div class='vertical-center'><img style='vertical-align:center; align:center' src='img/fixation2_sml.jpg'></div><div class='arrayDiv2'><div class='tl'><img class='introPic' src='trustrating_stim/white_mw078.bmp'><br><font color='red'><strong>Keep</strong></font></div><div class='tr'><img class='introPic' src='trustrating_stim/white_mw085.bmp'><br><font color='green'><strong>Share</strong></font></div></div></div>","null","ARRAY","2","trustrating_stim/white_mw078.bmp,trustrating_stim/white_mw085.bmp","0,1","Match","e","3000","","","","",""
"html-keyboard-response","6","62451","0.0-5.0-3.0","5d7850851841fc0001e9c64d","bdp_wmem","Tue Mar 14 2023 00:06:53 GMT-0400 (Eastern Daylight Time)","534994","Match,No Match","","null","","","","","","<div class='trialBorder'><div class='vertical-center'><img src='img/fixation2_sml.jpg'</img></div></div>","null","DELAY","","","","","","","","","","",""
"html-keyboard-response","7","64602","0.0-5.0-4.0","5d7850851841fc0001e9c64d","bdp_wmem","Tue Mar 14 2023 00:06:53 GMT-0400 (Eastern Daylight Time)","534994","Match,No Match","","2147","","","","","","<div class='trialBorder'><div class='targDiv'><div class='tc'><img class='introPic' src='trustrating_stim/white_mw078.bmp'><br><font color='red'><strong>Keep</strong></font></div></div><div class='respDiv'><div class='respDivL'>Match<br>(e)</div><div class='respDivR'>No Match<br>(i)</div></div></div>","i","TARGET","2","trustrating_stim/white_mw078.bmp,trustrating_stim/white_mw085.bmp","0,1","Match","e","3000","trustrating_stim/white_mw078.bmp","red","Keep","PRACTICE","0"
"html-keyboard-response","8","65104","0.0-5.0-5.0","5d7850851841fc0001e9c64d","bdp_wmem","Tue Mar 14 2023 00:06:53 GMT-0400 (Eastern Daylight Time)","534994","Match,No Match","","null","","","","","","<div class='trialBorder'><div class='vertical-center'><img src='img/error.jpg'></div><div class='respDiv'><div class='respDivL'>Match<br>(e)</div><div class='respDivR'><font style='color:orange'>No Match<br>(i)</font></div></div></div>","null","FEEDBACK","","","","","","","","","","",""
"html-keyboard-response","9","65609","0.0-5.0-1.1","5d7850851841fc0001e9c64d","bdp_wmem","Tue Mar 14 2023 00:06:53 GMT-0400 (Eastern Daylight Time)","534994","Match,No Match","","null","","","","","","<div class='trialBorder'><div class='vertical-center'><img src='img/fixation2_sml.jpg'</img></div></div>","null","FIX","","","","","","","","","","",""
"html-keyboard-response","10","70111","0.0-5.0-2.1","5d7850851841fc0001e9c64d","bdp_wmem","Tue Mar 14 2023 00:06:53 GMT-0400 (Eastern Daylight Time)","534994","Match,No Match","","null","","","","","","<div class='trialBorder'><div class='vertical-center'><img style='vertical-align:center; align:center' src='img/fixation2_sml.jpg'></div><div class='arrayDiv3'><div class='tl'><img class='introPic' src='trustrating_stim/white_mw092.bmp'><br><font color='red'><strong>Keep</strong></font></div><div class='tc'><img class='introPic' src='trustrating_stim/white_mw038.bmp'><br><font color='green'><strong>Share</strong></font></div><div class='tr'><img class='introPic' src='trustrating_stim/white_mw042.bmp'><br><font color='green'><strong>Share</strong></font></div></div></div>","null","ARRAY","3","trustrating_stim/white_mw092.bmp,trustrating_stim/white_mw038.bmp,trustrating_stim/white_mw042.bmp","0,1,1","Match","e","4500","","","","",""
"html-keyboard-response","11","74114","0.0-5.0-3.1","5d7850851841fc0001e9c64d","bdp_wmem","Tue Mar 14 2023 00:06:53 GMT-0400 (Eastern Daylight Time)","534994","Match,No Match","","null","","","","","","<div class='trialBorder'><div class='vertical-center'><img src='img/fixation2_sml.jpg'</img></div></div>","null","DELAY","","","","","","","","","","",""
"html-keyboard-response","12","74828","0.0-5.0-4.1","5d7850851841fc0001e9c64d","bdp_wmem","Tue Mar 14 2023 00:06:53 GMT-0400 (Eastern Daylight Time)","534994","Match,No Match","","713","","","","","","<div class='trialBorder'><div class='targDiv'><div class='tc'><img class='introPic' src='trustrating_stim/white_mw038.bmp'><br><font color='green'><strong>Share</strong></font></div></div><div class='respDiv'><div class='respDivL'>Match<br>(e)</div><div class='respDivR'>No Match<br>(i)</div></div></div>","e","TARGET","3","trustrating_stim/white_mw092.bmp,trustrating_stim/white_mw038.bmp,trustrating_stim/white_mw042.bmp","0,1,1","Match","e","4500","trustrating_stim/white_mw038.bmp","green","Share","PRACTICE","1"
"html-keyboard-response","13","75331","0.0-5.0-5.1","5d7850851841fc0001e9c64d","bdp_wmem","Tue Mar 14 2023 00:06:53 GMT-0400 (Eastern Daylight Time)","534994","Match,No Match","","null","","","","","","<div class='trialBorder'><div class='vertical-center'><img src='img/correct.jpg'></div><div class='respDiv'><div class='respDivL'><font style='color:orange'>Match<br>(e)</font></div><div class='respDivR'>No Match<br>(i)</div></div></div>","null","FEEDBACK","","","","","","","","","","",""
"html-keyboard-response","14","75833","0.0-5.0-1.2","5d7850851841fc0001e9c64d","bdp_wmem","Tue Mar 14 2023 00:06:53 GMT-0400 (Eastern Daylight Time)","534994","Match,No Match","","null","","","","","","<div class='trialBorder'><div class='vertical-center'><img src='img/fixation2_sml.jpg'</img></div></div>","null","FIX","","","","","","","","","","",""
"html-keyboard-response","15","77335","0.0-5.0-2.2","5d7850851841fc0001e9c64d","bdp_wmem","Tue Mar 14 2023 00:06:53 GMT-0400 (Eastern Daylight Time)","534994","Match,No Match","","null","","","","","","<div class='trialBorder'><div class='vertical-center'><img style='vertical-align:center; align:center' src='img/fixation2_sml.jpg'></div><div class='arrayDiv1'><div class='tc'><img class='introPic' src='trustrating_stim/white_mw085.bmp'><br><font color='green'><strong>Share</strong></font></div></div></div>","null","ARRAY","1","trustrating_stim/white_mw085.bmp","1","Match","e","1500","","","","",""
"html-keyboard-response","16","81337","0.0-5.0-3.2","5d7850851841fc0001e9c64d","bdp_wmem","Tue Mar 14 2023 00:06:53 GMT-0400 (Eastern Daylight Time)","534994","Match,No Match","","null","","","","","","<div class='trialBorder'><div class='vertical-center'><img src='img/fixation2_sml.jpg'</img></div></div>","null","DELAY","","","","","","","","","","",""
"html-keyboard-response","17","82144","0.0-5.0-4.2","5d7850851841fc0001e9c64d","bdp_wmem","Tue Mar 14 2023 00:06:53 GMT-0400 (Eastern Daylight Time)","534994","Match,No Match","","804","","","","","","<div class='trialBorder'><div class='targDiv'><div class='tc'><img class='introPic' src='trustrating_stim/white_mw085.bmp'><br><font color='green'><strong>Share</strong></font></div></div><div class='respDiv'><div class='respDivL'>Match<br>(e)</div><div class='respDivR'>No Match<br>(i)</div></div></div>","e","TARGET","1","trustrating_stim/white_mw085.bmp","1","Match","e","1500","trustrating_stim/white_mw085.bmp","green","Share","PRACTICE","1"
"html-keyboard-response","18","82645","0.0-5.0-5.2","5d7850851841fc0001e9c64d","bdp_wmem","Tue Mar 14 2023 00:06:53 GMT-0400 (Eastern Daylight Time)","534994","Match,No Match","","null","","","","","","<div class='trialBorder'><div class='vertical-center'><img src='img/correct.jpg'></div><div class='respDiv'><div class='respDivL'><font style='color:orange'>Match<br>(e)</font></div><div class='respDivR'>No Match<br>(i)</div></div></div>","null","FEEDBACK","","","","","","","","","","",""
"html-keyboard-response","19","83147","0.0-5.0-1.3","5d7850851841fc0001e9c64d","bdp_wmem","Tue Mar 14 2023 00:06:53 GMT-0400 (Eastern Daylight Time)","534994","Match,No Match","","null","","","","","","<div class='trialBorder'><div class='vertical-center'><img src='img/fixation2_sml.jpg'</img></div></div>","null","FIX","","","","","","","","","","",""
"html-keyboard-response","20","87650","0.0-5.0-2.3","5d7850851841fc0001e9c64d","bdp_wmem","Tue Mar 14 2023 00:06:53 GMT-0400 (Eastern Daylight Time)","534994","Match,No Match","","null","","","","","","<div class='trialBorder'><div class='vertical-center'><img style='vertical-align:center; align:center' src='img/fixation2_sml.jpg'></div><div class='arrayDiv3'><div class='tl'><img class='introPic' src='trustrating_stim/white_mw070.bmp'><br><font color='green'><strong>Share</strong></font></div><div class='tc'><img class='introPic' src='trustrating_stim/white_mw078.bmp'><br><font color='green'><strong>Share</strong></font></div><div class='tr'><img class='introPic' src='trustrating_stim/white_mw038.bmp'><br><font color='red'><strong>Keep</strong></font></div></div></div>","null","ARRAY","3","trustrating_stim/white_mw070.bmp,trustrating_stim/white_mw078.bmp,trustrating_stim/white_mw038.bmp","1,1,0","noMatchOutcome","i","4500","","","","",""
"html-keyboard-response","21","91653","0.0-5.0-3.3","5d7850851841fc0001e9c64d","bdp_wmem","Tue Mar 14 2023 00:06:53 GMT-0400 (Eastern Daylight Time)","534994","Match,No Match","","null","","","","","","<div class='trialBorder'><div class='vertical-center'><img src='img/fixation2_sml.jpg'</img></div></div>","null","DELAY","","","","","","","","","","",""
"html-keyboard-response","22","92569","0.0-5.0-4.3","5d7850851841fc0001e9c64d","bdp_wmem","Tue Mar 14 2023 00:06:53 GMT-0400 (Eastern Daylight Time)","534994","Match,No Match","","913","","","","","","<div class='trialBorder'><div class='targDiv'><div class='tc'><img class='introPic' src='trustrating_stim/white_mw078.bmp'><br><font color='red'><strong>Keep</strong></font></div></div><div class='respDiv'><div class='respDivL'>Match<br>(e)</div><div class='respDivR'>No Match<br>(i)</div></div></div>","i","TARGET","3","trustrating_stim/white_mw070.bmp,trustrating_stim/white_mw078.bmp,trustrating_stim/white_mw038.bmp","1,1,0","noMatchOutcome","i","4500","trustrating_stim/white_mw078.bmp","red","Keep","PRACTICE","1"
"html-keyboard-response","23","93071","0.0-5.0-5.3","5d7850851841fc0001e9c64d","bdp_wmem","Tue Mar 14 2023 00:06:53 GMT-0400 (Eastern Daylight Time)","534994","Match,No Match","","null","","","","","","<div class='trialBorder'><div class='vertical-center'><img src='img/correct.jpg'></div><div class='respDiv'><div class='respDivL'>Match<br>(e)</div><div class='respDivR'><font style='color:orange'>No Match<br>(i)</font></div></div></div>","null","FEEDBACK","","","","","","","","","","",""
"html-keyboard-response","24","93574","0.0-5.0-1.4","5d7850851841fc0001e9c64d","bdp_wmem","Tue Mar 14 2023 00:06:53 GMT-0400 (Eastern Daylight Time)","534994","Match,No Match","","null","","","","","","<div class='trialBorder'><div class='vertical-center'><img src='img/fixation2_sml.jpg'</img></div></div>","null","FIX","","","","","","","","","","",""
"html-keyboard-response","25","96577","0.0-5.0-2.4","5d7850851841fc0001e9c64d","bdp_wmem","Tue Mar 14 2023 00:06:53 GMT-0400 (Eastern Daylight Time)","534994","Match,No Match","","null","","","","","","<div class='trialBorder'><div class='vertical-center'><img style='vertical-align:center; align:center' src='img/fixation2_sml.jpg'></div><div class='arrayDiv2'><div class='tl'><img class='introPic' src='trustrating_stim/white_mw070.bmp'><br><font color='red'><strong>Keep</strong></font></div><div class='tr'><img class='introPic' src='trustrating_stim/white_mw013.bmp'><br><font color='green'><strong>Share</strong></font></div></div></div>","null","ARRAY","2","trustrating_stim/white_mw070.bmp,trustrating_stim/white_mw013.bmp","0,1","noMatchOutcome","i","3000","","","","",""
"html-keyboard-response","26","100579","0.0-5.0-3.4","5d7850851841fc0001e9c64d","bdp_wmem","Tue Mar 14 2023 00:06:53 GMT-0400 (Eastern Daylight Time)","534994","Match,No Match","","null","","","","","","<div class='trialBorder'><div class='vertical-center'><img src='img/fixation2_sml.jpg'</img></div></div>","null","DELAY","","","","","","","","","","",""
"html-keyboard-response","27","101554","0.0-5.0-4.4","5d7850851841fc0001e9c64d","bdp_wmem","Tue Mar 14 2023 00:06:53 GMT-0400 (Eastern Daylight Time)","534994","Match,No Match","","972","","","","","","<div class='trialBorder'><div class='targDiv'><div class='tc'><img class='introPic' src='trustrating_stim/white_mw070.bmp'><br><font color='green'><strong>Share</strong></font></div></div><div class='respDiv'><div class='respDivL'>Match<br>(e)</div><div class='respDivR'>No Match<br>(i)</div></div></div>","i","TARGET","2","trustrating_stim/white_mw070.bmp,trustrating_stim/white_mw013.bmp","0,1","noMatchOutcome","i","3000","trustrating_stim/white_mw070.bmp","green","Share","PRACTICE","1"
"html-keyboard-response","28","102055","0.0-5.0-5.4","5d7850851841fc0001e9c64d","bdp_wmem","Tue Mar 14 2023 00:06:53 GMT-0400 (Eastern Daylight Time)","534994","Match,No Match","","null","","","","","","<div class='trialBorder'><div class='vertical-center'><img src='img/correct.jpg'></div><div class='respDiv'><div class='respDivL'>Match<br>(e)</div><div class='respDivR'><font style='color:orange'>No Match<br>(i)</font></div></div></div>","null","FEEDBACK","","","","","","","","","","",""
"html-keyboard-response","29","102558","0.0-5.0-1.5","5d7850851841fc0001e9c64d","bdp_wmem","Tue Mar 14 2023 00:06:53 GMT-0400 (Eastern Daylight Time)","534994","Match,No Match","","null","","","","","","<div class='trialBorder'><div class='vertical-center'><img src='img/fixation2_sml.jpg'</img></div></div>","null","FIX","","","","","","","","","","",""
"html-keyboard-response","30","104060","0.0-5.0-2.5","5d7850851841fc0001e9c64d","bdp_wmem","Tue Mar 14 2023 00:06:53 GMT-0400 (Eastern Daylight Time)","534994","Match,No Match","","null","","","","","","<div class='trialBorder'><div class='vertical-center'><img style='vertical-align:center; align:center' src='img/fixation2_sml.jpg'></div><div class='arrayDiv1'><div class='tc'><img class='introPic' src='trustrating_stim/white_mw078.bmp'><br><font color='green'><strong>Share</strong></font></div></div></div>","null","ARRAY","1","trustrating_stim/white_mw078.bmp","1","noMatchFace","i","1500","","","","",""
"html-keyboard-response","31","108063","0.0-5.0-3.5","5d7850851841fc0001e9c64d","bdp_wmem","Tue Mar 14 2023 00:06:53 GMT-0400 (Eastern Daylight Time)","534994","Match,No Match","","null","","","","","","<div class='trialBorder'><div class='vertical-center'><img src='img/fixation2_sml.jpg'</img></div></div>","null","DELAY","","","","","","","","","","",""
"html-keyboard-response","32","108976","0.0-5.0-4.5","5d7850851841fc0001e9c64d","bdp_wmem","Tue Mar 14 2023 00:06:53 GMT-0400 (Eastern Daylight Time)","534994","Match,No Match","","910","","","","","","<div class='trialBorder'><div class='targDiv'><div class='tc'><img class='introPic' src='trustrating_stim/white_mw040.bmp'><br><font color='green'><strong>Share</strong></font></div></div><div class='respDiv'><div class='respDivL'>Match<br>(e)</div><div class='respDivR'>No Match<br>(i)</div></div></div>","i","TARGET","1","trustrating_stim/white_mw078.bmp","1","noMatchFace","i","1500","trustrating_stim/white_mw040.bmp","green","Share","PRACTICE","1"
"html-keyboard-response","33","109479","0.0-5.0-5.5","5d7850851841fc0001e9c64d","bdp_wmem","Tue Mar 14 2023 00:06:53 GMT-0400 (Eastern Daylight Time)","534994","Match,No Match","","null","","","","","","<div class='trialBorder'><div class='vertical-center'><img src='img/correct.jpg'></div><div class='respDiv'><div class='respDivL'>Match<br>(e)</div><div class='respDivR'><font style='color:orange'>No Match<br>(i)</font></div></div></div>","null","FEEDBACK","","","","","","","","","","",""
"instructions","34","113679","0.0-6.0","5d7850851841fc0001e9c64d","bdp_wmem","Tue Mar 14 2023 00:06:53 GMT-0400 (Eastern Daylight Time)","534994","Match,No Match","[{""page_index"":0,""viewing_time"":4200}]","4200","","","","","","","","","","","","","","","","","","",""
"html-keyboard-response","35","114181","0.0-7.0-1.0","5d7850851841fc0001e9c64d","bdp_wmem","Tue Mar 14 2023 00:06:53 GMT-0400 (Eastern Daylight Time)","534994","Match,No Match","","null","","","","","","<div class='trialBorder'><div class='vertical-center'><img src='img/fixation2_sml.jpg'</img></div></div>","null","FIX","","","","","","","","","","",""
"html-keyboard-response","36","117185","0.0-7.0-2.0","5d7850851841fc0001e9c64d","bdp_wmem","Tue Mar 14 2023 00:06:53 GMT-0400 (Eastern Daylight Time)","534994","Match,No Match","","null","","","","","","<div class='trialBorder'><div class='vertical-center'><img style='vertical-align:center; align:center' src='img/fixation2_sml.jpg'></div><div class='arrayDiv2'><div class='tl'><img class='introPic' src='trustrating_stim/white_mw070.bmp'><br><font color='green'><strong>Share</strong></font></div><div class='tr'><img class='introPic' src='trustrating_stim/white_mw010.bmp'><br><font color='red'><strong>Keep</strong></font></div></div></div>","null","ARRAY","2","trustrating_stim/white_mw070.bmp,trustrating_stim/white_mw010.bmp","1,0","Match","e","3000","","","","",""
"html-keyboard-response","37","121187","0.0-7.0-3.0","5d7850851841fc0001e9c64d","bdp_wmem","Tue Mar 14 2023 00:06:53 GMT-0400 (Eastern Daylight Time)","534994","Match,No Match","","null","","","","","","<div class='trialBorder'><div class='vertical-center'><img src='img/fixation2_sml.jpg'</img></div></div>","null","DELAY","","","","","","","","","","",""
"html-keyboard-response","38","122051","0.0-7.0-4.0","5d7850851841fc0001e9c64d","bdp_wmem","Tue Mar 14 2023 00:06:53 GMT-0400 (Eastern Daylight Time)","534994","Match,No Match","","862","","","","","","<div class='trialBorder'><div class='targDiv'><div class='tc'><img class='introPic' src='trustrating_stim/white_mw070.bmp'><br><font color='green'><strong>Share</strong></font></div></div><div class='respDiv'><div class='respDivL'>Match<br>(e)</div><div class='respDivR'>No Match<br>(i)</div></div></div>","e","TARGET","2","trustrating_stim/white_mw070.bmp,trustrating_stim/white_mw010.bmp","1,0","Match","e","3000","trustrating_stim/white_mw070.bmp","green","Share","REAL","1"
"html-keyboard-response","39","122554","0.0-7.0-5.0","5d7850851841fc0001e9c64d","bdp_wmem","Tue Mar 14 2023 00:06:53 GMT-0400 (Eastern Daylight Time)","534994","Match,No Match","","null","","","","","","<div class='trialBorder'><div class='vertical-center'><img src='img/correct.jpg'></div><div class='respDiv'><div class='respDivL'><font style='color:orange'>Match<br>(e)</font></div><div class='respDivR'>No Match<br>(i)</div></div></div>","null","FEEDBACK","","","","","","","","","","",""
"html-keyboard-response","40","123056","0.0-7.0-1.1","5d7850851841fc0001e9c64d","bdp_wmem","Tue Mar 14 2023 00:06:53 GMT-0400 (Eastern Daylight Time)","534994","Match,No Match","","null","","","","","","<div class='trialBorder'><div class='vertical-center'><img src='img/fixation2_sml.jpg'</img></div></div>","null","FIX","","","","","","","","","","",""
"html-keyboard-response","41","126059","0.0-7.0-2.1","5d7850851841fc0001e9c64d","bdp_wmem","Tue Mar 14 2023 00:06:53 GMT-0400 (Eastern Daylight Time)","534994","Match,No Match","","null","","","","","","<div class='trialBorder'><div class='vertical-center'><img style='vertical-align:center; align:center' src='img/fixation2_sml.jpg'></div><div class='arrayDiv2'><div class='tl'><img class='introPic' src='trustrating_stim/white_mw092.bmp'><br><font color='red'><strong>Keep</strong></font></div><div class='tr'><img class='introPic' src='trustrating_stim/white_mw012.bmp'><br><font color='green'><strong>Share</strong></font></div></div></div>","null","ARRAY","2","trustrating_stim/white_mw092.bmp,trustrating_stim/white_mw012.bmp","0,1","noMatchFace","i","3000","","","","",""
"html-keyboard-response","42","130063","0.0-7.0-3.1","5d7850851841fc0001e9c64d","bdp_wmem","Tue Mar 14 2023 00:06:53 GMT-0400 (Eastern Daylight Time)","534994","Match,No Match","","null","","","","","","<div class='trialBorder'><div class='vertical-center'><img src='img/fixation2_sml.jpg'</img></div></div>","null","DELAY","","","","","","","","","","",""
"html-keyboard-response","43","130794","0.0-7.0-4.1","5d7850851841fc0001e9c64d","bdp_wmem","Tue Mar 14 2023 00:06:53 GMT-0400 (Eastern Daylight Time)","534994","Match,No Match","","729","","","","","","<div class='trialBorder'><div class='targDiv'><div class='tc'><img class='introPic' src='trustrating_stim/white_mw010.bmp'><br><font color='green'><strong>Share</strong></font></div></div><div class='respDiv'><div class='respDivL'>Match<br>(e)</div><div class='respDivR'>No Match<br>(i)</div></div></div>","i","TARGET","2","trustrating_stim/white_mw092.bmp,trustrating_stim/white_mw012.bmp","0,1","noMatchFace","i","3000","trustrating_stim/white_mw010.bmp","green","Share","REAL","1"
"html-keyboard-response","44","131297","0.0-7.0-5.1","5d7850851841fc0001e9c64d","bdp_wmem","Tue Mar 14 2023 00:06:53 GMT-0400 (Eastern Daylight Time)","534994","Match,No Match","","null","","","","","","<div class='trialBorder'><div class='vertical-center'><img src='img/correct.jpg'></div><div class='respDiv'><div class='respDivL'>Match<br>(e)</div><div class='respDivR'><font style='color:orange'>No Match<br>(i)</font></div></div></div>","null","FEEDBACK","","","","","","","","","","",""
"html-keyboard-response","45","131799","0.0-7.0-1.2","5d7850851841fc0001e9c64d","bdp_wmem","Tue Mar 14 2023 00:06:53 GMT-0400 (Eastern Daylight Time)","534994","Match,No Match","","null","","","","","","<div class='trialBorder'><div class='vertical-center'><img src='img/fixation2_sml.jpg'</img></div></div>","null","FIX","","","","","","","","","","",""
"html-keyboard-response","46","133302","0.0-7.0-2.2","5d7850851841fc0001e9c64d","bdp_wmem","Tue Mar 14 2023 00:06:53 GMT-0400 (Eastern Daylight Time)","534994","Match,No Match","","null","","","","","","<div class='trialBorder'><div class='vertical-center'><img style='vertical-align:center; align:center' src='img/fixation2_sml.jpg'></div><div class='arrayDiv1'><div class='tc'><img class='introPic' src='trustrating_stim/white_mw085.bmp'><br><font color='green'><strong>Share</strong></font></div></div></div>","null","ARRAY","1","trustrating_stim/white_mw085.bmp","1","noMatchFace","i","1500","","","","",""
"html-keyboard-response","47","137305","0.0-7.0-3.2","5d7850851841fc0001e9c64d","bdp_wmem","Tue Mar 14 2023 00:06:53 GMT-0400 (Eastern Daylight Time)","534994","Match,No Match","","null","","","","","","<div class='trialBorder'><div class='vertical-center'><img src='img/fixation2_sml.jpg'</img></div></div>","null","DELAY","","","","","","","","","","",""
"html-keyboard-response","48","137902","0.0-7.0-4.2","5d7850851841fc0001e9c64d","bdp_wmem","Tue Mar 14 2023 00:06:53 GMT-0400 (Eastern Daylight Time)","534994","Match,No Match","","594","","","","","","<div class='trialBorder'><div class='targDiv'><div class='tc'><img class='introPic' src='trustrating_stim/white_mw038.bmp'><br><font color='green'><strong>Share</strong></font></div></div><div class='respDiv'><div class='respDivL'>Match<br>(e)</div><div class='respDivR'>No Match<br>(i)</div></div></div>","i","TARGET","1","trustrating_stim/white_mw085.bmp","1","noMatchFace","i","1500","trustrating_stim/white_mw038.bmp","green","Share","REAL","1"
"html-keyboard-response","49","138403","0.0-7.0-5.2","5d7850851841fc0001e9c64d","bdp_wmem","Tue Mar 14 2023 00:06:53 GMT-0400 (Eastern Daylight Time)","534994","Match,No Match","","null","","","","","","<div class='trialBorder'><div class='vertical-center'><img src='img/correct.jpg'></div><div class='respDiv'><div class='respDivL'>Match<br>(e)</div><div class='respDivR'><font style='color:orange'>No Match<br>(i)</font></div></div></div>","null","FEEDBACK","","","","","","","","","","",""
"html-keyboard-response","50","138905","0.0-7.0-1.3","5d7850851841fc0001e9c64d","bdp_wmem","Tue Mar 14 2023 00:06:53 GMT-0400 (Eastern Daylight Time)","534994","Match,No Match","","null","","","","","","<div class='trialBorder'><div class='vertical-center'><img src='img/fixation2_sml.jpg'</img></div></div>","null","FIX","","","","","","","","","","",""
"html-keyboard-response","51","143408","0.0-7.0-2.3","5d7850851841fc0001e9c64d","bdp_wmem","Tue Mar 14 2023 00:06:53 GMT-0400 (Eastern Daylight Time)","534994","Match,No Match","","null","","","","","","<div class='trialBorder'><div class='vertical-center'><img style='vertical-align:center; align:center' src='img/fixation2_sml.jpg'></div><div class='arrayDiv3'><div class='tl'><img class='introPic' src='trustrating_stim/white_mw003.bmp'><br><font color='red'><strong>Keep</strong></font></div><div class='tc'><img class='introPic' src='trustrating_stim/white_mw085.bmp'><br><font color='green'><strong>Share</strong></font></div><div class='tr'><img class='introPic' src='trustrating_stim/white_mw078.bmp'><br><font color='green'><strong>Share</strong></font></div></div></div>","null","ARRAY","3","trustrating_stim/white_mw003.bmp,trustrating_stim/white_mw085.bmp,trustrating_stim/white_mw078.bmp","0,1,1","Match","e","4500","","","","",""
"html-keyboard-response","52","147411","0.0-7.0-3.3","5d7850851841fc0001e9c64d","bdp_wmem","Tue Mar 14 2023 00:06:53 GMT-0400 (Eastern Daylight Time)","534994","Match,No Match","","null","","","","","","<div class='trialBorder'><div class='vertical-center'><img src='img/fixation2_sml.jpg'</img></div></div>","null","DELAY","","","","","","","","","","",""
"html-keyboard-response","53","148040","0.0-7.0-4.3","5d7850851841fc0001e9c64d","bdp_wmem","Tue Mar 14 2023 00:06:53 GMT-0400 (Eastern Daylight Time)","534994","Match,No Match","","626","","","","","","<div class='trialBorder'><div class='targDiv'><div class='tc'><img class='introPic' src='trustrating_stim/white_mw003.bmp'><br><font color='red'><strong>Keep</strong></font></div></div><div class='respDiv'><div class='respDivL'>Match<br>(e)</div><div class='respDivR'>No Match<br>(i)</div></div></div>","e","TARGET","3","trustrating_stim/white_mw003.bmp,trustrating_stim/white_mw085.bmp,trustrating_stim/white_mw078.bmp","0,1,1","Match","e","4500","trustrating_stim/white_mw003.bmp","red","Keep","REAL","1"
"html-keyboard-response","54","148542","0.0-7.0-5.3","5d7850851841fc0001e9c64d","bdp_wmem","Tue Mar 14 2023 00:06:53 GMT-0400 (Eastern Daylight Time)","534994","Match,No Match","","null","","","","","","<div class='trialBorder'><div class='vertical-center'><img src='img/correct.jpg'></div><div class='respDiv'><div class='respDivL'><font style='color:orange'>Match<br>(e)</font></div><div class='respDivR'>No Match<br>(i)</div></div></div>","null","FEEDBACK","","","","","","","","","","",""
"html-keyboard-response","55","149045","0.0-7.0-1.4","5d7850851841fc0001e9c64d","bdp_wmem","Tue Mar 14 2023 00:06:53 GMT-0400 (Eastern Daylight Time)","534994","Match,No Match","","null","","","","","","<div class='trialBorder'><div class='vertical-center'><img src='img/fixation2_sml.jpg'</img></div></div>","null","FIX","","","","","","","","","","",""
"html-keyboard-response","56","153549","0.0-7.0-2.4","5d7850851841fc0001e9c64d","bdp_wmem","Tue Mar 14 2023 00:06:53 GMT-0400 (Eastern Daylight Time)","534994","Match,No Match","","null","","","","","","<div class='trialBorder'><div class='vertical-center'><img style='vertical-align:center; align:center' src='img/fixation2_sml.jpg'></div><div class='arrayDiv3'><div class='tl'><img class='introPic' src='trustrating_stim/white_mw010.bmp'><br><font color='green'><strong>Share</strong></font></div><div class='tc'><img class='introPic' src='trustrating_stim/white_mw003.bmp'><br><font color='red'><strong>Keep</strong></font></div><div class='tr'><img class='introPic' src='trustrating_stim/white_mw092.bmp'><br><font color='green'><strong>Share</strong></font></div></div></div>","null","ARRAY","3","trustrating_stim/white_mw010.bmp,trustrating_stim/white_mw003.bmp,trustrating_stim/white_mw092.bmp","1,0,1","Match","e","4500","","","","",""
"html-keyboard-response","57","157551","0.0-7.0-3.4","5d7850851841fc0001e9c64d","bdp_wmem","Tue Mar 14 2023 00:06:53 GMT-0400 (Eastern Daylight Time)","534994","Match,No Match","","null","","","","","","<div class='trialBorder'><div class='vertical-center'><img src='img/fixation2_sml.jpg'</img></div></div>","null","DELAY","","","","","","","","","","",""
"html-keyboard-response","58","158101","0.0-7.0-4.4","5d7850851841fc0001e9c64d","bdp_wmem","Tue Mar 14 2023 00:06:53 GMT-0400 (Eastern Daylight Time)","534994","Match,No Match","","548","","","","","","<div class='trialBorder'><div class='targDiv'><div class='tc'><img class='introPic' src='trustrating_stim/white_mw010.bmp'><br><font color='green'><strong>Share</strong></font></div></div><div class='respDiv'><div class='respDivL'>Match<br>(e)</div><div class='respDivR'>No Match<br>(i)</div></div></div>","e","TARGET","3","trustrating_stim/white_mw010.bmp,trustrating_stim/white_mw003.bmp,trustrating_stim/white_mw092.bmp","1,0,1","Match","e","4500","trustrating_stim/white_mw010.bmp","green","Share","REAL","1"
"html-keyboard-response","59","158604","0.0-7.0-5.4","5d7850851841fc0001e9c64d","bdp_wmem","Tue Mar 14 2023 00:06:53 GMT-0400 (Eastern Daylight Time)","534994","Match,No Match","","null","","","","","","<div class='trialBorder'><div class='vertical-center'><img src='img/correct.jpg'></div><div class='respDiv'><div class='respDivL'><font style='color:orange'>Match<br>(e)</font></div><div class='respDivR'>No Match<br>(i)</div></div></div>","null","FEEDBACK","","","","","","","","","","",""
"html-keyboard-response","60","159105","0.0-7.0-1.5","5d7850851841fc0001e9c64d","bdp_wmem","Tue Mar 14 2023 00:06:53 GMT-0400 (Eastern Daylight Time)","534994","Match,No Match","","null","","","","","","<div class='trialBorder'><div class='vertical-center'><img src='img/fixation2_sml.jpg'</img></div></div>","null","FIX","","","","","","","","","","",""
"html-keyboard-response","61","163609","0.0-7.0-2.5","5d7850851841fc0001e9c64d","bdp_wmem","Tue Mar 14 2023 00:06:53 GMT-0400 (Eastern Daylight Time)","534994","Match,No Match","","null","","","","","","<div class='trialBorder'><div class='vertical-center'><img style='vertical-align:center; align:center' src='img/fixation2_sml.jpg'></div><div class='arrayDiv3'><div class='tl'><img class='introPic' src='trustrating_stim/white_mw070.bmp'><br><font color='green'><strong>Share</strong></font></div><div class='tc'><img class='introPic' src='trustrating_stim/white_mw042.bmp'><br><font color='red'><strong>Keep</strong></font></div><div class='tr'><img class='introPic' src='trustrating_stim/white_mw012.bmp'><br><font color='red'><strong>Keep</strong></font></div></div></div>","null","ARRAY","3","trustrating_stim/white_mw070.bmp,trustrating_stim/white_mw042.bmp,trustrating_stim/white_mw012.bmp","1,0,0","noMatchFace","i","4500","","","","",""
"html-keyboard-response","62","167611","0.0-7.0-3.5","5d7850851841fc0001e9c64d","bdp_wmem","Tue Mar 14 2023 00:06:53 GMT-0400 (Eastern Daylight Time)","534994","Match,No Match","","null","","","","","","<div class='trialBorder'><div class='vertical-center'><img src='img/fixation2_sml.jpg'</img></div></div>","null","DELAY","","","","","","","","","","",""
"html-keyboard-response","63","168443","0.0-7.0-4.5","5d7850851841fc0001e9c64d","bdp_wmem","Tue Mar 14 2023 00:06:53 GMT-0400 (Eastern Daylight Time)","534994","Match,No Match","","831","","","","","","<div class='trialBorder'><div class='targDiv'><div class='tc'><img class='introPic' src='trustrating_stim/white_mw040.bmp'><br><font color='green'><strong>Share</strong></font></div></div><div class='respDiv'><div class='respDivL'>Match<br>(e)</div><div class='respDivR'>No Match<br>(i)</div></div></div>","i","TARGET","3","trustrating_stim/white_mw070.bmp,trustrating_stim/white_mw042.bmp,trustrating_stim/white_mw012.bmp","1,0,0","noMatchFace","i","4500","trustrating_stim/white_mw040.bmp","green","Share","REAL","1"
"html-keyboard-response","64","168946","0.0-7.0-5.5","5d7850851841fc0001e9c64d","bdp_wmem","Tue Mar 14 2023 00:06:53 GMT-0400 (Eastern Daylight Time)","534994","Match,No Match","","null","","","","","","<div class='trialBorder'><div class='vertical-center'><img src='img/correct.jpg'></div><div class='respDiv'><div class='respDivL'>Match<br>(e)</div><div class='respDivR'><font style='color:orange'>No Match<br>(i)</font></div></div></div>","null","FEEDBACK","","","","","","","","","","",""
"html-keyboard-response","65","169449","0.0-7.0-1.6","5d7850851841fc0001e9c64d","bdp_wmem","Tue Mar 14 2023 00:06:53 GMT-0400 (Eastern Daylight Time)","534994","Match,No Match","","null","","","","","","<div class='trialBorder'><div class='vertical-center'><img src='img/fixation2_sml.jpg'</img></div></div>","null","FIX","","","","","","","","","","",""
"html-keyboard-response","66","170950","0.0-7.0-2.6","5d7850851841fc0001e9c64d","bdp_wmem","Tue Mar 14 2023 00:06:53 GMT-0400 (Eastern Daylight Time)","534994","Match,No Match","","null","","","","","","<div class='trialBorder'><div class='vertical-center'><img style='vertical-align:center; align:center' src='img/fixation2_sml.jpg'></div><div class='arrayDiv1'><div class='tc'><img class='introPic' src='trustrating_stim/white_mw085.bmp'><br><font color='green'><strong>Share</strong></font></div></div></div>","null","ARRAY","1","trustrating_stim/white_mw085.bmp","1","noMatchOutcome","i","1500","","","","",""
"html-keyboard-response","67","174953","0.0-7.0-3.6","5d7850851841fc0001e9c64d","bdp_wmem","Tue Mar 14 2023 00:06:53 GMT-0400 (Eastern Daylight Time)","534994","Match,No Match","","null","","","","","","<div class='trialBorder'><div class='vertical-center'><img src='img/fixation2_sml.jpg'</img></div></div>","null","DELAY","","","","","","","","","","",""
"html-keyboard-response","68","175691","0.0-7.0-4.6","5d7850851841fc0001e9c64d","bdp_wmem","Tue Mar 14 2023 00:06:53 GMT-0400 (Eastern Daylight Time)","534994","Match,No Match","","736","","","","","","<div class='trialBorder'><div class='targDiv'><div class='tc'><img class='introPic' src='trustrating_stim/white_mw085.bmp'><br><font color='red'><strong>Keep</strong></font></div></div><div class='respDiv'><div class='respDivL'>Match<br>(e)</div><div class='respDivR'>No Match<br>(i)</div></div></div>","i","TARGET","1","trustrating_stim/white_mw085.bmp","1","noMatchOutcome","i","1500","trustrating_stim/white_mw085.bmp","red","Keep","REAL","1"
"html-keyboard-response","69","176193","0.0-7.0-5.6","5d7850851841fc0001e9c64d","bdp_wmem","Tue Mar 14 2023 00:06:53 GMT-0400 (Eastern Daylight Time)","534994","Match,No Match","","null","","","","","","<div class='trialBorder'><div class='vertical-center'><img src='img/correct.jpg'></div><div class='respDiv'><div class='respDivL'>Match<br>(e)</div><div class='respDivR'><font style='color:orange'>No Match<br>(i)</font></div></div></div>","null","FEEDBACK","","","","","","","","","","",""
"html-keyboard-response","70","176694","0.0-7.0-1.7","5d7850851841fc0001e9c64d","bdp_wmem","Tue Mar 14 2023 00:06:53 GMT-0400 (Eastern Daylight Time)","534994","Match,No Match","","null","","","","","","<div class='trialBorder'><div class='vertical-center'><img src='img/fixation2_sml.jpg'</img></div></div>","null","FIX","","","","","","","","","","",""
"html-keyboard-response","71","181197","0.0-7.0-2.7","5d7850851841fc0001e9c64d","bdp_wmem","Tue Mar 14 2023 00:06:53 GMT-0400 (Eastern Daylight Time)","534994","Match,No Match","","null","","","","","","<div class='trialBorder'><div class='vertical-center'><img style='vertical-align:center; align:center' src='img/fixation2_sml.jpg'></div><div class='arrayDiv3'><div class='tl'><img class='introPic' src='trustrating_stim/white_mw091.bmp'><br><font color='green'><strong>Share</strong></font></div><div class='tc'><img class='introPic' src='trustrating_stim/white_mw013.bmp'><br><font color='red'><strong>Keep</strong></font></div><div class='tr'><img class='introPic' src='trustrating_stim/white_mw085.bmp'><br><font color='red'><strong>Keep</strong></font></div></div></div>","null","ARRAY","3","trustrating_stim/white_mw091.bmp,trustrating_stim/white_mw013.bmp,trustrating_stim/white_mw085.bmp","1,0,0","Match","e","4500","","","","",""
"html-keyboard-response","72","185199","0.0-7.0-3.7","5d7850851841fc0001e9c64d","bdp_wmem","Tue Mar 14 2023 00:06:53 GMT-0400 (Eastern Daylight Time)","534994","Match,No Match","","null","","","","","","<div class='trialBorder'><div class='vertical-center'><img src='img/fixation2_sml.jpg'</img></div></div>","null","DELAY","","","","","","","","","","",""
"html-keyboard-response","73","185809","0.0-7.0-4.7","5d7850851841fc0001e9c64d","bdp_wmem","Tue Mar 14 2023 00:06:53 GMT-0400 (Eastern Daylight Time)","534994","Match,No Match","","607","","","","","","<div class='trialBorder'><div class='targDiv'><div class='tc'><img class='introPic' src='trustrating_stim/white_mw091.bmp'><br><font color='green'><strong>Share</strong></font></div></div><div class='respDiv'><div class='respDivL'>Match<br>(e)</div><div class='respDivR'>No Match<br>(i)</div></div></div>","e","TARGET","3","trustrating_stim/white_mw091.bmp,trustrating_stim/white_mw013.bmp,trustrating_stim/white_mw085.bmp","1,0,0","Match","e","4500","trustrating_stim/white_mw091.bmp","green","Share","REAL","1"
"html-keyboard-response","74","186311","0.0-7.0-5.7","5d7850851841fc0001e9c64d","bdp_wmem","Tue Mar 14 2023 00:06:53 GMT-0400 (Eastern Daylight Time)","534994","Match,No Match","","null","","","","","","<div class='trialBorder'><div class='vertical-center'><img src='img/correct.jpg'></div><div class='respDiv'><div class='respDivL'><font style='color:orange'>Match<br>(e)</font></div><div class='respDivR'>No Match<br>(i)</div></div></div>","null","FEEDBACK","","","","","","","","","","",""
"html-keyboard-response","75","186813","0.0-7.0-1.8","5d7850851841fc0001e9c64d","bdp_wmem","Tue Mar 14 2023 00:06:53 GMT-0400 (Eastern Daylight Time)","534994","Match,No Match","","null","","","","","","<div class='trialBorder'><div class='vertical-center'><img src='img/fixation2_sml.jpg'</img></div></div>","null","FIX","","","","","","","","","","",""
"html-keyboard-response","76","191315","0.0-7.0-2.8","5d7850851841fc0001e9c64d","bdp_wmem","Tue Mar 14 2023 00:06:53 GMT-0400 (Eastern Daylight Time)","534994","Match,No Match","","null","","","","","","<div class='trialBorder'><div class='vertical-center'><img style='vertical-align:center; align:center' src='img/fixation2_sml.jpg'></div><div class='arrayDiv3'><div class='tl'><img class='introPic' src='trustrating_stim/white_mw003.bmp'><br><font color='red'><strong>Keep</strong></font></div><div class='tc'><img class='introPic' src='trustrating_stim/white_mw078.bmp'><br><font color='red'><strong>Keep</strong></font></div><div class='tr'><img class='introPic' src='trustrating_stim/white_mw092.bmp'><br><font color='green'><strong>Share</strong></font></div></div></div>","null","ARRAY","3","trustrating_stim/white_mw003.bmp,trustrating_stim/white_mw078.bmp,trustrating_stim/white_mw092.bmp","0,0,1","Match","e","4500","","","","",""
"html-keyboard-response","77","195317","0.0-7.0-3.8","5d7850851841fc0001e9c64d","bdp_wmem","Tue Mar 14 2023 00:06:53 GMT-0400 (Eastern Daylight Time)","534994","Match,No Match","","null","","","","","","<div class='trialBorder'><div class='vertical-center'><img src='img/fixation2_sml.jpg'</img></div></div>","null","DELAY","","","","","","","","","","",""
"html-keyboard-response","78","196691","0.0-7.0-4.8","5d7850851841fc0001e9c64d","bdp_wmem","Tue Mar 14 2023 00:06:53 GMT-0400 (Eastern Daylight Time)","534994","Match,No Match","","1372","","","","","","<div class='trialBorder'><div class='targDiv'><div class='tc'><img class='introPic' src='trustrating_stim/white_mw003.bmp'><br><font color='red'><strong>Keep</strong></font></div></div><div class='respDiv'><div class='respDivL'>Match<br>(e)</div><div class='respDivR'>No Match<br>(i)</div></div></div>","e","TARGET","3","trustrating_stim/white_mw003.bmp,trustrating_stim/white_mw078.bmp,trustrating_stim/white_mw092.bmp","0,0,1","Match","e","4500","trustrating_stim/white_mw003.bmp","red","Keep","REAL","1"
"html-keyboard-response","79","197193","0.0-7.0-5.8","5d7850851841fc0001e9c64d","bdp_wmem","Tue Mar 14 2023 00:06:53 GMT-0400 (Eastern Daylight Time)","534994","Match,No Match","","null","","","","","","<div class='trialBorder'><div class='vertical-center'><img src='img/correct.jpg'></div><div class='respDiv'><div class='respDivL'><font style='color:orange'>Match<br>(e)</font></div><div class='respDivR'>No Match<br>(i)</div></div></div>","null","FEEDBACK","","","","","","","","","","",""
"html-keyboard-response","80","197694","0.0-7.0-1.9","5d7850851841fc0001e9c64d","bdp_wmem","Tue Mar 14 2023 00:06:53 GMT-0400 (Eastern Daylight Time)","534994","Match,No Match","","null","","","","","","<div class='trialBorder'><div class='vertical-center'><img src='img/fixation2_sml.jpg'</img></div></div>","null","FIX","","","","","","","","","","",""
"html-keyboard-response","81","199196","0.0-7.0-2.9","5d7850851841fc0001e9c64d","bdp_wmem","Tue Mar 14 2023 00:06:53 GMT-0400 (Eastern Daylight Time)","534994","Match,No Match","","null","","","","","","<div class='trialBorder'><div class='vertical-center'><img style='vertical-align:center; align:center' src='img/fixation2_sml.jpg'></div><div class='arrayDiv1'><div class='tc'><img class='introPic' src='trustrating_stim/white_mw003.bmp'><br><font color='red'><strong>Keep</strong></font></div></div></div>","null","ARRAY","1","trustrating_stim/white_mw003.bmp","0","noMatchFace","i","1500","","","","",""
"html-keyboard-response","82","203199","0.0-7.0-3.9","5d7850851841fc0001e9c64d","bdp_wmem","Tue Mar 14 2023 00:06:53 GMT-0400 (Eastern Daylight Time)","534994","Match,No Match","","null","","","","","","<div class='trialBorder'><div class='vertical-center'><img src='img/fixation2_sml.jpg'</img></div></div>","null","DELAY","","","","","","","","","","",""
"html-keyboard-response","83","203821","0.0-7.0-4.9","5d7850851841fc0001e9c64d","bdp_wmem","Tue Mar 14 2023 00:06:53 GMT-0400 (Eastern Daylight Time)","534994","Match,No Match","","619","","","","","","<div class='trialBorder'><div class='targDiv'><div class='tc'><img class='introPic' src='trustrating_stim/white_mw085.bmp'><br><font color='red'><strong>Keep</strong></font></div></div><div class='respDiv'><div class='respDivL'>Match<br>(e)</div><div class='respDivR'>No Match<br>(i)</div></div></div>","i","TARGET","1","trustrating_stim/white_mw003.bmp","0","noMatchFace","i","1500","trustrating_stim/white_mw085.bmp","red","Keep","REAL","1"
"html-keyboard-response","84","204323","0.0-7.0-5.9","5d7850851841fc0001e9c64d","bdp_wmem","Tue Mar 14 2023 00:06:53 GMT-0400 (Eastern Daylight Time)","534994","Match,No Match","","null","","","","","","<div class='trialBorder'><div class='vertical-center'><img src='img/correct.jpg'></div><div class='respDiv'><div class='respDivL'>Match<br>(e)</div><div class='respDivR'><font style='color:orange'>No Match<br>(i)</font></div></div></div>","null","FEEDBACK","","","","","","","","","","",""
"html-keyboard-response","85","204824","0.0-7.0-1.10","5d7850851841fc0001e9c64d","bdp_wmem","Tue Mar 14 2023 00:06:53 GMT-0400 (Eastern Daylight Time)","534994","Match,No Match","","null","","","","","","<div class='trialBorder'><div class='vertical-center'><img src='img/fixation2_sml.jpg'</img></div></div>","null","FIX","","","","","","","","","","",""
"html-keyboard-response","86","209327","0.0-7.0-2.10","5d7850851841fc0001e9c64d","bdp_wmem","Tue Mar 14 2023 00:06:53 GMT-0400 (Eastern Daylight Time)","534994","Match,No Match","","null","","","","","","<div class='trialBorder'><div class='vertical-center'><img style='vertical-align:center; align:center' src='img/fixation2_sml.jpg'></div><div class='arrayDiv3'><div class='tl'><img class='introPic' src='trustrating_stim/white_mw003.bmp'><br><font color='red'><strong>Keep</strong></font></div><div class='tc'><img class='introPic' src='trustrating_stim/white_mw013.bmp'><br><font color='green'><strong>Share</strong></font></div><div class='tr'><img class='introPic' src='trustrating_stim/white_mw040.bmp'><br><font color='green'><strong>Share</strong></font></div></div></div>","null","ARRAY","3","trustrating_stim/white_mw003.bmp,trustrating_stim/white_mw013.bmp,trustrating_stim/white_mw040.bmp","0,1,1","noMatchFace","i","4500","","","","",""
"html-keyboard-response","87","213330","0.0-7.0-3.10","5d7850851841fc0001e9c64d","bdp_wmem","Tue Mar 14 2023 00:06:53 GMT-0400 (Eastern Daylight Time)","534994","Match,No Match","","null","","","","","","<div class='trialBorder'><div class='vertical-center'><img src='img/fixation2_sml.jpg'</img></div></div>","null","DELAY","","","","","","","","","","",""
"html-keyboard-response","88","214056","0.0-7.0-4.10","5d7850851841fc0001e9c64d","bdp_wmem","Tue Mar 14 2023 00:06:53 GMT-0400 (Eastern Daylight Time)","534994","Match,No Match","","725","","","","","","<div class='trialBorder'><div class='targDiv'><div class='tc'><img class='introPic' src='trustrating_stim/white_mw092.bmp'><br><font color='red'><strong>Keep</strong></font></div></div><div class='respDiv'><div class='respDivL'>Match<br>(e)</div><div class='respDivR'>No Match<br>(i)</div></div></div>","i","TARGET","3","trustrating_stim/white_mw003.bmp,trustrating_stim/white_mw013.bmp,trustrating_stim/white_mw040.bmp","0,1,1","noMatchFace","i","4500","trustrating_stim/white_mw092.bmp","red","Keep","REAL","1"
"html-keyboard-response","89","214559","0.0-7.0-5.10","5d7850851841fc0001e9c64d","bdp_wmem","Tue Mar 14 2023 00:06:53 GMT-0400 (Eastern Daylight Time)","534994","Match,No Match","","null","","","","","","<div class='trialBorder'><div class='vertical-center'><img src='img/correct.jpg'></div><div class='respDiv'><div class='respDivL'>Match<br>(e)</div><div class='respDivR'><font style='color:orange'>No Match<br>(i)</font></div></div></div>","null","FEEDBACK","","","","","","","","","","",""
"html-keyboard-response","90","215061","0.0-7.0-1.11","5d7850851841fc0001e9c64d","bdp_wmem","Tue Mar 14 2023 00:06:53 GMT-0400 (Eastern Daylight Time)","534994","Match,No Match","","null","","","","","","<div class='trialBorder'><div class='vertical-center'><img src='img/fixation2_sml.jpg'</img></div></div>","null","FIX","","","","","","","","","","",""
"html-keyboard-response","91","218063","0.0-7.0-2.11","5d7850851841fc0001e9c64d","bdp_wmem","Tue Mar 14 2023 00:06:53 GMT-0400 (Eastern Daylight Time)","534994","Match,No Match","","null","","","","","","<div class='trialBorder'><div class='vertical-center'><img style='vertical-align:center; align:center' src='img/fixation2_sml.jpg'></div><div class='arrayDiv2'><div class='tl'><img class='introPic' src='trustrating_stim/white_mw091.bmp'><br><font color='red'><strong>Keep</strong></font></div><div class='tr'><img class='introPic' src='trustrating_stim/white_mw003.bmp'><br><font color='green'><strong>Share</strong></font></div></div></div>","null","ARRAY","2","trustrating_stim/white_mw091.bmp,trustrating_stim/white_mw003.bmp","0,1","Match","e","3000","","","","",""
"html-keyboard-response","92","222065","0.0-7.0-3.11","5d7850851841fc0001e9c64d","bdp_wmem","Tue Mar 14 2023 00:06:53 GMT-0400 (Eastern Daylight Time)","534994","Match,No Match","","null","","","","","","<div class='trialBorder'><div class='vertical-center'><img src='img/fixation2_sml.jpg'</img></div></div>","null","DELAY","","","","","","","","","","",""
"html-keyboard-response","93","222791","0.0-7.0-4.11","5d7850851841fc0001e9c64d","bdp_wmem","Tue Mar 14 2023 00:06:53 GMT-0400 (Eastern Daylight Time)","534994","Match,No Match","","723","","","","","","<div class='trialBorder'><div class='targDiv'><div class='tc'><img class='introPic' src='trustrating_stim/white_mw091.bmp'><br><font color='red'><strong>Keep</strong></font></div></div><div class='respDiv'><div class='respDivL'>Match<br>(e)</div><div class='respDivR'>No Match<br>(i)</div></div></div>","e","TARGET","2","trustrating_stim/white_mw091.bmp,trustrating_stim/white_mw003.bmp","0,1","Match","e","3000","trustrating_stim/white_mw091.bmp","red","Keep","REAL","1"
"html-keyboard-response","94","223293","0.0-7.0-5.11","5d7850851841fc0001e9c64d","bdp_wmem","Tue Mar 14 2023 00:06:53 GMT-0400 (Eastern Daylight Time)","534994","Match,No Match","","null","","","","","","<div class='trialBorder'><div class='vertical-center'><img src='img/correct.jpg'></div><div class='respDiv'><div class='respDivL'><font style='color:orange'>Match<br>(e)</font></div><div class='respDivR'>No Match<br>(i)</div></div></div>","null","FEEDBACK","","","","","","","","","","",""
"html-keyboard-response","95","223794","0.0-7.0-1.12","5d7850851841fc0001e9c64d","bdp_wmem","Tue Mar 14 2023 00:06:53 GMT-0400 (Eastern Daylight Time)","534994","Match,No Match","","null","","","","","","<div class='trialBorder'><div class='vertical-center'><img src='img/fixation2_sml.jpg'</img></div></div>","null","FIX","","","","","","","","","","",""
"html-keyboard-response","96","225296","0.0-7.0-2.12","5d7850851841fc0001e9c64d","bdp_wmem","Tue Mar 14 2023 00:06:53 GMT-0400 (Eastern Daylight Time)","534994","Match,No Match","","null","","","","","","<div class='trialBorder'><div class='vertical-center'><img style='vertical-align:center; align:center' src='img/fixation2_sml.jpg'></div><div class='arrayDiv1'><div class='tc'><img class='introPic' src='trustrating_stim/white_mw070.bmp'><br><font color='green'><strong>Share</strong></font></div></div></div>","null","ARRAY","1","trustrating_stim/white_mw070.bmp","1","Match","e","1500","","","","",""
"html-keyboard-response","97","229298","0.0-7.0-3.12","5d7850851841fc0001e9c64d","bdp_wmem","Tue Mar 14 2023 00:06:53 GMT-0400 (Eastern Daylight Time)","534994","Match,No Match","","null","","","","","","<div class='trialBorder'><div class='vertical-center'><img src='img/fixation2_sml.jpg'</img></div></div>","null","DELAY","","","","","","","","","","",""
"html-keyboard-response","98","229918","0.0-7.0-4.12","5d7850851841fc0001e9c64d","bdp_wmem","Tue Mar 14 2023 00:06:53 GMT-0400 (Eastern Daylight Time)","534994","Match,No Match","","618","","","","","","<div class='trialBorder'><div class='targDiv'><div class='tc'><img class='introPic' src='trustrating_stim/white_mw070.bmp'><br><font color='green'><strong>Share</strong></font></div></div><div class='respDiv'><div class='respDivL'>Match<br>(e)</div><div class='respDivR'>No Match<br>(i)</div></div></div>","e","TARGET","1","trustrating_stim/white_mw070.bmp","1","Match","e","1500","trustrating_stim/white_mw070.bmp","green","Share","REAL","1"
"html-keyboard-response","99","230420","0.0-7.0-5.12","5d7850851841fc0001e9c64d","bdp_wmem","Tue Mar 14 2023 00:06:53 GMT-0400 (Eastern Daylight Time)","534994","Match,No Match","","null","","","","","","<div class='trialBorder'><div class='vertical-center'><img src='img/correct.jpg'></div><div class='respDiv'><div class='respDivL'><font style='color:orange'>Match<br>(e)</font></div><div class='respDivR'>No Match<br>(i)</div></div></div>","null","FEEDBACK","","","","","","","","","","",""
"html-keyboard-response","100","230921","0.0-7.0-1.13","5d7850851841fc0001e9c64d","bdp_wmem","Tue Mar 14 2023 00:06:53 GMT-0400 (Eastern Daylight Time)","534994","Match,No Match","","null","","","","","","<div class='trialBorder'><div class='vertical-center'><img src='img/fixation2_sml.jpg'</img></div></div>","null","FIX","","","","","","","","","","",""
"html-keyboard-response","101","233923","0.0-7.0-2.13","5d7850851841fc0001e9c64d","bdp_wmem","Tue Mar 14 2023 00:06:53 GMT-0400 (Eastern Daylight Time)","534994","Match,No Match","","null","","","","","","<div class='trialBorder'><div class='vertical-center'><img style='vertical-align:center; align:center' src='img/fixation2_sml.jpg'></div><div class='arrayDiv2'><div class='tl'><img class='introPic' src='trustrating_stim/white_mw091.bmp'><br><font color='green'><strong>Share</strong></font></div><div class='tr'><img class='introPic' src='trustrating_stim/white_mw038.bmp'><br><font color='red'><strong>Keep</strong></font></div></div></div>","null","ARRAY","2","trustrating_stim/white_mw091.bmp,trustrating_stim/white_mw038.bmp","1,0","noMatchOutcome","i","3000","","","","",""
"html-keyboard-response","102","237925","0.0-7.0-3.13","5d7850851841fc0001e9c64d","bdp_wmem","Tue Mar 14 2023 00:06:53 GMT-0400 (Eastern Daylight Time)","534994","Match,No Match","","null","","","","","","<div class='trialBorder'><div class='vertical-center'><img src='img/fixation2_sml.jpg'</img></div></div>","null","DELAY","","","","","","","","","","",""
"html-keyboard-response","103","238825","0.0-7.0-4.13","5d7850851841fc0001e9c64d","bdp_wmem","Tue Mar 14 2023 00:06:53 GMT-0400 (Eastern Daylight Time)","534994","Match,No Match","","898","","","","","","<div class='trialBorder'><div class='targDiv'><div class='tc'><img class='introPic' src='trustrating_stim/white_mw091.bmp'><br><font color='red'><strong>Keep</strong></font></div></div><div class='respDiv'><div class='respDivL'>Match<br>(e)</div><div class='respDivR'>No Match<br>(i)</div></div></div>","i","TARGET","2","trustrating_stim/white_mw091.bmp,trustrating_stim/white_mw038.bmp","1,0","noMatchOutcome","i","3000","trustrating_stim/white_mw091.bmp","red","Keep","REAL","1"
"html-keyboard-response","104","239327","0.0-7.0-5.13","5d7850851841fc0001e9c64d","bdp_wmem","Tue Mar 14 2023 00:06:53 GMT-0400 (Eastern Daylight Time)","534994","Match,No Match","","null","","","","","","<div class='trialBorder'><div class='vertical-center'><img src='img/correct.jpg'></div><div class='respDiv'><div class='respDivL'>Match<br>(e)</div><div class='respDivR'><font style='color:orange'>No Match<br>(i)</font></div></div></div>","null","FEEDBACK","","","","","","","","","","",""
"html-keyboard-response","105","239830","0.0-7.0-1.14","5d7850851841fc0001e9c64d","bdp_wmem","Tue Mar 14 2023 00:06:53 GMT-0400 (Eastern Daylight Time)","534994","Match,No Match","","null","","","","","","<div class='trialBorder'><div class='vertical-center'><img src='img/fixation2_sml.jpg'</img></div></div>","null","FIX","","","","","","","","","","",""
"html-keyboard-response","106","242832","0.0-7.0-2.14","5d7850851841fc0001e9c64d","bdp_wmem","Tue Mar 14 2023 00:06:53 GMT-0400 (Eastern Daylight Time)","534994","Match,No Match","","null","","","","","","<div class='trialBorder'><div class='vertical-center'><img style='vertical-align:center; align:center' src='img/fixation2_sml.jpg'></div><div class='arrayDiv2'><div class='tl'><img class='introPic' src='trustrating_stim/white_mw040.bmp'><br><font color='red'><strong>Keep</strong></font></div><div class='tr'><img class='introPic' src='trustrating_stim/white_mw012.bmp'><br><font color='green'><strong>Share</strong></font></div></div></div>","null","ARRAY","2","trustrating_stim/white_mw040.bmp,trustrating_stim/white_mw012.bmp","0,1","noMatchFace","i","3000","","","","",""
"html-keyboard-response","107","246833","0.0-7.0-3.14","5d7850851841fc0001e9c64d","bdp_wmem","Tue Mar 14 2023 00:06:53 GMT-0400 (Eastern Daylight Time)","534994","Match,No Match","","null","","","","","","<div class='trialBorder'><div class='vertical-center'><img src='img/fixation2_sml.jpg'</img></div></div>","null","DELAY","","","","","","","","","","",""
"html-keyboard-response","108","247515","0.0-7.0-4.14","5d7850851841fc0001e9c64d","bdp_wmem","Tue Mar 14 2023 00:06:53 GMT-0400 (Eastern Daylight Time)","534994","Match,No Match","","680","","","","","","<div class='trialBorder'><div class='targDiv'><div class='tc'><img class='introPic' src='trustrating_stim/white_mw013.bmp'><br><font color='green'><strong>Share</strong></font></div></div><div class='respDiv'><div class='respDivL'>Match<br>(e)</div><div class='respDivR'>No Match<br>(i)</div></div></div>","i","TARGET","2","trustrating_stim/white_mw040.bmp,trustrating_stim/white_mw012.bmp","0,1","noMatchFace","i","3000","trustrating_stim/white_mw013.bmp","green","Share","REAL","1"
"html-keyboard-response","109","248017","0.0-7.0-5.14","5d7850851841fc0001e9c64d","bdp_wmem","Tue Mar 14 2023 00:06:53 GMT-0400 (Eastern Daylight Time)","534994","Match,No Match","","null","","","","","","<div class='trialBorder'><div class='vertical-center'><img src='img/correct.jpg'></div><div class='respDiv'><div class='respDivL'>Match<br>(e)</div><div class='respDivR'><font style='color:orange'>No Match<br>(i)</font></div></div></div>","null","FEEDBACK","","","","","","","","","","",""
"html-keyboard-response","110","248519","0.0-7.0-1.15","5d7850851841fc0001e9c64d","bdp_wmem","Tue Mar 14 2023 00:06:53 GMT-0400 (Eastern Daylight Time)","534994","Match,No Match","","null","","","","","","<div class='trialBorder'><div class='vertical-center'><img src='img/fixation2_sml.jpg'</img></div></div>","null","FIX","","","","","","","","","","",""
"html-keyboard-response","111","251523","0.0-7.0-2.15","5d7850851841fc0001e9c64d","bdp_wmem","Tue Mar 14 2023 00:06:53 GMT-0400 (Eastern Daylight Time)","534994","Match,No Match","","null","","","","","","<div class='trialBorder'><div class='vertical-center'><img style='vertical-align:center; align:center' src='img/fixation2_sml.jpg'></div><div class='arrayDiv2'><div class='tl'><img class='introPic' src='trustrating_stim/white_mw040.bmp'><br><font color='green'><strong>Share</strong></font></div><div class='tr'><img class='introPic' src='trustrating_stim/white_mw078.bmp'><br><font color='red'><strong>Keep</strong></font></div></div></div>","null","ARRAY","2","trustrating_stim/white_mw040.bmp,trustrating_stim/white_mw078.bmp","1,0","Match","e","3000","","","","",""
"html-keyboard-response","112","255526","0.0-7.0-3.15","5d7850851841fc0001e9c64d","bdp_wmem","Tue Mar 14 2023 00:06:53 GMT-0400 (Eastern Daylight Time)","534994","Match,No Match","","null","","","","","","<div class='trialBorder'><div class='vertical-center'><img src='img/fixation2_sml.jpg'</img></div></div>","null","DELAY","","","","","","","","","","",""
"html-keyboard-response","113","256520","0.0-7.0-4.15","5d7850851841fc0001e9c64d","bdp_wmem","Tue Mar 14 2023 00:06:53 GMT-0400 (Eastern Daylight Time)","534994","Match,No Match","","991","","","","","","<div class='trialBorder'><div class='targDiv'><div class='tc'><img class='introPic' src='trustrating_stim/white_mw078.bmp'><br><font color='red'><strong>Keep</strong></font></div></div><div class='respDiv'><div class='respDivL'>Match<br>(e)</div><div class='respDivR'>No Match<br>(i)</div></div></div>","e","TARGET","2","trustrating_stim/white_mw040.bmp,trustrating_stim/white_mw078.bmp","1,0","Match","e","3000","trustrating_stim/white_mw078.bmp","red","Keep","REAL","1"
"html-keyboard-response","114","257021","0.0-7.0-5.15","5d7850851841fc0001e9c64d","bdp_wmem","Tue Mar 14 2023 00:06:53 GMT-0400 (Eastern Daylight Time)","534994","Match,No Match","","null","","","","","","<div class='trialBorder'><div class='vertical-center'><img src='img/correct.jpg'></div><div class='respDiv'><div class='respDivL'><font style='color:orange'>Match<br>(e)</font></div><div class='respDivR'>No Match<br>(i)</div></div></div>","null","FEEDBACK","","","","","","","","","","",""
"html-keyboard-response","115","257523","0.0-7.0-1.16","5d7850851841fc0001e9c64d","bdp_wmem","Tue Mar 14 2023 00:06:53 GMT-0400 (Eastern Daylight Time)","534994","Match,No Match","","null","","","","","","<div class='trialBorder'><div class='vertical-center'><img src='img/fixation2_sml.jpg'</img></div></div>","null","FIX","","","","","","","","","","",""
"html-keyboard-response","116","259025","0.0-7.0-2.16","5d7850851841fc0001e9c64d","bdp_wmem","Tue Mar 14 2023 00:06:53 GMT-0400 (Eastern Daylight Time)","534994","Match,No Match","","null","","","","","","<div class='trialBorder'><div class='vertical-center'><img style='vertical-align:center; align:center' src='img/fixation2_sml.jpg'></div><div class='arrayDiv1'><div class='tc'><img class='introPic' src='trustrating_stim/white_mw091.bmp'><br><font color='green'><strong>Share</strong></font></div></div></div>","null","ARRAY","1","trustrating_stim/white_mw091.bmp","1","Match","e","1500","","","","",""
"html-keyboard-response","117","263028","0.0-7.0-3.16","5d7850851841fc0001e9c64d","bdp_wmem","Tue Mar 14 2023 00:06:53 GMT-0400 (Eastern Daylight Time)","534994","Match,No Match","","null","","","","","","<div class='trialBorder'><div class='vertical-center'><img src='img/fixation2_sml.jpg'</img></div></div>","null","DELAY","","","","","","","","","","",""
"html-keyboard-response","118","263487","0.0-7.0-4.16","5d7850851841fc0001e9c64d","bdp_wmem","Tue Mar 14 2023 00:06:53 GMT-0400 (Eastern Daylight Time)","534994","Match,No Match","","457","","","","","","<div class='trialBorder'><div class='targDiv'><div class='tc'><img class='introPic' src='trustrating_stim/white_mw091.bmp'><br><font color='green'><strong>Share</strong></font></div></div><div class='respDiv'><div class='respDivL'>Match<br>(e)</div><div class='respDivR'>No Match<br>(i)</div></div></div>","e","TARGET","1","trustrating_stim/white_mw091.bmp","1","Match","e","1500","trustrating_stim/white_mw091.bmp","green","Share","REAL","1"
"html-keyboard-response","119","263988","0.0-7.0-5.16","5d7850851841fc0001e9c64d","bdp_wmem","Tue Mar 14 2023 00:06:53 GMT-0400 (Eastern Daylight Time)","534994","Match,No Match","","null","","","","","","<div class='trialBorder'><div class='vertical-center'><img src='img/correct.jpg'></div><div class='respDiv'><div class='respDivL'><font style='color:orange'>Match<br>(e)</font></div><div class='respDivR'>No Match<br>(i)</div></div></div>","null","FEEDBACK","","","","","","","","","","",""
"html-keyboard-response","120","264490","0.0-7.0-1.17","5d7850851841fc0001e9c64d","bdp_wmem","Tue Mar 14 2023 00:06:53 GMT-0400 (Eastern Daylight Time)","534994","Match,No Match","","null","","","","","","<div class='trialBorder'><div class='vertical-center'><img src='img/fixation2_sml.jpg'</img></div></div>","null","FIX","","","","","","","","","","",""
"html-keyboard-response","121","267493","0.0-7.0-2.17","5d7850851841fc0001e9c64d","bdp_wmem","Tue Mar 14 2023 00:06:53 GMT-0400 (Eastern Daylight Time)","534994","Match,No Match","","null","","","","","","<div class='trialBorder'><div class='vertical-center'><img style='vertical-align:center; align:center' src='img/fixation2_sml.jpg'></div><div class='arrayDiv2'><div class='tl'><img class='introPic' src='trustrating_stim/white_mw010.bmp'><br><font color='red'><strong>Keep</strong></font></div><div class='tr'><img class='introPic' src='trustrating_stim/white_mw013.bmp'><br><font color='green'><strong>Share</strong></font></div></div></div>","null","ARRAY","2","trustrating_stim/white_mw010.bmp,trustrating_stim/white_mw013.bmp","0,1","noMatchOutcome","i","3000","","","","",""
"html-keyboard-response","122","271496","0.0-7.0-3.17","5d7850851841fc0001e9c64d","bdp_wmem","Tue Mar 14 2023 00:06:53 GMT-0400 (Eastern Daylight Time)","534994","Match,No Match","","null","","","","","","<div class='trialBorder'><div class='vertical-center'><img src='img/fixation2_sml.jpg'</img></div></div>","null","DELAY","","","","","","","","","","",""
"html-keyboard-response","123","272567","0.0-7.0-4.17","5d7850851841fc0001e9c64d","bdp_wmem","Tue Mar 14 2023 00:06:53 GMT-0400 (Eastern Daylight Time)","534994","Match,No Match","","1069","","","","","","<div class='trialBorder'><div class='targDiv'><div class='tc'><img class='introPic' src='trustrating_stim/white_mw013.bmp'><br><font color='red'><strong>Keep</strong></font></div></div><div class='respDiv'><div class='respDivL'>Match<br>(e)</div><div class='respDivR'>No Match<br>(i)</div></div></div>","i","TARGET","2","trustrating_stim/white_mw010.bmp,trustrating_stim/white_mw013.bmp","0,1","noMatchOutcome","i","3000","trustrating_stim/white_mw013.bmp","red","Keep","REAL","1"
"html-keyboard-response","124","273069","0.0-7.0-5.17","5d7850851841fc0001e9c64d","bdp_wmem","Tue Mar 14 2023 00:06:53 GMT-0400 (Eastern Daylight Time)","534994","Match,No Match","","null","","","","","","<div class='trialBorder'><div class='vertical-center'><img src='img/correct.jpg'></div><div class='respDiv'><div class='respDivL'>Match<br>(e)</div><div class='respDivR'><font style='color:orange'>No Match<br>(i)</font></div></div></div>","null","FEEDBACK","","","","","","","","","","",""
"html-keyboard-response","125","273571","0.0-7.0-1.18","5d7850851841fc0001e9c64d","bdp_wmem","Tue Mar 14 2023 00:06:53 GMT-0400 (Eastern Daylight Time)","534994","Match,No Match","","null","","","","","","<div class='trialBorder'><div class='vertical-center'><img src='img/fixation2_sml.jpg'</img></div></div>","null","FIX","","","","","","","","","","",""
"html-keyboard-response","126","278074","0.0-7.0-2.18","5d7850851841fc0001e9c64d","bdp_wmem","Tue Mar 14 2023 00:06:53 GMT-0400 (Eastern Daylight Time)","534994","Match,No Match","","null","","","","","","<div class='trialBorder'><div class='vertical-center'><img style='vertical-align:center; align:center' src='img/fixation2_sml.jpg'></div><div class='arrayDiv3'><div class='tl'><img class='introPic' src='trustrating_stim/white_mw010.bmp'><br><font color='green'><strong>Share</strong></font></div><div class='tc'><img class='introPic' src='trustrating_stim/white_mw091.bmp'><br><font color='green'><strong>Share</strong></font></div><div class='tr'><img class='introPic' src='trustrating_stim/white_mw070.bmp'><br><font color='red'><strong>Keep</strong></font></div></div></div>","null","ARRAY","3","trustrating_stim/white_mw010.bmp,trustrating_stim/white_mw091.bmp,trustrating_stim/white_mw070.bmp","1,1,0","noMatchFace","i","4500","","","","",""
"html-keyboard-response","127","282076","0.0-7.0-3.18","5d7850851841fc0001e9c64d","bdp_wmem","Tue Mar 14 2023 00:06:53 GMT-0400 (Eastern Daylight Time)","534994","Match,No Match","","null","","","","","","<div class='trialBorder'><div class='vertical-center'><img src='img/fixation2_sml.jpg'</img></div></div>","null","DELAY","","","","","","","","","","",""
"html-keyboard-response","128","282850","0.0-7.0-4.18","5d7850851841fc0001e9c64d","bdp_wmem","Tue Mar 14 2023 00:06:53 GMT-0400 (Eastern Daylight Time)","534994","Match,No Match","","771","","","","","","<div class='trialBorder'><div class='targDiv'><div class='tc'><img class='introPic' src='trustrating_stim/white_mw085.bmp'><br><font color='red'><strong>Keep</strong></font></div></div><div class='respDiv'><div class='respDivL'>Match<br>(e)</div><div class='respDivR'>No Match<br>(i)</div></div></div>","i","TARGET","3","trustrating_stim/white_mw010.bmp,trustrating_stim/white_mw091.bmp,trustrating_stim/white_mw070.bmp","1,1,0","noMatchFace","i","4500","trustrating_stim/white_mw085.bmp","red","Keep","REAL","1"
"html-keyboard-response","129","283351","0.0-7.0-5.18","5d7850851841fc0001e9c64d","bdp_wmem","Tue Mar 14 2023 00:06:53 GMT-0400 (Eastern Daylight Time)","534994","Match,No Match","","null","","","","","","<div class='trialBorder'><div class='vertical-center'><img src='img/correct.jpg'></div><div class='respDiv'><div class='respDivL'>Match<br>(e)</div><div class='respDivR'><font style='color:orange'>No Match<br>(i)</font></div></div></div>","null","FEEDBACK","","","","","","","","","","",""
"html-keyboard-response","130","283852","0.0-7.0-1.19","5d7850851841fc0001e9c64d","bdp_wmem","Tue Mar 14 2023 00:06:53 GMT-0400 (Eastern Daylight Time)","534994","Match,No Match","","null","","","","","","<div class='trialBorder'><div class='vertical-center'><img src='img/fixation2_sml.jpg'</img></div></div>","null","FIX","","","","","","","","","","",""
"html-keyboard-response","131","288354","0.0-7.0-2.19","5d7850851841fc0001e9c64d","bdp_wmem","Tue Mar 14 2023 00:06:53 GMT-0400 (Eastern Daylight Time)","534994","Match,No Match","","null","","","","","","<div class='trialBorder'><div class='vertical-center'><img style='vertical-align:center; align:center' src='img/fixation2_sml.jpg'></div><div class='arrayDiv3'><div class='tl'><img class='introPic' src='trustrating_stim/white_mw091.bmp'><br><font color='red'><strong>Keep</strong></font></div><div class='tc'><img class='introPic' src='trustrating_stim/white_mw012.bmp'><br><font color='green'><strong>Share</strong></font></div><div class='tr'><img class='introPic' src='trustrating_stim/white_mw070.bmp'><br><font color='green'><strong>Share</strong></font></div></div></div>","null","ARRAY","3","trustrating_stim/white_mw091.bmp,trustrating_stim/white_mw012.bmp,trustrating_stim/white_mw070.bmp","0,1,1","noMatchFace","i","4500","","","","",""
"html-keyboard-response","132","292357","0.0-7.0-3.19","5d7850851841fc0001e9c64d","bdp_wmem","Tue Mar 14 2023 00:06:53 GMT-0400 (Eastern Daylight Time)","534994","Match,No Match","","null","","","","","","<div class='trialBorder'><div class='vertical-center'><img src='img/fixation2_sml.jpg'</img></div></div>","null","DELAY","","","","","","","","","","",""
"html-keyboard-response","133","293025","0.0-7.0-4.19","5d7850851841fc0001e9c64d","bdp_wmem","Tue Mar 14 2023 00:06:53 GMT-0400 (Eastern Daylight Time)","534994","Match,No Match","","665","","","","","","<div class='trialBorder'><div class='targDiv'><div class='tc'><img class='introPic' src='trustrating_stim/white_mw003.bmp'><br><font color='red'><strong>Keep</strong></font></div></div><div class='respDiv'><div class='respDivL'>Match<br>(e)</div><div class='respDivR'>No Match<br>(i)</div></div></div>","i","TARGET","3","trustrating_stim/white_mw091.bmp,trustrating_stim/white_mw012.bmp,trustrating_stim/white_mw070.bmp","0,1,1","noMatchFace","i","4500","trustrating_stim/white_mw003.bmp","red","Keep","REAL","1"
"html-keyboard-response","134","293527","0.0-7.0-5.19","5d7850851841fc0001e9c64d","bdp_wmem","Tue Mar 14 2023 00:06:53 GMT-0400 (Eastern Daylight Time)","534994","Match,No Match","","null","","","","","","<div class='trialBorder'><div class='vertical-center'><img src='img/correct.jpg'></div><div class='respDiv'><div class='respDivL'>Match<br>(e)</div><div class='respDivR'><font style='color:orange'>No Match<br>(i)</font></div></div></div>","null","FEEDBACK","","","","","","","","","","",""
"html-keyboard-response","135","294029","0.0-7.0-1.20","5d7850851841fc0001e9c64d","bdp_wmem","Tue Mar 14 2023 00:06:53 GMT-0400 (Eastern Daylight Time)","534994","Match,No Match","","null","","","","","","<div class='trialBorder'><div class='vertical-center'><img src='img/fixation2_sml.jpg'</img></div></div>","null","FIX","","","","","","","","","","",""
"html-keyboard-response","136","298533","0.0-7.0-2.20","5d7850851841fc0001e9c64d","bdp_wmem","Tue Mar 14 2023 00:06:53 GMT-0400 (Eastern Daylight Time)","534994","Match,No Match","","null","","","","","","<div class='trialBorder'><div class='vertical-center'><img style='vertical-align:center; align:center' src='img/fixation2_sml.jpg'></div><div class='arrayDiv3'><div class='tl'><img class='introPic' src='trustrating_stim/white_mw012.bmp'><br><font color='red'><strong>Keep</strong></font></div><div class='tc'><img class='introPic' src='trustrating_stim/white_mw010.bmp'><br><font color='red'><strong>Keep</strong></font></div><div class='tr'><img class='introPic' src='trustrating_stim/white_mw078.bmp'><br><font color='green'><strong>Share</strong></font></div></div></div>","null","ARRAY","3","trustrating_stim/white_mw012.bmp,trustrating_stim/white_mw010.bmp,trustrating_stim/white_mw078.bmp","0,0,1","Match","e","4500","","","","",""
"html-keyboard-response","137","302534","0.0-7.0-3.20","5d7850851841fc0001e9c64d","bdp_wmem","Tue Mar 14 2023 00:06:53 GMT-0400 (Eastern Daylight Time)","534994","Match,No Match","","null","","","","","","<div class='trialBorder'><div class='vertical-center'><img src='img/fixation2_sml.jpg'</img></div></div>","null","DELAY","","","","","","","","","","",""
"html-keyboard-response","138","303782","0.0-7.0-4.20","5d7850851841fc0001e9c64d","bdp_wmem","Tue Mar 14 2023 00:06:53 GMT-0400 (Eastern Daylight Time)","534994","Match,No Match","","1246","","","","","","<div class='trialBorder'><div class='targDiv'><div class='tc'><img class='introPic' src='trustrating_stim/white_mw012.bmp'><br><font color='red'><strong>Keep</strong></font></div></div><div class='respDiv'><div class='respDivL'>Match<br>(e)</div><div class='respDivR'>No Match<br>(i)</div></div></div>","e","TARGET","3","trustrating_stim/white_mw012.bmp,trustrating_stim/white_mw010.bmp,trustrating_stim/white_mw078.bmp","0,0,1","Match","e","4500","trustrating_stim/white_mw012.bmp","red","Keep","REAL","1"
"html-keyboard-response","139","304284","0.0-7.0-5.20","5d7850851841fc0001e9c64d","bdp_wmem","Tue Mar 14 2023 00:06:53 GMT-0400 (Eastern Daylight Time)","534994","Match,No Match","","null","","","","","","<div class='trialBorder'><div class='vertical-center'><img src='img/correct.jpg'></div><div class='respDiv'><div class='respDivL'><font style='color:orange'>Match<br>(e)</font></div><div class='respDivR'>No Match<br>(i)</div></div></div>","null","FEEDBACK","","","","","","","","","","",""
"html-keyboard-response","140","304785","0.0-7.0-1.21","5d7850851841fc0001e9c64d","bdp_wmem","Tue Mar 14 2023 00:06:53 GMT-0400 (Eastern Daylight Time)","534994","Match,No Match","","null","","","","","","<div class='trialBorder'><div class='vertical-center'><img src='img/fixation2_sml.jpg'</img></div></div>","null","FIX","","","","","","","","","","",""
"html-keyboard-response","141","306288","0.0-7.0-2.21","5d7850851841fc0001e9c64d","bdp_wmem","Tue Mar 14 2023 00:06:53 GMT-0400 (Eastern Daylight Time)","534994","Match,No Match","","null","","","","","","<div class='trialBorder'><div class='vertical-center'><img style='vertical-align:center; align:center' src='img/fixation2_sml.jpg'></div><div class='arrayDiv1'><div class='tc'><img class='introPic' src='trustrating_stim/white_mw040.bmp'><br><font color='red'><strong>Keep</strong></font></div></div></div>","null","ARRAY","1","trustrating_stim/white_mw040.bmp","0","noMatchFace","i","1500","","","","",""
"html-keyboard-response","142","310290","0.0-7.0-3.21","5d7850851841fc0001e9c64d","bdp_wmem","Tue Mar 14 2023 00:06:53 GMT-0400 (Eastern Daylight Time)","534994","Match,No Match","","null","","","","","","<div class='trialBorder'><div class='vertical-center'><img src='img/fixation2_sml.jpg'</img></div></div>","null","DELAY","","","","","","","","","","",""
"html-keyboard-response","143","310819","0.0-7.0-4.21","5d7850851841fc0001e9c64d","bdp_wmem","Tue Mar 14 2023 00:06:53 GMT-0400 (Eastern Daylight Time)","534994","Match,No Match","","527","","","","","","<div class='trialBorder'><div class='targDiv'><div class='tc'><img class='introPic' src='trustrating_stim/white_mw092.bmp'><br><font color='red'><strong>Keep</strong></font></div></div><div class='respDiv'><div class='respDivL'>Match<br>(e)</div><div class='respDivR'>No Match<br>(i)</div></div></div>","i","TARGET","1","trustrating_stim/white_mw040.bmp","0","noMatchFace","i","1500","trustrating_stim/white_mw092.bmp","red","Keep","REAL","1"
"html-keyboard-response","144","311321","0.0-7.0-5.21","5d7850851841fc0001e9c64d","bdp_wmem","Tue Mar 14 2023 00:06:53 GMT-0400 (Eastern Daylight Time)","534994","Match,No Match","","null","","","","","","<div class='trialBorder'><div class='vertical-center'><img src='img/correct.jpg'></div><div class='respDiv'><div class='respDivL'>Match<br>(e)</div><div class='respDivR'><font style='color:orange'>No Match<br>(i)</font></div></div></div>","null","FEEDBACK","","","","","","","","","","",""
"html-keyboard-response","145","311823","0.0-7.0-1.22","5d7850851841fc0001e9c64d","bdp_wmem","Tue Mar 14 2023 00:06:53 GMT-0400 (Eastern Daylight Time)","534994","Match,No Match","","null","","","","","","<div class='trialBorder'><div class='vertical-center'><img src='img/fixation2_sml.jpg'</img></div></div>","null","FIX","","","","","","","","","","",""
"html-keyboard-response","146","313325","0.0-7.0-2.22","5d7850851841fc0001e9c64d","bdp_wmem","Tue Mar 14 2023 00:06:53 GMT-0400 (Eastern Daylight Time)","534994","Match,No Match","","null","","","","","","<div class='trialBorder'><div class='vertical-center'><img style='vertical-align:center; align:center' src='img/fixation2_sml.jpg'></div><div class='arrayDiv1'><div class='tc'><img class='introPic' src='trustrating_stim/white_mw042.bmp'><br><font color='green'><strong>Share</strong></font></div></div></div>","null","ARRAY","1","trustrating_stim/white_mw042.bmp","1","Match","e","1500","","","","",""
"html-keyboard-response","147","317326","0.0-7.0-3.22","5d7850851841fc0001e9c64d","bdp_wmem","Tue Mar 14 2023 00:06:53 GMT-0400 (Eastern Daylight Time)","534994","Match,No Match","","null","","","","","","<div class='trialBorder'><div class='vertical-center'><img src='img/fixation2_sml.jpg'</img></div></div>","null","DELAY","","","","","","","","","","",""
"html-keyboard-response","148","317765","0.0-7.0-4.22","5d7850851841fc0001e9c64d","bdp_wmem","Tue Mar 14 2023 00:06:53 GMT-0400 (Eastern Daylight Time)","534994","Match,No Match","","438","","","","","","<div class='trialBorder'><div class='targDiv'><div class='tc'><img class='introPic' src='trustrating_stim/white_mw042.bmp'><br><font color='green'><strong>Share</strong></font></div></div><div class='respDiv'><div class='respDivL'>Match<br>(e)</div><div class='respDivR'>No Match<br>(i)</div></div></div>","e","TARGET","1","trustrating_stim/white_mw042.bmp","1","Match","e","1500","trustrating_stim/white_mw042.bmp","green","Share","REAL","1"
"html-keyboard-response","149","318267","0.0-7.0-5.22","5d7850851841fc0001e9c64d","bdp_wmem","Tue Mar 14 2023 00:06:53 GMT-0400 (Eastern Daylight Time)","534994","Match,No Match","","null","","","","","","<div class='trialBorder'><div class='vertical-center'><img src='img/correct.jpg'></div><div class='respDiv'><div class='respDivL'><font style='color:orange'>Match<br>(e)</font></div><div class='respDivR'>No Match<br>(i)</div></div></div>","null","FEEDBACK","","","","","","","","","","",""
"html-keyboard-response","150","318769","0.0-7.0-1.23","5d7850851841fc0001e9c64d","bdp_wmem","Tue Mar 14 2023 00:06:53 GMT-0400 (Eastern Daylight Time)","534994","Match,No Match","","null","","","","","","<div class='trialBorder'><div class='vertical-center'><img src='img/fixation2_sml.jpg'</img></div></div>","null","FIX","","","","","","","","","","",""
"html-keyboard-response","151","321770","0.0-7.0-2.23","5d7850851841fc0001e9c64d","bdp_wmem","Tue Mar 14 2023 00:06:53 GMT-0400 (Eastern Daylight Time)","534994","Match,No Match","","null","","","","","","<div class='trialBorder'><div class='vertical-center'><img style='vertical-align:center; align:center' src='img/fixation2_sml.jpg'></div><div class='arrayDiv2'><div class='tl'><img class='introPic' src='trustrating_stim/white_mw038.bmp'><br><font color='red'><strong>Keep</strong></font></div><div class='tr'><img class='introPic' src='trustrating_stim/white_mw012.bmp'><br><font color='green'><strong>Share</strong></font></div></div></div>","null","ARRAY","2","trustrating_stim/white_mw038.bmp,trustrating_stim/white_mw012.bmp","0,1","noMatchOutcome","i","3000","","","","",""
"html-keyboard-response","152","325772","0.0-7.0-3.23","5d7850851841fc0001e9c64d","bdp_wmem","Tue Mar 14 2023 00:06:53 GMT-0400 (Eastern Daylight Time)","534994","Match,No Match","","null","","","","","","<div class='trialBorder'><div class='vertical-center'><img src='img/fixation2_sml.jpg'</img></div></div>","null","DELAY","","","","","","","","","","",""
"html-keyboard-response","153","326335","0.0-7.0-4.23","5d7850851841fc0001e9c64d","bdp_wmem","Tue Mar 14 2023 00:06:53 GMT-0400 (Eastern Daylight Time)","534994","Match,No Match","","560","","","","","","<div class='trialBorder'><div class='targDiv'><div class='tc'><img class='introPic' src='trustrating_stim/white_mw038.bmp'><br><font color='green'><strong>Share</strong></font></div></div><div class='respDiv'><div class='respDivL'>Match<br>(e)</div><div class='respDivR'>No Match<br>(i)</div></div></div>","i","TARGET","2","trustrating_stim/white_mw038.bmp,trustrating_stim/white_mw012.bmp","0,1","noMatchOutcome","i","3000","trustrating_stim/white_mw038.bmp","green","Share","REAL","1"
"html-keyboard-response","154","326837","0.0-7.0-5.23","5d7850851841fc0001e9c64d","bdp_wmem","Tue Mar 14 2023 00:06:53 GMT-0400 (Eastern Daylight Time)","534994","Match,No Match","","null","","","","","","<div class='trialBorder'><div class='vertical-center'><img src='img/correct.jpg'></div><div class='respDiv'><div class='respDivL'>Match<br>(e)</div><div class='respDivR'><font style='color:orange'>No Match<br>(i)</font></div></div></div>","null","FEEDBACK","","","","","","","","","","",""
"html-keyboard-response","155","327338","0.0-7.0-1.24","5d7850851841fc0001e9c64d","bdp_wmem","Tue Mar 14 2023 00:06:53 GMT-0400 (Eastern Daylight Time)","534994","Match,No Match","","null","","","","","","<div class='trialBorder'><div class='vertical-center'><img src='img/fixation2_sml.jpg'</img></div></div>","null","FIX","","","","","","","","","","",""
"html-keyboard-response","156","330341","0.0-7.0-2.24","5d7850851841fc0001e9c64d","bdp_wmem","Tue Mar 14 2023 00:06:53 GMT-0400 (Eastern Daylight Time)","534994","Match,No Match","","null","","","","","","<div class='trialBorder'><div class='vertical-center'><img style='vertical-align:center; align:center' src='img/fixation2_sml.jpg'></div><div class='arrayDiv2'><div class='tl'><img class='introPic' src='trustrating_stim/white_mw040.bmp'><br><font color='green'><strong>Share</strong></font></div><div class='tr'><img class='introPic' src='trustrating_stim/white_mw091.bmp'><br><font color='red'><strong>Keep</strong></font></div></div></div>","null","ARRAY","2","trustrating_stim/white_mw040.bmp,trustrating_stim/white_mw091.bmp","1,0","Match","e","3000","","","","",""
"html-keyboard-response","157","334342","0.0-7.0-3.24","5d7850851841fc0001e9c64d","bdp_wmem","Tue Mar 14 2023 00:06:53 GMT-0400 (Eastern Daylight Time)","534994","Match,No Match","","null","","","","","","<div class='trialBorder'><div class='vertical-center'><img src='img/fixation2_sml.jpg'</img></div></div>","null","DELAY","","","","","","","","","","",""
"html-keyboard-response","158","335354","0.0-7.0-4.24","5d7850851841fc0001e9c64d","bdp_wmem","Tue Mar 14 2023 00:06:53 GMT-0400 (Eastern Daylight Time)","534994","Match,No Match","","1011","","","","","","<div class='trialBorder'><div class='targDiv'><div class='tc'><img class='introPic' src='trustrating_stim/white_mw040.bmp'><br><font color='green'><strong>Share</strong></font></div></div><div class='respDiv'><div class='respDivL'>Match<br>(e)</div><div class='respDivR'>No Match<br>(i)</div></div></div>","i","TARGET","2","trustrating_stim/white_mw040.bmp,trustrating_stim/white_mw091.bmp","1,0","Match","e","3000","trustrating_stim/white_mw040.bmp","green","Share","REAL","0"
"html-keyboard-response","159","335856","0.0-7.0-5.24","5d7850851841fc0001e9c64d","bdp_wmem","Tue Mar 14 2023 00:06:53 GMT-0400 (Eastern Daylight Time)","534994","Match,No Match","","null","","","","","","<div class='trialBorder'><div class='vertical-center'><img src='img/error.jpg'></div><div class='respDiv'><div class='respDivL'>Match<br>(e)</div><div class='respDivR'><font style='color:orange'>No Match<br>(i)</font></div></div></div>","null","FEEDBACK","","","","","","","","","","",""
"html-keyboard-response","160","336358","0.0-7.0-1.25","5d7850851841fc0001e9c64d","bdp_wmem","Tue Mar 14 2023 00:06:53 GMT-0400 (Eastern Daylight Time)","534994","Match,No Match","","null","","","","","","<div class='trialBorder'><div class='vertical-center'><img src='img/fixation2_sml.jpg'</img></div></div>","null","FIX","","","","","","","","","","",""
"html-keyboard-response","161","339360","0.0-7.0-2.25","5d7850851841fc0001e9c64d","bdp_wmem","Tue Mar 14 2023 00:06:53 GMT-0400 (Eastern Daylight Time)","534994","Match,No Match","","null","","","","","","<div class='trialBorder'><div class='vertical-center'><img style='vertical-align:center; align:center' src='img/fixation2_sml.jpg'></div><div class='arrayDiv2'><div class='tl'><img class='introPic' src='trustrating_stim/white_mw003.bmp'><br><font color='green'><strong>Share</strong></font></div><div class='tr'><img class='introPic' src='trustrating_stim/white_mw040.bmp'><br><font color='red'><strong>Keep</strong></font></div></div></div>","null","ARRAY","2","trustrating_stim/white_mw003.bmp,trustrating_stim/white_mw040.bmp","1,0","Match","e","3000","","","","",""
"html-keyboard-response","162","343363","0.0-7.0-3.25","5d7850851841fc0001e9c64d","bdp_wmem","Tue Mar 14 2023 00:06:53 GMT-0400 (Eastern Daylight Time)","534994","Match,No Match","","null","","","","","","<div class='trialBorder'><div class='vertical-center'><img src='img/fixation2_sml.jpg'</img></div></div>","null","DELAY","","","","","","","","","","",""
"html-keyboard-response","163","344096","0.0-7.0-4.25","5d7850851841fc0001e9c64d","bdp_wmem","Tue Mar 14 2023 00:06:53 GMT-0400 (Eastern Daylight Time)","534994","Match,No Match","","730","","","","","","<div class='trialBorder'><div class='targDiv'><div class='tc'><img class='introPic' src='trustrating_stim/white_mw040.bmp'><br><font color='red'><strong>Keep</strong></font></div></div><div class='respDiv'><div class='respDivL'>Match<br>(e)</div><div class='respDivR'>No Match<br>(i)</div></div></div>","e","TARGET","2","trustrating_stim/white_mw003.bmp,trustrating_stim/white_mw040.bmp","1,0","Match","e","3000","trustrating_stim/white_mw040.bmp","red","Keep","REAL","1"
"html-keyboard-response","164","344598","0.0-7.0-5.25","5d7850851841fc0001e9c64d","bdp_wmem","Tue Mar 14 2023 00:06:53 GMT-0400 (Eastern Daylight Time)","534994","Match,No Match","","null","","","","","","<div class='trialBorder'><div class='vertical-center'><img src='img/correct.jpg'></div><div class='respDiv'><div class='respDivL'><font style='color:orange'>Match<br>(e)</font></div><div class='respDivR'>No Match<br>(i)</div></div></div>","null","FEEDBACK","","","","","","","","","","",""
"html-keyboard-response","165","345099","0.0-7.0-1.26","5d7850851841fc0001e9c64d","bdp_wmem","Tue Mar 14 2023 00:06:53 GMT-0400 (Eastern Daylight Time)","534994","Match,No Match","","null","","","","","","<div class='trialBorder'><div class='vertical-center'><img src='img/fixation2_sml.jpg'</img></div></div>","null","FIX","","","","","","","","","","",""
"html-keyboard-response","166","348101","0.0-7.0-2.26","5d7850851841fc0001e9c64d","bdp_wmem","Tue Mar 14 2023 00:06:53 GMT-0400 (Eastern Daylight Time)","534994","Match,No Match","","null","","","","","","<div class='trialBorder'><div class='vertical-center'><img style='vertical-align:center; align:center' src='img/fixation2_sml.jpg'></div><div class='arrayDiv2'><div class='tl'><img class='introPic' src='trustrating_stim/white_mw012.bmp'><br><font color='green'><strong>Share</strong></font></div><div class='tr'><img class='introPic' src='trustrating_stim/white_mw038.bmp'><br><font color='red'><strong>Keep</strong></font></div></div></div>","null","ARRAY","2","trustrating_stim/white_mw012.bmp,trustrating_stim/white_mw038.bmp","1,0","Match","e","3000","","","","",""
"html-keyboard-response","167","352104","0.0-7.0-3.26","5d7850851841fc0001e9c64d","bdp_wmem","Tue Mar 14 2023 00:06:53 GMT-0400 (Eastern Daylight Time)","534994","Match,No Match","","null","","","","","","<div class='trialBorder'><div class='vertical-center'><img src='img/fixation2_sml.jpg'</img></div></div>","null","DELAY","","","","","","","","","","",""
"html-keyboard-response","168","352952","0.0-7.0-4.26","5d7850851841fc0001e9c64d","bdp_wmem","Tue Mar 14 2023 00:06:53 GMT-0400 (Eastern Daylight Time)","534994","Match,No Match","","846","","","","","","<div class='trialBorder'><div class='targDiv'><div class='tc'><img class='introPic' src='trustrating_stim/white_mw038.bmp'><br><font color='red'><strong>Keep</strong></font></div></div><div class='respDiv'><div class='respDivL'>Match<br>(e)</div><div class='respDivR'>No Match<br>(i)</div></div></div>","e","TARGET","2","trustrating_stim/white_mw012.bmp,trustrating_stim/white_mw038.bmp","1,0","Match","e","3000","trustrating_stim/white_mw038.bmp","red","Keep","REAL","1"
"html-keyboard-response","169","353453","0.0-7.0-5.26","5d7850851841fc0001e9c64d","bdp_wmem","Tue Mar 14 2023 00:06:53 GMT-0400 (Eastern Daylight Time)","534994","Match,No Match","","null","","","","","","<div class='trialBorder'><div class='vertical-center'><img src='img/correct.jpg'></div><div class='respDiv'><div class='respDivL'><font style='color:orange'>Match<br>(e)</font></div><div class='respDivR'>No Match<br>(i)</div></div></div>","null","FEEDBACK","","","","","","","","","","",""
"html-keyboard-response","170","353955","0.0-7.0-1.27","5d7850851841fc0001e9c64d","bdp_wmem","Tue Mar 14 2023 00:06:53 GMT-0400 (Eastern Daylight Time)","534994","Match,No Match","","null","","","","","","<div class='trialBorder'><div class='vertical-center'><img src='img/fixation2_sml.jpg'</img></div></div>","null","FIX","","","","","","","","","","",""
"html-keyboard-response","171","355457","0.0-7.0-2.27","5d7850851841fc0001e9c64d","bdp_wmem","Tue Mar 14 2023 00:06:53 GMT-0400 (Eastern Daylight Time)","534994","Match,No Match","","null","","","","","","<div class='trialBorder'><div class='vertical-center'><img style='vertical-align:center; align:center' src='img/fixation2_sml.jpg'></div><div class='arrayDiv1'><div class='tc'><img class='introPic' src='trustrating_stim/white_mw070.bmp'><br><font color='red'><strong>Keep</strong></font></div></div></div>","null","ARRAY","1","trustrating_stim/white_mw070.bmp","0","Match","e","1500","","","","",""
"html-keyboard-response","172","359460","0.0-7.0-3.27","5d7850851841fc0001e9c64d","bdp_wmem","Tue Mar 14 2023 00:06:53 GMT-0400 (Eastern Daylight Time)","534994","Match,No Match","","null","","","","","","<div class='trialBorder'><div class='vertical-center'><img src='img/fixation2_sml.jpg'</img></div></div>","null","DELAY","","","","","","","","","","",""
"html-keyboard-response","173","360010","0.0-7.0-4.27","5d7850851841fc0001e9c64d","bdp_wmem","Tue Mar 14 2023 00:06:53 GMT-0400 (Eastern Daylight Time)","534994","Match,No Match","","549","","","","","","<div class='trialBorder'><div class='targDiv'><div class='tc'><img class='introPic' src='trustrating_stim/white_mw070.bmp'><br><font color='red'><strong>Keep</strong></font></div></div><div class='respDiv'><div class='respDivL'>Match<br>(e)</div><div class='respDivR'>No Match<br>(i)</div></div></div>","e","TARGET","1","trustrating_stim/white_mw070.bmp","0","Match","e","1500","trustrating_stim/white_mw070.bmp","red","Keep","REAL","1"
"html-keyboard-response","174","360511","0.0-7.0-5.27","5d7850851841fc0001e9c64d","bdp_wmem","Tue Mar 14 2023 00:06:53 GMT-0400 (Eastern Daylight Time)","534994","Match,No Match","","null","","","","","","<div class='trialBorder'><div class='vertical-center'><img src='img/correct.jpg'></div><div class='respDiv'><div class='respDivL'><font style='color:orange'>Match<br>(e)</font></div><div class='respDivR'>No Match<br>(i)</div></div></div>","null","FEEDBACK","","","","","","","","","","",""
"html-keyboard-response","175","361013","0.0-7.0-1.28","5d7850851841fc0001e9c64d","bdp_wmem","Tue Mar 14 2023 00:06:53 GMT-0400 (Eastern Daylight Time)","534994","Match,No Match","","null","","","","","","<div class='trialBorder'><div class='vertical-center'><img src='img/fixation2_sml.jpg'</img></div></div>","null","FIX","","","","","","","","","","",""
"html-keyboard-response","176","365516","0.0-7.0-2.28","5d7850851841fc0001e9c64d","bdp_wmem","Tue Mar 14 2023 00:06:53 GMT-0400 (Eastern Daylight Time)","534994","Match,No Match","","null","","","","","","<div class='trialBorder'><div class='vertical-center'><img style='vertical-align:center; align:center' src='img/fixation2_sml.jpg'></div><div class='arrayDiv3'><div class='tl'><img class='introPic' src='trustrating_stim/white_mw091.bmp'><br><font color='green'><strong>Share</strong></font></div><div class='tc'><img class='introPic' src='trustrating_stim/white_mw070.bmp'><br><font color='red'><strong>Keep</strong></font></div><div class='tr'><img class='introPic' src='trustrating_stim/white_mw013.bmp'><br><font color='green'><strong>Share</strong></font></div></div></div>","null","ARRAY","3","trustrating_stim/white_mw091.bmp,trustrating_stim/white_mw070.bmp,trustrating_stim/white_mw013.bmp","1,0,1","noMatchOutcome","i","4500","","","","",""
"html-keyboard-response","177","369518","0.0-7.0-3.28","5d7850851841fc0001e9c64d","bdp_wmem","Tue Mar 14 2023 00:06:53 GMT-0400 (Eastern Daylight Time)","534994","Match,No Match","","null","","","","","","<div class='trialBorder'><div class='vertical-center'><img src='img/fixation2_sml.jpg'</img></div></div>","null","DELAY","","","","","","","","","","",""
"html-keyboard-response","178","370154","0.0-7.0-4.28","5d7850851841fc0001e9c64d","bdp_wmem","Tue Mar 14 2023 00:06:53 GMT-0400 (Eastern Daylight Time)","534994","Match,No Match","","634","","","","","","<div class='trialBorder'><div class='targDiv'><div class='tc'><img class='introPic' src='trustrating_stim/white_mw070.bmp'><br><font color='green'><strong>Share</strong></font></div></div><div class='respDiv'><div class='respDivL'>Match<br>(e)</div><div class='respDivR'>No Match<br>(i)</div></div></div>","i","TARGET","3","trustrating_stim/white_mw091.bmp,trustrating_stim/white_mw070.bmp,trustrating_stim/white_mw013.bmp","1,0,1","noMatchOutcome","i","4500","trustrating_stim/white_mw070.bmp","green","Share","REAL","1"
"html-keyboard-response","179","370656","0.0-7.0-5.28","5d7850851841fc0001e9c64d","bdp_wmem","Tue Mar 14 2023 00:06:53 GMT-0400 (Eastern Daylight Time)","534994","Match,No Match","","null","","","","","","<div class='trialBorder'><div class='vertical-center'><img src='img/correct.jpg'></div><div class='respDiv'><div class='respDivL'>Match<br>(e)</div><div class='respDivR'><font style='color:orange'>No Match<br>(i)</font></div></div></div>","null","FEEDBACK","","","","","","","","","","",""
"html-keyboard-response","180","371158","0.0-7.0-1.29","5d7850851841fc0001e9c64d","bdp_wmem","Tue Mar 14 2023 00:06:53 GMT-0400 (Eastern Daylight Time)","534994","Match,No Match","","null","","","","","","<div class='trialBorder'><div class='vertical-center'><img src='img/fixation2_sml.jpg'</img></div></div>","null","FIX","","","","","","","","","","",""
"html-keyboard-response","181","372660","0.0-7.0-2.29","5d7850851841fc0001e9c64d","bdp_wmem","Tue Mar 14 2023 00:06:53 GMT-0400 (Eastern Daylight Time)","534994","Match,No Match","","null","","","","","","<div class='trialBorder'><div class='vertical-center'><img style='vertical-align:center; align:center' src='img/fixation2_sml.jpg'></div><div class='arrayDiv1'><div class='tc'><img class='introPic' src='trustrating_stim/white_mw010.bmp'><br><font color='red'><strong>Keep</strong></font></div></div></div>","null","ARRAY","1","trustrating_stim/white_mw010.bmp","0","Match","e","1500","","","","",""
"html-keyboard-response","182","376662","0.0-7.0-3.29","5d7850851841fc0001e9c64d","bdp_wmem","Tue Mar 14 2023 00:06:53 GMT-0400 (Eastern Daylight Time)","534994","Match,No Match","","null","","","","","","<div class='trialBorder'><div class='vertical-center'><img src='img/fixation2_sml.jpg'</img></div></div>","null","DELAY","","","","","","","","","","",""
"html-keyboard-response","183","377417","0.0-7.0-4.29","5d7850851841fc0001e9c64d","bdp_wmem","Tue Mar 14 2023 00:06:53 GMT-0400 (Eastern Daylight Time)","534994","Match,No Match","","753","","","","","","<div class='trialBorder'><div class='targDiv'><div class='tc'><img class='introPic' src='trustrating_stim/white_mw010.bmp'><br><font color='red'><strong>Keep</strong></font></div></div><div class='respDiv'><div class='respDivL'>Match<br>(e)</div><div class='respDivR'>No Match<br>(i)</div></div></div>","e","TARGET","1","trustrating_stim/white_mw010.bmp","0","Match","e","1500","trustrating_stim/white_mw010.bmp","red","Keep","REAL","1"
"html-keyboard-response","184","377919","0.0-7.0-5.29","5d7850851841fc0001e9c64d","bdp_wmem","Tue Mar 14 2023 00:06:53 GMT-0400 (Eastern Daylight Time)","534994","Match,No Match","","null","","","","","","<div class='trialBorder'><div class='vertical-center'><img src='img/correct.jpg'></div><div class='respDiv'><div class='respDivL'><font style='color:orange'>Match<br>(e)</font></div><div class='respDivR'>No Match<br>(i)</div></div></div>","null","FEEDBACK","","","","","","","","","","",""
"html-keyboard-response","185","378421","0.0-7.0-1.30","5d7850851841fc0001e9c64d","bdp_wmem","Tue Mar 14 2023 00:06:53 GMT-0400 (Eastern Daylight Time)","534994","Match,No Match","","null","","","","","","<div class='trialBorder'><div class='vertical-center'><img src='img/fixation2_sml.jpg'</img></div></div>","null","FIX","","","","","","","","","","",""
"html-keyboard-response","186","381424","0.0-7.0-2.30","5d7850851841fc0001e9c64d","bdp_wmem","Tue Mar 14 2023 00:06:53 GMT-0400 (Eastern Daylight Time)","534994","Match,No Match","","null","","","","","","<div class='trialBorder'><div class='vertical-center'><img style='vertical-align:center; align:center' src='img/fixation2_sml.jpg'></div><div class='arrayDiv2'><div class='tl'><img class='introPic' src='trustrating_stim/white_mw091.bmp'><br><font color='red'><strong>Keep</strong></font></div><div class='tr'><img class='introPic' src='trustrating_stim/white_mw042.bmp'><br><font color='green'><strong>Share</strong></font></div></div></div>","null","ARRAY","2","trustrating_stim/white_mw091.bmp,trustrating_stim/white_mw042.bmp","0,1","noMatchFace","i","3000","","","","",""
"html-keyboard-response","187","385427","0.0-7.0-3.30","5d7850851841fc0001e9c64d","bdp_wmem","Tue Mar 14 2023 00:06:53 GMT-0400 (Eastern Daylight Time)","534994","Match,No Match","","null","","","","","","<div class='trialBorder'><div class='vertical-center'><img src='img/fixation2_sml.jpg'</img></div></div>","null","DELAY","","","","","","","","","","",""
