"trial_type","trial_index","time_elapsed","internal_node_id","subject_id","task","startTime","totalTime","labels","view_history","rt","event","trial","time","trialtype","success","stimulus","key_press","stimType","arraySize","arrayFaces","arrayOutcomes","matchType","corrResp","arrayDur","targFace","targCol","targOutcome","trialType","corr"
"pavlovia","0","5","0.0-0.0","5bf0cb0411439b000168edda","bdp_wmem","Thu Mar 16 2023 00:03:31 GMT-0400 (Eastern Daylight Time)","576098","Match,No Match","","","","","","","","","","","","","","","","","","","","",""
"instructions","1","2145","0.0-1.0","5bf0cb0411439b000168edda","bdp_wmem","Thu Mar 16 2023 00:03:31 GMT-0400 (Eastern Daylight Time)","576098","Match,No Match","[{""page_index"":0,""viewing_time"":2138}]","2139","","","","","","","","","","","","","","","","","","",""
"","","","","5bf0cb0411439b000168edda","bdp_wmem","Thu Mar 16 2023 00:03:31 GMT-0400 (Eastern Daylight Time)","576098","Match,No Match","","","fullscreenenter","2","4028","fullscreenenter","","","","","","","","","","","","","","",""
"fullscreen","2","4985","0.0-2.0","5bf0cb0411439b000168edda","bdp_wmem","Thu Mar 16 2023 00:03:31 GMT-0400 (Eastern Daylight Time)","576098","Match,No Match","","","","","","","true","","","","","","","","","","","","","",""
"instructions","3","36455","0.0-4.0","5bf0cb0411439b000168edda","bdp_wmem","Thu Mar 16 2023 00:03:31 GMT-0400 (Eastern Daylight Time)","576098","Match,No Match","[{""page_index"":0,""viewing_time"":9149},{""page_index"":1,""viewing_time"":13633},{""page_index"":2,""viewing_time"":3200},{""page_index"":3,""viewing_time"":2687},{""page_index"":4,""viewing_time"":2799}]","31469","","","","","","","","","","","","","","","","","","",""
"html-keyboard-response","4","36960","0.0-5.0-1.0","5bf0cb0411439b000168edda","bdp_wmem","Thu Mar 16 2023 00:03:31 GMT-0400 (Eastern Daylight Time)","576098","Match,No Match","","null","","","","","","<div class='trialBorder'><div class='vertical-center'><img src='img/fixation2_sml.jpg'</img></div></div>","null","FIX","","","","","","","","","","",""
"html-keyboard-response","5","38463","0.0-5.0-2.0","5bf0cb0411439b000168edda","bdp_wmem","Thu Mar 16 2023 00:03:31 GMT-0400 (Eastern Daylight Time)","576098","Match,No Match","","null","","","","","","<div class='trialBorder'><div class='vertical-center'><img style='vertical-align:center; align:center' src='img/fixation2_sml.jpg'></div><div class='arrayDiv1'><div class='tc'><img class='introPic' src='trustrating_stim/white_mw040.bmp'><br><font color='green'><strong>Share</strong></font></div></div></div>","null","ARRAY","1","trustrating_stim/white_mw040.bmp","1","Match","e","1500","","","","",""
"html-keyboard-response","6","42465","0.0-5.0-3.0","5bf0cb0411439b000168edda","bdp_wmem","Thu Mar 16 2023 00:03:31 GMT-0400 (Eastern Daylight Time)","576098","Match,No Match","","null","","","","","","<div class='trialBorder'><div class='vertical-center'><img src='img/fixation2_sml.jpg'</img></div></div>","null","DELAY","","","","","","","","","","",""
"html-keyboard-response","7","42727","0.0-5.0-4.0","5bf0cb0411439b000168edda","bdp_wmem","Thu Mar 16 2023 00:03:31 GMT-0400 (Eastern Daylight Time)","576098","Match,No Match","","259","","","","","","<div class='trialBorder'><div class='targDiv'><div class='tc'><img class='introPic' src='trustrating_stim/white_mw040.bmp'><br><font color='green'><strong>Share</strong></font></div></div><div class='respDiv'><div class='respDivL'>Match<br>(e)</div><div class='respDivR'>No Match<br>(i)</div></div></div>","i","TARGET","1","trustrating_stim/white_mw040.bmp","1","Match","e","1500","trustrating_stim/white_mw040.bmp","green","Share","PRACTICE","0"
"html-keyboard-response","8","43230","0.0-5.0-5.0","5bf0cb0411439b000168edda","bdp_wmem","Thu Mar 16 2023 00:03:31 GMT-0400 (Eastern Daylight Time)","576098","Match,No Match","","null","","","","","","<div class='trialBorder'><div class='vertical-center'><img src='img/error.jpg'></div><div class='respDiv'><div class='respDivL'>Match<br>(e)</div><div class='respDivR'><font style='color:orange'>No Match<br>(i)</font></div></div></div>","null","FEEDBACK","","","","","","","","","","",""
"html-keyboard-response","9","43733","0.0-5.0-1.1","5bf0cb0411439b000168edda","bdp_wmem","Thu Mar 16 2023 00:03:31 GMT-0400 (Eastern Daylight Time)","576098","Match,No Match","","null","","","","","","<div class='trialBorder'><div class='vertical-center'><img src='img/fixation2_sml.jpg'</img></div></div>","null","FIX","","","","","","","","","","",""
"html-keyboard-response","10","48237","0.0-5.0-2.1","5bf0cb0411439b000168edda","bdp_wmem","Thu Mar 16 2023 00:03:31 GMT-0400 (Eastern Daylight Time)","576098","Match,No Match","","null","","","","","","<div class='trialBorder'><div class='vertical-center'><img style='vertical-align:center; align:center' src='img/fixation2_sml.jpg'></div><div class='arrayDiv3'><div class='tl'><img class='introPic' src='trustrating_stim/white_mw040.bmp'><br><font color='green'><strong>Share</strong></font></div><div class='tc'><img class='introPic' src='trustrating_stim/white_mw078.bmp'><br><font color='green'><strong>Share</strong></font></div><div class='tr'><img class='introPic' src='trustrating_stim/white_mw085.bmp'><br><font color='red'><strong>Keep</strong></font></div></div></div>","null","ARRAY","3","trustrating_stim/white_mw040.bmp,trustrating_stim/white_mw078.bmp,trustrating_stim/white_mw085.bmp","1,1,0","noMatchOutcome","i","4500","","","","",""
"html-keyboard-response","11","52241","0.0-5.0-3.1","5bf0cb0411439b000168edda","bdp_wmem","Thu Mar 16 2023 00:03:31 GMT-0400 (Eastern Daylight Time)","576098","Match,No Match","","null","","","","","","<div class='trialBorder'><div class='vertical-center'><img src='img/fixation2_sml.jpg'</img></div></div>","null","DELAY","","","","","","","","","","",""
"html-keyboard-response","12","53641","0.0-5.0-4.1","5bf0cb0411439b000168edda","bdp_wmem","Thu Mar 16 2023 00:03:31 GMT-0400 (Eastern Daylight Time)","576098","Match,No Match","","1397","","","","","","<div class='trialBorder'><div class='targDiv'><div class='tc'><img class='introPic' src='trustrating_stim/white_mw078.bmp'><br><font color='red'><strong>Keep</strong></font></div></div><div class='respDiv'><div class='respDivL'>Match<br>(e)</div><div class='respDivR'>No Match<br>(i)</div></div></div>","i","TARGET","3","trustrating_stim/white_mw040.bmp,trustrating_stim/white_mw078.bmp,trustrating_stim/white_mw085.bmp","1,1,0","noMatchOutcome","i","4500","trustrating_stim/white_mw078.bmp","red","Keep","PRACTICE","1"
"html-keyboard-response","13","54143","0.0-5.0-5.1","5bf0cb0411439b000168edda","bdp_wmem","Thu Mar 16 2023 00:03:31 GMT-0400 (Eastern Daylight Time)","576098","Match,No Match","","null","","","","","","<div class='trialBorder'><div class='vertical-center'><img src='img/correct.jpg'></div><div class='respDiv'><div class='respDivL'>Match<br>(e)</div><div class='respDivR'><font style='color:orange'>No Match<br>(i)</font></div></div></div>","null","FEEDBACK","","","","","","","","","","",""
"html-keyboard-response","14","54646","0.0-5.0-1.2","5bf0cb0411439b000168edda","bdp_wmem","Thu Mar 16 2023 00:03:31 GMT-0400 (Eastern Daylight Time)","576098","Match,No Match","","null","","","","","","<div class='trialBorder'><div class='vertical-center'><img src='img/fixation2_sml.jpg'</img></div></div>","null","FIX","","","","","","","","","","",""
"html-keyboard-response","15","57648","0.0-5.0-2.2","5bf0cb0411439b000168edda","bdp_wmem","Thu Mar 16 2023 00:03:31 GMT-0400 (Eastern Daylight Time)","576098","Match,No Match","","null","","","","","","<div class='trialBorder'><div class='vertical-center'><img style='vertical-align:center; align:center' src='img/fixation2_sml.jpg'></div><div class='arrayDiv2'><div class='tl'><img class='introPic' src='trustrating_stim/white_mw070.bmp'><br><font color='red'><strong>Keep</strong></font></div><div class='tr'><img class='introPic' src='trustrating_stim/white_mw038.bmp'><br><font color='green'><strong>Share</strong></font></div></div></div>","null","ARRAY","2","trustrating_stim/white_mw070.bmp,trustrating_stim/white_mw038.bmp","0,1","noMatchFace","i","3000","","","","",""
"html-keyboard-response","16","61650","0.0-5.0-3.2","5bf0cb0411439b000168edda","bdp_wmem","Thu Mar 16 2023 00:03:31 GMT-0400 (Eastern Daylight Time)","576098","Match,No Match","","null","","","","","","<div class='trialBorder'><div class='vertical-center'><img src='img/fixation2_sml.jpg'</img></div></div>","null","DELAY","","","","","","","","","","",""
"html-keyboard-response","17","62687","0.0-5.0-4.2","5bf0cb0411439b000168edda","bdp_wmem","Thu Mar 16 2023 00:03:31 GMT-0400 (Eastern Daylight Time)","576098","Match,No Match","","1036","","","","","","<div class='trialBorder'><div class='targDiv'><div class='tc'><img class='introPic' src='trustrating_stim/white_mw091.bmp'><br><font color='red'><strong>Keep</strong></font></div></div><div class='respDiv'><div class='respDivL'>Match<br>(e)</div><div class='respDivR'>No Match<br>(i)</div></div></div>","i","TARGET","2","trustrating_stim/white_mw070.bmp,trustrating_stim/white_mw038.bmp","0,1","noMatchFace","i","3000","trustrating_stim/white_mw091.bmp","red","Keep","PRACTICE","1"
"html-keyboard-response","18","63189","0.0-5.0-5.2","5bf0cb0411439b000168edda","bdp_wmem","Thu Mar 16 2023 00:03:31 GMT-0400 (Eastern Daylight Time)","576098","Match,No Match","","null","","","","","","<div class='trialBorder'><div class='vertical-center'><img src='img/correct.jpg'></div><div class='respDiv'><div class='respDivL'>Match<br>(e)</div><div class='respDivR'><font style='color:orange'>No Match<br>(i)</font></div></div></div>","null","FEEDBACK","","","","","","","","","","",""
"html-keyboard-response","19","63691","0.0-5.0-1.3","5bf0cb0411439b000168edda","bdp_wmem","Thu Mar 16 2023 00:03:31 GMT-0400 (Eastern Daylight Time)","576098","Match,No Match","","null","","","","","","<div class='trialBorder'><div class='vertical-center'><img src='img/fixation2_sml.jpg'</img></div></div>","null","FIX","","","","","","","","","","",""
"html-keyboard-response","20","68193","0.0-5.0-2.3","5bf0cb0411439b000168edda","bdp_wmem","Thu Mar 16 2023 00:03:31 GMT-0400 (Eastern Daylight Time)","576098","Match,No Match","","null","","","","","","<div class='trialBorder'><div class='vertical-center'><img style='vertical-align:center; align:center' src='img/fixation2_sml.jpg'></div><div class='arrayDiv3'><div class='tl'><img class='introPic' src='trustrating_stim/white_mw042.bmp'><br><font color='red'><strong>Keep</strong></font></div><div class='tc'><img class='introPic' src='trustrating_stim/white_mw070.bmp'><br><font color='green'><strong>Share</strong></font></div><div class='tr'><img class='introPic' src='trustrating_stim/white_mw038.bmp'><br><font color='red'><strong>Keep</strong></font></div></div></div>","null","ARRAY","3","trustrating_stim/white_mw042.bmp,trustrating_stim/white_mw070.bmp,trustrating_stim/white_mw038.bmp","0,1,0","Match","e","4500","","","","",""
"html-keyboard-response","21","72196","0.0-5.0-3.3","5bf0cb0411439b000168edda","bdp_wmem","Thu Mar 16 2023 00:03:31 GMT-0400 (Eastern Daylight Time)","576098","Match,No Match","","null","","","","","","<div class='trialBorder'><div class='vertical-center'><img src='img/fixation2_sml.jpg'</img></div></div>","null","DELAY","","","","","","","","","","",""
"html-keyboard-response","22","73151","0.0-5.0-4.3","5bf0cb0411439b000168edda","bdp_wmem","Thu Mar 16 2023 00:03:31 GMT-0400 (Eastern Daylight Time)","576098","Match,No Match","","953","","","","","","<div class='trialBorder'><div class='targDiv'><div class='tc'><img class='introPic' src='trustrating_stim/white_mw042.bmp'><br><font color='red'><strong>Keep</strong></font></div></div><div class='respDiv'><div class='respDivL'>Match<br>(e)</div><div class='respDivR'>No Match<br>(i)</div></div></div>","i","TARGET","3","trustrating_stim/white_mw042.bmp,trustrating_stim/white_mw070.bmp,trustrating_stim/white_mw038.bmp","0,1,0","Match","e","4500","trustrating_stim/white_mw042.bmp","red","Keep","PRACTICE","0"
"html-keyboard-response","23","73653","0.0-5.0-5.3","5bf0cb0411439b000168edda","bdp_wmem","Thu Mar 16 2023 00:03:31 GMT-0400 (Eastern Daylight Time)","576098","Match,No Match","","null","","","","","","<div class='trialBorder'><div class='vertical-center'><img src='img/error.jpg'></div><div class='respDiv'><div class='respDivL'>Match<br>(e)</div><div class='respDivR'><font style='color:orange'>No Match<br>(i)</font></div></div></div>","null","FEEDBACK","","","","","","","","","","",""
"html-keyboard-response","24","74155","0.0-5.0-1.4","5bf0cb0411439b000168edda","bdp_wmem","Thu Mar 16 2023 00:03:31 GMT-0400 (Eastern Daylight Time)","576098","Match,No Match","","null","","","","","","<div class='trialBorder'><div class='vertical-center'><img src='img/fixation2_sml.jpg'</img></div></div>","null","FIX","","","","","","","","","","",""
"html-keyboard-response","25","75657","0.0-5.0-2.4","5bf0cb0411439b000168edda","bdp_wmem","Thu Mar 16 2023 00:03:31 GMT-0400 (Eastern Daylight Time)","576098","Match,No Match","","null","","","","","","<div class='trialBorder'><div class='vertical-center'><img style='vertical-align:center; align:center' src='img/fixation2_sml.jpg'></div><div class='arrayDiv1'><div class='tc'><img class='introPic' src='trustrating_stim/white_mw078.bmp'><br><font color='red'><strong>Keep</strong></font></div></div></div>","null","ARRAY","1","trustrating_stim/white_mw078.bmp","0","noMatchFace","i","1500","","","","",""
"html-keyboard-response","26","79659","0.0-5.0-3.4","5bf0cb0411439b000168edda","bdp_wmem","Thu Mar 16 2023 00:03:31 GMT-0400 (Eastern Daylight Time)","576098","Match,No Match","","null","","","","","","<div class='trialBorder'><div class='vertical-center'><img src='img/fixation2_sml.jpg'</img></div></div>","null","DELAY","","","","","","","","","","",""
"html-keyboard-response","27","80418","0.0-5.0-4.4","5bf0cb0411439b000168edda","bdp_wmem","Thu Mar 16 2023 00:03:31 GMT-0400 (Eastern Daylight Time)","576098","Match,No Match","","756","","","","","","<div class='trialBorder'><div class='targDiv'><div class='tc'><img class='introPic' src='trustrating_stim/white_mw091.bmp'><br><font color='red'><strong>Keep</strong></font></div></div><div class='respDiv'><div class='respDivL'>Match<br>(e)</div><div class='respDivR'>No Match<br>(i)</div></div></div>","e","TARGET","1","trustrating_stim/white_mw078.bmp","0","noMatchFace","i","1500","trustrating_stim/white_mw091.bmp","red","Keep","PRACTICE","0"
"html-keyboard-response","28","80920","0.0-5.0-5.4","5bf0cb0411439b000168edda","bdp_wmem","Thu Mar 16 2023 00:03:31 GMT-0400 (Eastern Daylight Time)","576098","Match,No Match","","null","","","","","","<div class='trialBorder'><div class='vertical-center'><img src='img/error.jpg'></div><div class='respDiv'><div class='respDivL'><font style='color:orange'>Match<br>(e)</font></div><div class='respDivR'>No Match<br>(i)</div></div></div>","null","FEEDBACK","","","","","","","","","","",""
"html-keyboard-response","29","81422","0.0-5.0-1.5","5bf0cb0411439b000168edda","bdp_wmem","Thu Mar 16 2023 00:03:31 GMT-0400 (Eastern Daylight Time)","576098","Match,No Match","","null","","","","","","<div class='trialBorder'><div class='vertical-center'><img src='img/fixation2_sml.jpg'</img></div></div>","null","FIX","","","","","","","","","","",""
"html-keyboard-response","30","84425","0.0-5.0-2.5","5bf0cb0411439b000168edda","bdp_wmem","Thu Mar 16 2023 00:03:31 GMT-0400 (Eastern Daylight Time)","576098","Match,No Match","","null","","","","","","<div class='trialBorder'><div class='vertical-center'><img style='vertical-align:center; align:center' src='img/fixation2_sml.jpg'></div><div class='arrayDiv2'><div class='tl'><img class='introPic' src='trustrating_stim/white_mw085.bmp'><br><font color='green'><strong>Share</strong></font></div><div class='tr'><img class='introPic' src='trustrating_stim/white_mw012.bmp'><br><font color='red'><strong>Keep</strong></font></div></div></div>","null","ARRAY","2","trustrating_stim/white_mw085.bmp,trustrating_stim/white_mw012.bmp","1,0","Match","e","3000","","","","",""
"html-keyboard-response","31","88427","0.0-5.0-3.5","5bf0cb0411439b000168edda","bdp_wmem","Thu Mar 16 2023 00:03:31 GMT-0400 (Eastern Daylight Time)","576098","Match,No Match","","null","","","","","","<div class='trialBorder'><div class='vertical-center'><img src='img/fixation2_sml.jpg'</img></div></div>","null","DELAY","","","","","","","","","","",""
"html-keyboard-response","32","89103","0.0-5.0-4.5","5bf0cb0411439b000168edda","bdp_wmem","Thu Mar 16 2023 00:03:31 GMT-0400 (Eastern Daylight Time)","576098","Match,No Match","","674","","","","","","<div class='trialBorder'><div class='targDiv'><div class='tc'><img class='introPic' src='trustrating_stim/white_mw085.bmp'><br><font color='green'><strong>Share</strong></font></div></div><div class='respDiv'><div class='respDivL'>Match<br>(e)</div><div class='respDivR'>No Match<br>(i)</div></div></div>","i","TARGET","2","trustrating_stim/white_mw085.bmp,trustrating_stim/white_mw012.bmp","1,0","Match","e","3000","trustrating_stim/white_mw085.bmp","green","Share","PRACTICE","0"
"html-keyboard-response","33","89605","0.0-5.0-5.5","5bf0cb0411439b000168edda","bdp_wmem","Thu Mar 16 2023 00:03:31 GMT-0400 (Eastern Daylight Time)","576098","Match,No Match","","null","","","","","","<div class='trialBorder'><div class='vertical-center'><img src='img/error.jpg'></div><div class='respDiv'><div class='respDivL'>Match<br>(e)</div><div class='respDivR'><font style='color:orange'>No Match<br>(i)</font></div></div></div>","null","FEEDBACK","","","","","","","","","","",""
"instructions","34","113007","0.0-6.0","5bf0cb0411439b000168edda","bdp_wmem","Thu Mar 16 2023 00:03:31 GMT-0400 (Eastern Daylight Time)","576098","Match,No Match","[{""page_index"":0,""viewing_time"":23401}]","23401","","","","","","","","","","","","","","","","","","",""
"html-keyboard-response","35","113510","0.0-7.0-1.0","5bf0cb0411439b000168edda","bdp_wmem","Thu Mar 16 2023 00:03:31 GMT-0400 (Eastern Daylight Time)","576098","Match,No Match","","null","","","","","","<div class='trialBorder'><div class='vertical-center'><img src='img/fixation2_sml.jpg'</img></div></div>","null","FIX","","","","","","","","","","",""
"html-keyboard-response","36","115012","0.0-7.0-2.0","5bf0cb0411439b000168edda","bdp_wmem","Thu Mar 16 2023 00:03:31 GMT-0400 (Eastern Daylight Time)","576098","Match,No Match","","null","","","","","","<div class='trialBorder'><div class='vertical-center'><img style='vertical-align:center; align:center' src='img/fixation2_sml.jpg'></div><div class='arrayDiv1'><div class='tc'><img class='introPic' src='trustrating_stim/white_mw013.bmp'><br><font color='green'><strong>Share</strong></font></div></div></div>","null","ARRAY","1","trustrating_stim/white_mw013.bmp","1","noMatchFace","i","1500","","","","",""
"html-keyboard-response","37","119014","0.0-7.0-3.0","5bf0cb0411439b000168edda","bdp_wmem","Thu Mar 16 2023 00:03:31 GMT-0400 (Eastern Daylight Time)","576098","Match,No Match","","null","","","","","","<div class='trialBorder'><div class='vertical-center'><img src='img/fixation2_sml.jpg'</img></div></div>","null","DELAY","","","","","","","","","","",""
"html-keyboard-response","38","119816","0.0-7.0-4.0","5bf0cb0411439b000168edda","bdp_wmem","Thu Mar 16 2023 00:03:31 GMT-0400 (Eastern Daylight Time)","576098","Match,No Match","","799","","","","","","<div class='trialBorder'><div class='targDiv'><div class='tc'><img class='introPic' src='trustrating_stim/white_mw012.bmp'><br><font color='green'><strong>Share</strong></font></div></div><div class='respDiv'><div class='respDivL'>Match<br>(e)</div><div class='respDivR'>No Match<br>(i)</div></div></div>","i","TARGET","1","trustrating_stim/white_mw013.bmp","1","noMatchFace","i","1500","trustrating_stim/white_mw012.bmp","green","Share","REAL","1"
"html-keyboard-response","39","120318","0.0-7.0-5.0","5bf0cb0411439b000168edda","bdp_wmem","Thu Mar 16 2023 00:03:31 GMT-0400 (Eastern Daylight Time)","576098","Match,No Match","","null","","","","","","<div class='trialBorder'><div class='vertical-center'><img src='img/correct.jpg'></div><div class='respDiv'><div class='respDivL'>Match<br>(e)</div><div class='respDivR'><font style='color:orange'>No Match<br>(i)</font></div></div></div>","null","FEEDBACK","","","","","","","","","","",""
"html-keyboard-response","40","120820","0.0-7.0-1.1","5bf0cb0411439b000168edda","bdp_wmem","Thu Mar 16 2023 00:03:31 GMT-0400 (Eastern Daylight Time)","576098","Match,No Match","","null","","","","","","<div class='trialBorder'><div class='vertical-center'><img src='img/fixation2_sml.jpg'</img></div></div>","null","FIX","","","","","","","","","","",""
"html-keyboard-response","41","123823","0.0-7.0-2.1","5bf0cb0411439b000168edda","bdp_wmem","Thu Mar 16 2023 00:03:31 GMT-0400 (Eastern Daylight Time)","576098","Match,No Match","","null","","","","","","<div class='trialBorder'><div class='vertical-center'><img style='vertical-align:center; align:center' src='img/fixation2_sml.jpg'></div><div class='arrayDiv2'><div class='tl'><img class='introPic' src='trustrating_stim/white_mw003.bmp'><br><font color='green'><strong>Share</strong></font></div><div class='tr'><img class='introPic' src='trustrating_stim/white_mw013.bmp'><br><font color='red'><strong>Keep</strong></font></div></div></div>","null","ARRAY","2","trustrating_stim/white_mw003.bmp,trustrating_stim/white_mw013.bmp","1,0","Match","e","3000","","","","",""
"html-keyboard-response","42","127824","0.0-7.0-3.1","5bf0cb0411439b000168edda","bdp_wmem","Thu Mar 16 2023 00:03:31 GMT-0400 (Eastern Daylight Time)","576098","Match,No Match","","null","","","","","","<div class='trialBorder'><div class='vertical-center'><img src='img/fixation2_sml.jpg'</img></div></div>","null","DELAY","","","","","","","","","","",""
"html-keyboard-response","43","129113","0.0-7.0-4.1","5bf0cb0411439b000168edda","bdp_wmem","Thu Mar 16 2023 00:03:31 GMT-0400 (Eastern Daylight Time)","576098","Match,No Match","","1286","","","","","","<div class='trialBorder'><div class='targDiv'><div class='tc'><img class='introPic' src='trustrating_stim/white_mw003.bmp'><br><font color='green'><strong>Share</strong></font></div></div><div class='respDiv'><div class='respDivL'>Match<br>(e)</div><div class='respDivR'>No Match<br>(i)</div></div></div>","i","TARGET","2","trustrating_stim/white_mw003.bmp,trustrating_stim/white_mw013.bmp","1,0","Match","e","3000","trustrating_stim/white_mw003.bmp","green","Share","REAL","0"
"html-keyboard-response","44","129615","0.0-7.0-5.1","5bf0cb0411439b000168edda","bdp_wmem","Thu Mar 16 2023 00:03:31 GMT-0400 (Eastern Daylight Time)","576098","Match,No Match","","null","","","","","","<div class='trialBorder'><div class='vertical-center'><img src='img/error.jpg'></div><div class='respDiv'><div class='respDivL'>Match<br>(e)</div><div class='respDivR'><font style='color:orange'>No Match<br>(i)</font></div></div></div>","null","FEEDBACK","","","","","","","","","","",""
"html-keyboard-response","45","130116","0.0-7.0-1.2","5bf0cb0411439b000168edda","bdp_wmem","Thu Mar 16 2023 00:03:31 GMT-0400 (Eastern Daylight Time)","576098","Match,No Match","","null","","","","","","<div class='trialBorder'><div class='vertical-center'><img src='img/fixation2_sml.jpg'</img></div></div>","null","FIX","","","","","","","","","","",""
"html-keyboard-response","46","134619","0.0-7.0-2.2","5bf0cb0411439b000168edda","bdp_wmem","Thu Mar 16 2023 00:03:31 GMT-0400 (Eastern Daylight Time)","576098","Match,No Match","","null","","","","","","<div class='trialBorder'><div class='vertical-center'><img style='vertical-align:center; align:center' src='img/fixation2_sml.jpg'></div><div class='arrayDiv3'><div class='tl'><img class='introPic' src='trustrating_stim/white_mw070.bmp'><br><font color='red'><strong>Keep</strong></font></div><div class='tc'><img class='introPic' src='trustrating_stim/white_mw038.bmp'><br><font color='red'><strong>Keep</strong></font></div><div class='tr'><img class='introPic' src='trustrating_stim/white_mw012.bmp'><br><font color='green'><strong>Share</strong></font></div></div></div>","null","ARRAY","3","trustrating_stim/white_mw070.bmp,trustrating_stim/white_mw038.bmp,trustrating_stim/white_mw012.bmp","0,0,1","Match","e","4500","","","","",""
"html-keyboard-response","47","138621","0.0-7.0-3.2","5bf0cb0411439b000168edda","bdp_wmem","Thu Mar 16 2023 00:03:31 GMT-0400 (Eastern Daylight Time)","576098","Match,No Match","","null","","","","","","<div class='trialBorder'><div class='vertical-center'><img src='img/fixation2_sml.jpg'</img></div></div>","null","DELAY","","","","","","","","","","",""
"html-keyboard-response","48","139408","0.0-7.0-4.2","5bf0cb0411439b000168edda","bdp_wmem","Thu Mar 16 2023 00:03:31 GMT-0400 (Eastern Daylight Time)","576098","Match,No Match","","785","","","","","","<div class='trialBorder'><div class='targDiv'><div class='tc'><img class='introPic' src='trustrating_stim/white_mw038.bmp'><br><font color='red'><strong>Keep</strong></font></div></div><div class='respDiv'><div class='respDivL'>Match<br>(e)</div><div class='respDivR'>No Match<br>(i)</div></div></div>","e","TARGET","3","trustrating_stim/white_mw070.bmp,trustrating_stim/white_mw038.bmp,trustrating_stim/white_mw012.bmp","0,0,1","Match","e","4500","trustrating_stim/white_mw038.bmp","red","Keep","REAL","1"
"html-keyboard-response","49","139910","0.0-7.0-5.2","5bf0cb0411439b000168edda","bdp_wmem","Thu Mar 16 2023 00:03:31 GMT-0400 (Eastern Daylight Time)","576098","Match,No Match","","null","","","","","","<div class='trialBorder'><div class='vertical-center'><img src='img/correct.jpg'></div><div class='respDiv'><div class='respDivL'><font style='color:orange'>Match<br>(e)</font></div><div class='respDivR'>No Match<br>(i)</div></div></div>","null","FEEDBACK","","","","","","","","","","",""
"html-keyboard-response","50","140412","0.0-7.0-1.3","5bf0cb0411439b000168edda","bdp_wmem","Thu Mar 16 2023 00:03:31 GMT-0400 (Eastern Daylight Time)","576098","Match,No Match","","null","","","","","","<div class='trialBorder'><div class='vertical-center'><img src='img/fixation2_sml.jpg'</img></div></div>","null","FIX","","","","","","","","","","",""
"html-keyboard-response","51","141914","0.0-7.0-2.3","5bf0cb0411439b000168edda","bdp_wmem","Thu Mar 16 2023 00:03:31 GMT-0400 (Eastern Daylight Time)","576098","Match,No Match","","null","","","","","","<div class='trialBorder'><div class='vertical-center'><img style='vertical-align:center; align:center' src='img/fixation2_sml.jpg'></div><div class='arrayDiv1'><div class='tc'><img class='introPic' src='trustrating_stim/white_mw092.bmp'><br><font color='red'><strong>Keep</strong></font></div></div></div>","null","ARRAY","1","trustrating_stim/white_mw092.bmp","0","noMatchFace","i","1500","","","","",""
"html-keyboard-response","52","145916","0.0-7.0-3.3","5bf0cb0411439b000168edda","bdp_wmem","Thu Mar 16 2023 00:03:31 GMT-0400 (Eastern Daylight Time)","576098","Match,No Match","","null","","","","","","<div class='trialBorder'><div class='vertical-center'><img src='img/fixation2_sml.jpg'</img></div></div>","null","DELAY","","","","","","","","","","",""
"html-keyboard-response","53","147039","0.0-7.0-4.3","5bf0cb0411439b000168edda","bdp_wmem","Thu Mar 16 2023 00:03:31 GMT-0400 (Eastern Daylight Time)","576098","Match,No Match","","1121","","","","","","<div class='trialBorder'><div class='targDiv'><div class='tc'><img class='introPic' src='trustrating_stim/white_mw038.bmp'><br><font color='red'><strong>Keep</strong></font></div></div><div class='respDiv'><div class='respDivL'>Match<br>(e)</div><div class='respDivR'>No Match<br>(i)</div></div></div>","i","TARGET","1","trustrating_stim/white_mw092.bmp","0","noMatchFace","i","1500","trustrating_stim/white_mw038.bmp","red","Keep","REAL","1"
"html-keyboard-response","54","147541","0.0-7.0-5.3","5bf0cb0411439b000168edda","bdp_wmem","Thu Mar 16 2023 00:03:31 GMT-0400 (Eastern Daylight Time)","576098","Match,No Match","","null","","","","","","<div class='trialBorder'><div class='vertical-center'><img src='img/correct.jpg'></div><div class='respDiv'><div class='respDivL'>Match<br>(e)</div><div class='respDivR'><font style='color:orange'>No Match<br>(i)</font></div></div></div>","null","FEEDBACK","","","","","","","","","","",""
"html-keyboard-response","55","148043","0.0-7.0-1.4","5bf0cb0411439b000168edda","bdp_wmem","Thu Mar 16 2023 00:03:31 GMT-0400 (Eastern Daylight Time)","576098","Match,No Match","","null","","","","","","<div class='trialBorder'><div class='vertical-center'><img src='img/fixation2_sml.jpg'</img></div></div>","null","FIX","","","","","","","","","","",""
"html-keyboard-response","56","152546","0.0-7.0-2.4","5bf0cb0411439b000168edda","bdp_wmem","Thu Mar 16 2023 00:03:31 GMT-0400 (Eastern Daylight Time)","576098","Match,No Match","","null","","","","","","<div class='trialBorder'><div class='vertical-center'><img style='vertical-align:center; align:center' src='img/fixation2_sml.jpg'></div><div class='arrayDiv3'><div class='tl'><img class='introPic' src='trustrating_stim/white_mw070.bmp'><br><font color='green'><strong>Share</strong></font></div><div class='tc'><img class='introPic' src='trustrating_stim/white_mw092.bmp'><br><font color='red'><strong>Keep</strong></font></div><div class='tr'><img class='introPic' src='trustrating_stim/white_mw012.bmp'><br><font color='red'><strong>Keep</strong></font></div></div></div>","null","ARRAY","3","trustrating_stim/white_mw070.bmp,trustrating_stim/white_mw092.bmp,trustrating_stim/white_mw012.bmp","1,0,0","Match","e","4500","","","","",""
"html-keyboard-response","57","156548","0.0-7.0-3.4","5bf0cb0411439b000168edda","bdp_wmem","Thu Mar 16 2023 00:03:31 GMT-0400 (Eastern Daylight Time)","576098","Match,No Match","","null","","","","","","<div class='trialBorder'><div class='vertical-center'><img src='img/fixation2_sml.jpg'</img></div></div>","null","DELAY","","","","","","","","","","",""
"html-keyboard-response","58","157794","0.0-7.0-4.4","5bf0cb0411439b000168edda","bdp_wmem","Thu Mar 16 2023 00:03:31 GMT-0400 (Eastern Daylight Time)","576098","Match,No Match","","1244","","","","","","<div class='trialBorder'><div class='targDiv'><div class='tc'><img class='introPic' src='trustrating_stim/white_mw092.bmp'><br><font color='red'><strong>Keep</strong></font></div></div><div class='respDiv'><div class='respDivL'>Match<br>(e)</div><div class='respDivR'>No Match<br>(i)</div></div></div>","i","TARGET","3","trustrating_stim/white_mw070.bmp,trustrating_stim/white_mw092.bmp,trustrating_stim/white_mw012.bmp","1,0,0","Match","e","4500","trustrating_stim/white_mw092.bmp","red","Keep","REAL","0"
"html-keyboard-response","59","158296","0.0-7.0-5.4","5bf0cb0411439b000168edda","bdp_wmem","Thu Mar 16 2023 00:03:31 GMT-0400 (Eastern Daylight Time)","576098","Match,No Match","","null","","","","","","<div class='trialBorder'><div class='vertical-center'><img src='img/error.jpg'></div><div class='respDiv'><div class='respDivL'>Match<br>(e)</div><div class='respDivR'><font style='color:orange'>No Match<br>(i)</font></div></div></div>","null","FEEDBACK","","","","","","","","","","",""
"html-keyboard-response","60","158798","0.0-7.0-1.5","5bf0cb0411439b000168edda","bdp_wmem","Thu Mar 16 2023 00:03:31 GMT-0400 (Eastern Daylight Time)","576098","Match,No Match","","null","","","","","","<div class='trialBorder'><div class='vertical-center'><img src='img/fixation2_sml.jpg'</img></div></div>","null","FIX","","","","","","","","","","",""
"html-keyboard-response","61","161800","0.0-7.0-2.5","5bf0cb0411439b000168edda","bdp_wmem","Thu Mar 16 2023 00:03:31 GMT-0400 (Eastern Daylight Time)","576098","Match,No Match","","null","","","","","","<div class='trialBorder'><div class='vertical-center'><img style='vertical-align:center; align:center' src='img/fixation2_sml.jpg'></div><div class='arrayDiv2'><div class='tl'><img class='introPic' src='trustrating_stim/white_mw070.bmp'><br><font color='red'><strong>Keep</strong></font></div><div class='tr'><img class='introPic' src='trustrating_stim/white_mw091.bmp'><br><font color='green'><strong>Share</strong></font></div></div></div>","null","ARRAY","2","trustrating_stim/white_mw070.bmp,trustrating_stim/white_mw091.bmp","0,1","Match","e","3000","","","","",""
"html-keyboard-response","62","165802","0.0-7.0-3.5","5bf0cb0411439b000168edda","bdp_wmem","Thu Mar 16 2023 00:03:31 GMT-0400 (Eastern Daylight Time)","576098","Match,No Match","","null","","","","","","<div class='trialBorder'><div class='vertical-center'><img src='img/fixation2_sml.jpg'</img></div></div>","null","DELAY","","","","","","","","","","",""
"html-keyboard-response","63","166352","0.0-7.0-4.5","5bf0cb0411439b000168edda","bdp_wmem","Thu Mar 16 2023 00:03:31 GMT-0400 (Eastern Daylight Time)","576098","Match,No Match","","547","","","","","","<div class='trialBorder'><div class='targDiv'><div class='tc'><img class='introPic' src='trustrating_stim/white_mw070.bmp'><br><font color='red'><strong>Keep</strong></font></div></div><div class='respDiv'><div class='respDivL'>Match<br>(e)</div><div class='respDivR'>No Match<br>(i)</div></div></div>","e","TARGET","2","trustrating_stim/white_mw070.bmp,trustrating_stim/white_mw091.bmp","0,1","Match","e","3000","trustrating_stim/white_mw070.bmp","red","Keep","REAL","1"
"html-keyboard-response","64","166853","0.0-7.0-5.5","5bf0cb0411439b000168edda","bdp_wmem","Thu Mar 16 2023 00:03:31 GMT-0400 (Eastern Daylight Time)","576098","Match,No Match","","null","","","","","","<div class='trialBorder'><div class='vertical-center'><img src='img/correct.jpg'></div><div class='respDiv'><div class='respDivL'><font style='color:orange'>Match<br>(e)</font></div><div class='respDivR'>No Match<br>(i)</div></div></div>","null","FEEDBACK","","","","","","","","","","",""
"html-keyboard-response","65","167356","0.0-7.0-1.6","5bf0cb0411439b000168edda","bdp_wmem","Thu Mar 16 2023 00:03:31 GMT-0400 (Eastern Daylight Time)","576098","Match,No Match","","null","","","","","","<div class='trialBorder'><div class='vertical-center'><img src='img/fixation2_sml.jpg'</img></div></div>","null","FIX","","","","","","","","","","",""
"html-keyboard-response","66","170359","0.0-7.0-2.6","5bf0cb0411439b000168edda","bdp_wmem","Thu Mar 16 2023 00:03:31 GMT-0400 (Eastern Daylight Time)","576098","Match,No Match","","null","","","","","","<div class='trialBorder'><div class='vertical-center'><img style='vertical-align:center; align:center' src='img/fixation2_sml.jpg'></div><div class='arrayDiv2'><div class='tl'><img class='introPic' src='trustrating_stim/white_mw040.bmp'><br><font color='red'><strong>Keep</strong></font></div><div class='tr'><img class='introPic' src='trustrating_stim/white_mw078.bmp'><br><font color='green'><strong>Share</strong></font></div></div></div>","null","ARRAY","2","trustrating_stim/white_mw040.bmp,trustrating_stim/white_mw078.bmp","0,1","noMatchOutcome","i","3000","","","","",""
"html-keyboard-response","67","174361","0.0-7.0-3.6","5bf0cb0411439b000168edda","bdp_wmem","Thu Mar 16 2023 00:03:31 GMT-0400 (Eastern Daylight Time)","576098","Match,No Match","","null","","","","","","<div class='trialBorder'><div class='vertical-center'><img src='img/fixation2_sml.jpg'</img></div></div>","null","DELAY","","","","","","","","","","",""
"html-keyboard-response","68","175383","0.0-7.0-4.6","5bf0cb0411439b000168edda","bdp_wmem","Thu Mar 16 2023 00:03:31 GMT-0400 (Eastern Daylight Time)","576098","Match,No Match","","1020","","","","","","<div class='trialBorder'><div class='targDiv'><div class='tc'><img class='introPic' src='trustrating_stim/white_mw040.bmp'><br><font color='green'><strong>Share</strong></font></div></div><div class='respDiv'><div class='respDivL'>Match<br>(e)</div><div class='respDivR'>No Match<br>(i)</div></div></div>","i","TARGET","2","trustrating_stim/white_mw040.bmp,trustrating_stim/white_mw078.bmp","0,1","noMatchOutcome","i","3000","trustrating_stim/white_mw040.bmp","green","Share","REAL","1"
"html-keyboard-response","69","175885","0.0-7.0-5.6","5bf0cb0411439b000168edda","bdp_wmem","Thu Mar 16 2023 00:03:31 GMT-0400 (Eastern Daylight Time)","576098","Match,No Match","","null","","","","","","<div class='trialBorder'><div class='vertical-center'><img src='img/correct.jpg'></div><div class='respDiv'><div class='respDivL'>Match<br>(e)</div><div class='respDivR'><font style='color:orange'>No Match<br>(i)</font></div></div></div>","null","FEEDBACK","","","","","","","","","","",""
"html-keyboard-response","70","176387","0.0-7.0-1.7","5bf0cb0411439b000168edda","bdp_wmem","Thu Mar 16 2023 00:03:31 GMT-0400 (Eastern Daylight Time)","576098","Match,No Match","","null","","","","","","<div class='trialBorder'><div class='vertical-center'><img src='img/fixation2_sml.jpg'</img></div></div>","null","FIX","","","","","","","","","","",""
"html-keyboard-response","71","180890","0.0-7.0-2.7","5bf0cb0411439b000168edda","bdp_wmem","Thu Mar 16 2023 00:03:31 GMT-0400 (Eastern Daylight Time)","576098","Match,No Match","","null","","","","","","<div class='trialBorder'><div class='vertical-center'><img style='vertical-align:center; align:center' src='img/fixation2_sml.jpg'></div><div class='arrayDiv3'><div class='tl'><img class='introPic' src='trustrating_stim/white_mw003.bmp'><br><font color='green'><strong>Share</strong></font></div><div class='tc'><img class='introPic' src='trustrating_stim/white_mw070.bmp'><br><font color='red'><strong>Keep</strong></font></div><div class='tr'><img class='introPic' src='trustrating_stim/white_mw085.bmp'><br><font color='green'><strong>Share</strong></font></div></div></div>","null","ARRAY","3","trustrating_stim/white_mw003.bmp,trustrating_stim/white_mw070.bmp,trustrating_stim/white_mw085.bmp","1,0,1","noMatchOutcome","i","4500","","","","",""
"html-keyboard-response","72","184891","0.0-7.0-3.7","5bf0cb0411439b000168edda","bdp_wmem","Thu Mar 16 2023 00:03:31 GMT-0400 (Eastern Daylight Time)","576098","Match,No Match","","null","","","","","","<div class='trialBorder'><div class='vertical-center'><img src='img/fixation2_sml.jpg'</img></div></div>","null","DELAY","","","","","","","","","","",""
"html-keyboard-response","73","185745","0.0-7.0-4.7","5bf0cb0411439b000168edda","bdp_wmem","Thu Mar 16 2023 00:03:31 GMT-0400 (Eastern Daylight Time)","576098","Match,No Match","","851","","","","","","<div class='trialBorder'><div class='targDiv'><div class='tc'><img class='introPic' src='trustrating_stim/white_mw070.bmp'><br><font color='green'><strong>Share</strong></font></div></div><div class='respDiv'><div class='respDivL'>Match<br>(e)</div><div class='respDivR'>No Match<br>(i)</div></div></div>","i","TARGET","3","trustrating_stim/white_mw003.bmp,trustrating_stim/white_mw070.bmp,trustrating_stim/white_mw085.bmp","1,0,1","noMatchOutcome","i","4500","trustrating_stim/white_mw070.bmp","green","Share","REAL","1"
"html-keyboard-response","74","186247","0.0-7.0-5.7","5bf0cb0411439b000168edda","bdp_wmem","Thu Mar 16 2023 00:03:31 GMT-0400 (Eastern Daylight Time)","576098","Match,No Match","","null","","","","","","<div class='trialBorder'><div class='vertical-center'><img src='img/correct.jpg'></div><div class='respDiv'><div class='respDivL'>Match<br>(e)</div><div class='respDivR'><font style='color:orange'>No Match<br>(i)</font></div></div></div>","null","FEEDBACK","","","","","","","","","","",""
"html-keyboard-response","75","186748","0.0-7.0-1.8","5bf0cb0411439b000168edda","bdp_wmem","Thu Mar 16 2023 00:03:31 GMT-0400 (Eastern Daylight Time)","576098","Match,No Match","","null","","","","","","<div class='trialBorder'><div class='vertical-center'><img src='img/fixation2_sml.jpg'</img></div></div>","null","FIX","","","","","","","","","","",""
"html-keyboard-response","76","189751","0.0-7.0-2.8","5bf0cb0411439b000168edda","bdp_wmem","Thu Mar 16 2023 00:03:31 GMT-0400 (Eastern Daylight Time)","576098","Match,No Match","","null","","","","","","<div class='trialBorder'><div class='vertical-center'><img style='vertical-align:center; align:center' src='img/fixation2_sml.jpg'></div><div class='arrayDiv2'><div class='tl'><img class='introPic' src='trustrating_stim/white_mw042.bmp'><br><font color='red'><strong>Keep</strong></font></div><div class='tr'><img class='introPic' src='trustrating_stim/white_mw092.bmp'><br><font color='green'><strong>Share</strong></font></div></div></div>","null","ARRAY","2","trustrating_stim/white_mw042.bmp,trustrating_stim/white_mw092.bmp","0,1","noMatchFace","i","3000","","","","",""
"html-keyboard-response","77","193753","0.0-7.0-3.8","5bf0cb0411439b000168edda","bdp_wmem","Thu Mar 16 2023 00:03:31 GMT-0400 (Eastern Daylight Time)","576098","Match,No Match","","null","","","","","","<div class='trialBorder'><div class='vertical-center'><img src='img/fixation2_sml.jpg'</img></div></div>","null","DELAY","","","","","","","","","","",""
"html-keyboard-response","78","194439","0.0-7.0-4.8","5bf0cb0411439b000168edda","bdp_wmem","Thu Mar 16 2023 00:03:31 GMT-0400 (Eastern Daylight Time)","576098","Match,No Match","","683","","","","","","<div class='trialBorder'><div class='targDiv'><div class='tc'><img class='introPic' src='trustrating_stim/white_mw078.bmp'><br><font color='green'><strong>Share</strong></font></div></div><div class='respDiv'><div class='respDivL'>Match<br>(e)</div><div class='respDivR'>No Match<br>(i)</div></div></div>","e","TARGET","2","trustrating_stim/white_mw042.bmp,trustrating_stim/white_mw092.bmp","0,1","noMatchFace","i","3000","trustrating_stim/white_mw078.bmp","green","Share","REAL","0"
"html-keyboard-response","79","194941","0.0-7.0-5.8","5bf0cb0411439b000168edda","bdp_wmem","Thu Mar 16 2023 00:03:31 GMT-0400 (Eastern Daylight Time)","576098","Match,No Match","","null","","","","","","<div class='trialBorder'><div class='vertical-center'><img src='img/error.jpg'></div><div class='respDiv'><div class='respDivL'><font style='color:orange'>Match<br>(e)</font></div><div class='respDivR'>No Match<br>(i)</div></div></div>","null","FEEDBACK","","","","","","","","","","",""
"html-keyboard-response","80","195444","0.0-7.0-1.9","5bf0cb0411439b000168edda","bdp_wmem","Thu Mar 16 2023 00:03:31 GMT-0400 (Eastern Daylight Time)","576098","Match,No Match","","null","","","","","","<div class='trialBorder'><div class='vertical-center'><img src='img/fixation2_sml.jpg'</img></div></div>","null","FIX","","","","","","","","","","",""
"html-keyboard-response","81","198445","0.0-7.0-2.9","5bf0cb0411439b000168edda","bdp_wmem","Thu Mar 16 2023 00:03:31 GMT-0400 (Eastern Daylight Time)","576098","Match,No Match","","null","","","","","","<div class='trialBorder'><div class='vertical-center'><img style='vertical-align:center; align:center' src='img/fixation2_sml.jpg'></div><div class='arrayDiv2'><div class='tl'><img class='introPic' src='trustrating_stim/white_mw012.bmp'><br><font color='green'><strong>Share</strong></font></div><div class='tr'><img class='introPic' src='trustrating_stim/white_mw078.bmp'><br><font color='red'><strong>Keep</strong></font></div></div></div>","null","ARRAY","2","trustrating_stim/white_mw012.bmp,trustrating_stim/white_mw078.bmp","1,0","noMatchOutcome","i","3000","","","","",""
"html-keyboard-response","82","202448","0.0-7.0-3.9","5bf0cb0411439b000168edda","bdp_wmem","Thu Mar 16 2023 00:03:31 GMT-0400 (Eastern Daylight Time)","576098","Match,No Match","","null","","","","","","<div class='trialBorder'><div class='vertical-center'><img src='img/fixation2_sml.jpg'</img></div></div>","null","DELAY","","","","","","","","","","",""
"html-keyboard-response","83","203104","0.0-7.0-4.9","5bf0cb0411439b000168edda","bdp_wmem","Thu Mar 16 2023 00:03:31 GMT-0400 (Eastern Daylight Time)","576098","Match,No Match","","654","","","","","","<div class='trialBorder'><div class='targDiv'><div class='tc'><img class='introPic' src='trustrating_stim/white_mw078.bmp'><br><font color='green'><strong>Share</strong></font></div></div><div class='respDiv'><div class='respDivL'>Match<br>(e)</div><div class='respDivR'>No Match<br>(i)</div></div></div>","e","TARGET","2","trustrating_stim/white_mw012.bmp,trustrating_stim/white_mw078.bmp","1,0","noMatchOutcome","i","3000","trustrating_stim/white_mw078.bmp","green","Share","REAL","0"
"html-keyboard-response","84","203605","0.0-7.0-5.9","5bf0cb0411439b000168edda","bdp_wmem","Thu Mar 16 2023 00:03:31 GMT-0400 (Eastern Daylight Time)","576098","Match,No Match","","null","","","","","","<div class='trialBorder'><div class='vertical-center'><img src='img/error.jpg'></div><div class='respDiv'><div class='respDivL'><font style='color:orange'>Match<br>(e)</font></div><div class='respDivR'>No Match<br>(i)</div></div></div>","null","FEEDBACK","","","","","","","","","","",""
"html-keyboard-response","85","204107","0.0-7.0-1.10","5bf0cb0411439b000168edda","bdp_wmem","Thu Mar 16 2023 00:03:31 GMT-0400 (Eastern Daylight Time)","576098","Match,No Match","","null","","","","","","<div class='trialBorder'><div class='vertical-center'><img src='img/fixation2_sml.jpg'</img></div></div>","null","FIX","","","","","","","","","","",""
"html-keyboard-response","86","208610","0.0-7.0-2.10","5bf0cb0411439b000168edda","bdp_wmem","Thu Mar 16 2023 00:03:31 GMT-0400 (Eastern Daylight Time)","576098","Match,No Match","","null","","","","","","<div class='trialBorder'><div class='vertical-center'><img style='vertical-align:center; align:center' src='img/fixation2_sml.jpg'></div><div class='arrayDiv3'><div class='tl'><img class='introPic' src='trustrating_stim/white_mw070.bmp'><br><font color='red'><strong>Keep</strong></font></div><div class='tc'><img class='introPic' src='trustrating_stim/white_mw038.bmp'><br><font color='green'><strong>Share</strong></font></div><div class='tr'><img class='introPic' src='trustrating_stim/white_mw085.bmp'><br><font color='red'><strong>Keep</strong></font></div></div></div>","null","ARRAY","3","trustrating_stim/white_mw070.bmp,trustrating_stim/white_mw038.bmp,trustrating_stim/white_mw085.bmp","0,1,0","Match","e","4500","","","","",""
"html-keyboard-response","87","212612","0.0-7.0-3.10","5bf0cb0411439b000168edda","bdp_wmem","Thu Mar 16 2023 00:03:31 GMT-0400 (Eastern Daylight Time)","576098","Match,No Match","","null","","","","","","<div class='trialBorder'><div class='vertical-center'><img src='img/fixation2_sml.jpg'</img></div></div>","null","DELAY","","","","","","","","","","",""
"html-keyboard-response","88","213661","0.0-7.0-4.10","5bf0cb0411439b000168edda","bdp_wmem","Thu Mar 16 2023 00:03:31 GMT-0400 (Eastern Daylight Time)","576098","Match,No Match","","1047","","","","","","<div class='trialBorder'><div class='targDiv'><div class='tc'><img class='introPic' src='trustrating_stim/white_mw070.bmp'><br><font color='red'><strong>Keep</strong></font></div></div><div class='respDiv'><div class='respDivL'>Match<br>(e)</div><div class='respDivR'>No Match<br>(i)</div></div></div>","i","TARGET","3","trustrating_stim/white_mw070.bmp,trustrating_stim/white_mw038.bmp,trustrating_stim/white_mw085.bmp","0,1,0","Match","e","4500","trustrating_stim/white_mw070.bmp","red","Keep","REAL","0"
"html-keyboard-response","89","214164","0.0-7.0-5.10","5bf0cb0411439b000168edda","bdp_wmem","Thu Mar 16 2023 00:03:31 GMT-0400 (Eastern Daylight Time)","576098","Match,No Match","","null","","","","","","<div class='trialBorder'><div class='vertical-center'><img src='img/error.jpg'></div><div class='respDiv'><div class='respDivL'>Match<br>(e)</div><div class='respDivR'><font style='color:orange'>No Match<br>(i)</font></div></div></div>","null","FEEDBACK","","","","","","","","","","",""
"html-keyboard-response","90","214665","0.0-7.0-1.11","5bf0cb0411439b000168edda","bdp_wmem","Thu Mar 16 2023 00:03:31 GMT-0400 (Eastern Daylight Time)","576098","Match,No Match","","null","","","","","","<div class='trialBorder'><div class='vertical-center'><img src='img/fixation2_sml.jpg'</img></div></div>","null","FIX","","","","","","","","","","",""
"html-keyboard-response","91","216167","0.0-7.0-2.11","5bf0cb0411439b000168edda","bdp_wmem","Thu Mar 16 2023 00:03:31 GMT-0400 (Eastern Daylight Time)","576098","Match,No Match","","null","","","","","","<div class='trialBorder'><div class='vertical-center'><img style='vertical-align:center; align:center' src='img/fixation2_sml.jpg'></div><div class='arrayDiv1'><div class='tc'><img class='introPic' src='trustrating_stim/white_mw010.bmp'><br><font color='green'><strong>Share</strong></font></div></div></div>","null","ARRAY","1","trustrating_stim/white_mw010.bmp","1","Match","e","1500","","","","",""
"html-keyboard-response","92","220170","0.0-7.0-3.11","5bf0cb0411439b000168edda","bdp_wmem","Thu Mar 16 2023 00:03:31 GMT-0400 (Eastern Daylight Time)","576098","Match,No Match","","null","","","","","","<div class='trialBorder'><div class='vertical-center'><img src='img/fixation2_sml.jpg'</img></div></div>","null","DELAY","","","","","","","","","","",""
"html-keyboard-response","93","220946","0.0-7.0-4.11","5bf0cb0411439b000168edda","bdp_wmem","Thu Mar 16 2023 00:03:31 GMT-0400 (Eastern Daylight Time)","576098","Match,No Match","","773","","","","","","<div class='trialBorder'><div class='targDiv'><div class='tc'><img class='introPic' src='trustrating_stim/white_mw010.bmp'><br><font color='green'><strong>Share</strong></font></div></div><div class='respDiv'><div class='respDivL'>Match<br>(e)</div><div class='respDivR'>No Match<br>(i)</div></div></div>","e","TARGET","1","trustrating_stim/white_mw010.bmp","1","Match","e","1500","trustrating_stim/white_mw010.bmp","green","Share","REAL","1"
"html-keyboard-response","94","221447","0.0-7.0-5.11","5bf0cb0411439b000168edda","bdp_wmem","Thu Mar 16 2023 00:03:31 GMT-0400 (Eastern Daylight Time)","576098","Match,No Match","","null","","","","","","<div class='trialBorder'><div class='vertical-center'><img src='img/correct.jpg'></div><div class='respDiv'><div class='respDivL'><font style='color:orange'>Match<br>(e)</font></div><div class='respDivR'>No Match<br>(i)</div></div></div>","null","FEEDBACK","","","","","","","","","","",""
"html-keyboard-response","95","221949","0.0-7.0-1.12","5bf0cb0411439b000168edda","bdp_wmem","Thu Mar 16 2023 00:03:31 GMT-0400 (Eastern Daylight Time)","576098","Match,No Match","","null","","","","","","<div class='trialBorder'><div class='vertical-center'><img src='img/fixation2_sml.jpg'</img></div></div>","null","FIX","","","","","","","","","","",""
"html-keyboard-response","96","223451","0.0-7.0-2.12","5bf0cb0411439b000168edda","bdp_wmem","Thu Mar 16 2023 00:03:31 GMT-0400 (Eastern Daylight Time)","576098","Match,No Match","","null","","","","","","<div class='trialBorder'><div class='vertical-center'><img style='vertical-align:center; align:center' src='img/fixation2_sml.jpg'></div><div class='arrayDiv1'><div class='tc'><img class='introPic' src='trustrating_stim/white_mw042.bmp'><br><font color='red'><strong>Keep</strong></font></div></div></div>","null","ARRAY","1","trustrating_stim/white_mw042.bmp","0","Match","e","1500","","","","",""
"html-keyboard-response","97","227453","0.0-7.0-3.12","5bf0cb0411439b000168edda","bdp_wmem","Thu Mar 16 2023 00:03:31 GMT-0400 (Eastern Daylight Time)","576098","Match,No Match","","null","","","","","","<div class='trialBorder'><div class='vertical-center'><img src='img/fixation2_sml.jpg'</img></div></div>","null","DELAY","","","","","","","","","","",""
"html-keyboard-response","98","228120","0.0-7.0-4.12","5bf0cb0411439b000168edda","bdp_wmem","Thu Mar 16 2023 00:03:31 GMT-0400 (Eastern Daylight Time)","576098","Match,No Match","","665","","","","","","<div class='trialBorder'><div class='targDiv'><div class='tc'><img class='introPic' src='trustrating_stim/white_mw042.bmp'><br><font color='red'><strong>Keep</strong></font></div></div><div class='respDiv'><div class='respDivL'>Match<br>(e)</div><div class='respDivR'>No Match<br>(i)</div></div></div>","e","TARGET","1","trustrating_stim/white_mw042.bmp","0","Match","e","1500","trustrating_stim/white_mw042.bmp","red","Keep","REAL","1"
"html-keyboard-response","99","228622","0.0-7.0-5.12","5bf0cb0411439b000168edda","bdp_wmem","Thu Mar 16 2023 00:03:31 GMT-0400 (Eastern Daylight Time)","576098","Match,No Match","","null","","","","","","<div class='trialBorder'><div class='vertical-center'><img src='img/correct.jpg'></div><div class='respDiv'><div class='respDivL'><font style='color:orange'>Match<br>(e)</font></div><div class='respDivR'>No Match<br>(i)</div></div></div>","null","FEEDBACK","","","","","","","","","","",""
"html-keyboard-response","100","229125","0.0-7.0-1.13","5bf0cb0411439b000168edda","bdp_wmem","Thu Mar 16 2023 00:03:31 GMT-0400 (Eastern Daylight Time)","576098","Match,No Match","","null","","","","","","<div class='trialBorder'><div class='vertical-center'><img src='img/fixation2_sml.jpg'</img></div></div>","null","FIX","","","","","","","","","","",""
"html-keyboard-response","101","230627","0.0-7.0-2.13","5bf0cb0411439b000168edda","bdp_wmem","Thu Mar 16 2023 00:03:31 GMT-0400 (Eastern Daylight Time)","576098","Match,No Match","","null","","","","","","<div class='trialBorder'><div class='vertical-center'><img style='vertical-align:center; align:center' src='img/fixation2_sml.jpg'></div><div class='arrayDiv1'><div class='tc'><img class='introPic' src='trustrating_stim/white_mw091.bmp'><br><font color='green'><strong>Share</strong></font></div></div></div>","null","ARRAY","1","trustrating_stim/white_mw091.bmp","1","noMatchFace","i","1500","","","","",""
"html-keyboard-response","102","234629","0.0-7.0-3.13","5bf0cb0411439b000168edda","bdp_wmem","Thu Mar 16 2023 00:03:31 GMT-0400 (Eastern Daylight Time)","576098","Match,No Match","","null","","","","","","<div class='trialBorder'><div class='vertical-center'><img src='img/fixation2_sml.jpg'</img></div></div>","null","DELAY","","","","","","","","","","",""
"html-keyboard-response","103","235441","0.0-7.0-4.13","5bf0cb0411439b000168edda","bdp_wmem","Thu Mar 16 2023 00:03:31 GMT-0400 (Eastern Daylight Time)","576098","Match,No Match","","810","","","","","","<div class='trialBorder'><div class='targDiv'><div class='tc'><img class='introPic' src='trustrating_stim/white_mw012.bmp'><br><font color='green'><strong>Share</strong></font></div></div><div class='respDiv'><div class='respDivL'>Match<br>(e)</div><div class='respDivR'>No Match<br>(i)</div></div></div>","i","TARGET","1","trustrating_stim/white_mw091.bmp","1","noMatchFace","i","1500","trustrating_stim/white_mw012.bmp","green","Share","REAL","1"
"html-keyboard-response","104","235944","0.0-7.0-5.13","5bf0cb0411439b000168edda","bdp_wmem","Thu Mar 16 2023 00:03:31 GMT-0400 (Eastern Daylight Time)","576098","Match,No Match","","null","","","","","","<div class='trialBorder'><div class='vertical-center'><img src='img/correct.jpg'></div><div class='respDiv'><div class='respDivL'>Match<br>(e)</div><div class='respDivR'><font style='color:orange'>No Match<br>(i)</font></div></div></div>","null","FEEDBACK","","","","","","","","","","",""
"html-keyboard-response","105","236446","0.0-7.0-1.14","5bf0cb0411439b000168edda","bdp_wmem","Thu Mar 16 2023 00:03:31 GMT-0400 (Eastern Daylight Time)","576098","Match,No Match","","null","","","","","","<div class='trialBorder'><div class='vertical-center'><img src='img/fixation2_sml.jpg'</img></div></div>","null","FIX","","","","","","","","","","",""
"html-keyboard-response","106","237948","0.0-7.0-2.14","5bf0cb0411439b000168edda","bdp_wmem","Thu Mar 16 2023 00:03:31 GMT-0400 (Eastern Daylight Time)","576098","Match,No Match","","null","","","","","","<div class='trialBorder'><div class='vertical-center'><img style='vertical-align:center; align:center' src='img/fixation2_sml.jpg'></div><div class='arrayDiv1'><div class='tc'><img class='introPic' src='trustrating_stim/white_mw040.bmp'><br><font color='green'><strong>Share</strong></font></div></div></div>","null","ARRAY","1","trustrating_stim/white_mw040.bmp","1","Match","e","1500","","","","",""
"html-keyboard-response","107","241949","0.0-7.0-3.14","5bf0cb0411439b000168edda","bdp_wmem","Thu Mar 16 2023 00:03:31 GMT-0400 (Eastern Daylight Time)","576098","Match,No Match","","null","","","","","","<div class='trialBorder'><div class='vertical-center'><img src='img/fixation2_sml.jpg'</img></div></div>","null","DELAY","","","","","","","","","","",""
"html-keyboard-response","108","242561","0.0-7.0-4.14","5bf0cb0411439b000168edda","bdp_wmem","Thu Mar 16 2023 00:03:31 GMT-0400 (Eastern Daylight Time)","576098","Match,No Match","","610","","","","","","<div class='trialBorder'><div class='targDiv'><div class='tc'><img class='introPic' src='trustrating_stim/white_mw040.bmp'><br><font color='green'><strong>Share</strong></font></div></div><div class='respDiv'><div class='respDivL'>Match<br>(e)</div><div class='respDivR'>No Match<br>(i)</div></div></div>","e","TARGET","1","trustrating_stim/white_mw040.bmp","1","Match","e","1500","trustrating_stim/white_mw040.bmp","green","Share","REAL","1"
"html-keyboard-response","109","243065","0.0-7.0-5.14","5bf0cb0411439b000168edda","bdp_wmem","Thu Mar 16 2023 00:03:31 GMT-0400 (Eastern Daylight Time)","576098","Match,No Match","","null","","","","","","<div class='trialBorder'><div class='vertical-center'><img src='img/correct.jpg'></div><div class='respDiv'><div class='respDivL'><font style='color:orange'>Match<br>(e)</font></div><div class='respDivR'>No Match<br>(i)</div></div></div>","null","FEEDBACK","","","","","","","","","","",""
"html-keyboard-response","110","243566","0.0-7.0-1.15","5bf0cb0411439b000168edda","bdp_wmem","Thu Mar 16 2023 00:03:31 GMT-0400 (Eastern Daylight Time)","576098","Match,No Match","","null","","","","","","<div class='trialBorder'><div class='vertical-center'><img src='img/fixation2_sml.jpg'</img></div></div>","null","FIX","","","","","","","","","","",""
"html-keyboard-response","111","245068","0.0-7.0-2.15","5bf0cb0411439b000168edda","bdp_wmem","Thu Mar 16 2023 00:03:31 GMT-0400 (Eastern Daylight Time)","576098","Match,No Match","","null","","","","","","<div class='trialBorder'><div class='vertical-center'><img style='vertical-align:center; align:center' src='img/fixation2_sml.jpg'></div><div class='arrayDiv1'><div class='tc'><img class='introPic' src='trustrating_stim/white_mw010.bmp'><br><font color='red'><strong>Keep</strong></font></div></div></div>","null","ARRAY","1","trustrating_stim/white_mw010.bmp","0","Match","e","1500","","","","",""
"html-keyboard-response","112","249071","0.0-7.0-3.15","5bf0cb0411439b000168edda","bdp_wmem","Thu Mar 16 2023 00:03:31 GMT-0400 (Eastern Daylight Time)","576098","Match,No Match","","null","","","","","","<div class='trialBorder'><div class='vertical-center'><img src='img/fixation2_sml.jpg'</img></div></div>","null","DELAY","","","","","","","","","","",""
"html-keyboard-response","113","250184","0.0-7.0-4.15","5bf0cb0411439b000168edda","bdp_wmem","Thu Mar 16 2023 00:03:31 GMT-0400 (Eastern Daylight Time)","576098","Match,No Match","","1110","","","","","","<div class='trialBorder'><div class='targDiv'><div class='tc'><img class='introPic' src='trustrating_stim/white_mw010.bmp'><br><font color='red'><strong>Keep</strong></font></div></div><div class='respDiv'><div class='respDivL'>Match<br>(e)</div><div class='respDivR'>No Match<br>(i)</div></div></div>","e","TARGET","1","trustrating_stim/white_mw010.bmp","0","Match","e","1500","trustrating_stim/white_mw010.bmp","red","Keep","REAL","1"
"html-keyboard-response","114","250686","0.0-7.0-5.15","5bf0cb0411439b000168edda","bdp_wmem","Thu Mar 16 2023 00:03:31 GMT-0400 (Eastern Daylight Time)","576098","Match,No Match","","null","","","","","","<div class='trialBorder'><div class='vertical-center'><img src='img/correct.jpg'></div><div class='respDiv'><div class='respDivL'><font style='color:orange'>Match<br>(e)</font></div><div class='respDivR'>No Match<br>(i)</div></div></div>","null","FEEDBACK","","","","","","","","","","",""
"html-keyboard-response","115","251188","0.0-7.0-1.16","5bf0cb0411439b000168edda","bdp_wmem","Thu Mar 16 2023 00:03:31 GMT-0400 (Eastern Daylight Time)","576098","Match,No Match","","null","","","","","","<div class='trialBorder'><div class='vertical-center'><img src='img/fixation2_sml.jpg'</img></div></div>","null","FIX","","","","","","","","","","",""
"html-keyboard-response","116","254190","0.0-7.0-2.16","5bf0cb0411439b000168edda","bdp_wmem","Thu Mar 16 2023 00:03:31 GMT-0400 (Eastern Daylight Time)","576098","Match,No Match","","null","","","","","","<div class='trialBorder'><div class='vertical-center'><img style='vertical-align:center; align:center' src='img/fixation2_sml.jpg'></div><div class='arrayDiv2'><div class='tl'><img class='introPic' src='trustrating_stim/white_mw085.bmp'><br><font color='green'><strong>Share</strong></font></div><div class='tr'><img class='introPic' src='trustrating_stim/white_mw078.bmp'><br><font color='red'><strong>Keep</strong></font></div></div></div>","null","ARRAY","2","trustrating_stim/white_mw085.bmp,trustrating_stim/white_mw078.bmp","1,0","Match","e","3000","","","","",""
"html-keyboard-response","117","258193","0.0-7.0-3.16","5bf0cb0411439b000168edda","bdp_wmem","Thu Mar 16 2023 00:03:31 GMT-0400 (Eastern Daylight Time)","576098","Match,No Match","","null","","","","","","<div class='trialBorder'><div class='vertical-center'><img src='img/fixation2_sml.jpg'</img></div></div>","null","DELAY","","","","","","","","","","",""
"html-keyboard-response","118","258936","0.0-7.0-4.16","5bf0cb0411439b000168edda","bdp_wmem","Thu Mar 16 2023 00:03:31 GMT-0400 (Eastern Daylight Time)","576098","Match,No Match","","741","","","","","","<div class='trialBorder'><div class='targDiv'><div class='tc'><img class='introPic' src='trustrating_stim/white_mw085.bmp'><br><font color='green'><strong>Share</strong></font></div></div><div class='respDiv'><div class='respDivL'>Match<br>(e)</div><div class='respDivR'>No Match<br>(i)</div></div></div>","e","TARGET","2","trustrating_stim/white_mw085.bmp,trustrating_stim/white_mw078.bmp","1,0","Match","e","3000","trustrating_stim/white_mw085.bmp","green","Share","REAL","1"
"html-keyboard-response","119","259438","0.0-7.0-5.16","5bf0cb0411439b000168edda","bdp_wmem","Thu Mar 16 2023 00:03:31 GMT-0400 (Eastern Daylight Time)","576098","Match,No Match","","null","","","","","","<div class='trialBorder'><div class='vertical-center'><img src='img/correct.jpg'></div><div class='respDiv'><div class='respDivL'><font style='color:orange'>Match<br>(e)</font></div><div class='respDivR'>No Match<br>(i)</div></div></div>","null","FEEDBACK","","","","","","","","","","",""
"html-keyboard-response","120","259940","0.0-7.0-1.17","5bf0cb0411439b000168edda","bdp_wmem","Thu Mar 16 2023 00:03:31 GMT-0400 (Eastern Daylight Time)","576098","Match,No Match","","null","","","","","","<div class='trialBorder'><div class='vertical-center'><img src='img/fixation2_sml.jpg'</img></div></div>","null","FIX","","","","","","","","","","",""
"html-keyboard-response","121","264444","0.0-7.0-2.17","5bf0cb0411439b000168edda","bdp_wmem","Thu Mar 16 2023 00:03:31 GMT-0400 (Eastern Daylight Time)","576098","Match,No Match","","null","","","","","","<div class='trialBorder'><div class='vertical-center'><img style='vertical-align:center; align:center' src='img/fixation2_sml.jpg'></div><div class='arrayDiv3'><div class='tl'><img class='introPic' src='trustrating_stim/white_mw042.bmp'><br><font color='red'><strong>Keep</strong></font></div><div class='tc'><img class='introPic' src='trustrating_stim/white_mw038.bmp'><br><font color='green'><strong>Share</strong></font></div><div class='tr'><img class='introPic' src='trustrating_stim/white_mw078.bmp'><br><font color='green'><strong>Share</strong></font></div></div></div>","null","ARRAY","3","trustrating_stim/white_mw042.bmp,trustrating_stim/white_mw038.bmp,trustrating_stim/white_mw078.bmp","0,1,1","Match","e","4500","","","","",""
"html-keyboard-response","122","268445","0.0-7.0-3.17","5bf0cb0411439b000168edda","bdp_wmem","Thu Mar 16 2023 00:03:31 GMT-0400 (Eastern Daylight Time)","576098","Match,No Match","","null","","","","","","<div class='trialBorder'><div class='vertical-center'><img src='img/fixation2_sml.jpg'</img></div></div>","null","DELAY","","","","","","","","","","",""
"html-keyboard-response","123","269130","0.0-7.0-4.17","5bf0cb0411439b000168edda","bdp_wmem","Thu Mar 16 2023 00:03:31 GMT-0400 (Eastern Daylight Time)","576098","Match,No Match","","682","","","","","","<div class='trialBorder'><div class='targDiv'><div class='tc'><img class='introPic' src='trustrating_stim/white_mw078.bmp'><br><font color='green'><strong>Share</strong></font></div></div><div class='respDiv'><div class='respDivL'>Match<br>(e)</div><div class='respDivR'>No Match<br>(i)</div></div></div>","e","TARGET","3","trustrating_stim/white_mw042.bmp,trustrating_stim/white_mw038.bmp,trustrating_stim/white_mw078.bmp","0,1,1","Match","e","4500","trustrating_stim/white_mw078.bmp","green","Share","REAL","1"
"html-keyboard-response","124","269632","0.0-7.0-5.17","5bf0cb0411439b000168edda","bdp_wmem","Thu Mar 16 2023 00:03:31 GMT-0400 (Eastern Daylight Time)","576098","Match,No Match","","null","","","","","","<div class='trialBorder'><div class='vertical-center'><img src='img/correct.jpg'></div><div class='respDiv'><div class='respDivL'><font style='color:orange'>Match<br>(e)</font></div><div class='respDivR'>No Match<br>(i)</div></div></div>","null","FEEDBACK","","","","","","","","","","",""
"html-keyboard-response","125","270134","0.0-7.0-1.18","5bf0cb0411439b000168edda","bdp_wmem","Thu Mar 16 2023 00:03:31 GMT-0400 (Eastern Daylight Time)","576098","Match,No Match","","null","","","","","","<div class='trialBorder'><div class='vertical-center'><img src='img/fixation2_sml.jpg'</img></div></div>","null","FIX","","","","","","","","","","",""
"html-keyboard-response","126","273137","0.0-7.0-2.18","5bf0cb0411439b000168edda","bdp_wmem","Thu Mar 16 2023 00:03:31 GMT-0400 (Eastern Daylight Time)","576098","Match,No Match","","null","","","","","","<div class='trialBorder'><div class='vertical-center'><img style='vertical-align:center; align:center' src='img/fixation2_sml.jpg'></div><div class='arrayDiv2'><div class='tl'><img class='introPic' src='trustrating_stim/white_mw091.bmp'><br><font color='red'><strong>Keep</strong></font></div><div class='tr'><img class='introPic' src='trustrating_stim/white_mw010.bmp'><br><font color='green'><strong>Share</strong></font></div></div></div>","null","ARRAY","2","trustrating_stim/white_mw091.bmp,trustrating_stim/white_mw010.bmp","0,1","noMatchOutcome","i","3000","","","","",""
"html-keyboard-response","127","277139","0.0-7.0-3.18","5bf0cb0411439b000168edda","bdp_wmem","Thu Mar 16 2023 00:03:31 GMT-0400 (Eastern Daylight Time)","576098","Match,No Match","","null","","","","","","<div class='trialBorder'><div class='vertical-center'><img src='img/fixation2_sml.jpg'</img></div></div>","null","DELAY","","","","","","","","","","",""
"html-keyboard-response","128","277879","0.0-7.0-4.18","5bf0cb0411439b000168edda","bdp_wmem","Thu Mar 16 2023 00:03:31 GMT-0400 (Eastern Daylight Time)","576098","Match,No Match","","738","","","","","","<div class='trialBorder'><div class='targDiv'><div class='tc'><img class='introPic' src='trustrating_stim/white_mw010.bmp'><br><font color='red'><strong>Keep</strong></font></div></div><div class='respDiv'><div class='respDivL'>Match<br>(e)</div><div class='respDivR'>No Match<br>(i)</div></div></div>","e","TARGET","2","trustrating_stim/white_mw091.bmp,trustrating_stim/white_mw010.bmp","0,1","noMatchOutcome","i","3000","trustrating_stim/white_mw010.bmp","red","Keep","REAL","0"
"html-keyboard-response","129","278381","0.0-7.0-5.18","5bf0cb0411439b000168edda","bdp_wmem","Thu Mar 16 2023 00:03:31 GMT-0400 (Eastern Daylight Time)","576098","Match,No Match","","null","","","","","","<div class='trialBorder'><div class='vertical-center'><img src='img/error.jpg'></div><div class='respDiv'><div class='respDivL'><font style='color:orange'>Match<br>(e)</font></div><div class='respDivR'>No Match<br>(i)</div></div></div>","null","FEEDBACK","","","","","","","","","","",""
"html-keyboard-response","130","278882","0.0-7.0-1.19","5bf0cb0411439b000168edda","bdp_wmem","Thu Mar 16 2023 00:03:31 GMT-0400 (Eastern Daylight Time)","576098","Match,No Match","","null","","","","","","<div class='trialBorder'><div class='vertical-center'><img src='img/fixation2_sml.jpg'</img></div></div>","null","FIX","","","","","","","","","","",""
"html-keyboard-response","131","280385","0.0-7.0-2.19","5bf0cb0411439b000168edda","bdp_wmem","Thu Mar 16 2023 00:03:31 GMT-0400 (Eastern Daylight Time)","576098","Match,No Match","","null","","","","","","<div class='trialBorder'><div class='vertical-center'><img style='vertical-align:center; align:center' src='img/fixation2_sml.jpg'></div><div class='arrayDiv1'><div class='tc'><img class='introPic' src='trustrating_stim/white_mw003.bmp'><br><font color='red'><strong>Keep</strong></font></div></div></div>","null","ARRAY","1","trustrating_stim/white_mw003.bmp","0","Match","e","1500","","","","",""
"html-keyboard-response","132","284388","0.0-7.0-3.19","5bf0cb0411439b000168edda","bdp_wmem","Thu Mar 16 2023 00:03:31 GMT-0400 (Eastern Daylight Time)","576098","Match,No Match","","null","","","","","","<div class='trialBorder'><div class='vertical-center'><img src='img/fixation2_sml.jpg'</img></div></div>","null","DELAY","","","","","","","","","","",""
"html-keyboard-response","133","285256","0.0-7.0-4.19","5bf0cb0411439b000168edda","bdp_wmem","Thu Mar 16 2023 00:03:31 GMT-0400 (Eastern Daylight Time)","576098","Match,No Match","","867","","","","","","<div class='trialBorder'><div class='targDiv'><div class='tc'><img class='introPic' src='trustrating_stim/white_mw003.bmp'><br><font color='red'><strong>Keep</strong></font></div></div><div class='respDiv'><div class='respDivL'>Match<br>(e)</div><div class='respDivR'>No Match<br>(i)</div></div></div>","i","TARGET","1","trustrating_stim/white_mw003.bmp","0","Match","e","1500","trustrating_stim/white_mw003.bmp","red","Keep","REAL","0"
"html-keyboard-response","134","285758","0.0-7.0-5.19","5bf0cb0411439b000168edda","bdp_wmem","Thu Mar 16 2023 00:03:31 GMT-0400 (Eastern Daylight Time)","576098","Match,No Match","","null","","","","","","<div class='trialBorder'><div class='vertical-center'><img src='img/error.jpg'></div><div class='respDiv'><div class='respDivL'>Match<br>(e)</div><div class='respDivR'><font style='color:orange'>No Match<br>(i)</font></div></div></div>","null","FEEDBACK","","","","","","","","","","",""
"html-keyboard-response","135","286261","0.0-7.0-1.20","5bf0cb0411439b000168edda","bdp_wmem","Thu Mar 16 2023 00:03:31 GMT-0400 (Eastern Daylight Time)","576098","Match,No Match","","null","","","","","","<div class='trialBorder'><div class='vertical-center'><img src='img/fixation2_sml.jpg'</img></div></div>","null","FIX","","","","","","","","","","",""
"html-keyboard-response","136","289263","0.0-7.0-2.20","5bf0cb0411439b000168edda","bdp_wmem","Thu Mar 16 2023 00:03:31 GMT-0400 (Eastern Daylight Time)","576098","Match,No Match","","null","","","","","","<div class='trialBorder'><div class='vertical-center'><img style='vertical-align:center; align:center' src='img/fixation2_sml.jpg'></div><div class='arrayDiv2'><div class='tl'><img class='introPic' src='trustrating_stim/white_mw078.bmp'><br><font color='green'><strong>Share</strong></font></div><div class='tr'><img class='introPic' src='trustrating_stim/white_mw091.bmp'><br><font color='red'><strong>Keep</strong></font></div></div></div>","null","ARRAY","2","trustrating_stim/white_mw078.bmp,trustrating_stim/white_mw091.bmp","1,0","Match","e","3000","","","","",""
"html-keyboard-response","137","293266","0.0-7.0-3.20","5bf0cb0411439b000168edda","bdp_wmem","Thu Mar 16 2023 00:03:31 GMT-0400 (Eastern Daylight Time)","576098","Match,No Match","","null","","","","","","<div class='trialBorder'><div class='vertical-center'><img src='img/fixation2_sml.jpg'</img></div></div>","null","DELAY","","","","","","","","","","",""
"html-keyboard-response","138","293807","0.0-7.0-4.20","5bf0cb0411439b000168edda","bdp_wmem","Thu Mar 16 2023 00:03:31 GMT-0400 (Eastern Daylight Time)","576098","Match,No Match","","539","","","","","","<div class='trialBorder'><div class='targDiv'><div class='tc'><img class='introPic' src='trustrating_stim/white_mw091.bmp'><br><font color='red'><strong>Keep</strong></font></div></div><div class='respDiv'><div class='respDivL'>Match<br>(e)</div><div class='respDivR'>No Match<br>(i)</div></div></div>","e","TARGET","2","trustrating_stim/white_mw078.bmp,trustrating_stim/white_mw091.bmp","1,0","Match","e","3000","trustrating_stim/white_mw091.bmp","red","Keep","REAL","1"
"html-keyboard-response","139","294308","0.0-7.0-5.20","5bf0cb0411439b000168edda","bdp_wmem","Thu Mar 16 2023 00:03:31 GMT-0400 (Eastern Daylight Time)","576098","Match,No Match","","null","","","","","","<div class='trialBorder'><div class='vertical-center'><img src='img/correct.jpg'></div><div class='respDiv'><div class='respDivL'><font style='color:orange'>Match<br>(e)</font></div><div class='respDivR'>No Match<br>(i)</div></div></div>","null","FEEDBACK","","","","","","","","","","",""
"html-keyboard-response","140","294811","0.0-7.0-1.21","5bf0cb0411439b000168edda","bdp_wmem","Thu Mar 16 2023 00:03:31 GMT-0400 (Eastern Daylight Time)","576098","Match,No Match","","null","","","","","","<div class='trialBorder'><div class='vertical-center'><img src='img/fixation2_sml.jpg'</img></div></div>","null","FIX","","","","","","","","","","",""
"html-keyboard-response","141","297814","0.0-7.0-2.21","5bf0cb0411439b000168edda","bdp_wmem","Thu Mar 16 2023 00:03:31 GMT-0400 (Eastern Daylight Time)","576098","Match,No Match","","null","","","","","","<div class='trialBorder'><div class='vertical-center'><img style='vertical-align:center; align:center' src='img/fixation2_sml.jpg'></div><div class='arrayDiv2'><div class='tl'><img class='introPic' src='trustrating_stim/white_mw010.bmp'><br><font color='red'><strong>Keep</strong></font></div><div class='tr'><img class='introPic' src='trustrating_stim/white_mw013.bmp'><br><font color='green'><strong>Share</strong></font></div></div></div>","null","ARRAY","2","trustrating_stim/white_mw010.bmp,trustrating_stim/white_mw013.bmp","0,1","noMatchFace","i","3000","","","","",""
"html-keyboard-response","142","301816","0.0-7.0-3.21","5bf0cb0411439b000168edda","bdp_wmem","Thu Mar 16 2023 00:03:31 GMT-0400 (Eastern Daylight Time)","576098","Match,No Match","","null","","","","","","<div class='trialBorder'><div class='vertical-center'><img src='img/fixation2_sml.jpg'</img></div></div>","null","DELAY","","","","","","","","","","",""
"html-keyboard-response","143","302779","0.0-7.0-4.21","5bf0cb0411439b000168edda","bdp_wmem","Thu Mar 16 2023 00:03:31 GMT-0400 (Eastern Daylight Time)","576098","Match,No Match","","960","","","","","","<div class='trialBorder'><div class='targDiv'><div class='tc'><img class='introPic' src='trustrating_stim/white_mw038.bmp'><br><font color='green'><strong>Share</strong></font></div></div><div class='respDiv'><div class='respDivL'>Match<br>(e)</div><div class='respDivR'>No Match<br>(i)</div></div></div>","i","TARGET","2","trustrating_stim/white_mw010.bmp,trustrating_stim/white_mw013.bmp","0,1","noMatchFace","i","3000","trustrating_stim/white_mw038.bmp","green","Share","REAL","1"
"html-keyboard-response","144","303280","0.0-7.0-5.21","5bf0cb0411439b000168edda","bdp_wmem","Thu Mar 16 2023 00:03:31 GMT-0400 (Eastern Daylight Time)","576098","Match,No Match","","null","","","","","","<div class='trialBorder'><div class='vertical-center'><img src='img/correct.jpg'></div><div class='respDiv'><div class='respDivL'>Match<br>(e)</div><div class='respDivR'><font style='color:orange'>No Match<br>(i)</font></div></div></div>","null","FEEDBACK","","","","","","","","","","",""
"html-keyboard-response","145","303782","0.0-7.0-1.22","5bf0cb0411439b000168edda","bdp_wmem","Thu Mar 16 2023 00:03:31 GMT-0400 (Eastern Daylight Time)","576098","Match,No Match","","null","","","","","","<div class='trialBorder'><div class='vertical-center'><img src='img/fixation2_sml.jpg'</img></div></div>","null","FIX","","","","","","","","","","",""
"html-keyboard-response","146","306785","0.0-7.0-2.22","5bf0cb0411439b000168edda","bdp_wmem","Thu Mar 16 2023 00:03:31 GMT-0400 (Eastern Daylight Time)","576098","Match,No Match","","null","","","","","","<div class='trialBorder'><div class='vertical-center'><img style='vertical-align:center; align:center' src='img/fixation2_sml.jpg'></div><div class='arrayDiv2'><div class='tl'><img class='introPic' src='trustrating_stim/white_mw010.bmp'><br><font color='green'><strong>Share</strong></font></div><div class='tr'><img class='introPic' src='trustrating_stim/white_mw038.bmp'><br><font color='red'><strong>Keep</strong></font></div></div></div>","null","ARRAY","2","trustrating_stim/white_mw010.bmp,trustrating_stim/white_mw038.bmp","1,0","Match","e","3000","","","","",""
"html-keyboard-response","147","310787","0.0-7.0-3.22","5bf0cb0411439b000168edda","bdp_wmem","Thu Mar 16 2023 00:03:31 GMT-0400 (Eastern Daylight Time)","576098","Match,No Match","","null","","","","","","<div class='trialBorder'><div class='vertical-center'><img src='img/fixation2_sml.jpg'</img></div></div>","null","DELAY","","","","","","","","","","",""
"html-keyboard-response","148","311522","0.0-7.0-4.22","5bf0cb0411439b000168edda","bdp_wmem","Thu Mar 16 2023 00:03:31 GMT-0400 (Eastern Daylight Time)","576098","Match,No Match","","733","","","","","","<div class='trialBorder'><div class='targDiv'><div class='tc'><img class='introPic' src='trustrating_stim/white_mw038.bmp'><br><font color='red'><strong>Keep</strong></font></div></div><div class='respDiv'><div class='respDivL'>Match<br>(e)</div><div class='respDivR'>No Match<br>(i)</div></div></div>","e","TARGET","2","trustrating_stim/white_mw010.bmp,trustrating_stim/white_mw038.bmp","1,0","Match","e","3000","trustrating_stim/white_mw038.bmp","red","Keep","REAL","1"
"html-keyboard-response","149","312024","0.0-7.0-5.22","5bf0cb0411439b000168edda","bdp_wmem","Thu Mar 16 2023 00:03:31 GMT-0400 (Eastern Daylight Time)","576098","Match,No Match","","null","","","","","","<div class='trialBorder'><div class='vertical-center'><img src='img/correct.jpg'></div><div class='respDiv'><div class='respDivL'><font style='color:orange'>Match<br>(e)</font></div><div class='respDivR'>No Match<br>(i)</div></div></div>","null","FEEDBACK","","","","","","","","","","",""
"html-keyboard-response","150","312526","0.0-7.0-1.23","5bf0cb0411439b000168edda","bdp_wmem","Thu Mar 16 2023 00:03:31 GMT-0400 (Eastern Daylight Time)","576098","Match,No Match","","null","","","","","","<div class='trialBorder'><div class='vertical-center'><img src='img/fixation2_sml.jpg'</img></div></div>","null","FIX","","","","","","","","","","",""
"html-keyboard-response","151","314029","0.0-7.0-2.23","5bf0cb0411439b000168edda","bdp_wmem","Thu Mar 16 2023 00:03:31 GMT-0400 (Eastern Daylight Time)","576098","Match,No Match","","null","","","","","","<div class='trialBorder'><div class='vertical-center'><img style='vertical-align:center; align:center' src='img/fixation2_sml.jpg'></div><div class='arrayDiv1'><div class='tc'><img class='introPic' src='trustrating_stim/white_mw078.bmp'><br><font color='red'><strong>Keep</strong></font></div></div></div>","null","ARRAY","1","trustrating_stim/white_mw078.bmp","0","noMatchOutcome","i","1500","","","","",""
"html-keyboard-response","152","318031","0.0-7.0-3.23","5bf0cb0411439b000168edda","bdp_wmem","Thu Mar 16 2023 00:03:31 GMT-0400 (Eastern Daylight Time)","576098","Match,No Match","","null","","","","","","<div class='trialBorder'><div class='vertical-center'><img src='img/fixation2_sml.jpg'</img></div></div>","null","DELAY","","","","","","","","","","",""
"html-keyboard-response","153","318776","0.0-7.0-4.23","5bf0cb0411439b000168edda","bdp_wmem","Thu Mar 16 2023 00:03:31 GMT-0400 (Eastern Daylight Time)","576098","Match,No Match","","742","","","","","","<div class='trialBorder'><div class='targDiv'><div class='tc'><img class='introPic' src='trustrating_stim/white_mw078.bmp'><br><font color='green'><strong>Share</strong></font></div></div><div class='respDiv'><div class='respDivL'>Match<br>(e)</div><div class='respDivR'>No Match<br>(i)</div></div></div>","i","TARGET","1","trustrating_stim/white_mw078.bmp","0","noMatchOutcome","i","1500","trustrating_stim/white_mw078.bmp","green","Share","REAL","1"
"html-keyboard-response","154","319279","0.0-7.0-5.23","5bf0cb0411439b000168edda","bdp_wmem","Thu Mar 16 2023 00:03:31 GMT-0400 (Eastern Daylight Time)","576098","Match,No Match","","null","","","","","","<div class='trialBorder'><div class='vertical-center'><img src='img/correct.jpg'></div><div class='respDiv'><div class='respDivL'>Match<br>(e)</div><div class='respDivR'><font style='color:orange'>No Match<br>(i)</font></div></div></div>","null","FEEDBACK","","","","","","","","","","",""
"html-keyboard-response","155","319780","0.0-7.0-1.24","5bf0cb0411439b000168edda","bdp_wmem","Thu Mar 16 2023 00:03:31 GMT-0400 (Eastern Daylight Time)","576098","Match,No Match","","null","","","","","","<div class='trialBorder'><div class='vertical-center'><img src='img/fixation2_sml.jpg'</img></div></div>","null","FIX","","","","","","","","","","",""
"html-keyboard-response","156","324283","0.0-7.0-2.24","5bf0cb0411439b000168edda","bdp_wmem","Thu Mar 16 2023 00:03:31 GMT-0400 (Eastern Daylight Time)","576098","Match,No Match","","null","","","","","","<div class='trialBorder'><div class='vertical-center'><img style='vertical-align:center; align:center' src='img/fixation2_sml.jpg'></div><div class='arrayDiv3'><div class='tl'><img class='introPic' src='trustrating_stim/white_mw012.bmp'><br><font color='red'><strong>Keep</strong></font></div><div class='tc'><img class='introPic' src='trustrating_stim/white_mw038.bmp'><br><font color='green'><strong>Share</strong></font></div><div class='tr'><img class='introPic' src='trustrating_stim/white_mw013.bmp'><br><font color='green'><strong>Share</strong></font></div></div></div>","null","ARRAY","3","trustrating_stim/white_mw012.bmp,trustrating_stim/white_mw038.bmp,trustrating_stim/white_mw013.bmp","0,1,1","Match","e","4500","","","","",""
"html-keyboard-response","157","328286","0.0-7.0-3.24","5bf0cb0411439b000168edda","bdp_wmem","Thu Mar 16 2023 00:03:31 GMT-0400 (Eastern Daylight Time)","576098","Match,No Match","","null","","","","","","<div class='trialBorder'><div class='vertical-center'><img src='img/fixation2_sml.jpg'</img></div></div>","null","DELAY","","","","","","","","","","",""
"html-keyboard-response","158","329355","0.0-7.0-4.24","5bf0cb0411439b000168edda","bdp_wmem","Thu Mar 16 2023 00:03:31 GMT-0400 (Eastern Daylight Time)","576098","Match,No Match","","1066","","","","","","<div class='trialBorder'><div class='targDiv'><div class='tc'><img class='introPic' src='trustrating_stim/white_mw038.bmp'><br><font color='green'><strong>Share</strong></font></div></div><div class='respDiv'><div class='respDivL'>Match<br>(e)</div><div class='respDivR'>No Match<br>(i)</div></div></div>","e","TARGET","3","trustrating_stim/white_mw012.bmp,trustrating_stim/white_mw038.bmp,trustrating_stim/white_mw013.bmp","0,1,1","Match","e","4500","trustrating_stim/white_mw038.bmp","green","Share","REAL","1"
"html-keyboard-response","159","329857","0.0-7.0-5.24","5bf0cb0411439b000168edda","bdp_wmem","Thu Mar 16 2023 00:03:31 GMT-0400 (Eastern Daylight Time)","576098","Match,No Match","","null","","","","","","<div class='trialBorder'><div class='vertical-center'><img src='img/correct.jpg'></div><div class='respDiv'><div class='respDivL'><font style='color:orange'>Match<br>(e)</font></div><div class='respDivR'>No Match<br>(i)</div></div></div>","null","FEEDBACK","","","","","","","","","","",""
"html-keyboard-response","160","330359","0.0-7.0-1.25","5bf0cb0411439b000168edda","bdp_wmem","Thu Mar 16 2023 00:03:31 GMT-0400 (Eastern Daylight Time)","576098","Match,No Match","","null","","","","","","<div class='trialBorder'><div class='vertical-center'><img src='img/fixation2_sml.jpg'</img></div></div>","null","FIX","","","","","","","","","","",""
"html-keyboard-response","161","334861","0.0-7.0-2.25","5bf0cb0411439b000168edda","bdp_wmem","Thu Mar 16 2023 00:03:31 GMT-0400 (Eastern Daylight Time)","576098","Match,No Match","","null","","","","","","<div class='trialBorder'><div class='vertical-center'><img style='vertical-align:center; align:center' src='img/fixation2_sml.jpg'></div><div class='arrayDiv3'><div class='tl'><img class='introPic' src='trustrating_stim/white_mw040.bmp'><br><font color='green'><strong>Share</strong></font></div><div class='tc'><img class='introPic' src='trustrating_stim/white_mw038.bmp'><br><font color='green'><strong>Share</strong></font></div><div class='tr'><img class='introPic' src='trustrating_stim/white_mw010.bmp'><br><font color='red'><strong>Keep</strong></font></div></div></div>","null","ARRAY","3","trustrating_stim/white_mw040.bmp,trustrating_stim/white_mw038.bmp,trustrating_stim/white_mw010.bmp","1,1,0","Match","e","4500","","","","",""
"html-keyboard-response","162","338862","0.0-7.0-3.25","5bf0cb0411439b000168edda","bdp_wmem","Thu Mar 16 2023 00:03:31 GMT-0400 (Eastern Daylight Time)","576098","Match,No Match","","null","","","","","","<div class='trialBorder'><div class='vertical-center'><img src='img/fixation2_sml.jpg'</img></div></div>","null","DELAY","","","","","","","","","","",""
"html-keyboard-response","163","339697","0.0-7.0-4.25","5bf0cb0411439b000168edda","bdp_wmem","Thu Mar 16 2023 00:03:31 GMT-0400 (Eastern Daylight Time)","576098","Match,No Match","","831","","","","","","<div class='trialBorder'><div class='targDiv'><div class='tc'><img class='introPic' src='trustrating_stim/white_mw010.bmp'><br><font color='red'><strong>Keep</strong></font></div></div><div class='respDiv'><div class='respDivL'>Match<br>(e)</div><div class='respDivR'>No Match<br>(i)</div></div></div>","i","TARGET","3","trustrating_stim/white_mw040.bmp,trustrating_stim/white_mw038.bmp,trustrating_stim/white_mw010.bmp","1,1,0","Match","e","4500","trustrating_stim/white_mw010.bmp","red","Keep","REAL","0"
"html-keyboard-response","164","340200","0.0-7.0-5.25","5bf0cb0411439b000168edda","bdp_wmem","Thu Mar 16 2023 00:03:31 GMT-0400 (Eastern Daylight Time)","576098","Match,No Match","","null","","","","","","<div class='trialBorder'><div class='vertical-center'><img src='img/error.jpg'></div><div class='respDiv'><div class='respDivL'>Match<br>(e)</div><div class='respDivR'><font style='color:orange'>No Match<br>(i)</font></div></div></div>","null","FEEDBACK","","","","","","","","","","",""
"html-keyboard-response","165","340702","0.0-7.0-1.26","5bf0cb0411439b000168edda","bdp_wmem","Thu Mar 16 2023 00:03:31 GMT-0400 (Eastern Daylight Time)","576098","Match,No Match","","null","","","","","","<div class='trialBorder'><div class='vertical-center'><img src='img/fixation2_sml.jpg'</img></div></div>","null","FIX","","","","","","","","","","",""
"html-keyboard-response","166","343705","0.0-7.0-2.26","5bf0cb0411439b000168edda","bdp_wmem","Thu Mar 16 2023 00:03:31 GMT-0400 (Eastern Daylight Time)","576098","Match,No Match","","null","","","","","","<div class='trialBorder'><div class='vertical-center'><img style='vertical-align:center; align:center' src='img/fixation2_sml.jpg'></div><div class='arrayDiv2'><div class='tl'><img class='introPic' src='trustrating_stim/white_mw070.bmp'><br><font color='green'><strong>Share</strong></font></div><div class='tr'><img class='introPic' src='trustrating_stim/white_mw038.bmp'><br><font color='red'><strong>Keep</strong></font></div></div></div>","null","ARRAY","2","trustrating_stim/white_mw070.bmp,trustrating_stim/white_mw038.bmp","1,0","Match","e","3000","","","","",""
"html-keyboard-response","167","347707","0.0-7.0-3.26","5bf0cb0411439b000168edda","bdp_wmem","Thu Mar 16 2023 00:03:31 GMT-0400 (Eastern Daylight Time)","576098","Match,No Match","","null","","","","","","<div class='trialBorder'><div class='vertical-center'><img src='img/fixation2_sml.jpg'</img></div></div>","null","DELAY","","","","","","","","","","",""
"html-keyboard-response","168","348585","0.0-7.0-4.26","5bf0cb0411439b000168edda","bdp_wmem","Thu Mar 16 2023 00:03:31 GMT-0400 (Eastern Daylight Time)","576098","Match,No Match","","876","","","","","","<div class='trialBorder'><div class='targDiv'><div class='tc'><img class='introPic' src='trustrating_stim/white_mw070.bmp'><br><font color='green'><strong>Share</strong></font></div></div><div class='respDiv'><div class='respDivL'>Match<br>(e)</div><div class='respDivR'>No Match<br>(i)</div></div></div>","i","TARGET","2","trustrating_stim/white_mw070.bmp,trustrating_stim/white_mw038.bmp","1,0","Match","e","3000","trustrating_stim/white_mw070.bmp","green","Share","REAL","0"
"html-keyboard-response","169","349087","0.0-7.0-5.26","5bf0cb0411439b000168edda","bdp_wmem","Thu Mar 16 2023 00:03:31 GMT-0400 (Eastern Daylight Time)","576098","Match,No Match","","null","","","","","","<div class='trialBorder'><div class='vertical-center'><img src='img/error.jpg'></div><div class='respDiv'><div class='respDivL'>Match<br>(e)</div><div class='respDivR'><font style='color:orange'>No Match<br>(i)</font></div></div></div>","null","FEEDBACK","","","","","","","","","","",""
"html-keyboard-response","170","349589","0.0-7.0-1.27","5bf0cb0411439b000168edda","bdp_wmem","Thu Mar 16 2023 00:03:31 GMT-0400 (Eastern Daylight Time)","576098","Match,No Match","","null","","","","","","<div class='trialBorder'><div class='vertical-center'><img src='img/fixation2_sml.jpg'</img></div></div>","null","FIX","","","","","","","","","","",""
"html-keyboard-response","171","354091","0.0-7.0-2.27","5bf0cb0411439b000168edda","bdp_wmem","Thu Mar 16 2023 00:03:31 GMT-0400 (Eastern Daylight Time)","576098","Match,No Match","","null","","","","","","<div class='trialBorder'><div class='vertical-center'><img style='vertical-align:center; align:center' src='img/fixation2_sml.jpg'></div><div class='arrayDiv3'><div class='tl'><img class='introPic' src='trustrating_stim/white_mw042.bmp'><br><font color='red'><strong>Keep</strong></font></div><div class='tc'><img class='introPic' src='trustrating_stim/white_mw013.bmp'><br><font color='green'><strong>Share</strong></font></div><div class='tr'><img class='introPic' src='trustrating_stim/white_mw078.bmp'><br><font color='green'><strong>Share</strong></font></div></div></div>","null","ARRAY","3","trustrating_stim/white_mw042.bmp,trustrating_stim/white_mw013.bmp,trustrating_stim/white_mw078.bmp","0,1,1","noMatchOutcome","i","4500","","","","",""
"html-keyboard-response","172","358093","0.0-7.0-3.27","5bf0cb0411439b000168edda","bdp_wmem","Thu Mar 16 2023 00:03:31 GMT-0400 (Eastern Daylight Time)","576098","Match,No Match","","null","","","","","","<div class='trialBorder'><div class='vertical-center'><img src='img/fixation2_sml.jpg'</img></div></div>","null","DELAY","","","","","","","","","","",""
"html-keyboard-response","173","359066","0.0-7.0-4.27","5bf0cb0411439b000168edda","bdp_wmem","Thu Mar 16 2023 00:03:31 GMT-0400 (Eastern Daylight Time)","576098","Match,No Match","","971","","","","","","<div class='trialBorder'><div class='targDiv'><div class='tc'><img class='introPic' src='trustrating_stim/white_mw078.bmp'><br><font color='red'><strong>Keep</strong></font></div></div><div class='respDiv'><div class='respDivL'>Match<br>(e)</div><div class='respDivR'>No Match<br>(i)</div></div></div>","e","TARGET","3","trustrating_stim/white_mw042.bmp,trustrating_stim/white_mw013.bmp,trustrating_stim/white_mw078.bmp","0,1,1","noMatchOutcome","i","4500","trustrating_stim/white_mw078.bmp","red","Keep","REAL","0"
"html-keyboard-response","174","359568","0.0-7.0-5.27","5bf0cb0411439b000168edda","bdp_wmem","Thu Mar 16 2023 00:03:31 GMT-0400 (Eastern Daylight Time)","576098","Match,No Match","","null","","","","","","<div class='trialBorder'><div class='vertical-center'><img src='img/error.jpg'></div><div class='respDiv'><div class='respDivL'><font style='color:orange'>Match<br>(e)</font></div><div class='respDivR'>No Match<br>(i)</div></div></div>","null","FEEDBACK","","","","","","","","","","",""
"html-keyboard-response","175","360070","0.0-7.0-1.28","5bf0cb0411439b000168edda","bdp_wmem","Thu Mar 16 2023 00:03:31 GMT-0400 (Eastern Daylight Time)","576098","Match,No Match","","null","","","","","","<div class='trialBorder'><div class='vertical-center'><img src='img/fixation2_sml.jpg'</img></div></div>","null","FIX","","","","","","","","","","",""
"html-keyboard-response","176","364572","0.0-7.0-2.28","5bf0cb0411439b000168edda","bdp_wmem","Thu Mar 16 2023 00:03:31 GMT-0400 (Eastern Daylight Time)","576098","Match,No Match","","null","","","","","","<div class='trialBorder'><div class='vertical-center'><img style='vertical-align:center; align:center' src='img/fixation2_sml.jpg'></div><div class='arrayDiv3'><div class='tl'><img class='introPic' src='trustrating_stim/white_mw078.bmp'><br><font color='red'><strong>Keep</strong></font></div><div class='tc'><img class='introPic' src='trustrating_stim/white_mw040.bmp'><br><font color='red'><strong>Keep</strong></font></div><div class='tr'><img class='introPic' src='trustrating_stim/white_mw012.bmp'><br><font color='green'><strong>Share</strong></font></div></div></div>","null","ARRAY","3","trustrating_stim/white_mw078.bmp,trustrating_stim/white_mw040.bmp,trustrating_stim/white_mw012.bmp","0,0,1","noMatchOutcome","i","4500","","","","",""
"html-keyboard-response","177","368574","0.0-7.0-3.28","5bf0cb0411439b000168edda","bdp_wmem","Thu Mar 16 2023 00:03:31 GMT-0400 (Eastern Daylight Time)","576098","Match,No Match","","null","","","","","","<div class='trialBorder'><div class='vertical-center'><img src='img/fixation2_sml.jpg'</img></div></div>","null","DELAY","","","","","","","","","","",""
"html-keyboard-response","178","369329","0.0-7.0-4.28","5bf0cb0411439b000168edda","bdp_wmem","Thu Mar 16 2023 00:03:31 GMT-0400 (Eastern Daylight Time)","576098","Match,No Match","","753","","","","","","<div class='trialBorder'><div class='targDiv'><div class='tc'><img class='introPic' src='trustrating_stim/white_mw078.bmp'><br><font color='green'><strong>Share</strong></font></div></div><div class='respDiv'><div class='respDivL'>Match<br>(e)</div><div class='respDivR'>No Match<br>(i)</div></div></div>","i","TARGET","3","trustrating_stim/white_mw078.bmp,trustrating_stim/white_mw040.bmp,trustrating_stim/white_mw012.bmp","0,0,1","noMatchOutcome","i","4500","trustrating_stim/white_mw078.bmp","green","Share","REAL","1"
"html-keyboard-response","179","369832","0.0-7.0-5.28","5bf0cb0411439b000168edda","bdp_wmem","Thu Mar 16 2023 00:03:31 GMT-0400 (Eastern Daylight Time)","576098","Match,No Match","","null","","","","","","<div class='trialBorder'><div class='vertical-center'><img src='img/correct.jpg'></div><div class='respDiv'><div class='respDivL'>Match<br>(e)</div><div class='respDivR'><font style='color:orange'>No Match<br>(i)</font></div></div></div>","null","FEEDBACK","","","","","","","","","","",""
"html-keyboard-response","180","370335","0.0-7.0-1.29","5bf0cb0411439b000168edda","bdp_wmem","Thu Mar 16 2023 00:03:31 GMT-0400 (Eastern Daylight Time)","576098","Match,No Match","","null","","","","","","<div class='trialBorder'><div class='vertical-center'><img src='img/fixation2_sml.jpg'</img></div></div>","null","FIX","","","","","","","","","","",""
"html-keyboard-response","181","374838","0.0-7.0-2.29","5bf0cb0411439b000168edda","bdp_wmem","Thu Mar 16 2023 00:03:31 GMT-0400 (Eastern Daylight Time)","576098","Match,No Match","","null","","","","","","<div class='trialBorder'><div class='vertical-center'><img style='vertical-align:center; align:center' src='img/fixation2_sml.jpg'></div><div class='arrayDiv3'><div class='tl'><img class='introPic' src='trustrating_stim/white_mw012.bmp'><br><font color='red'><strong>Keep</strong></font></div><div class='tc'><img class='introPic' src='trustrating_stim/white_mw078.bmp'><br><font color='red'><strong>Keep</strong></font></div><div class='tr'><img class='introPic' src='trustrating_stim/white_mw003.bmp'><br><font color='green'><strong>Share</strong></font></div></div></div>","null","ARRAY","3","trustrating_stim/white_mw012.bmp,trustrating_stim/white_mw078.bmp,trustrating_stim/white_mw003.bmp","0,0,1","noMatchFace","i","4500","","","","",""
"html-keyboard-response","182","378840","0.0-7.0-3.29","5bf0cb0411439b000168edda","bdp_wmem","Thu Mar 16 2023 00:03:31 GMT-0400 (Eastern Daylight Time)","576098","Match,No Match","","null","","","","","","<div class='trialBorder'><div class='vertical-center'><img src='img/fixation2_sml.jpg'</img></div></div>","null","DELAY","","","","","","","","","","",""
"html-keyboard-response","183","379640","0.0-7.0-4.29","5bf0cb0411439b000168edda","bdp_wmem","Thu Mar 16 2023 00:03:31 GMT-0400 (Eastern Daylight Time)","576098","Match,No Match","","799","","","","","","<div class='trialBorder'><div class='targDiv'><div class='tc'><img class='introPic' src='trustrating_stim/white_mw085.bmp'><br><font color='red'><strong>Keep</strong></font></div></div><div class='respDiv'><div class='respDivL'>Match<br>(e)</div><div class='respDivR'>No Match<br>(i)</div></div></div>","e","TARGET","3","trustrating_stim/white_mw012.bmp,trustrating_stim/white_mw078.bmp,trustrating_stim/white_mw003.bmp","0,0,1","noMatchFace","i","4500","trustrating_stim/white_mw085.bmp","red","Keep","REAL","0"
"html-keyboard-response","184","380142","0.0-7.0-5.29","5bf0cb0411439b000168edda","bdp_wmem","Thu Mar 16 2023 00:03:31 GMT-0400 (Eastern Daylight Time)","576098","Match,No Match","","null","","","","","","<div class='trialBorder'><div class='vertical-center'><img src='img/error.jpg'></div><div class='respDiv'><div class='respDivL'><font style='color:orange'>Match<br>(e)</font></div><div class='respDivR'>No Match<br>(i)</div></div></div>","null","FEEDBACK","","","","","","","","","","",""
"html-keyboard-response","185","380644","0.0-7.0-1.30","5bf0cb0411439b000168edda","bdp_wmem","Thu Mar 16 2023 00:03:31 GMT-0400 (Eastern Daylight Time)","576098","Match,No Match","","null","","","","","","<div class='trialBorder'><div class='vertical-center'><img src='img/fixation2_sml.jpg'</img></div></div>","null","FIX","","","","","","","","","","",""
"html-keyboard-response","186","383646","0.0-7.0-2.30","5bf0cb0411439b000168edda","bdp_wmem","Thu Mar 16 2023 00:03:31 GMT-0400 (Eastern Daylight Time)","576098","Match,No Match","","null","","","","","","<div class='trialBorder'><div class='vertical-center'><img style='vertical-align:center; align:center' src='img/fixation2_sml.jpg'></div><div class='arrayDiv2'><div class='tl'><img class='introPic' src='trustrating_stim/white_mw040.bmp'><br><font color='green'><strong>Share</strong></font></div><div class='tr'><img class='introPic' src='trustrating_stim/white_mw010.bmp'><br><font color='red'><strong>Keep</strong></font></div></div></div>","null","ARRAY","2","trustrating_stim/white_mw040.bmp,trustrating_stim/white_mw010.bmp","1,0","noMatchFace","i","3000","","","","",""
"html-keyboard-response","187","387648","0.0-7.0-3.30","5bf0cb0411439b000168edda","bdp_wmem","Thu Mar 16 2023 00:03:31 GMT-0400 (Eastern Daylight Time)","576098","Match,No Match","","null","","","","","","<div class='trialBorder'><div class='vertical-center'><img src='img/fixation2_sml.jpg'</img></div></div>","null","DELAY","","","","","","","","","","",""
