"event","trial","time","trialtype","numBlurs","subject_id","task","startTime","totalTime","labels","trial_type","trial_index","time_elapsed","internal_node_id","view_history","rt","success","stimulus","key_press","stimType","arraySize","arrayFaces","arrayOutcomes","matchType","corrResp","arrayDur","targFace","targCol","targOutcome","trialType","corr"
"blur","0","0","blurevent","1","5adbc172e0feeb0001ca97ed","bdp_wmem","Wed Jul 27 2022 22:36:23 GMT-0700 (PDT)","1425520","Match,No Match","","","","","","","","","","","","","","","","","","","","",""
"","","","","","5adbc172e0feeb0001ca97ed","bdp_wmem","Wed Jul 27 2022 22:36:23 GMT-0700 (PDT)","1425520","Match,No Match","pavlovia","0","2","0.0-0.0","","","","","","","","","","","","","","","","",""
"focus","1","210","focusevent","","5adbc172e0feeb0001ca97ed","bdp_wmem","Wed Jul 27 2022 22:36:23 GMT-0700 (PDT)","1425520","Match,No Match","","","","","","","","","","","","","","","","","","","","",""
"focus","1","210","focusevent","","5adbc172e0feeb0001ca97ed","bdp_wmem","Wed Jul 27 2022 22:36:23 GMT-0700 (PDT)","1425520","Match,No Match","","","","","","","","","","","","","","","","","","","","",""
"","","","","","5adbc172e0feeb0001ca97ed","bdp_wmem","Wed Jul 27 2022 22:36:23 GMT-0700 (PDT)","1425520","Match,No Match","instructions","1","29457","0.0-1.0","[{""page_index"":0,""viewing_time"":29453}]","29453","","","","","","","","","","","","","","",""
"fullscreenenter","2","31923","fullscreenenter","","5adbc172e0feeb0001ca97ed","bdp_wmem","Wed Jul 27 2022 22:36:23 GMT-0700 (PDT)","1425520","Match,No Match","","","","","","","","","","","","","","","","","","","","",""
"","","","","","5adbc172e0feeb0001ca97ed","bdp_wmem","Wed Jul 27 2022 22:36:23 GMT-0700 (PDT)","1425520","Match,No Match","fullscreen","2","32868","0.0-2.0","","","true","","","","","","","","","","","","","",""
"","","","","","5adbc172e0feeb0001ca97ed","bdp_wmem","Wed Jul 27 2022 22:36:23 GMT-0700 (PDT)","1425520","Match,No Match","instructions","3","888575","0.0-4.0","[{""page_index"":0,""viewing_time"":609353},{""page_index"":1,""viewing_time"":241458},{""page_index"":2,""viewing_time"":1887},{""page_index"":3,""viewing_time"":1771},{""page_index"":4,""viewing_time"":1236}]","855705","","","","","","","","","","","","","","",""
"","","","","","5adbc172e0feeb0001ca97ed","bdp_wmem","Wed Jul 27 2022 22:36:23 GMT-0700 (PDT)","1425520","Match,No Match","html-keyboard-response","4","889077","0.0-5.0-1.0","","null","","<div class='trialBorder'><div class='vertical-center'><img src='img/fixation2_sml.jpg'</img></div></div>","null","FIX","","","","","","","","","","",""
"","","","","","5adbc172e0feeb0001ca97ed","bdp_wmem","Wed Jul 27 2022 22:36:23 GMT-0700 (PDT)","1425520","Match,No Match","html-keyboard-response","5","890579","0.0-5.0-2.0","","null","","<div class='trialBorder'><div class='vertical-center'><img style='vertical-align:center; align:center' src='img/fixation2_sml.jpg'></div><div class='arrayDiv1'><div class='tc'><img class='introPic' src='trustrating_stim/white_mw012.bmp'><br><font color='green'><strong>Share</strong></font></div></div></div>","null","ARRAY","1","trustrating_stim/white_mw012.bmp","1","noMatchFace","i","1500","","","","",""
"","","","","","5adbc172e0feeb0001ca97ed","bdp_wmem","Wed Jul 27 2022 22:36:23 GMT-0700 (PDT)","1425520","Match,No Match","html-keyboard-response","6","894581","0.0-5.0-3.0","","null","","<div class='trialBorder'><div class='vertical-center'><img src='img/fixation2_sml.jpg'</img></div></div>","null","DELAY","","","","","","","","","","",""
"","","","","","5adbc172e0feeb0001ca97ed","bdp_wmem","Wed Jul 27 2022 22:36:23 GMT-0700 (PDT)","1425520","Match,No Match","html-keyboard-response","7","899400","0.0-5.0-4.0","","4819","","<div class='trialBorder'><div class='targDiv'><div class='tc'><img class='introPic' src='trustrating_stim/white_mw085.bmp'><br><font color='green'><strong>Share</strong></font></div></div><div class='respDiv'><div class='respDivL'>Match<br>(e)</div><div class='respDivR'>No Match<br>(i)</div></div></div>","e","TARGET","1","trustrating_stim/white_mw012.bmp","1","noMatchFace","i","1500","trustrating_stim/white_mw085.bmp","green","Share","PRACTICE","0"
"","","","","","5adbc172e0feeb0001ca97ed","bdp_wmem","Wed Jul 27 2022 22:36:23 GMT-0700 (PDT)","1425520","Match,No Match","html-keyboard-response","8","899901","0.0-5.0-5.0","","null","","<div class='trialBorder'><div class='vertical-center'><img src='img/error.jpg'></div><div class='respDiv'><div class='respDivL'><font style='color:orange'>Match<br>(e)</font></div><div class='respDivR'>No Match<br>(i)</div></div></div>","null","FEEDBACK","","","","","","","","","","",""
"","","","","","5adbc172e0feeb0001ca97ed","bdp_wmem","Wed Jul 27 2022 22:36:23 GMT-0700 (PDT)","1425520","Match,No Match","html-keyboard-response","9","900403","0.0-5.0-1.1","","null","","<div class='trialBorder'><div class='vertical-center'><img src='img/fixation2_sml.jpg'</img></div></div>","null","FIX","","","","","","","","","","",""
"","","","","","5adbc172e0feeb0001ca97ed","bdp_wmem","Wed Jul 27 2022 22:36:23 GMT-0700 (PDT)","1425520","Match,No Match","html-keyboard-response","10","904905","0.0-5.0-2.1","","null","","<div class='trialBorder'><div class='vertical-center'><img style='vertical-align:center; align:center' src='img/fixation2_sml.jpg'></div><div class='arrayDiv3'><div class='tl'><img class='introPic' src='trustrating_stim/white_mw070.bmp'><br><font color='red'><strong>Keep</strong></font></div><div class='tc'><img class='introPic' src='trustrating_stim/white_mw040.bmp'><br><font color='green'><strong>Share</strong></font></div><div class='tr'><img class='introPic' src='trustrating_stim/white_mw003.bmp'><br><font color='green'><strong>Share</strong></font></div></div></div>","null","ARRAY","3","trustrating_stim/white_mw070.bmp,trustrating_stim/white_mw040.bmp,trustrating_stim/white_mw003.bmp","0,1,1","Match","e","4500","","","","",""
"","","","","","5adbc172e0feeb0001ca97ed","bdp_wmem","Wed Jul 27 2022 22:36:23 GMT-0700 (PDT)","1425520","Match,No Match","html-keyboard-response","11","908906","0.0-5.0-3.1","","null","","<div class='trialBorder'><div class='vertical-center'><img src='img/fixation2_sml.jpg'</img></div></div>","null","DELAY","","","","","","","","","","",""
"","","","","","5adbc172e0feeb0001ca97ed","bdp_wmem","Wed Jul 27 2022 22:36:23 GMT-0700 (PDT)","1425520","Match,No Match","html-keyboard-response","12","909606","0.0-5.0-4.1","","699","","<div class='trialBorder'><div class='targDiv'><div class='tc'><img class='introPic' src='trustrating_stim/white_mw040.bmp'><br><font color='green'><strong>Share</strong></font></div></div><div class='respDiv'><div class='respDivL'>Match<br>(e)</div><div class='respDivR'>No Match<br>(i)</div></div></div>","i","TARGET","3","trustrating_stim/white_mw070.bmp,trustrating_stim/white_mw040.bmp,trustrating_stim/white_mw003.bmp","0,1,1","Match","e","4500","trustrating_stim/white_mw040.bmp","green","Share","PRACTICE","0"
"","","","","","5adbc172e0feeb0001ca97ed","bdp_wmem","Wed Jul 27 2022 22:36:23 GMT-0700 (PDT)","1425520","Match,No Match","html-keyboard-response","13","910107","0.0-5.0-5.1","","null","","<div class='trialBorder'><div class='vertical-center'><img src='img/error.jpg'></div><div class='respDiv'><div class='respDivL'>Match<br>(e)</div><div class='respDivR'><font style='color:orange'>No Match<br>(i)</font></div></div></div>","null","FEEDBACK","","","","","","","","","","",""
"","","","","","5adbc172e0feeb0001ca97ed","bdp_wmem","Wed Jul 27 2022 22:36:23 GMT-0700 (PDT)","1425520","Match,No Match","html-keyboard-response","14","910609","0.0-5.0-1.2","","null","","<div class='trialBorder'><div class='vertical-center'><img src='img/fixation2_sml.jpg'</img></div></div>","null","FIX","","","","","","","","","","",""
"","","","","","5adbc172e0feeb0001ca97ed","bdp_wmem","Wed Jul 27 2022 22:36:23 GMT-0700 (PDT)","1425520","Match,No Match","html-keyboard-response","15","915111","0.0-5.0-2.2","","null","","<div class='trialBorder'><div class='vertical-center'><img style='vertical-align:center; align:center' src='img/fixation2_sml.jpg'></div><div class='arrayDiv3'><div class='tl'><img class='introPic' src='trustrating_stim/white_mw042.bmp'><br><font color='red'><strong>Keep</strong></font></div><div class='tc'><img class='introPic' src='trustrating_stim/white_mw070.bmp'><br><font color='green'><strong>Share</strong></font></div><div class='tr'><img class='introPic' src='trustrating_stim/white_mw038.bmp'><br><font color='green'><strong>Share</strong></font></div></div></div>","null","ARRAY","3","trustrating_stim/white_mw042.bmp,trustrating_stim/white_mw070.bmp,trustrating_stim/white_mw038.bmp","0,1,1","noMatchOutcome","i","4500","","","","",""
"","","","","","5adbc172e0feeb0001ca97ed","bdp_wmem","Wed Jul 27 2022 22:36:23 GMT-0700 (PDT)","1425520","Match,No Match","html-keyboard-response","16","919112","0.0-5.0-3.2","","null","","<div class='trialBorder'><div class='vertical-center'><img src='img/fixation2_sml.jpg'</img></div></div>","null","DELAY","","","","","","","","","","",""
"","","","","","5adbc172e0feeb0001ca97ed","bdp_wmem","Wed Jul 27 2022 22:36:23 GMT-0700 (PDT)","1425520","Match,No Match","html-keyboard-response","17","920482","0.0-5.0-4.2","","1369","","<div class='trialBorder'><div class='targDiv'><div class='tc'><img class='introPic' src='trustrating_stim/white_mw070.bmp'><br><font color='red'><strong>Keep</strong></font></div></div><div class='respDiv'><div class='respDivL'>Match<br>(e)</div><div class='respDivR'>No Match<br>(i)</div></div></div>","i","TARGET","3","trustrating_stim/white_mw042.bmp,trustrating_stim/white_mw070.bmp,trustrating_stim/white_mw038.bmp","0,1,1","noMatchOutcome","i","4500","trustrating_stim/white_mw070.bmp","red","Keep","PRACTICE","1"
"","","","","","5adbc172e0feeb0001ca97ed","bdp_wmem","Wed Jul 27 2022 22:36:23 GMT-0700 (PDT)","1425520","Match,No Match","html-keyboard-response","18","920982","0.0-5.0-5.2","","null","","<div class='trialBorder'><div class='vertical-center'><img src='img/correct.jpg'></div><div class='respDiv'><div class='respDivL'>Match<br>(e)</div><div class='respDivR'><font style='color:orange'>No Match<br>(i)</font></div></div></div>","null","FEEDBACK","","","","","","","","","","",""
"","","","","","5adbc172e0feeb0001ca97ed","bdp_wmem","Wed Jul 27 2022 22:36:23 GMT-0700 (PDT)","1425520","Match,No Match","html-keyboard-response","19","921484","0.0-5.0-1.3","","null","","<div class='trialBorder'><div class='vertical-center'><img src='img/fixation2_sml.jpg'</img></div></div>","null","FIX","","","","","","","","","","",""
"","","","","","5adbc172e0feeb0001ca97ed","bdp_wmem","Wed Jul 27 2022 22:36:23 GMT-0700 (PDT)","1425520","Match,No Match","html-keyboard-response","20","922986","0.0-5.0-2.3","","null","","<div class='trialBorder'><div class='vertical-center'><img style='vertical-align:center; align:center' src='img/fixation2_sml.jpg'></div><div class='arrayDiv1'><div class='tc'><img class='introPic' src='trustrating_stim/white_mw012.bmp'><br><font color='red'><strong>Keep</strong></font></div></div></div>","null","ARRAY","1","trustrating_stim/white_mw012.bmp","0","Match","e","1500","","","","",""
"","","","","","5adbc172e0feeb0001ca97ed","bdp_wmem","Wed Jul 27 2022 22:36:23 GMT-0700 (PDT)","1425520","Match,No Match","html-keyboard-response","21","926988","0.0-5.0-3.3","","null","","<div class='trialBorder'><div class='vertical-center'><img src='img/fixation2_sml.jpg'</img></div></div>","null","DELAY","","","","","","","","","","",""
"","","","","","5adbc172e0feeb0001ca97ed","bdp_wmem","Wed Jul 27 2022 22:36:23 GMT-0700 (PDT)","1425520","Match,No Match","html-keyboard-response","22","927338","0.0-5.0-4.3","","350","","<div class='trialBorder'><div class='targDiv'><div class='tc'><img class='introPic' src='trustrating_stim/white_mw012.bmp'><br><font color='red'><strong>Keep</strong></font></div></div><div class='respDiv'><div class='respDivL'>Match<br>(e)</div><div class='respDivR'>No Match<br>(i)</div></div></div>","e","TARGET","1","trustrating_stim/white_mw012.bmp","0","Match","e","1500","trustrating_stim/white_mw012.bmp","red","Keep","PRACTICE","1"
"","","","","","5adbc172e0feeb0001ca97ed","bdp_wmem","Wed Jul 27 2022 22:36:23 GMT-0700 (PDT)","1425520","Match,No Match","html-keyboard-response","23","927840","0.0-5.0-5.3","","null","","<div class='trialBorder'><div class='vertical-center'><img src='img/correct.jpg'></div><div class='respDiv'><div class='respDivL'><font style='color:orange'>Match<br>(e)</font></div><div class='respDivR'>No Match<br>(i)</div></div></div>","null","FEEDBACK","","","","","","","","","","",""
"","","","","","5adbc172e0feeb0001ca97ed","bdp_wmem","Wed Jul 27 2022 22:36:23 GMT-0700 (PDT)","1425520","Match,No Match","html-keyboard-response","24","928342","0.0-5.0-1.4","","null","","<div class='trialBorder'><div class='vertical-center'><img src='img/fixation2_sml.jpg'</img></div></div>","null","FIX","","","","","","","","","","",""
"","","","","","5adbc172e0feeb0001ca97ed","bdp_wmem","Wed Jul 27 2022 22:36:23 GMT-0700 (PDT)","1425520","Match,No Match","html-keyboard-response","25","931343","0.0-5.0-2.4","","null","","<div class='trialBorder'><div class='vertical-center'><img style='vertical-align:center; align:center' src='img/fixation2_sml.jpg'></div><div class='arrayDiv2'><div class='tl'><img class='introPic' src='trustrating_stim/white_mw070.bmp'><br><font color='red'><strong>Keep</strong></font></div><div class='tr'><img class='introPic' src='trustrating_stim/white_mw085.bmp'><br><font color='green'><strong>Share</strong></font></div></div></div>","null","ARRAY","2","trustrating_stim/white_mw070.bmp,trustrating_stim/white_mw085.bmp","0,1","Match","e","3000","","","","",""
"","","","","","5adbc172e0feeb0001ca97ed","bdp_wmem","Wed Jul 27 2022 22:36:23 GMT-0700 (PDT)","1425520","Match,No Match","html-keyboard-response","26","935344","0.0-5.0-3.4","","null","","<div class='trialBorder'><div class='vertical-center'><img src='img/fixation2_sml.jpg'</img></div></div>","null","DELAY","","","","","","","","","","",""
"","","","","","5adbc172e0feeb0001ca97ed","bdp_wmem","Wed Jul 27 2022 22:36:23 GMT-0700 (PDT)","1425520","Match,No Match","html-keyboard-response","27","935861","0.0-5.0-4.4","","516","","<div class='trialBorder'><div class='targDiv'><div class='tc'><img class='introPic' src='trustrating_stim/white_mw070.bmp'><br><font color='red'><strong>Keep</strong></font></div></div><div class='respDiv'><div class='respDivL'>Match<br>(e)</div><div class='respDivR'>No Match<br>(i)</div></div></div>","e","TARGET","2","trustrating_stim/white_mw070.bmp,trustrating_stim/white_mw085.bmp","0,1","Match","e","3000","trustrating_stim/white_mw070.bmp","red","Keep","PRACTICE","1"
"","","","","","5adbc172e0feeb0001ca97ed","bdp_wmem","Wed Jul 27 2022 22:36:23 GMT-0700 (PDT)","1425520","Match,No Match","html-keyboard-response","28","936363","0.0-5.0-5.4","","null","","<div class='trialBorder'><div class='vertical-center'><img src='img/correct.jpg'></div><div class='respDiv'><div class='respDivL'><font style='color:orange'>Match<br>(e)</font></div><div class='respDivR'>No Match<br>(i)</div></div></div>","null","FEEDBACK","","","","","","","","","","",""
"","","","","","5adbc172e0feeb0001ca97ed","bdp_wmem","Wed Jul 27 2022 22:36:23 GMT-0700 (PDT)","1425520","Match,No Match","html-keyboard-response","29","936864","0.0-5.0-1.5","","null","","<div class='trialBorder'><div class='vertical-center'><img src='img/fixation2_sml.jpg'</img></div></div>","null","FIX","","","","","","","","","","",""
"","","","","","5adbc172e0feeb0001ca97ed","bdp_wmem","Wed Jul 27 2022 22:36:23 GMT-0700 (PDT)","1425520","Match,No Match","html-keyboard-response","30","939866","0.0-5.0-2.5","","null","","<div class='trialBorder'><div class='vertical-center'><img style='vertical-align:center; align:center' src='img/fixation2_sml.jpg'></div><div class='arrayDiv2'><div class='tl'><img class='introPic' src='trustrating_stim/white_mw012.bmp'><br><font color='red'><strong>Keep</strong></font></div><div class='tr'><img class='introPic' src='trustrating_stim/white_mw040.bmp'><br><font color='green'><strong>Share</strong></font></div></div></div>","null","ARRAY","2","trustrating_stim/white_mw012.bmp,trustrating_stim/white_mw040.bmp","0,1","noMatchFace","i","3000","","","","",""
"","","","","","5adbc172e0feeb0001ca97ed","bdp_wmem","Wed Jul 27 2022 22:36:23 GMT-0700 (PDT)","1425520","Match,No Match","html-keyboard-response","31","943868","0.0-5.0-3.5","","null","","<div class='trialBorder'><div class='vertical-center'><img src='img/fixation2_sml.jpg'</img></div></div>","null","DELAY","","","","","","","","","","",""
"","","","","","5adbc172e0feeb0001ca97ed","bdp_wmem","Wed Jul 27 2022 22:36:23 GMT-0700 (PDT)","1425520","Match,No Match","html-keyboard-response","32","944568","0.0-5.0-4.5","","700","","<div class='trialBorder'><div class='targDiv'><div class='tc'><img class='introPic' src='trustrating_stim/white_mw010.bmp'><br><font color='green'><strong>Share</strong></font></div></div><div class='respDiv'><div class='respDivL'>Match<br>(e)</div><div class='respDivR'>No Match<br>(i)</div></div></div>","i","TARGET","2","trustrating_stim/white_mw012.bmp,trustrating_stim/white_mw040.bmp","0,1","noMatchFace","i","3000","trustrating_stim/white_mw010.bmp","green","Share","PRACTICE","1"
"","","","","","5adbc172e0feeb0001ca97ed","bdp_wmem","Wed Jul 27 2022 22:36:23 GMT-0700 (PDT)","1425520","Match,No Match","html-keyboard-response","33","945070","0.0-5.0-5.5","","null","","<div class='trialBorder'><div class='vertical-center'><img src='img/correct.jpg'></div><div class='respDiv'><div class='respDivL'>Match<br>(e)</div><div class='respDivR'><font style='color:orange'>No Match<br>(i)</font></div></div></div>","null","FEEDBACK","","","","","","","","","","",""
"","","","","","5adbc172e0feeb0001ca97ed","bdp_wmem","Wed Jul 27 2022 22:36:23 GMT-0700 (PDT)","1425520","Match,No Match","instructions","34","986094","0.0-6.0","[{""page_index"":0,""viewing_time"":41023}]","41023","","","","","","","","","","","","","","",""
"","","","","","5adbc172e0feeb0001ca97ed","bdp_wmem","Wed Jul 27 2022 22:36:23 GMT-0700 (PDT)","1425520","Match,No Match","html-keyboard-response","35","986596","0.0-7.0-1.0","","null","","<div class='trialBorder'><div class='vertical-center'><img src='img/fixation2_sml.jpg'</img></div></div>","null","FIX","","","","","","","","","","",""
"","","","","","5adbc172e0feeb0001ca97ed","bdp_wmem","Wed Jul 27 2022 22:36:23 GMT-0700 (PDT)","1425520","Match,No Match","html-keyboard-response","36","991098","0.0-7.0-2.0","","null","","<div class='trialBorder'><div class='vertical-center'><img style='vertical-align:center; align:center' src='img/fixation2_sml.jpg'></div><div class='arrayDiv3'><div class='tl'><img class='introPic' src='trustrating_stim/white_mw092.bmp'><br><font color='red'><strong>Keep</strong></font></div><div class='tc'><img class='introPic' src='trustrating_stim/white_mw078.bmp'><br><font color='green'><strong>Share</strong></font></div><div class='tr'><img class='introPic' src='trustrating_stim/white_mw091.bmp'><br><font color='red'><strong>Keep</strong></font></div></div></div>","null","ARRAY","3","trustrating_stim/white_mw092.bmp,trustrating_stim/white_mw078.bmp,trustrating_stim/white_mw091.bmp","0,1,0","Match","e","4500","","","","",""
"","","","","","5adbc172e0feeb0001ca97ed","bdp_wmem","Wed Jul 27 2022 22:36:23 GMT-0700 (PDT)","1425520","Match,No Match","html-keyboard-response","37","995099","0.0-7.0-3.0","","null","","<div class='trialBorder'><div class='vertical-center'><img src='img/fixation2_sml.jpg'</img></div></div>","null","DELAY","","","","","","","","","","",""
"","","","","","5adbc172e0feeb0001ca97ed","bdp_wmem","Wed Jul 27 2022 22:36:23 GMT-0700 (PDT)","1425520","Match,No Match","html-keyboard-response","38","996241","0.0-7.0-4.0","","1141","","<div class='trialBorder'><div class='targDiv'><div class='tc'><img class='introPic' src='trustrating_stim/white_mw078.bmp'><br><font color='green'><strong>Share</strong></font></div></div><div class='respDiv'><div class='respDivL'>Match<br>(e)</div><div class='respDivR'>No Match<br>(i)</div></div></div>","i","TARGET","3","trustrating_stim/white_mw092.bmp,trustrating_stim/white_mw078.bmp,trustrating_stim/white_mw091.bmp","0,1,0","Match","e","4500","trustrating_stim/white_mw078.bmp","green","Share","REAL","0"
"","","","","","5adbc172e0feeb0001ca97ed","bdp_wmem","Wed Jul 27 2022 22:36:23 GMT-0700 (PDT)","1425520","Match,No Match","html-keyboard-response","39","996743","0.0-7.0-5.0","","null","","<div class='trialBorder'><div class='vertical-center'><img src='img/error.jpg'></div><div class='respDiv'><div class='respDivL'>Match<br>(e)</div><div class='respDivR'><font style='color:orange'>No Match<br>(i)</font></div></div></div>","null","FEEDBACK","","","","","","","","","","",""
"","","","","","5adbc172e0feeb0001ca97ed","bdp_wmem","Wed Jul 27 2022 22:36:23 GMT-0700 (PDT)","1425520","Match,No Match","html-keyboard-response","40","997245","0.0-7.0-1.1","","null","","<div class='trialBorder'><div class='vertical-center'><img src='img/fixation2_sml.jpg'</img></div></div>","null","FIX","","","","","","","","","","",""
"","","","","","5adbc172e0feeb0001ca97ed","bdp_wmem","Wed Jul 27 2022 22:36:23 GMT-0700 (PDT)","1425520","Match,No Match","html-keyboard-response","41","1001747","0.0-7.0-2.1","","null","","<div class='trialBorder'><div class='vertical-center'><img style='vertical-align:center; align:center' src='img/fixation2_sml.jpg'></div><div class='arrayDiv3'><div class='tl'><img class='introPic' src='trustrating_stim/white_mw038.bmp'><br><font color='green'><strong>Share</strong></font></div><div class='tc'><img class='introPic' src='trustrating_stim/white_mw070.bmp'><br><font color='red'><strong>Keep</strong></font></div><div class='tr'><img class='introPic' src='trustrating_stim/white_mw085.bmp'><br><font color='red'><strong>Keep</strong></font></div></div></div>","null","ARRAY","3","trustrating_stim/white_mw038.bmp,trustrating_stim/white_mw070.bmp,trustrating_stim/white_mw085.bmp","1,0,0","noMatchOutcome","i","4500","","","","",""
"","","","","","5adbc172e0feeb0001ca97ed","bdp_wmem","Wed Jul 27 2022 22:36:23 GMT-0700 (PDT)","1425520","Match,No Match","html-keyboard-response","42","1005748","0.0-7.0-3.1","","null","","<div class='trialBorder'><div class='vertical-center'><img src='img/fixation2_sml.jpg'</img></div></div>","null","DELAY","","","","","","","","","","",""
"","","","","","5adbc172e0feeb0001ca97ed","bdp_wmem","Wed Jul 27 2022 22:36:23 GMT-0700 (PDT)","1425520","Match,No Match","html-keyboard-response","43","1006364","0.0-7.0-4.1","","615","","<div class='trialBorder'><div class='targDiv'><div class='tc'><img class='introPic' src='trustrating_stim/white_mw070.bmp'><br><font color='green'><strong>Share</strong></font></div></div><div class='respDiv'><div class='respDivL'>Match<br>(e)</div><div class='respDivR'>No Match<br>(i)</div></div></div>","e","TARGET","3","trustrating_stim/white_mw038.bmp,trustrating_stim/white_mw070.bmp,trustrating_stim/white_mw085.bmp","1,0,0","noMatchOutcome","i","4500","trustrating_stim/white_mw070.bmp","green","Share","REAL","0"
"","","","","","5adbc172e0feeb0001ca97ed","bdp_wmem","Wed Jul 27 2022 22:36:23 GMT-0700 (PDT)","1425520","Match,No Match","html-keyboard-response","44","1006865","0.0-7.0-5.1","","null","","<div class='trialBorder'><div class='vertical-center'><img src='img/error.jpg'></div><div class='respDiv'><div class='respDivL'><font style='color:orange'>Match<br>(e)</font></div><div class='respDivR'>No Match<br>(i)</div></div></div>","null","FEEDBACK","","","","","","","","","","",""
"","","","","","5adbc172e0feeb0001ca97ed","bdp_wmem","Wed Jul 27 2022 22:36:23 GMT-0700 (PDT)","1425520","Match,No Match","html-keyboard-response","45","1007366","0.0-7.0-1.2","","null","","<div class='trialBorder'><div class='vertical-center'><img src='img/fixation2_sml.jpg'</img></div></div>","null","FIX","","","","","","","","","","",""
"","","","","","5adbc172e0feeb0001ca97ed","bdp_wmem","Wed Jul 27 2022 22:36:23 GMT-0700 (PDT)","1425520","Match,No Match","html-keyboard-response","46","1008867","0.0-7.0-2.2","","null","","<div class='trialBorder'><div class='vertical-center'><img style='vertical-align:center; align:center' src='img/fixation2_sml.jpg'></div><div class='arrayDiv1'><div class='tc'><img class='introPic' src='trustrating_stim/white_mw040.bmp'><br><font color='red'><strong>Keep</strong></font></div></div></div>","null","ARRAY","1","trustrating_stim/white_mw040.bmp","0","Match","e","1500","","","","",""
"","","","","","5adbc172e0feeb0001ca97ed","bdp_wmem","Wed Jul 27 2022 22:36:23 GMT-0700 (PDT)","1425520","Match,No Match","html-keyboard-response","47","1012867","0.0-7.0-3.2","","null","","<div class='trialBorder'><div class='vertical-center'><img src='img/fixation2_sml.jpg'</img></div></div>","null","DELAY","","","","","","","","","","",""
"","","","","","5adbc172e0feeb0001ca97ed","bdp_wmem","Wed Jul 27 2022 22:36:23 GMT-0700 (PDT)","1425520","Match,No Match","html-keyboard-response","48","1013282","0.0-7.0-4.2","","413","","<div class='trialBorder'><div class='targDiv'><div class='tc'><img class='introPic' src='trustrating_stim/white_mw040.bmp'><br><font color='red'><strong>Keep</strong></font></div></div><div class='respDiv'><div class='respDivL'>Match<br>(e)</div><div class='respDivR'>No Match<br>(i)</div></div></div>","i","TARGET","1","trustrating_stim/white_mw040.bmp","0","Match","e","1500","trustrating_stim/white_mw040.bmp","red","Keep","REAL","0"
"","","","","","5adbc172e0feeb0001ca97ed","bdp_wmem","Wed Jul 27 2022 22:36:23 GMT-0700 (PDT)","1425520","Match,No Match","html-keyboard-response","49","1013784","0.0-7.0-5.2","","null","","<div class='trialBorder'><div class='vertical-center'><img src='img/error.jpg'></div><div class='respDiv'><div class='respDivL'>Match<br>(e)</div><div class='respDivR'><font style='color:orange'>No Match<br>(i)</font></div></div></div>","null","FEEDBACK","","","","","","","","","","",""
"","","","","","5adbc172e0feeb0001ca97ed","bdp_wmem","Wed Jul 27 2022 22:36:23 GMT-0700 (PDT)","1425520","Match,No Match","html-keyboard-response","50","1014285","0.0-7.0-1.3","","null","","<div class='trialBorder'><div class='vertical-center'><img src='img/fixation2_sml.jpg'</img></div></div>","null","FIX","","","","","","","","","","",""
"","","","","","5adbc172e0feeb0001ca97ed","bdp_wmem","Wed Jul 27 2022 22:36:23 GMT-0700 (PDT)","1425520","Match,No Match","html-keyboard-response","51","1015787","0.0-7.0-2.3","","null","","<div class='trialBorder'><div class='vertical-center'><img style='vertical-align:center; align:center' src='img/fixation2_sml.jpg'></div><div class='arrayDiv1'><div class='tc'><img class='introPic' src='trustrating_stim/white_mw070.bmp'><br><font color='red'><strong>Keep</strong></font></div></div></div>","null","ARRAY","1","trustrating_stim/white_mw070.bmp","0","Match","e","1500","","","","",""
"","","","","","5adbc172e0feeb0001ca97ed","bdp_wmem","Wed Jul 27 2022 22:36:23 GMT-0700 (PDT)","1425520","Match,No Match","html-keyboard-response","52","1019787","0.0-7.0-3.3","","null","","<div class='trialBorder'><div class='vertical-center'><img src='img/fixation2_sml.jpg'</img></div></div>","null","DELAY","","","","","","","","","","",""
"","","","","","5adbc172e0feeb0001ca97ed","bdp_wmem","Wed Jul 27 2022 22:36:23 GMT-0700 (PDT)","1425520","Match,No Match","html-keyboard-response","53","1020085","0.0-7.0-4.3","","297","","<div class='trialBorder'><div class='targDiv'><div class='tc'><img class='introPic' src='trustrating_stim/white_mw070.bmp'><br><font color='red'><strong>Keep</strong></font></div></div><div class='respDiv'><div class='respDivL'>Match<br>(e)</div><div class='respDivR'>No Match<br>(i)</div></div></div>","e","TARGET","1","trustrating_stim/white_mw070.bmp","0","Match","e","1500","trustrating_stim/white_mw070.bmp","red","Keep","REAL","1"
"","","","","","5adbc172e0feeb0001ca97ed","bdp_wmem","Wed Jul 27 2022 22:36:23 GMT-0700 (PDT)","1425520","Match,No Match","html-keyboard-response","54","1020587","0.0-7.0-5.3","","null","","<div class='trialBorder'><div class='vertical-center'><img src='img/correct.jpg'></div><div class='respDiv'><div class='respDivL'><font style='color:orange'>Match<br>(e)</font></div><div class='respDivR'>No Match<br>(i)</div></div></div>","null","FEEDBACK","","","","","","","","","","",""
"","","","","","5adbc172e0feeb0001ca97ed","bdp_wmem","Wed Jul 27 2022 22:36:23 GMT-0700 (PDT)","1425520","Match,No Match","html-keyboard-response","55","1021088","0.0-7.0-1.4","","null","","<div class='trialBorder'><div class='vertical-center'><img src='img/fixation2_sml.jpg'</img></div></div>","null","FIX","","","","","","","","","","",""
"","","","","","5adbc172e0feeb0001ca97ed","bdp_wmem","Wed Jul 27 2022 22:36:23 GMT-0700 (PDT)","1425520","Match,No Match","html-keyboard-response","56","1022590","0.0-7.0-2.4","","null","","<div class='trialBorder'><div class='vertical-center'><img style='vertical-align:center; align:center' src='img/fixation2_sml.jpg'></div><div class='arrayDiv1'><div class='tc'><img class='introPic' src='trustrating_stim/white_mw010.bmp'><br><font color='green'><strong>Share</strong></font></div></div></div>","null","ARRAY","1","trustrating_stim/white_mw010.bmp","1","Match","e","1500","","","","",""
"","","","","","5adbc172e0feeb0001ca97ed","bdp_wmem","Wed Jul 27 2022 22:36:23 GMT-0700 (PDT)","1425520","Match,No Match","html-keyboard-response","57","1026591","0.0-7.0-3.4","","null","","<div class='trialBorder'><div class='vertical-center'><img src='img/fixation2_sml.jpg'</img></div></div>","null","DELAY","","","","","","","","","","",""
"","","","","","5adbc172e0feeb0001ca97ed","bdp_wmem","Wed Jul 27 2022 22:36:23 GMT-0700 (PDT)","1425520","Match,No Match","html-keyboard-response","58","1026892","0.0-7.0-4.4","","300","","<div class='trialBorder'><div class='targDiv'><div class='tc'><img class='introPic' src='trustrating_stim/white_mw010.bmp'><br><font color='green'><strong>Share</strong></font></div></div><div class='respDiv'><div class='respDivL'>Match<br>(e)</div><div class='respDivR'>No Match<br>(i)</div></div></div>","i","TARGET","1","trustrating_stim/white_mw010.bmp","1","Match","e","1500","trustrating_stim/white_mw010.bmp","green","Share","REAL","0"
"","","","","","5adbc172e0feeb0001ca97ed","bdp_wmem","Wed Jul 27 2022 22:36:23 GMT-0700 (PDT)","1425520","Match,No Match","html-keyboard-response","59","1027394","0.0-7.0-5.4","","null","","<div class='trialBorder'><div class='vertical-center'><img src='img/error.jpg'></div><div class='respDiv'><div class='respDivL'>Match<br>(e)</div><div class='respDivR'><font style='color:orange'>No Match<br>(i)</font></div></div></div>","null","FEEDBACK","","","","","","","","","","",""
"","","","","","5adbc172e0feeb0001ca97ed","bdp_wmem","Wed Jul 27 2022 22:36:23 GMT-0700 (PDT)","1425520","Match,No Match","html-keyboard-response","60","1027896","0.0-7.0-1.5","","null","","<div class='trialBorder'><div class='vertical-center'><img src='img/fixation2_sml.jpg'</img></div></div>","null","FIX","","","","","","","","","","",""
"","","","","","5adbc172e0feeb0001ca97ed","bdp_wmem","Wed Jul 27 2022 22:36:23 GMT-0700 (PDT)","1425520","Match,No Match","html-keyboard-response","61","1029397","0.0-7.0-2.5","","null","","<div class='trialBorder'><div class='vertical-center'><img style='vertical-align:center; align:center' src='img/fixation2_sml.jpg'></div><div class='arrayDiv1'><div class='tc'><img class='introPic' src='trustrating_stim/white_mw013.bmp'><br><font color='red'><strong>Keep</strong></font></div></div></div>","null","ARRAY","1","trustrating_stim/white_mw013.bmp","0","noMatchOutcome","i","1500","","","","",""
"","","","","","5adbc172e0feeb0001ca97ed","bdp_wmem","Wed Jul 27 2022 22:36:23 GMT-0700 (PDT)","1425520","Match,No Match","html-keyboard-response","62","1033400","0.0-7.0-3.5","","null","","<div class='trialBorder'><div class='vertical-center'><img src='img/fixation2_sml.jpg'</img></div></div>","null","DELAY","","","","","","","","","","",""
"","","","","","5adbc172e0feeb0001ca97ed","bdp_wmem","Wed Jul 27 2022 22:36:23 GMT-0700 (PDT)","1425520","Match,No Match","html-keyboard-response","63","1033932","0.0-7.0-4.5","","532","","<div class='trialBorder'><div class='targDiv'><div class='tc'><img class='introPic' src='trustrating_stim/white_mw013.bmp'><br><font color='green'><strong>Share</strong></font></div></div><div class='respDiv'><div class='respDivL'>Match<br>(e)</div><div class='respDivR'>No Match<br>(i)</div></div></div>","e","TARGET","1","trustrating_stim/white_mw013.bmp","0","noMatchOutcome","i","1500","trustrating_stim/white_mw013.bmp","green","Share","REAL","0"
"","","","","","5adbc172e0feeb0001ca97ed","bdp_wmem","Wed Jul 27 2022 22:36:23 GMT-0700 (PDT)","1425520","Match,No Match","html-keyboard-response","64","1034434","0.0-7.0-5.5","","null","","<div class='trialBorder'><div class='vertical-center'><img src='img/error.jpg'></div><div class='respDiv'><div class='respDivL'><font style='color:orange'>Match<br>(e)</font></div><div class='respDivR'>No Match<br>(i)</div></div></div>","null","FEEDBACK","","","","","","","","","","",""
"","","","","","5adbc172e0feeb0001ca97ed","bdp_wmem","Wed Jul 27 2022 22:36:23 GMT-0700 (PDT)","1425520","Match,No Match","html-keyboard-response","65","1034935","0.0-7.0-1.6","","null","","<div class='trialBorder'><div class='vertical-center'><img src='img/fixation2_sml.jpg'</img></div></div>","null","FIX","","","","","","","","","","",""
"","","","","","5adbc172e0feeb0001ca97ed","bdp_wmem","Wed Jul 27 2022 22:36:23 GMT-0700 (PDT)","1425520","Match,No Match","html-keyboard-response","66","1037936","0.0-7.0-2.6","","null","","<div class='trialBorder'><div class='vertical-center'><img style='vertical-align:center; align:center' src='img/fixation2_sml.jpg'></div><div class='arrayDiv2'><div class='tl'><img class='introPic' src='trustrating_stim/white_mw038.bmp'><br><font color='green'><strong>Share</strong></font></div><div class='tr'><img class='introPic' src='trustrating_stim/white_mw010.bmp'><br><font color='red'><strong>Keep</strong></font></div></div></div>","null","ARRAY","2","trustrating_stim/white_mw038.bmp,trustrating_stim/white_mw010.bmp","1,0","Match","e","3000","","","","",""
"","","","","","5adbc172e0feeb0001ca97ed","bdp_wmem","Wed Jul 27 2022 22:36:23 GMT-0700 (PDT)","1425520","Match,No Match","html-keyboard-response","67","1041938","0.0-7.0-3.6","","null","","<div class='trialBorder'><div class='vertical-center'><img src='img/fixation2_sml.jpg'</img></div></div>","null","DELAY","","","","","","","","","","",""
"","","","","","5adbc172e0feeb0001ca97ed","bdp_wmem","Wed Jul 27 2022 22:36:23 GMT-0700 (PDT)","1425520","Match,No Match","html-keyboard-response","68","1042446","0.0-7.0-4.6","","507","","<div class='trialBorder'><div class='targDiv'><div class='tc'><img class='introPic' src='trustrating_stim/white_mw038.bmp'><br><font color='green'><strong>Share</strong></font></div></div><div class='respDiv'><div class='respDivL'>Match<br>(e)</div><div class='respDivR'>No Match<br>(i)</div></div></div>","e","TARGET","2","trustrating_stim/white_mw038.bmp,trustrating_stim/white_mw010.bmp","1,0","Match","e","3000","trustrating_stim/white_mw038.bmp","green","Share","REAL","1"
"","","","","","5adbc172e0feeb0001ca97ed","bdp_wmem","Wed Jul 27 2022 22:36:23 GMT-0700 (PDT)","1425520","Match,No Match","html-keyboard-response","69","1042947","0.0-7.0-5.6","","null","","<div class='trialBorder'><div class='vertical-center'><img src='img/correct.jpg'></div><div class='respDiv'><div class='respDivL'><font style='color:orange'>Match<br>(e)</font></div><div class='respDivR'>No Match<br>(i)</div></div></div>","null","FEEDBACK","","","","","","","","","","",""
"","","","","","5adbc172e0feeb0001ca97ed","bdp_wmem","Wed Jul 27 2022 22:36:23 GMT-0700 (PDT)","1425520","Match,No Match","html-keyboard-response","70","1043449","0.0-7.0-1.7","","null","","<div class='trialBorder'><div class='vertical-center'><img src='img/fixation2_sml.jpg'</img></div></div>","null","FIX","","","","","","","","","","",""
"","","","","","5adbc172e0feeb0001ca97ed","bdp_wmem","Wed Jul 27 2022 22:36:23 GMT-0700 (PDT)","1425520","Match,No Match","html-keyboard-response","71","1047950","0.0-7.0-2.7","","null","","<div class='trialBorder'><div class='vertical-center'><img style='vertical-align:center; align:center' src='img/fixation2_sml.jpg'></div><div class='arrayDiv3'><div class='tl'><img class='introPic' src='trustrating_stim/white_mw092.bmp'><br><font color='green'><strong>Share</strong></font></div><div class='tc'><img class='introPic' src='trustrating_stim/white_mw013.bmp'><br><font color='green'><strong>Share</strong></font></div><div class='tr'><img class='introPic' src='trustrating_stim/white_mw038.bmp'><br><font color='red'><strong>Keep</strong></font></div></div></div>","null","ARRAY","3","trustrating_stim/white_mw092.bmp,trustrating_stim/white_mw013.bmp,trustrating_stim/white_mw038.bmp","1,1,0","noMatchFace","i","4500","","","","",""
"","","","","","5adbc172e0feeb0001ca97ed","bdp_wmem","Wed Jul 27 2022 22:36:23 GMT-0700 (PDT)","1425520","Match,No Match","html-keyboard-response","72","1051952","0.0-7.0-3.7","","null","","<div class='trialBorder'><div class='vertical-center'><img src='img/fixation2_sml.jpg'</img></div></div>","null","DELAY","","","","","","","","","","",""
"","","","","","5adbc172e0feeb0001ca97ed","bdp_wmem","Wed Jul 27 2022 22:36:23 GMT-0700 (PDT)","1425520","Match,No Match","html-keyboard-response","73","1053280","0.0-7.0-4.7","","1328","","<div class='trialBorder'><div class='targDiv'><div class='tc'><img class='introPic' src='trustrating_stim/white_mw010.bmp'><br><font color='green'><strong>Share</strong></font></div></div><div class='respDiv'><div class='respDivL'>Match<br>(e)</div><div class='respDivR'>No Match<br>(i)</div></div></div>","i","TARGET","3","trustrating_stim/white_mw092.bmp,trustrating_stim/white_mw013.bmp,trustrating_stim/white_mw038.bmp","1,1,0","noMatchFace","i","4500","trustrating_stim/white_mw010.bmp","green","Share","REAL","1"
"","","","","","5adbc172e0feeb0001ca97ed","bdp_wmem","Wed Jul 27 2022 22:36:23 GMT-0700 (PDT)","1425520","Match,No Match","html-keyboard-response","74","1053782","0.0-7.0-5.7","","null","","<div class='trialBorder'><div class='vertical-center'><img src='img/correct.jpg'></div><div class='respDiv'><div class='respDivL'>Match<br>(e)</div><div class='respDivR'><font style='color:orange'>No Match<br>(i)</font></div></div></div>","null","FEEDBACK","","","","","","","","","","",""
"","","","","","5adbc172e0feeb0001ca97ed","bdp_wmem","Wed Jul 27 2022 22:36:23 GMT-0700 (PDT)","1425520","Match,No Match","html-keyboard-response","75","1054284","0.0-7.0-1.8","","null","","<div class='trialBorder'><div class='vertical-center'><img src='img/fixation2_sml.jpg'</img></div></div>","null","FIX","","","","","","","","","","",""
"","","","","","5adbc172e0feeb0001ca97ed","bdp_wmem","Wed Jul 27 2022 22:36:23 GMT-0700 (PDT)","1425520","Match,No Match","html-keyboard-response","76","1058786","0.0-7.0-2.8","","null","","<div class='trialBorder'><div class='vertical-center'><img style='vertical-align:center; align:center' src='img/fixation2_sml.jpg'></div><div class='arrayDiv3'><div class='tl'><img class='introPic' src='trustrating_stim/white_mw040.bmp'><br><font color='red'><strong>Keep</strong></font></div><div class='tc'><img class='introPic' src='trustrating_stim/white_mw003.bmp'><br><font color='red'><strong>Keep</strong></font></div><div class='tr'><img class='introPic' src='trustrating_stim/white_mw010.bmp'><br><font color='green'><strong>Share</strong></font></div></div></div>","null","ARRAY","3","trustrating_stim/white_mw040.bmp,trustrating_stim/white_mw003.bmp,trustrating_stim/white_mw010.bmp","0,0,1","Match","e","4500","","","","",""
"","","","","","5adbc172e0feeb0001ca97ed","bdp_wmem","Wed Jul 27 2022 22:36:23 GMT-0700 (PDT)","1425520","Match,No Match","html-keyboard-response","77","1062787","0.0-7.0-3.8","","null","","<div class='trialBorder'><div class='vertical-center'><img src='img/fixation2_sml.jpg'</img></div></div>","null","DELAY","","","","","","","","","","",""
"","","","","","5adbc172e0feeb0001ca97ed","bdp_wmem","Wed Jul 27 2022 22:36:23 GMT-0700 (PDT)","1425520","Match,No Match","html-keyboard-response","78","1063466","0.0-7.0-4.8","","679","","<div class='trialBorder'><div class='targDiv'><div class='tc'><img class='introPic' src='trustrating_stim/white_mw040.bmp'><br><font color='red'><strong>Keep</strong></font></div></div><div class='respDiv'><div class='respDivL'>Match<br>(e)</div><div class='respDivR'>No Match<br>(i)</div></div></div>","e","TARGET","3","trustrating_stim/white_mw040.bmp,trustrating_stim/white_mw003.bmp,trustrating_stim/white_mw010.bmp","0,0,1","Match","e","4500","trustrating_stim/white_mw040.bmp","red","Keep","REAL","1"
"","","","","","5adbc172e0feeb0001ca97ed","bdp_wmem","Wed Jul 27 2022 22:36:23 GMT-0700 (PDT)","1425520","Match,No Match","html-keyboard-response","79","1063968","0.0-7.0-5.8","","null","","<div class='trialBorder'><div class='vertical-center'><img src='img/correct.jpg'></div><div class='respDiv'><div class='respDivL'><font style='color:orange'>Match<br>(e)</font></div><div class='respDivR'>No Match<br>(i)</div></div></div>","null","FEEDBACK","","","","","","","","","","",""
"","","","","","5adbc172e0feeb0001ca97ed","bdp_wmem","Wed Jul 27 2022 22:36:23 GMT-0700 (PDT)","1425520","Match,No Match","html-keyboard-response","80","1064470","0.0-7.0-1.9","","null","","<div class='trialBorder'><div class='vertical-center'><img src='img/fixation2_sml.jpg'</img></div></div>","null","FIX","","","","","","","","","","",""
"","","","","","5adbc172e0feeb0001ca97ed","bdp_wmem","Wed Jul 27 2022 22:36:23 GMT-0700 (PDT)","1425520","Match,No Match","html-keyboard-response","81","1065970","0.0-7.0-2.9","","null","","<div class='trialBorder'><div class='vertical-center'><img style='vertical-align:center; align:center' src='img/fixation2_sml.jpg'></div><div class='arrayDiv1'><div class='tc'><img class='introPic' src='trustrating_stim/white_mw013.bmp'><br><font color='red'><strong>Keep</strong></font></div></div></div>","null","ARRAY","1","trustrating_stim/white_mw013.bmp","0","noMatchOutcome","i","1500","","","","",""
"","","","","","5adbc172e0feeb0001ca97ed","bdp_wmem","Wed Jul 27 2022 22:36:23 GMT-0700 (PDT)","1425520","Match,No Match","html-keyboard-response","82","1069971","0.0-7.0-3.9","","null","","<div class='trialBorder'><div class='vertical-center'><img src='img/fixation2_sml.jpg'</img></div></div>","null","DELAY","","","","","","","","","","",""
"","","","","","5adbc172e0feeb0001ca97ed","bdp_wmem","Wed Jul 27 2022 22:36:23 GMT-0700 (PDT)","1425520","Match,No Match","html-keyboard-response","83","1070597","0.0-7.0-4.9","","625","","<div class='trialBorder'><div class='targDiv'><div class='tc'><img class='introPic' src='trustrating_stim/white_mw013.bmp'><br><font color='green'><strong>Share</strong></font></div></div><div class='respDiv'><div class='respDivL'>Match<br>(e)</div><div class='respDivR'>No Match<br>(i)</div></div></div>","i","TARGET","1","trustrating_stim/white_mw013.bmp","0","noMatchOutcome","i","1500","trustrating_stim/white_mw013.bmp","green","Share","REAL","1"
"","","","","","5adbc172e0feeb0001ca97ed","bdp_wmem","Wed Jul 27 2022 22:36:23 GMT-0700 (PDT)","1425520","Match,No Match","html-keyboard-response","84","1071099","0.0-7.0-5.9","","null","","<div class='trialBorder'><div class='vertical-center'><img src='img/correct.jpg'></div><div class='respDiv'><div class='respDivL'>Match<br>(e)</div><div class='respDivR'><font style='color:orange'>No Match<br>(i)</font></div></div></div>","null","FEEDBACK","","","","","","","","","","",""
"","","","","","5adbc172e0feeb0001ca97ed","bdp_wmem","Wed Jul 27 2022 22:36:23 GMT-0700 (PDT)","1425520","Match,No Match","html-keyboard-response","85","1071600","0.0-7.0-1.10","","null","","<div class='trialBorder'><div class='vertical-center'><img src='img/fixation2_sml.jpg'</img></div></div>","null","FIX","","","","","","","","","","",""
"","","","","","5adbc172e0feeb0001ca97ed","bdp_wmem","Wed Jul 27 2022 22:36:23 GMT-0700 (PDT)","1425520","Match,No Match","html-keyboard-response","86","1076102","0.0-7.0-2.10","","null","","<div class='trialBorder'><div class='vertical-center'><img style='vertical-align:center; align:center' src='img/fixation2_sml.jpg'></div><div class='arrayDiv3'><div class='tl'><img class='introPic' src='trustrating_stim/white_mw040.bmp'><br><font color='green'><strong>Share</strong></font></div><div class='tc'><img class='introPic' src='trustrating_stim/white_mw070.bmp'><br><font color='red'><strong>Keep</strong></font></div><div class='tr'><img class='introPic' src='trustrating_stim/white_mw091.bmp'><br><font color='green'><strong>Share</strong></font></div></div></div>","null","ARRAY","3","trustrating_stim/white_mw040.bmp,trustrating_stim/white_mw070.bmp,trustrating_stim/white_mw091.bmp","1,0,1","noMatchFace","i","4500","","","","",""
"","","","","","5adbc172e0feeb0001ca97ed","bdp_wmem","Wed Jul 27 2022 22:36:23 GMT-0700 (PDT)","1425520","Match,No Match","html-keyboard-response","87","1080104","0.0-7.0-3.10","","null","","<div class='trialBorder'><div class='vertical-center'><img src='img/fixation2_sml.jpg'</img></div></div>","null","DELAY","","","","","","","","","","",""
"","","","","","5adbc172e0feeb0001ca97ed","bdp_wmem","Wed Jul 27 2022 22:36:23 GMT-0700 (PDT)","1425520","Match,No Match","html-keyboard-response","88","1080981","0.0-7.0-4.10","","877","","<div class='trialBorder'><div class='targDiv'><div class='tc'><img class='introPic' src='trustrating_stim/white_mw003.bmp'><br><font color='green'><strong>Share</strong></font></div></div><div class='respDiv'><div class='respDivL'>Match<br>(e)</div><div class='respDivR'>No Match<br>(i)</div></div></div>","e","TARGET","3","trustrating_stim/white_mw040.bmp,trustrating_stim/white_mw070.bmp,trustrating_stim/white_mw091.bmp","1,0,1","noMatchFace","i","4500","trustrating_stim/white_mw003.bmp","green","Share","REAL","0"
"","","","","","5adbc172e0feeb0001ca97ed","bdp_wmem","Wed Jul 27 2022 22:36:23 GMT-0700 (PDT)","1425520","Match,No Match","html-keyboard-response","89","1081482","0.0-7.0-5.10","","null","","<div class='trialBorder'><div class='vertical-center'><img src='img/error.jpg'></div><div class='respDiv'><div class='respDivL'><font style='color:orange'>Match<br>(e)</font></div><div class='respDivR'>No Match<br>(i)</div></div></div>","null","FEEDBACK","","","","","","","","","","",""
"","","","","","5adbc172e0feeb0001ca97ed","bdp_wmem","Wed Jul 27 2022 22:36:23 GMT-0700 (PDT)","1425520","Match,No Match","html-keyboard-response","90","1081984","0.0-7.0-1.11","","null","","<div class='trialBorder'><div class='vertical-center'><img src='img/fixation2_sml.jpg'</img></div></div>","null","FIX","","","","","","","","","","",""
"","","","","","5adbc172e0feeb0001ca97ed","bdp_wmem","Wed Jul 27 2022 22:36:23 GMT-0700 (PDT)","1425520","Match,No Match","html-keyboard-response","91","1086486","0.0-7.0-2.11","","null","","<div class='trialBorder'><div class='vertical-center'><img style='vertical-align:center; align:center' src='img/fixation2_sml.jpg'></div><div class='arrayDiv3'><div class='tl'><img class='introPic' src='trustrating_stim/white_mw070.bmp'><br><font color='green'><strong>Share</strong></font></div><div class='tc'><img class='introPic' src='trustrating_stim/white_mw042.bmp'><br><font color='green'><strong>Share</strong></font></div><div class='tr'><img class='introPic' src='trustrating_stim/white_mw013.bmp'><br><font color='red'><strong>Keep</strong></font></div></div></div>","null","ARRAY","3","trustrating_stim/white_mw070.bmp,trustrating_stim/white_mw042.bmp,trustrating_stim/white_mw013.bmp","1,1,0","noMatchFace","i","4500","","","","",""
"","","","","","5adbc172e0feeb0001ca97ed","bdp_wmem","Wed Jul 27 2022 22:36:23 GMT-0700 (PDT)","1425520","Match,No Match","html-keyboard-response","92","1090487","0.0-7.0-3.11","","null","","<div class='trialBorder'><div class='vertical-center'><img src='img/fixation2_sml.jpg'</img></div></div>","null","DELAY","","","","","","","","","","",""
"","","","","","5adbc172e0feeb0001ca97ed","bdp_wmem","Wed Jul 27 2022 22:36:23 GMT-0700 (PDT)","1425520","Match,No Match","html-keyboard-response","93","1091251","0.0-7.0-4.11","","762","","<div class='trialBorder'><div class='targDiv'><div class='tc'><img class='introPic' src='trustrating_stim/white_mw038.bmp'><br><font color='red'><strong>Keep</strong></font></div></div><div class='respDiv'><div class='respDivL'>Match<br>(e)</div><div class='respDivR'>No Match<br>(i)</div></div></div>","e","TARGET","3","trustrating_stim/white_mw070.bmp,trustrating_stim/white_mw042.bmp,trustrating_stim/white_mw013.bmp","1,1,0","noMatchFace","i","4500","trustrating_stim/white_mw038.bmp","red","Keep","REAL","0"
"","","","","","5adbc172e0feeb0001ca97ed","bdp_wmem","Wed Jul 27 2022 22:36:23 GMT-0700 (PDT)","1425520","Match,No Match","html-keyboard-response","94","1091753","0.0-7.0-5.11","","null","","<div class='trialBorder'><div class='vertical-center'><img src='img/error.jpg'></div><div class='respDiv'><div class='respDivL'><font style='color:orange'>Match<br>(e)</font></div><div class='respDivR'>No Match<br>(i)</div></div></div>","null","FEEDBACK","","","","","","","","","","",""
"","","","","","5adbc172e0feeb0001ca97ed","bdp_wmem","Wed Jul 27 2022 22:36:23 GMT-0700 (PDT)","1425520","Match,No Match","html-keyboard-response","95","1092254","0.0-7.0-1.12","","null","","<div class='trialBorder'><div class='vertical-center'><img src='img/fixation2_sml.jpg'</img></div></div>","null","FIX","","","","","","","","","","",""
"","","","","","5adbc172e0feeb0001ca97ed","bdp_wmem","Wed Jul 27 2022 22:36:23 GMT-0700 (PDT)","1425520","Match,No Match","html-keyboard-response","96","1095255","0.0-7.0-2.12","","null","","<div class='trialBorder'><div class='vertical-center'><img style='vertical-align:center; align:center' src='img/fixation2_sml.jpg'></div><div class='arrayDiv2'><div class='tl'><img class='introPic' src='trustrating_stim/white_mw013.bmp'><br><font color='red'><strong>Keep</strong></font></div><div class='tr'><img class='introPic' src='trustrating_stim/white_mw038.bmp'><br><font color='green'><strong>Share</strong></font></div></div></div>","null","ARRAY","2","trustrating_stim/white_mw013.bmp,trustrating_stim/white_mw038.bmp","0,1","noMatchFace","i","3000","","","","",""
"","","","","","5adbc172e0feeb0001ca97ed","bdp_wmem","Wed Jul 27 2022 22:36:23 GMT-0700 (PDT)","1425520","Match,No Match","html-keyboard-response","97","1099257","0.0-7.0-3.12","","null","","<div class='trialBorder'><div class='vertical-center'><img src='img/fixation2_sml.jpg'</img></div></div>","null","DELAY","","","","","","","","","","",""
"","","","","","5adbc172e0feeb0001ca97ed","bdp_wmem","Wed Jul 27 2022 22:36:23 GMT-0700 (PDT)","1425520","Match,No Match","html-keyboard-response","98","1100197","0.0-7.0-4.12","","939","","<div class='trialBorder'><div class='targDiv'><div class='tc'><img class='introPic' src='trustrating_stim/white_mw003.bmp'><br><font color='green'><strong>Share</strong></font></div></div><div class='respDiv'><div class='respDivL'>Match<br>(e)</div><div class='respDivR'>No Match<br>(i)</div></div></div>","i","TARGET","2","trustrating_stim/white_mw013.bmp,trustrating_stim/white_mw038.bmp","0,1","noMatchFace","i","3000","trustrating_stim/white_mw003.bmp","green","Share","REAL","1"
"","","","","","5adbc172e0feeb0001ca97ed","bdp_wmem","Wed Jul 27 2022 22:36:23 GMT-0700 (PDT)","1425520","Match,No Match","html-keyboard-response","99","1100698","0.0-7.0-5.12","","null","","<div class='trialBorder'><div class='vertical-center'><img src='img/correct.jpg'></div><div class='respDiv'><div class='respDivL'>Match<br>(e)</div><div class='respDivR'><font style='color:orange'>No Match<br>(i)</font></div></div></div>","null","FEEDBACK","","","","","","","","","","",""
"","","","","","5adbc172e0feeb0001ca97ed","bdp_wmem","Wed Jul 27 2022 22:36:23 GMT-0700 (PDT)","1425520","Match,No Match","html-keyboard-response","100","1101199","0.0-7.0-1.13","","null","","<div class='trialBorder'><div class='vertical-center'><img src='img/fixation2_sml.jpg'</img></div></div>","null","FIX","","","","","","","","","","",""
"","","","","","5adbc172e0feeb0001ca97ed","bdp_wmem","Wed Jul 27 2022 22:36:23 GMT-0700 (PDT)","1425520","Match,No Match","html-keyboard-response","101","1102701","0.0-7.0-2.13","","null","","<div class='trialBorder'><div class='vertical-center'><img style='vertical-align:center; align:center' src='img/fixation2_sml.jpg'></div><div class='arrayDiv1'><div class='tc'><img class='introPic' src='trustrating_stim/white_mw010.bmp'><br><font color='green'><strong>Share</strong></font></div></div></div>","null","ARRAY","1","trustrating_stim/white_mw010.bmp","1","Match","e","1500","","","","",""
"","","","","","5adbc172e0feeb0001ca97ed","bdp_wmem","Wed Jul 27 2022 22:36:23 GMT-0700 (PDT)","1425520","Match,No Match","html-keyboard-response","102","1106702","0.0-7.0-3.13","","null","","<div class='trialBorder'><div class='vertical-center'><img src='img/fixation2_sml.jpg'</img></div></div>","null","DELAY","","","","","","","","","","",""
"","","","","","5adbc172e0feeb0001ca97ed","bdp_wmem","Wed Jul 27 2022 22:36:23 GMT-0700 (PDT)","1425520","Match,No Match","html-keyboard-response","103","1107336","0.0-7.0-4.13","","633","","<div class='trialBorder'><div class='targDiv'><div class='tc'><img class='introPic' src='trustrating_stim/white_mw010.bmp'><br><font color='green'><strong>Share</strong></font></div></div><div class='respDiv'><div class='respDivL'>Match<br>(e)</div><div class='respDivR'>No Match<br>(i)</div></div></div>","i","TARGET","1","trustrating_stim/white_mw010.bmp","1","Match","e","1500","trustrating_stim/white_mw010.bmp","green","Share","REAL","0"
"","","","","","5adbc172e0feeb0001ca97ed","bdp_wmem","Wed Jul 27 2022 22:36:23 GMT-0700 (PDT)","1425520","Match,No Match","html-keyboard-response","104","1107838","0.0-7.0-5.13","","null","","<div class='trialBorder'><div class='vertical-center'><img src='img/error.jpg'></div><div class='respDiv'><div class='respDivL'>Match<br>(e)</div><div class='respDivR'><font style='color:orange'>No Match<br>(i)</font></div></div></div>","null","FEEDBACK","","","","","","","","","","",""
"","","","","","5adbc172e0feeb0001ca97ed","bdp_wmem","Wed Jul 27 2022 22:36:23 GMT-0700 (PDT)","1425520","Match,No Match","html-keyboard-response","105","1108339","0.0-7.0-1.14","","null","","<div class='trialBorder'><div class='vertical-center'><img src='img/fixation2_sml.jpg'</img></div></div>","null","FIX","","","","","","","","","","",""
"","","","","","5adbc172e0feeb0001ca97ed","bdp_wmem","Wed Jul 27 2022 22:36:23 GMT-0700 (PDT)","1425520","Match,No Match","html-keyboard-response","106","1109840","0.0-7.0-2.14","","null","","<div class='trialBorder'><div class='vertical-center'><img style='vertical-align:center; align:center' src='img/fixation2_sml.jpg'></div><div class='arrayDiv1'><div class='tc'><img class='introPic' src='trustrating_stim/white_mw070.bmp'><br><font color='red'><strong>Keep</strong></font></div></div></div>","null","ARRAY","1","trustrating_stim/white_mw070.bmp","0","Match","e","1500","","","","",""
"","","","","","5adbc172e0feeb0001ca97ed","bdp_wmem","Wed Jul 27 2022 22:36:23 GMT-0700 (PDT)","1425520","Match,No Match","html-keyboard-response","107","1113842","0.0-7.0-3.14","","null","","<div class='trialBorder'><div class='vertical-center'><img src='img/fixation2_sml.jpg'</img></div></div>","null","DELAY","","","","","","","","","","",""
"","","","","","5adbc172e0feeb0001ca97ed","bdp_wmem","Wed Jul 27 2022 22:36:23 GMT-0700 (PDT)","1425520","Match,No Match","html-keyboard-response","108","1114748","0.0-7.0-4.14","","906","","<div class='trialBorder'><div class='targDiv'><div class='tc'><img class='introPic' src='trustrating_stim/white_mw070.bmp'><br><font color='red'><strong>Keep</strong></font></div></div><div class='respDiv'><div class='respDivL'>Match<br>(e)</div><div class='respDivR'>No Match<br>(i)</div></div></div>","e","TARGET","1","trustrating_stim/white_mw070.bmp","0","Match","e","1500","trustrating_stim/white_mw070.bmp","red","Keep","REAL","1"
"","","","","","5adbc172e0feeb0001ca97ed","bdp_wmem","Wed Jul 27 2022 22:36:23 GMT-0700 (PDT)","1425520","Match,No Match","html-keyboard-response","109","1115249","0.0-7.0-5.14","","null","","<div class='trialBorder'><div class='vertical-center'><img src='img/correct.jpg'></div><div class='respDiv'><div class='respDivL'><font style='color:orange'>Match<br>(e)</font></div><div class='respDivR'>No Match<br>(i)</div></div></div>","null","FEEDBACK","","","","","","","","","","",""
"","","","","","5adbc172e0feeb0001ca97ed","bdp_wmem","Wed Jul 27 2022 22:36:23 GMT-0700 (PDT)","1425520","Match,No Match","html-keyboard-response","110","1115751","0.0-7.0-1.15","","null","","<div class='trialBorder'><div class='vertical-center'><img src='img/fixation2_sml.jpg'</img></div></div>","null","FIX","","","","","","","","","","",""
"","","","","","5adbc172e0feeb0001ca97ed","bdp_wmem","Wed Jul 27 2022 22:36:23 GMT-0700 (PDT)","1425520","Match,No Match","html-keyboard-response","111","1120253","0.0-7.0-2.15","","null","","<div class='trialBorder'><div class='vertical-center'><img style='vertical-align:center; align:center' src='img/fixation2_sml.jpg'></div><div class='arrayDiv3'><div class='tl'><img class='introPic' src='trustrating_stim/white_mw013.bmp'><br><font color='green'><strong>Share</strong></font></div><div class='tc'><img class='introPic' src='trustrating_stim/white_mw012.bmp'><br><font color='red'><strong>Keep</strong></font></div><div class='tr'><img class='introPic' src='trustrating_stim/white_mw040.bmp'><br><font color='green'><strong>Share</strong></font></div></div></div>","null","ARRAY","3","trustrating_stim/white_mw013.bmp,trustrating_stim/white_mw012.bmp,trustrating_stim/white_mw040.bmp","1,0,1","noMatchFace","i","4500","","","","",""
"","","","","","5adbc172e0feeb0001ca97ed","bdp_wmem","Wed Jul 27 2022 22:36:23 GMT-0700 (PDT)","1425520","Match,No Match","html-keyboard-response","112","1124255","0.0-7.0-3.15","","null","","<div class='trialBorder'><div class='vertical-center'><img src='img/fixation2_sml.jpg'</img></div></div>","null","DELAY","","","","","","","","","","",""
"","","","","","5adbc172e0feeb0001ca97ed","bdp_wmem","Wed Jul 27 2022 22:36:23 GMT-0700 (PDT)","1425520","Match,No Match","html-keyboard-response","113","1125204","0.0-7.0-4.15","","949","","<div class='trialBorder'><div class='targDiv'><div class='tc'><img class='introPic' src='trustrating_stim/white_mw042.bmp'><br><font color='red'><strong>Keep</strong></font></div></div><div class='respDiv'><div class='respDivL'>Match<br>(e)</div><div class='respDivR'>No Match<br>(i)</div></div></div>","i","TARGET","3","trustrating_stim/white_mw013.bmp,trustrating_stim/white_mw012.bmp,trustrating_stim/white_mw040.bmp","1,0,1","noMatchFace","i","4500","trustrating_stim/white_mw042.bmp","red","Keep","REAL","1"
"","","","","","5adbc172e0feeb0001ca97ed","bdp_wmem","Wed Jul 27 2022 22:36:23 GMT-0700 (PDT)","1425520","Match,No Match","html-keyboard-response","114","1125706","0.0-7.0-5.15","","null","","<div class='trialBorder'><div class='vertical-center'><img src='img/correct.jpg'></div><div class='respDiv'><div class='respDivL'>Match<br>(e)</div><div class='respDivR'><font style='color:orange'>No Match<br>(i)</font></div></div></div>","null","FEEDBACK","","","","","","","","","","",""
"","","","","","5adbc172e0feeb0001ca97ed","bdp_wmem","Wed Jul 27 2022 22:36:23 GMT-0700 (PDT)","1425520","Match,No Match","html-keyboard-response","115","1126208","0.0-7.0-1.16","","null","","<div class='trialBorder'><div class='vertical-center'><img src='img/fixation2_sml.jpg'</img></div></div>","null","FIX","","","","","","","","","","",""
"","","","","","5adbc172e0feeb0001ca97ed","bdp_wmem","Wed Jul 27 2022 22:36:23 GMT-0700 (PDT)","1425520","Match,No Match","html-keyboard-response","116","1129210","0.0-7.0-2.16","","null","","<div class='trialBorder'><div class='vertical-center'><img style='vertical-align:center; align:center' src='img/fixation2_sml.jpg'></div><div class='arrayDiv2'><div class='tl'><img class='introPic' src='trustrating_stim/white_mw070.bmp'><br><font color='green'><strong>Share</strong></font></div><div class='tr'><img class='introPic' src='trustrating_stim/white_mw013.bmp'><br><font color='red'><strong>Keep</strong></font></div></div></div>","null","ARRAY","2","trustrating_stim/white_mw070.bmp,trustrating_stim/white_mw013.bmp","1,0","noMatchFace","i","3000","","","","",""
"","","","","","5adbc172e0feeb0001ca97ed","bdp_wmem","Wed Jul 27 2022 22:36:23 GMT-0700 (PDT)","1425520","Match,No Match","html-keyboard-response","117","1133212","0.0-7.0-3.16","","null","","<div class='trialBorder'><div class='vertical-center'><img src='img/fixation2_sml.jpg'</img></div></div>","null","DELAY","","","","","","","","","","",""
"","","","","","5adbc172e0feeb0001ca97ed","bdp_wmem","Wed Jul 27 2022 22:36:23 GMT-0700 (PDT)","1425520","Match,No Match","html-keyboard-response","118","1133924","0.0-7.0-4.16","","712","","<div class='trialBorder'><div class='targDiv'><div class='tc'><img class='introPic' src='trustrating_stim/white_mw003.bmp'><br><font color='green'><strong>Share</strong></font></div></div><div class='respDiv'><div class='respDivL'>Match<br>(e)</div><div class='respDivR'>No Match<br>(i)</div></div></div>","e","TARGET","2","trustrating_stim/white_mw070.bmp,trustrating_stim/white_mw013.bmp","1,0","noMatchFace","i","3000","trustrating_stim/white_mw003.bmp","green","Share","REAL","0"
"","","","","","5adbc172e0feeb0001ca97ed","bdp_wmem","Wed Jul 27 2022 22:36:23 GMT-0700 (PDT)","1425520","Match,No Match","html-keyboard-response","119","1134425","0.0-7.0-5.16","","null","","<div class='trialBorder'><div class='vertical-center'><img src='img/error.jpg'></div><div class='respDiv'><div class='respDivL'><font style='color:orange'>Match<br>(e)</font></div><div class='respDivR'>No Match<br>(i)</div></div></div>","null","FEEDBACK","","","","","","","","","","",""
"","","","","","5adbc172e0feeb0001ca97ed","bdp_wmem","Wed Jul 27 2022 22:36:23 GMT-0700 (PDT)","1425520","Match,No Match","html-keyboard-response","120","1134927","0.0-7.0-1.17","","null","","<div class='trialBorder'><div class='vertical-center'><img src='img/fixation2_sml.jpg'</img></div></div>","null","FIX","","","","","","","","","","",""
"","","","","","5adbc172e0feeb0001ca97ed","bdp_wmem","Wed Jul 27 2022 22:36:23 GMT-0700 (PDT)","1425520","Match,No Match","html-keyboard-response","121","1139428","0.0-7.0-2.17","","null","","<div class='trialBorder'><div class='vertical-center'><img style='vertical-align:center; align:center' src='img/fixation2_sml.jpg'></div><div class='arrayDiv3'><div class='tl'><img class='introPic' src='trustrating_stim/white_mw091.bmp'><br><font color='green'><strong>Share</strong></font></div><div class='tc'><img class='introPic' src='trustrating_stim/white_mw038.bmp'><br><font color='red'><strong>Keep</strong></font></div><div class='tr'><img class='introPic' src='trustrating_stim/white_mw003.bmp'><br><font color='green'><strong>Share</strong></font></div></div></div>","null","ARRAY","3","trustrating_stim/white_mw091.bmp,trustrating_stim/white_mw038.bmp,trustrating_stim/white_mw003.bmp","1,0,1","Match","e","4500","","","","",""
"","","","","","5adbc172e0feeb0001ca97ed","bdp_wmem","Wed Jul 27 2022 22:36:23 GMT-0700 (PDT)","1425520","Match,No Match","html-keyboard-response","122","1143429","0.0-7.0-3.17","","null","","<div class='trialBorder'><div class='vertical-center'><img src='img/fixation2_sml.jpg'</img></div></div>","null","DELAY","","","","","","","","","","",""
"","","","","","5adbc172e0feeb0001ca97ed","bdp_wmem","Wed Jul 27 2022 22:36:23 GMT-0700 (PDT)","1425520","Match,No Match","html-keyboard-response","123","1144041","0.0-7.0-4.17","","611","","<div class='trialBorder'><div class='targDiv'><div class='tc'><img class='introPic' src='trustrating_stim/white_mw091.bmp'><br><font color='green'><strong>Share</strong></font></div></div><div class='respDiv'><div class='respDivL'>Match<br>(e)</div><div class='respDivR'>No Match<br>(i)</div></div></div>","i","TARGET","3","trustrating_stim/white_mw091.bmp,trustrating_stim/white_mw038.bmp,trustrating_stim/white_mw003.bmp","1,0,1","Match","e","4500","trustrating_stim/white_mw091.bmp","green","Share","REAL","0"
"","","","","","5adbc172e0feeb0001ca97ed","bdp_wmem","Wed Jul 27 2022 22:36:23 GMT-0700 (PDT)","1425520","Match,No Match","html-keyboard-response","124","1144543","0.0-7.0-5.17","","null","","<div class='trialBorder'><div class='vertical-center'><img src='img/error.jpg'></div><div class='respDiv'><div class='respDivL'>Match<br>(e)</div><div class='respDivR'><font style='color:orange'>No Match<br>(i)</font></div></div></div>","null","FEEDBACK","","","","","","","","","","",""
"","","","","","5adbc172e0feeb0001ca97ed","bdp_wmem","Wed Jul 27 2022 22:36:23 GMT-0700 (PDT)","1425520","Match,No Match","html-keyboard-response","125","1145045","0.0-7.0-1.18","","null","","<div class='trialBorder'><div class='vertical-center'><img src='img/fixation2_sml.jpg'</img></div></div>","null","FIX","","","","","","","","","","",""
"","","","","","5adbc172e0feeb0001ca97ed","bdp_wmem","Wed Jul 27 2022 22:36:23 GMT-0700 (PDT)","1425520","Match,No Match","html-keyboard-response","126","1149546","0.0-7.0-2.18","","null","","<div class='trialBorder'><div class='vertical-center'><img style='vertical-align:center; align:center' src='img/fixation2_sml.jpg'></div><div class='arrayDiv3'><div class='tl'><img class='introPic' src='trustrating_stim/white_mw012.bmp'><br><font color='red'><strong>Keep</strong></font></div><div class='tc'><img class='introPic' src='trustrating_stim/white_mw085.bmp'><br><font color='red'><strong>Keep</strong></font></div><div class='tr'><img class='introPic' src='trustrating_stim/white_mw091.bmp'><br><font color='green'><strong>Share</strong></font></div></div></div>","null","ARRAY","3","trustrating_stim/white_mw012.bmp,trustrating_stim/white_mw085.bmp,trustrating_stim/white_mw091.bmp","0,0,1","Match","e","4500","","","","",""
"","","","","","5adbc172e0feeb0001ca97ed","bdp_wmem","Wed Jul 27 2022 22:36:23 GMT-0700 (PDT)","1425520","Match,No Match","html-keyboard-response","127","1153548","0.0-7.0-3.18","","null","","<div class='trialBorder'><div class='vertical-center'><img src='img/fixation2_sml.jpg'</img></div></div>","null","DELAY","","","","","","","","","","",""
"","","","","","5adbc172e0feeb0001ca97ed","bdp_wmem","Wed Jul 27 2022 22:36:23 GMT-0700 (PDT)","1425520","Match,No Match","html-keyboard-response","128","1153795","0.0-7.0-4.18","","247","","<div class='trialBorder'><div class='targDiv'><div class='tc'><img class='introPic' src='trustrating_stim/white_mw091.bmp'><br><font color='green'><strong>Share</strong></font></div></div><div class='respDiv'><div class='respDivL'>Match<br>(e)</div><div class='respDivR'>No Match<br>(i)</div></div></div>","e","TARGET","3","trustrating_stim/white_mw012.bmp,trustrating_stim/white_mw085.bmp,trustrating_stim/white_mw091.bmp","0,0,1","Match","e","4500","trustrating_stim/white_mw091.bmp","green","Share","REAL","1"
"","","","","","5adbc172e0feeb0001ca97ed","bdp_wmem","Wed Jul 27 2022 22:36:23 GMT-0700 (PDT)","1425520","Match,No Match","html-keyboard-response","129","1154296","0.0-7.0-5.18","","null","","<div class='trialBorder'><div class='vertical-center'><img src='img/correct.jpg'></div><div class='respDiv'><div class='respDivL'><font style='color:orange'>Match<br>(e)</font></div><div class='respDivR'>No Match<br>(i)</div></div></div>","null","FEEDBACK","","","","","","","","","","",""
"","","","","","5adbc172e0feeb0001ca97ed","bdp_wmem","Wed Jul 27 2022 22:36:23 GMT-0700 (PDT)","1425520","Match,No Match","html-keyboard-response","130","1154798","0.0-7.0-1.19","","null","","<div class='trialBorder'><div class='vertical-center'><img src='img/fixation2_sml.jpg'</img></div></div>","null","FIX","","","","","","","","","","",""
"","","","","","5adbc172e0feeb0001ca97ed","bdp_wmem","Wed Jul 27 2022 22:36:23 GMT-0700 (PDT)","1425520","Match,No Match","html-keyboard-response","131","1156300","0.0-7.0-2.19","","null","","<div class='trialBorder'><div class='vertical-center'><img style='vertical-align:center; align:center' src='img/fixation2_sml.jpg'></div><div class='arrayDiv1'><div class='tc'><img class='introPic' src='trustrating_stim/white_mw012.bmp'><br><font color='red'><strong>Keep</strong></font></div></div></div>","null","ARRAY","1","trustrating_stim/white_mw012.bmp","0","Match","e","1500","","","","",""
"","","","","","5adbc172e0feeb0001ca97ed","bdp_wmem","Wed Jul 27 2022 22:36:23 GMT-0700 (PDT)","1425520","Match,No Match","html-keyboard-response","132","1160302","0.0-7.0-3.19","","null","","<div class='trialBorder'><div class='vertical-center'><img src='img/fixation2_sml.jpg'</img></div></div>","null","DELAY","","","","","","","","","","",""
"","","","","","5adbc172e0feeb0001ca97ed","bdp_wmem","Wed Jul 27 2022 22:36:23 GMT-0700 (PDT)","1425520","Match,No Match","html-keyboard-response","133","1161289","0.0-7.0-4.19","","987","","<div class='trialBorder'><div class='targDiv'><div class='tc'><img class='introPic' src='trustrating_stim/white_mw012.bmp'><br><font color='red'><strong>Keep</strong></font></div></div><div class='respDiv'><div class='respDivL'>Match<br>(e)</div><div class='respDivR'>No Match<br>(i)</div></div></div>","i","TARGET","1","trustrating_stim/white_mw012.bmp","0","Match","e","1500","trustrating_stim/white_mw012.bmp","red","Keep","REAL","0"
"","","","","","5adbc172e0feeb0001ca97ed","bdp_wmem","Wed Jul 27 2022 22:36:23 GMT-0700 (PDT)","1425520","Match,No Match","html-keyboard-response","134","1161791","0.0-7.0-5.19","","null","","<div class='trialBorder'><div class='vertical-center'><img src='img/error.jpg'></div><div class='respDiv'><div class='respDivL'>Match<br>(e)</div><div class='respDivR'><font style='color:orange'>No Match<br>(i)</font></div></div></div>","null","FEEDBACK","","","","","","","","","","",""
"","","","","","5adbc172e0feeb0001ca97ed","bdp_wmem","Wed Jul 27 2022 22:36:23 GMT-0700 (PDT)","1425520","Match,No Match","html-keyboard-response","135","1162292","0.0-7.0-1.20","","null","","<div class='trialBorder'><div class='vertical-center'><img src='img/fixation2_sml.jpg'</img></div></div>","null","FIX","","","","","","","","","","",""
"","","","","","5adbc172e0feeb0001ca97ed","bdp_wmem","Wed Jul 27 2022 22:36:23 GMT-0700 (PDT)","1425520","Match,No Match","html-keyboard-response","136","1163794","0.0-7.0-2.20","","null","","<div class='trialBorder'><div class='vertical-center'><img style='vertical-align:center; align:center' src='img/fixation2_sml.jpg'></div><div class='arrayDiv1'><div class='tc'><img class='introPic' src='trustrating_stim/white_mw040.bmp'><br><font color='green'><strong>Share</strong></font></div></div></div>","null","ARRAY","1","trustrating_stim/white_mw040.bmp","1","Match","e","1500","","","","",""
"","","","","","5adbc172e0feeb0001ca97ed","bdp_wmem","Wed Jul 27 2022 22:36:23 GMT-0700 (PDT)","1425520","Match,No Match","html-keyboard-response","137","1167795","0.0-7.0-3.20","","null","","<div class='trialBorder'><div class='vertical-center'><img src='img/fixation2_sml.jpg'</img></div></div>","null","DELAY","","","","","","","","","","",""
"","","","","","5adbc172e0feeb0001ca97ed","bdp_wmem","Wed Jul 27 2022 22:36:23 GMT-0700 (PDT)","1425520","Match,No Match","html-keyboard-response","138","1168090","0.0-7.0-4.20","","293","","<div class='trialBorder'><div class='targDiv'><div class='tc'><img class='introPic' src='trustrating_stim/white_mw040.bmp'><br><font color='green'><strong>Share</strong></font></div></div><div class='respDiv'><div class='respDivL'>Match<br>(e)</div><div class='respDivR'>No Match<br>(i)</div></div></div>","i","TARGET","1","trustrating_stim/white_mw040.bmp","1","Match","e","1500","trustrating_stim/white_mw040.bmp","green","Share","REAL","0"
"","","","","","5adbc172e0feeb0001ca97ed","bdp_wmem","Wed Jul 27 2022 22:36:23 GMT-0700 (PDT)","1425520","Match,No Match","html-keyboard-response","139","1168591","0.0-7.0-5.20","","null","","<div class='trialBorder'><div class='vertical-center'><img src='img/error.jpg'></div><div class='respDiv'><div class='respDivL'>Match<br>(e)</div><div class='respDivR'><font style='color:orange'>No Match<br>(i)</font></div></div></div>","null","FEEDBACK","","","","","","","","","","",""
"","","","","","5adbc172e0feeb0001ca97ed","bdp_wmem","Wed Jul 27 2022 22:36:23 GMT-0700 (PDT)","1425520","Match,No Match","html-keyboard-response","140","1169092","0.0-7.0-1.21","","null","","<div class='trialBorder'><div class='vertical-center'><img src='img/fixation2_sml.jpg'</img></div></div>","null","FIX","","","","","","","","","","",""
"","","","","","5adbc172e0feeb0001ca97ed","bdp_wmem","Wed Jul 27 2022 22:36:23 GMT-0700 (PDT)","1425520","Match,No Match","html-keyboard-response","141","1173594","0.0-7.0-2.21","","null","","<div class='trialBorder'><div class='vertical-center'><img style='vertical-align:center; align:center' src='img/fixation2_sml.jpg'></div><div class='arrayDiv3'><div class='tl'><img class='introPic' src='trustrating_stim/white_mw003.bmp'><br><font color='green'><strong>Share</strong></font></div><div class='tc'><img class='introPic' src='trustrating_stim/white_mw038.bmp'><br><font color='red'><strong>Keep</strong></font></div><div class='tr'><img class='introPic' src='trustrating_stim/white_mw092.bmp'><br><font color='red'><strong>Keep</strong></font></div></div></div>","null","ARRAY","3","trustrating_stim/white_mw003.bmp,trustrating_stim/white_mw038.bmp,trustrating_stim/white_mw092.bmp","1,0,0","Match","e","4500","","","","",""
"","","","","","5adbc172e0feeb0001ca97ed","bdp_wmem","Wed Jul 27 2022 22:36:23 GMT-0700 (PDT)","1425520","Match,No Match","html-keyboard-response","142","1177595","0.0-7.0-3.21","","null","","<div class='trialBorder'><div class='vertical-center'><img src='img/fixation2_sml.jpg'</img></div></div>","null","DELAY","","","","","","","","","","",""
"","","","","","5adbc172e0feeb0001ca97ed","bdp_wmem","Wed Jul 27 2022 22:36:23 GMT-0700 (PDT)","1425520","Match,No Match","html-keyboard-response","143","1178437","0.0-7.0-4.21","","841","","<div class='trialBorder'><div class='targDiv'><div class='tc'><img class='introPic' src='trustrating_stim/white_mw038.bmp'><br><font color='red'><strong>Keep</strong></font></div></div><div class='respDiv'><div class='respDivL'>Match<br>(e)</div><div class='respDivR'>No Match<br>(i)</div></div></div>","e","TARGET","3","trustrating_stim/white_mw003.bmp,trustrating_stim/white_mw038.bmp,trustrating_stim/white_mw092.bmp","1,0,0","Match","e","4500","trustrating_stim/white_mw038.bmp","red","Keep","REAL","1"
"","","","","","5adbc172e0feeb0001ca97ed","bdp_wmem","Wed Jul 27 2022 22:36:23 GMT-0700 (PDT)","1425520","Match,No Match","html-keyboard-response","144","1178938","0.0-7.0-5.21","","null","","<div class='trialBorder'><div class='vertical-center'><img src='img/correct.jpg'></div><div class='respDiv'><div class='respDivL'><font style='color:orange'>Match<br>(e)</font></div><div class='respDivR'>No Match<br>(i)</div></div></div>","null","FEEDBACK","","","","","","","","","","",""
"","","","","","5adbc172e0feeb0001ca97ed","bdp_wmem","Wed Jul 27 2022 22:36:23 GMT-0700 (PDT)","1425520","Match,No Match","html-keyboard-response","145","1179440","0.0-7.0-1.22","","null","","<div class='trialBorder'><div class='vertical-center'><img src='img/fixation2_sml.jpg'</img></div></div>","null","FIX","","","","","","","","","","",""
"","","","","","5adbc172e0feeb0001ca97ed","bdp_wmem","Wed Jul 27 2022 22:36:23 GMT-0700 (PDT)","1425520","Match,No Match","html-keyboard-response","146","1182441","0.0-7.0-2.22","","null","","<div class='trialBorder'><div class='vertical-center'><img style='vertical-align:center; align:center' src='img/fixation2_sml.jpg'></div><div class='arrayDiv2'><div class='tl'><img class='introPic' src='trustrating_stim/white_mw042.bmp'><br><font color='red'><strong>Keep</strong></font></div><div class='tr'><img class='introPic' src='trustrating_stim/white_mw013.bmp'><br><font color='green'><strong>Share</strong></font></div></div></div>","null","ARRAY","2","trustrating_stim/white_mw042.bmp,trustrating_stim/white_mw013.bmp","0,1","noMatchFace","i","3000","","","","",""
"","","","","","5adbc172e0feeb0001ca97ed","bdp_wmem","Wed Jul 27 2022 22:36:23 GMT-0700 (PDT)","1425520","Match,No Match","html-keyboard-response","147","1186443","0.0-7.0-3.22","","null","","<div class='trialBorder'><div class='vertical-center'><img src='img/fixation2_sml.jpg'</img></div></div>","null","DELAY","","","","","","","","","","",""
"","","","","","5adbc172e0feeb0001ca97ed","bdp_wmem","Wed Jul 27 2022 22:36:23 GMT-0700 (PDT)","1425520","Match,No Match","html-keyboard-response","148","1186471","0.0-7.0-4.22","","27","","<div class='trialBorder'><div class='targDiv'><div class='tc'><img class='introPic' src='trustrating_stim/white_mw040.bmp'><br><font color='red'><strong>Keep</strong></font></div></div><div class='respDiv'><div class='respDivL'>Match<br>(e)</div><div class='respDivR'>No Match<br>(i)</div></div></div>","i","TARGET","2","trustrating_stim/white_mw042.bmp,trustrating_stim/white_mw013.bmp","0,1","noMatchFace","i","3000","trustrating_stim/white_mw040.bmp","red","Keep","REAL","1"
"","","","","","5adbc172e0feeb0001ca97ed","bdp_wmem","Wed Jul 27 2022 22:36:23 GMT-0700 (PDT)","1425520","Match,No Match","html-keyboard-response","149","1186972","0.0-7.0-5.22","","null","","<div class='trialBorder'><div class='vertical-center'><img src='img/correct.jpg'></div><div class='respDiv'><div class='respDivL'>Match<br>(e)</div><div class='respDivR'><font style='color:orange'>No Match<br>(i)</font></div></div></div>","null","FEEDBACK","","","","","","","","","","",""
"","","","","","5adbc172e0feeb0001ca97ed","bdp_wmem","Wed Jul 27 2022 22:36:23 GMT-0700 (PDT)","1425520","Match,No Match","html-keyboard-response","150","1187473","0.0-7.0-1.23","","null","","<div class='trialBorder'><div class='vertical-center'><img src='img/fixation2_sml.jpg'</img></div></div>","null","FIX","","","","","","","","","","",""
"","","","","","5adbc172e0feeb0001ca97ed","bdp_wmem","Wed Jul 27 2022 22:36:23 GMT-0700 (PDT)","1425520","Match,No Match","html-keyboard-response","151","1190475","0.0-7.0-2.23","","null","","<div class='trialBorder'><div class='vertical-center'><img style='vertical-align:center; align:center' src='img/fixation2_sml.jpg'></div><div class='arrayDiv2'><div class='tl'><img class='introPic' src='trustrating_stim/white_mw013.bmp'><br><font color='red'><strong>Keep</strong></font></div><div class='tr'><img class='introPic' src='trustrating_stim/white_mw092.bmp'><br><font color='green'><strong>Share</strong></font></div></div></div>","null","ARRAY","2","trustrating_stim/white_mw013.bmp,trustrating_stim/white_mw092.bmp","0,1","noMatchOutcome","i","3000","","","","",""
"","","","","","5adbc172e0feeb0001ca97ed","bdp_wmem","Wed Jul 27 2022 22:36:23 GMT-0700 (PDT)","1425520","Match,No Match","html-keyboard-response","152","1194475","0.0-7.0-3.23","","null","","<div class='trialBorder'><div class='vertical-center'><img src='img/fixation2_sml.jpg'</img></div></div>","null","DELAY","","","","","","","","","","",""
"","","","","","5adbc172e0feeb0001ca97ed","bdp_wmem","Wed Jul 27 2022 22:36:23 GMT-0700 (PDT)","1425520","Match,No Match","html-keyboard-response","153","1195145","0.0-7.0-4.23","","669","","<div class='trialBorder'><div class='targDiv'><div class='tc'><img class='introPic' src='trustrating_stim/white_mw013.bmp'><br><font color='green'><strong>Share</strong></font></div></div><div class='respDiv'><div class='respDivL'>Match<br>(e)</div><div class='respDivR'>No Match<br>(i)</div></div></div>","e","TARGET","2","trustrating_stim/white_mw013.bmp,trustrating_stim/white_mw092.bmp","0,1","noMatchOutcome","i","3000","trustrating_stim/white_mw013.bmp","green","Share","REAL","0"
"","","","","","5adbc172e0feeb0001ca97ed","bdp_wmem","Wed Jul 27 2022 22:36:23 GMT-0700 (PDT)","1425520","Match,No Match","html-keyboard-response","154","1195647","0.0-7.0-5.23","","null","","<div class='trialBorder'><div class='vertical-center'><img src='img/error.jpg'></div><div class='respDiv'><div class='respDivL'><font style='color:orange'>Match<br>(e)</font></div><div class='respDivR'>No Match<br>(i)</div></div></div>","null","FEEDBACK","","","","","","","","","","",""
"","","","","","5adbc172e0feeb0001ca97ed","bdp_wmem","Wed Jul 27 2022 22:36:23 GMT-0700 (PDT)","1425520","Match,No Match","html-keyboard-response","155","1196149","0.0-7.0-1.24","","null","","<div class='trialBorder'><div class='vertical-center'><img src='img/fixation2_sml.jpg'</img></div></div>","null","FIX","","","","","","","","","","",""
"","","","","","5adbc172e0feeb0001ca97ed","bdp_wmem","Wed Jul 27 2022 22:36:23 GMT-0700 (PDT)","1425520","Match,No Match","html-keyboard-response","156","1197649","0.0-7.0-2.24","","null","","<div class='trialBorder'><div class='vertical-center'><img style='vertical-align:center; align:center' src='img/fixation2_sml.jpg'></div><div class='arrayDiv1'><div class='tc'><img class='introPic' src='trustrating_stim/white_mw042.bmp'><br><font color='green'><strong>Share</strong></font></div></div></div>","null","ARRAY","1","trustrating_stim/white_mw042.bmp","1","Match","e","1500","","","","",""
"","","","","","5adbc172e0feeb0001ca97ed","bdp_wmem","Wed Jul 27 2022 22:36:23 GMT-0700 (PDT)","1425520","Match,No Match","html-keyboard-response","157","1201651","0.0-7.0-3.24","","null","","<div class='trialBorder'><div class='vertical-center'><img src='img/fixation2_sml.jpg'</img></div></div>","null","DELAY","","","","","","","","","","",""
"","","","","","5adbc172e0feeb0001ca97ed","bdp_wmem","Wed Jul 27 2022 22:36:23 GMT-0700 (PDT)","1425520","Match,No Match","html-keyboard-response","158","1203619","0.0-7.0-4.24","","1968","","<div class='trialBorder'><div class='targDiv'><div class='tc'><img class='introPic' src='trustrating_stim/white_mw042.bmp'><br><font color='green'><strong>Share</strong></font></div></div><div class='respDiv'><div class='respDivL'>Match<br>(e)</div><div class='respDivR'>No Match<br>(i)</div></div></div>","e","TARGET","1","trustrating_stim/white_mw042.bmp","1","Match","e","1500","trustrating_stim/white_mw042.bmp","green","Share","REAL","1"
"","","","","","5adbc172e0feeb0001ca97ed","bdp_wmem","Wed Jul 27 2022 22:36:23 GMT-0700 (PDT)","1425520","Match,No Match","html-keyboard-response","159","1204121","0.0-7.0-5.24","","null","","<div class='trialBorder'><div class='vertical-center'><img src='img/correct.jpg'></div><div class='respDiv'><div class='respDivL'><font style='color:orange'>Match<br>(e)</font></div><div class='respDivR'>No Match<br>(i)</div></div></div>","null","FEEDBACK","","","","","","","","","","",""
"","","","","","5adbc172e0feeb0001ca97ed","bdp_wmem","Wed Jul 27 2022 22:36:23 GMT-0700 (PDT)","1425520","Match,No Match","html-keyboard-response","160","1204622","0.0-7.0-1.25","","null","","<div class='trialBorder'><div class='vertical-center'><img src='img/fixation2_sml.jpg'</img></div></div>","null","FIX","","","","","","","","","","",""
"","","","","","5adbc172e0feeb0001ca97ed","bdp_wmem","Wed Jul 27 2022 22:36:23 GMT-0700 (PDT)","1425520","Match,No Match","html-keyboard-response","161","1207623","0.0-7.0-2.25","","null","","<div class='trialBorder'><div class='vertical-center'><img style='vertical-align:center; align:center' src='img/fixation2_sml.jpg'></div><div class='arrayDiv2'><div class='tl'><img class='introPic' src='trustrating_stim/white_mw092.bmp'><br><font color='green'><strong>Share</strong></font></div><div class='tr'><img class='introPic' src='trustrating_stim/white_mw085.bmp'><br><font color='red'><strong>Keep</strong></font></div></div></div>","null","ARRAY","2","trustrating_stim/white_mw092.bmp,trustrating_stim/white_mw085.bmp","1,0","noMatchOutcome","i","3000","","","","",""
"","","","","","5adbc172e0feeb0001ca97ed","bdp_wmem","Wed Jul 27 2022 22:36:23 GMT-0700 (PDT)","1425520","Match,No Match","html-keyboard-response","162","1211623","0.0-7.0-3.25","","null","","<div class='trialBorder'><div class='vertical-center'><img src='img/fixation2_sml.jpg'</img></div></div>","null","DELAY","","","","","","","","","","",""
"","","","","","5adbc172e0feeb0001ca97ed","bdp_wmem","Wed Jul 27 2022 22:36:23 GMT-0700 (PDT)","1425520","Match,No Match","html-keyboard-response","163","1213250","0.0-7.0-4.25","","1627","","<div class='trialBorder'><div class='targDiv'><div class='tc'><img class='introPic' src='trustrating_stim/white_mw085.bmp'><br><font color='green'><strong>Share</strong></font></div></div><div class='respDiv'><div class='respDivL'>Match<br>(e)</div><div class='respDivR'>No Match<br>(i)</div></div></div>","e","TARGET","2","trustrating_stim/white_mw092.bmp,trustrating_stim/white_mw085.bmp","1,0","noMatchOutcome","i","3000","trustrating_stim/white_mw085.bmp","green","Share","REAL","0"
"","","","","","5adbc172e0feeb0001ca97ed","bdp_wmem","Wed Jul 27 2022 22:36:23 GMT-0700 (PDT)","1425520","Match,No Match","html-keyboard-response","164","1213752","0.0-7.0-5.25","","null","","<div class='trialBorder'><div class='vertical-center'><img src='img/error.jpg'></div><div class='respDiv'><div class='respDivL'><font style='color:orange'>Match<br>(e)</font></div><div class='respDivR'>No Match<br>(i)</div></div></div>","null","FEEDBACK","","","","","","","","","","",""
"","","","","","5adbc172e0feeb0001ca97ed","bdp_wmem","Wed Jul 27 2022 22:36:23 GMT-0700 (PDT)","1425520","Match,No Match","html-keyboard-response","165","1214254","0.0-7.0-1.26","","null","","<div class='trialBorder'><div class='vertical-center'><img src='img/fixation2_sml.jpg'</img></div></div>","null","FIX","","","","","","","","","","",""
"","","","","","5adbc172e0feeb0001ca97ed","bdp_wmem","Wed Jul 27 2022 22:36:23 GMT-0700 (PDT)","1425520","Match,No Match","html-keyboard-response","166","1217255","0.0-7.0-2.26","","null","","<div class='trialBorder'><div class='vertical-center'><img style='vertical-align:center; align:center' src='img/fixation2_sml.jpg'></div><div class='arrayDiv2'><div class='tl'><img class='introPic' src='trustrating_stim/white_mw012.bmp'><br><font color='green'><strong>Share</strong></font></div><div class='tr'><img class='introPic' src='trustrating_stim/white_mw013.bmp'><br><font color='red'><strong>Keep</strong></font></div></div></div>","null","ARRAY","2","trustrating_stim/white_mw012.bmp,trustrating_stim/white_mw013.bmp","1,0","Match","e","3000","","","","",""
"","","","","","5adbc172e0feeb0001ca97ed","bdp_wmem","Wed Jul 27 2022 22:36:23 GMT-0700 (PDT)","1425520","Match,No Match","html-keyboard-response","167","1221256","0.0-7.0-3.26","","null","","<div class='trialBorder'><div class='vertical-center'><img src='img/fixation2_sml.jpg'</img></div></div>","null","DELAY","","","","","","","","","","",""
"","","","","","5adbc172e0feeb0001ca97ed","bdp_wmem","Wed Jul 27 2022 22:36:23 GMT-0700 (PDT)","1425520","Match,No Match","html-keyboard-response","168","1222481","0.0-7.0-4.26","","1224","","<div class='trialBorder'><div class='targDiv'><div class='tc'><img class='introPic' src='trustrating_stim/white_mw013.bmp'><br><font color='red'><strong>Keep</strong></font></div></div><div class='respDiv'><div class='respDivL'>Match<br>(e)</div><div class='respDivR'>No Match<br>(i)</div></div></div>","i","TARGET","2","trustrating_stim/white_mw012.bmp,trustrating_stim/white_mw013.bmp","1,0","Match","e","3000","trustrating_stim/white_mw013.bmp","red","Keep","REAL","0"
"","","","","","5adbc172e0feeb0001ca97ed","bdp_wmem","Wed Jul 27 2022 22:36:23 GMT-0700 (PDT)","1425520","Match,No Match","html-keyboard-response","169","1222981","0.0-7.0-5.26","","null","","<div class='trialBorder'><div class='vertical-center'><img src='img/error.jpg'></div><div class='respDiv'><div class='respDivL'>Match<br>(e)</div><div class='respDivR'><font style='color:orange'>No Match<br>(i)</font></div></div></div>","null","FEEDBACK","","","","","","","","","","",""
"","","","","","5adbc172e0feeb0001ca97ed","bdp_wmem","Wed Jul 27 2022 22:36:23 GMT-0700 (PDT)","1425520","Match,No Match","html-keyboard-response","170","1223483","0.0-7.0-1.27","","null","","<div class='trialBorder'><div class='vertical-center'><img src='img/fixation2_sml.jpg'</img></div></div>","null","FIX","","","","","","","","","","",""
"","","","","","5adbc172e0feeb0001ca97ed","bdp_wmem","Wed Jul 27 2022 22:36:23 GMT-0700 (PDT)","1425520","Match,No Match","html-keyboard-response","171","1224985","0.0-7.0-2.27","","null","","<div class='trialBorder'><div class='vertical-center'><img style='vertical-align:center; align:center' src='img/fixation2_sml.jpg'></div><div class='arrayDiv1'><div class='tc'><img class='introPic' src='trustrating_stim/white_mw038.bmp'><br><font color='red'><strong>Keep</strong></font></div></div></div>","null","ARRAY","1","trustrating_stim/white_mw038.bmp","0","noMatchOutcome","i","1500","","","","",""
"","","","","","5adbc172e0feeb0001ca97ed","bdp_wmem","Wed Jul 27 2022 22:36:23 GMT-0700 (PDT)","1425520","Match,No Match","html-keyboard-response","172","1228986","0.0-7.0-3.27","","null","","<div class='trialBorder'><div class='vertical-center'><img src='img/fixation2_sml.jpg'</img></div></div>","null","DELAY","","","","","","","","","","",""
"","","","","","5adbc172e0feeb0001ca97ed","bdp_wmem","Wed Jul 27 2022 22:36:23 GMT-0700 (PDT)","1425520","Match,No Match","html-keyboard-response","173","1232656","0.0-7.0-4.27","","3670","","<div class='trialBorder'><div class='targDiv'><div class='tc'><img class='introPic' src='trustrating_stim/white_mw038.bmp'><br><font color='green'><strong>Share</strong></font></div></div><div class='respDiv'><div class='respDivL'>Match<br>(e)</div><div class='respDivR'>No Match<br>(i)</div></div></div>","e","TARGET","1","trustrating_stim/white_mw038.bmp","0","noMatchOutcome","i","1500","trustrating_stim/white_mw038.bmp","green","Share","REAL","0"
"","","","","","5adbc172e0feeb0001ca97ed","bdp_wmem","Wed Jul 27 2022 22:36:23 GMT-0700 (PDT)","1425520","Match,No Match","html-keyboard-response","174","1233158","0.0-7.0-5.27","","null","","<div class='trialBorder'><div class='vertical-center'><img src='img/error.jpg'></div><div class='respDiv'><div class='respDivL'><font style='color:orange'>Match<br>(e)</font></div><div class='respDivR'>No Match<br>(i)</div></div></div>","null","FEEDBACK","","","","","","","","","","",""
"","","","","","5adbc172e0feeb0001ca97ed","bdp_wmem","Wed Jul 27 2022 22:36:23 GMT-0700 (PDT)","1425520","Match,No Match","html-keyboard-response","175","1233659","0.0-7.0-1.28","","null","","<div class='trialBorder'><div class='vertical-center'><img src='img/fixation2_sml.jpg'</img></div></div>","null","FIX","","","","","","","","","","",""
"","","","","","5adbc172e0feeb0001ca97ed","bdp_wmem","Wed Jul 27 2022 22:36:23 GMT-0700 (PDT)","1425520","Match,No Match","html-keyboard-response","176","1235160","0.0-7.0-2.28","","null","","<div class='trialBorder'><div class='vertical-center'><img style='vertical-align:center; align:center' src='img/fixation2_sml.jpg'></div><div class='arrayDiv1'><div class='tc'><img class='introPic' src='trustrating_stim/white_mw092.bmp'><br><font color='red'><strong>Keep</strong></font></div></div></div>","null","ARRAY","1","trustrating_stim/white_mw092.bmp","0","noMatchFace","i","1500","","","","",""
"","","","","","5adbc172e0feeb0001ca97ed","bdp_wmem","Wed Jul 27 2022 22:36:23 GMT-0700 (PDT)","1425520","Match,No Match","html-keyboard-response","177","1239161","0.0-7.0-3.28","","null","","<div class='trialBorder'><div class='vertical-center'><img src='img/fixation2_sml.jpg'</img></div></div>","null","DELAY","","","","","","","","","","",""
"","","","","","5adbc172e0feeb0001ca97ed","bdp_wmem","Wed Jul 27 2022 22:36:23 GMT-0700 (PDT)","1425520","Match,No Match","html-keyboard-response","178","1239860","0.0-7.0-4.28","","698","","<div class='trialBorder'><div class='targDiv'><div class='tc'><img class='introPic' src='trustrating_stim/white_mw003.bmp'><br><font color='red'><strong>Keep</strong></font></div></div><div class='respDiv'><div class='respDivL'>Match<br>(e)</div><div class='respDivR'>No Match<br>(i)</div></div></div>","i","TARGET","1","trustrating_stim/white_mw092.bmp","0","noMatchFace","i","1500","trustrating_stim/white_mw003.bmp","red","Keep","REAL","1"
"","","","","","5adbc172e0feeb0001ca97ed","bdp_wmem","Wed Jul 27 2022 22:36:23 GMT-0700 (PDT)","1425520","Match,No Match","html-keyboard-response","179","1240361","0.0-7.0-5.28","","null","","<div class='trialBorder'><div class='vertical-center'><img src='img/correct.jpg'></div><div class='respDiv'><div class='respDivL'>Match<br>(e)</div><div class='respDivR'><font style='color:orange'>No Match<br>(i)</font></div></div></div>","null","FEEDBACK","","","","","","","","","","",""
"","","","","","5adbc172e0feeb0001ca97ed","bdp_wmem","Wed Jul 27 2022 22:36:23 GMT-0700 (PDT)","1425520","Match,No Match","html-keyboard-response","180","1240863","0.0-7.0-1.29","","null","","<div class='trialBorder'><div class='vertical-center'><img src='img/fixation2_sml.jpg'</img></div></div>","null","FIX","","","","","","","","","","",""
"","","","","","5adbc172e0feeb0001ca97ed","bdp_wmem","Wed Jul 27 2022 22:36:23 GMT-0700 (PDT)","1425520","Match,No Match","html-keyboard-response","181","1243864","0.0-7.0-2.29","","null","","<div class='trialBorder'><div class='vertical-center'><img style='vertical-align:center; align:center' src='img/fixation2_sml.jpg'></div><div class='arrayDiv2'><div class='tl'><img class='introPic' src='trustrating_stim/white_mw040.bmp'><br><font color='red'><strong>Keep</strong></font></div><div class='tr'><img class='introPic' src='trustrating_stim/white_mw003.bmp'><br><font color='green'><strong>Share</strong></font></div></div></div>","null","ARRAY","2","trustrating_stim/white_mw040.bmp,trustrating_stim/white_mw003.bmp","0,1","Match","e","3000","","","","",""
"","","","","","5adbc172e0feeb0001ca97ed","bdp_wmem","Wed Jul 27 2022 22:36:23 GMT-0700 (PDT)","1425520","Match,No Match","html-keyboard-response","182","1247865","0.0-7.0-3.29","","null","","<div class='trialBorder'><div class='vertical-center'><img src='img/fixation2_sml.jpg'</img></div></div>","null","DELAY","","","","","","","","","","",""
"","","","","","5adbc172e0feeb0001ca97ed","bdp_wmem","Wed Jul 27 2022 22:36:23 GMT-0700 (PDT)","1425520","Match,No Match","html-keyboard-response","183","1248762","0.0-7.0-4.29","","896","","<div class='trialBorder'><div class='targDiv'><div class='tc'><img class='introPic' src='trustrating_stim/white_mw040.bmp'><br><font color='red'><strong>Keep</strong></font></div></div><div class='respDiv'><div class='respDivL'>Match<br>(e)</div><div class='respDivR'>No Match<br>(i)</div></div></div>","e","TARGET","2","trustrating_stim/white_mw040.bmp,trustrating_stim/white_mw003.bmp","0,1","Match","e","3000","trustrating_stim/white_mw040.bmp","red","Keep","REAL","1"
"","","","","","5adbc172e0feeb0001ca97ed","bdp_wmem","Wed Jul 27 2022 22:36:23 GMT-0700 (PDT)","1425520","Match,No Match","html-keyboard-response","184","1249264","0.0-7.0-5.29","","null","","<div class='trialBorder'><div class='vertical-center'><img src='img/correct.jpg'></div><div class='respDiv'><div class='respDivL'><font style='color:orange'>Match<br>(e)</font></div><div class='respDivR'>No Match<br>(i)</div></div></div>","null","FEEDBACK","","","","","","","","","","",""
"","","","","","5adbc172e0feeb0001ca97ed","bdp_wmem","Wed Jul 27 2022 22:36:23 GMT-0700 (PDT)","1425520","Match,No Match","html-keyboard-response","185","1249765","0.0-7.0-1.30","","null","","<div class='trialBorder'><div class='vertical-center'><img src='img/fixation2_sml.jpg'</img></div></div>","null","FIX","","","","","","","","","","",""
"","","","","","5adbc172e0feeb0001ca97ed","bdp_wmem","Wed Jul 27 2022 22:36:23 GMT-0700 (PDT)","1425520","Match,No Match","html-keyboard-response","186","1251266","0.0-7.0-2.30","","null","","<div class='trialBorder'><div class='vertical-center'><img style='vertical-align:center; align:center' src='img/fixation2_sml.jpg'></div><div class='arrayDiv1'><div class='tc'><img class='introPic' src='trustrating_stim/white_mw010.bmp'><br><font color='red'><strong>Keep</strong></font></div></div></div>","null","ARRAY","1","trustrating_stim/white_mw010.bmp","0","noMatchFace","i","1500","","","","",""
"","","","","","5adbc172e0feeb0001ca97ed","bdp_wmem","Wed Jul 27 2022 22:36:23 GMT-0700 (PDT)","1425520","Match,No Match","html-keyboard-response","187","1255267","0.0-7.0-3.30","","null","","<div class='trialBorder'><div class='vertical-center'><img src='img/fixation2_sml.jpg'</img></div></div>","null","DELAY","","","","","","","","","","",""
"","","","","","5adbc172e0feeb0001ca97ed","bdp_wmem","Wed Jul 27 2022 22:36:23 GMT-0700 (PDT)","1425520","Match,No Match","html-keyboard-response","188","1257571","0.0-7.0-4.30","","2303","","<div class='trialBorder'><div class='targDiv'><div class='tc'><img class='introPic' src='trustrating_stim/white_mw092.bmp'><br><font color='red'><strong>Keep</strong></font></div></div><div class='respDiv'><div class='respDivL'>Match<br>(e)</div><div class='respDivR'>No Match<br>(i)</div></div></div>","e","TARGET","1","trustrating_stim/white_mw010.bmp","0","noMatchFace","i","1500","trustrating_stim/white_mw092.bmp","red","Keep","REAL","0"
"","","","","","5adbc172e0feeb0001ca97ed","bdp_wmem","Wed Jul 27 2022 22:36:23 GMT-0700 (PDT)","1425520","Match,No Match","html-keyboard-response","189","1258073","0.0-7.0-5.30","","null","","<div class='trialBorder'><div class='vertical-center'><img src='img/error.jpg'></div><div class='respDiv'><div class='respDivL'><font style='color:orange'>Match<br>(e)</font></div><div class='respDivR'>No Match<br>(i)</div></div></div>","null","FEEDBACK","","","","","","","","","","",""
"","","","","","5adbc172e0feeb0001ca97ed","bdp_wmem","Wed Jul 27 2022 22:36:23 GMT-0700 (PDT)","1425520","Match,No Match","html-keyboard-response","190","1258575","0.0-7.0-1.31","","null","","<div class='trialBorder'><div class='vertical-center'><img src='img/fixation2_sml.jpg'</img></div></div>","null","FIX","","","","","","","","","","",""
"","","","","","5adbc172e0feeb0001ca97ed","bdp_wmem","Wed Jul 27 2022 22:36:23 GMT-0700 (PDT)","1425520","Match,No Match","html-keyboard-response","191","1261577","0.0-7.0-2.31","","null","","<div class='trialBorder'><div class='vertical-center'><img style='vertical-align:center; align:center' src='img/fixation2_sml.jpg'></div><div class='arrayDiv2'><div class='tl'><img class='introPic' src='trustrating_stim/white_mw012.bmp'><br><font color='red'><strong>Keep</strong></font></div><div class='tr'><img class='introPic' src='trustrating_stim/white_mw092.bmp'><br><font color='green'><strong>Share</strong></font></div></div></div>","null","ARRAY","2","trustrating_stim/white_mw012.bmp,trustrating_stim/white_mw092.bmp","0,1","Match","e","3000","","","","",""
"","","","","","5adbc172e0feeb0001ca97ed","bdp_wmem","Wed Jul 27 2022 22:36:23 GMT-0700 (PDT)","1425520","Match,No Match","html-keyboard-response","192","1265579","0.0-7.0-3.31","","null","","<div class='trialBorder'><div class='vertical-center'><img src='img/fixation2_sml.jpg'</img></div></div>","null","DELAY","","","","","","","","","","",""
