"trial_type","trial_index","time_elapsed","internal_node_id","subject_id","task","startTime","totalTime","labels","view_history","rt","event","trial","time","trialtype","success","stimulus","key_press","stimType","arraySize","arrayFaces","arrayOutcomes","matchType","corrResp","arrayDur","targFace","targCol","targOutcome","trialType","corr","numBlurs"
"pavlovia","0","8","0.0-0.0","5e2cd786dc63ca2ff798a0ca","bdp_wmem","Mon Mar 13 2023 13:39:55 GMT-0500 (Central Daylight Time)","1985201","Match,No Match","","","","","","","","","","","","","","","","","","","","","",""
"instructions","1","1110134","0.0-1.0","5e2cd786dc63ca2ff798a0ca","bdp_wmem","Mon Mar 13 2023 13:39:55 GMT-0500 (Central Daylight Time)","1985201","Match,No Match","[{""page_index"":0,""viewing_time"":1110124}]","1110124","","","","","","","","","","","","","","","","","","","",""
"","","","","5e2cd786dc63ca2ff798a0ca","bdp_wmem","Mon Mar 13 2023 13:39:55 GMT-0500 (Central Daylight Time)","1985201","Match,No Match","","","fullscreenenter","2","1113045","fullscreenenter","","","","","","","","","","","","","","","",""
"fullscreen","2","1114024","0.0-2.0","5e2cd786dc63ca2ff798a0ca","bdp_wmem","Mon Mar 13 2023 13:39:55 GMT-0500 (Central Daylight Time)","1985201","Match,No Match","","","","","","","true","","","","","","","","","","","","","","",""
"instructions","3","1435871","0.0-4.0","5e2cd786dc63ca2ff798a0ca","bdp_wmem","Mon Mar 13 2023 13:39:55 GMT-0500 (Central Daylight Time)","1985201","Match,No Match","[{""page_index"":0,""viewing_time"":317752},{""page_index"":1,""viewing_time"":621},{""page_index"":2,""viewing_time"":924},{""page_index"":3,""viewing_time"":1085},{""page_index"":4,""viewing_time"":1457}]","321840","","","","","","","","","","","","","","","","","","","",""
"html-keyboard-response","4","1436378","0.0-5.0-1.0","5e2cd786dc63ca2ff798a0ca","bdp_wmem","Mon Mar 13 2023 13:39:55 GMT-0500 (Central Daylight Time)","1985201","Match,No Match","","null","","","","","","<div class='trialBorder'><div class='vertical-center'><img src='img/fixation2_sml.jpg'</img></div></div>","null","FIX","","","","","","","","","","","",""
"html-keyboard-response","5","1437890","0.0-5.0-2.0","5e2cd786dc63ca2ff798a0ca","bdp_wmem","Mon Mar 13 2023 13:39:55 GMT-0500 (Central Daylight Time)","1985201","Match,No Match","","null","","","","","","<div class='trialBorder'><div class='vertical-center'><img style='vertical-align:center; align:center' src='img/fixation2_sml.jpg'></div><div class='arrayDiv1'><div class='tc'><img class='introPic' src='trustrating_stim/white_mw003.bmp'><br><font color='green'><strong>Share</strong></font></div></div></div>","null","ARRAY","1","trustrating_stim/white_mw003.bmp","1","Match","e","1500","","","","","",""
"html-keyboard-response","6","1441897","0.0-5.0-3.0","5e2cd786dc63ca2ff798a0ca","bdp_wmem","Mon Mar 13 2023 13:39:55 GMT-0500 (Central Daylight Time)","1985201","Match,No Match","","null","","","","","","<div class='trialBorder'><div class='vertical-center'><img src='img/fixation2_sml.jpg'</img></div></div>","null","DELAY","","","","","","","","","","","",""
"html-keyboard-response","7","1442013","0.0-5.0-4.0","5e2cd786dc63ca2ff798a0ca","bdp_wmem","Mon Mar 13 2023 13:39:55 GMT-0500 (Central Daylight Time)","1985201","Match,No Match","","112","","","","","","<div class='trialBorder'><div class='targDiv'><div class='tc'><img class='introPic' src='trustrating_stim/white_mw003.bmp'><br><font color='green'><strong>Share</strong></font></div></div><div class='respDiv'><div class='respDivL'>Match<br>(e)</div><div class='respDivR'>No Match<br>(i)</div></div></div>","i","TARGET","1","trustrating_stim/white_mw003.bmp","1","Match","e","1500","trustrating_stim/white_mw003.bmp","green","Share","PRACTICE","0",""
"html-keyboard-response","8","1442521","0.0-5.0-5.0","5e2cd786dc63ca2ff798a0ca","bdp_wmem","Mon Mar 13 2023 13:39:55 GMT-0500 (Central Daylight Time)","1985201","Match,No Match","","null","","","","","","<div class='trialBorder'><div class='vertical-center'><img src='img/error.jpg'></div><div class='respDiv'><div class='respDivL'>Match<br>(e)</div><div class='respDivR'><font style='color:orange'>No Match<br>(i)</font></div></div></div>","null","FEEDBACK","","","","","","","","","","","",""
"html-keyboard-response","9","1443025","0.0-5.0-1.1","5e2cd786dc63ca2ff798a0ca","bdp_wmem","Mon Mar 13 2023 13:39:55 GMT-0500 (Central Daylight Time)","1985201","Match,No Match","","null","","","","","","<div class='trialBorder'><div class='vertical-center'><img src='img/fixation2_sml.jpg'</img></div></div>","null","FIX","","","","","","","","","","","",""
"html-keyboard-response","10","1446033","0.0-5.0-2.1","5e2cd786dc63ca2ff798a0ca","bdp_wmem","Mon Mar 13 2023 13:39:55 GMT-0500 (Central Daylight Time)","1985201","Match,No Match","","null","","","","","","<div class='trialBorder'><div class='vertical-center'><img style='vertical-align:center; align:center' src='img/fixation2_sml.jpg'></div><div class='arrayDiv2'><div class='tl'><img class='introPic' src='trustrating_stim/white_mw038.bmp'><br><font color='green'><strong>Share</strong></font></div><div class='tr'><img class='introPic' src='trustrating_stim/white_mw070.bmp'><br><font color='red'><strong>Keep</strong></font></div></div></div>","null","ARRAY","2","trustrating_stim/white_mw038.bmp,trustrating_stim/white_mw070.bmp","1,0","noMatchFace","i","3000","","","","","",""
"html-keyboard-response","11","1450041","0.0-5.0-3.1","5e2cd786dc63ca2ff798a0ca","bdp_wmem","Mon Mar 13 2023 13:39:55 GMT-0500 (Central Daylight Time)","1985201","Match,No Match","","null","","","","","","<div class='trialBorder'><div class='vertical-center'><img src='img/fixation2_sml.jpg'</img></div></div>","null","DELAY","","","","","","","","","","","",""
"html-keyboard-response","12","1450226","0.0-5.0-4.1","5e2cd786dc63ca2ff798a0ca","bdp_wmem","Mon Mar 13 2023 13:39:55 GMT-0500 (Central Daylight Time)","1985201","Match,No Match","","182","","","","","","<div class='trialBorder'><div class='targDiv'><div class='tc'><img class='introPic' src='trustrating_stim/white_mw013.bmp'><br><font color='green'><strong>Share</strong></font></div></div><div class='respDiv'><div class='respDivL'>Match<br>(e)</div><div class='respDivR'>No Match<br>(i)</div></div></div>","i","TARGET","2","trustrating_stim/white_mw038.bmp,trustrating_stim/white_mw070.bmp","1,0","noMatchFace","i","3000","trustrating_stim/white_mw013.bmp","green","Share","PRACTICE","1",""
"html-keyboard-response","13","1450729","0.0-5.0-5.1","5e2cd786dc63ca2ff798a0ca","bdp_wmem","Mon Mar 13 2023 13:39:55 GMT-0500 (Central Daylight Time)","1985201","Match,No Match","","null","","","","","","<div class='trialBorder'><div class='vertical-center'><img src='img/correct.jpg'></div><div class='respDiv'><div class='respDivL'>Match<br>(e)</div><div class='respDivR'><font style='color:orange'>No Match<br>(i)</font></div></div></div>","null","FEEDBACK","","","","","","","","","","","",""
"html-keyboard-response","14","1451233","0.0-5.0-1.2","5e2cd786dc63ca2ff798a0ca","bdp_wmem","Mon Mar 13 2023 13:39:55 GMT-0500 (Central Daylight Time)","1985201","Match,No Match","","null","","","","","","<div class='trialBorder'><div class='vertical-center'><img src='img/fixation2_sml.jpg'</img></div></div>","null","FIX","","","","","","","","","","","",""
"html-keyboard-response","15","1455737","0.0-5.0-2.2","5e2cd786dc63ca2ff798a0ca","bdp_wmem","Mon Mar 13 2023 13:39:55 GMT-0500 (Central Daylight Time)","1985201","Match,No Match","","null","","","","","","<div class='trialBorder'><div class='vertical-center'><img style='vertical-align:center; align:center' src='img/fixation2_sml.jpg'></div><div class='arrayDiv3'><div class='tl'><img class='introPic' src='trustrating_stim/white_mw092.bmp'><br><font color='red'><strong>Keep</strong></font></div><div class='tc'><img class='introPic' src='trustrating_stim/white_mw078.bmp'><br><font color='green'><strong>Share</strong></font></div><div class='tr'><img class='introPic' src='trustrating_stim/white_mw038.bmp'><br><font color='red'><strong>Keep</strong></font></div></div></div>","null","ARRAY","3","trustrating_stim/white_mw092.bmp,trustrating_stim/white_mw078.bmp,trustrating_stim/white_mw038.bmp","0,1,0","Match","e","4500","","","","","",""
"html-keyboard-response","16","1459745","0.0-5.0-3.2","5e2cd786dc63ca2ff798a0ca","bdp_wmem","Mon Mar 13 2023 13:39:55 GMT-0500 (Central Daylight Time)","1985201","Match,No Match","","null","","","","","","<div class='trialBorder'><div class='vertical-center'><img src='img/fixation2_sml.jpg'</img></div></div>","null","DELAY","","","","","","","","","","","",""
"html-keyboard-response","17","1468270","0.0-5.0-4.2","5e2cd786dc63ca2ff798a0ca","bdp_wmem","Mon Mar 13 2023 13:39:55 GMT-0500 (Central Daylight Time)","1985201","Match,No Match","","8523","","","","","","<div class='trialBorder'><div class='targDiv'><div class='tc'><img class='introPic' src='trustrating_stim/white_mw038.bmp'><br><font color='red'><strong>Keep</strong></font></div></div><div class='respDiv'><div class='respDivL'>Match<br>(e)</div><div class='respDivR'>No Match<br>(i)</div></div></div>","e","TARGET","3","trustrating_stim/white_mw092.bmp,trustrating_stim/white_mw078.bmp,trustrating_stim/white_mw038.bmp","0,1,0","Match","e","4500","trustrating_stim/white_mw038.bmp","red","Keep","PRACTICE","1",""
"html-keyboard-response","18","1468777","0.0-5.0-5.2","5e2cd786dc63ca2ff798a0ca","bdp_wmem","Mon Mar 13 2023 13:39:55 GMT-0500 (Central Daylight Time)","1985201","Match,No Match","","null","","","","","","<div class='trialBorder'><div class='vertical-center'><img src='img/correct.jpg'></div><div class='respDiv'><div class='respDivL'><font style='color:orange'>Match<br>(e)</font></div><div class='respDivR'>No Match<br>(i)</div></div></div>","null","FEEDBACK","","","","","","","","","","","",""
"html-keyboard-response","19","1469281","0.0-5.0-1.3","5e2cd786dc63ca2ff798a0ca","bdp_wmem","Mon Mar 13 2023 13:39:55 GMT-0500 (Central Daylight Time)","1985201","Match,No Match","","null","","","","","","<div class='trialBorder'><div class='vertical-center'><img src='img/fixation2_sml.jpg'</img></div></div>","null","FIX","","","","","","","","","","","",""
"html-keyboard-response","20","1472289","0.0-5.0-2.3","5e2cd786dc63ca2ff798a0ca","bdp_wmem","Mon Mar 13 2023 13:39:55 GMT-0500 (Central Daylight Time)","1985201","Match,No Match","","null","","","","","","<div class='trialBorder'><div class='vertical-center'><img style='vertical-align:center; align:center' src='img/fixation2_sml.jpg'></div><div class='arrayDiv2'><div class='tl'><img class='introPic' src='trustrating_stim/white_mw003.bmp'><br><font color='red'><strong>Keep</strong></font></div><div class='tr'><img class='introPic' src='trustrating_stim/white_mw092.bmp'><br><font color='green'><strong>Share</strong></font></div></div></div>","null","ARRAY","2","trustrating_stim/white_mw003.bmp,trustrating_stim/white_mw092.bmp","0,1","Match","e","3000","","","","","",""
"html-keyboard-response","21","1476297","0.0-5.0-3.3","5e2cd786dc63ca2ff798a0ca","bdp_wmem","Mon Mar 13 2023 13:39:55 GMT-0500 (Central Daylight Time)","1985201","Match,No Match","","null","","","","","","<div class='trialBorder'><div class='vertical-center'><img src='img/fixation2_sml.jpg'</img></div></div>","null","DELAY","","","","","","","","","","","",""
"html-keyboard-response","22","1479039","0.0-5.0-4.3","5e2cd786dc63ca2ff798a0ca","bdp_wmem","Mon Mar 13 2023 13:39:55 GMT-0500 (Central Daylight Time)","1985201","Match,No Match","","2739","","","","","","<div class='trialBorder'><div class='targDiv'><div class='tc'><img class='introPic' src='trustrating_stim/white_mw003.bmp'><br><font color='red'><strong>Keep</strong></font></div></div><div class='respDiv'><div class='respDivL'>Match<br>(e)</div><div class='respDivR'>No Match<br>(i)</div></div></div>","e","TARGET","2","trustrating_stim/white_mw003.bmp,trustrating_stim/white_mw092.bmp","0,1","Match","e","3000","trustrating_stim/white_mw003.bmp","red","Keep","PRACTICE","1",""
"html-keyboard-response","23","1479545","0.0-5.0-5.3","5e2cd786dc63ca2ff798a0ca","bdp_wmem","Mon Mar 13 2023 13:39:55 GMT-0500 (Central Daylight Time)","1985201","Match,No Match","","null","","","","","","<div class='trialBorder'><div class='vertical-center'><img src='img/correct.jpg'></div><div class='respDiv'><div class='respDivL'><font style='color:orange'>Match<br>(e)</font></div><div class='respDivR'>No Match<br>(i)</div></div></div>","null","FEEDBACK","","","","","","","","","","","",""
"html-keyboard-response","24","1480049","0.0-5.0-1.4","5e2cd786dc63ca2ff798a0ca","bdp_wmem","Mon Mar 13 2023 13:39:55 GMT-0500 (Central Daylight Time)","1985201","Match,No Match","","null","","","","","","<div class='trialBorder'><div class='vertical-center'><img src='img/fixation2_sml.jpg'</img></div></div>","null","FIX","","","","","","","","","","","",""
"html-keyboard-response","25","1481553","0.0-5.0-2.4","5e2cd786dc63ca2ff798a0ca","bdp_wmem","Mon Mar 13 2023 13:39:55 GMT-0500 (Central Daylight Time)","1985201","Match,No Match","","null","","","","","","<div class='trialBorder'><div class='vertical-center'><img style='vertical-align:center; align:center' src='img/fixation2_sml.jpg'></div><div class='arrayDiv1'><div class='tc'><img class='introPic' src='trustrating_stim/white_mw078.bmp'><br><font color='red'><strong>Keep</strong></font></div></div></div>","null","ARRAY","1","trustrating_stim/white_mw078.bmp","0","noMatchFace","i","1500","","","","","",""
"html-keyboard-response","26","1485561","0.0-5.0-3.4","5e2cd786dc63ca2ff798a0ca","bdp_wmem","Mon Mar 13 2023 13:39:55 GMT-0500 (Central Daylight Time)","1985201","Match,No Match","","null","","","","","","<div class='trialBorder'><div class='vertical-center'><img src='img/fixation2_sml.jpg'</img></div></div>","null","DELAY","","","","","","","","","","","",""
"html-keyboard-response","27","1486268","0.0-5.0-4.4","5e2cd786dc63ca2ff798a0ca","bdp_wmem","Mon Mar 13 2023 13:39:55 GMT-0500 (Central Daylight Time)","1985201","Match,No Match","","704","","","","","","<div class='trialBorder'><div class='targDiv'><div class='tc'><img class='introPic' src='trustrating_stim/white_mw038.bmp'><br><font color='red'><strong>Keep</strong></font></div></div><div class='respDiv'><div class='respDivL'>Match<br>(e)</div><div class='respDivR'>No Match<br>(i)</div></div></div>","e","TARGET","1","trustrating_stim/white_mw078.bmp","0","noMatchFace","i","1500","trustrating_stim/white_mw038.bmp","red","Keep","PRACTICE","0",""
"html-keyboard-response","28","1486776","0.0-5.0-5.4","5e2cd786dc63ca2ff798a0ca","bdp_wmem","Mon Mar 13 2023 13:39:55 GMT-0500 (Central Daylight Time)","1985201","Match,No Match","","null","","","","","","<div class='trialBorder'><div class='vertical-center'><img src='img/error.jpg'></div><div class='respDiv'><div class='respDivL'><font style='color:orange'>Match<br>(e)</font></div><div class='respDivR'>No Match<br>(i)</div></div></div>","null","FEEDBACK","","","","","","","","","","","",""
"html-keyboard-response","29","1487281","0.0-5.0-1.5","5e2cd786dc63ca2ff798a0ca","bdp_wmem","Mon Mar 13 2023 13:39:55 GMT-0500 (Central Daylight Time)","1985201","Match,No Match","","null","","","","","","<div class='trialBorder'><div class='vertical-center'><img src='img/fixation2_sml.jpg'</img></div></div>","null","FIX","","","","","","","","","","","",""
"html-keyboard-response","30","1491785","0.0-5.0-2.5","5e2cd786dc63ca2ff798a0ca","bdp_wmem","Mon Mar 13 2023 13:39:55 GMT-0500 (Central Daylight Time)","1985201","Match,No Match","","null","","","","","","<div class='trialBorder'><div class='vertical-center'><img style='vertical-align:center; align:center' src='img/fixation2_sml.jpg'></div><div class='arrayDiv3'><div class='tl'><img class='introPic' src='trustrating_stim/white_mw042.bmp'><br><font color='green'><strong>Share</strong></font></div><div class='tc'><img class='introPic' src='trustrating_stim/white_mw038.bmp'><br><font color='green'><strong>Share</strong></font></div><div class='tr'><img class='introPic' src='trustrating_stim/white_mw085.bmp'><br><font color='red'><strong>Keep</strong></font></div></div></div>","null","ARRAY","3","trustrating_stim/white_mw042.bmp,trustrating_stim/white_mw038.bmp,trustrating_stim/white_mw085.bmp","1,1,0","noMatchOutcome","i","4500","","","","","",""
"html-keyboard-response","31","1495793","0.0-5.0-3.5","5e2cd786dc63ca2ff798a0ca","bdp_wmem","Mon Mar 13 2023 13:39:55 GMT-0500 (Central Daylight Time)","1985201","Match,No Match","","null","","","","","","<div class='trialBorder'><div class='vertical-center'><img src='img/fixation2_sml.jpg'</img></div></div>","null","DELAY","","","","","","","","","","","",""
"html-keyboard-response","32","1498531","0.0-5.0-4.5","5e2cd786dc63ca2ff798a0ca","bdp_wmem","Mon Mar 13 2023 13:39:55 GMT-0500 (Central Daylight Time)","1985201","Match,No Match","","2735","","","","","","<div class='trialBorder'><div class='targDiv'><div class='tc'><img class='introPic' src='trustrating_stim/white_mw042.bmp'><br><font color='red'><strong>Keep</strong></font></div></div><div class='respDiv'><div class='respDivL'>Match<br>(e)</div><div class='respDivR'>No Match<br>(i)</div></div></div>","i","TARGET","3","trustrating_stim/white_mw042.bmp,trustrating_stim/white_mw038.bmp,trustrating_stim/white_mw085.bmp","1,1,0","noMatchOutcome","i","4500","trustrating_stim/white_mw042.bmp","red","Keep","PRACTICE","1",""
"html-keyboard-response","33","1499041","0.0-5.0-5.5","5e2cd786dc63ca2ff798a0ca","bdp_wmem","Mon Mar 13 2023 13:39:55 GMT-0500 (Central Daylight Time)","1985201","Match,No Match","","null","","","","","","<div class='trialBorder'><div class='vertical-center'><img src='img/correct.jpg'></div><div class='respDiv'><div class='respDivL'>Match<br>(e)</div><div class='respDivR'><font style='color:orange'>No Match<br>(i)</font></div></div></div>","null","FEEDBACK","","","","","","","","","","","",""
"instructions","34","1540465","0.0-6.0","5e2cd786dc63ca2ff798a0ca","bdp_wmem","Mon Mar 13 2023 13:39:55 GMT-0500 (Central Daylight Time)","1985201","Match,No Match","[{""page_index"":0,""viewing_time"":41423}]","41423","","","","","","","","","","","","","","","","","","","",""
"html-keyboard-response","35","1540969","0.0-7.0-1.0","5e2cd786dc63ca2ff798a0ca","bdp_wmem","Mon Mar 13 2023 13:39:55 GMT-0500 (Central Daylight Time)","1985201","Match,No Match","","null","","","","","","<div class='trialBorder'><div class='vertical-center'><img src='img/fixation2_sml.jpg'</img></div></div>","null","FIX","","","","","","","","","","","",""
"html-keyboard-response","36","1545481","0.0-7.0-2.0","5e2cd786dc63ca2ff798a0ca","bdp_wmem","Mon Mar 13 2023 13:39:55 GMT-0500 (Central Daylight Time)","1985201","Match,No Match","","null","","","","","","<div class='trialBorder'><div class='vertical-center'><img style='vertical-align:center; align:center' src='img/fixation2_sml.jpg'></div><div class='arrayDiv3'><div class='tl'><img class='introPic' src='trustrating_stim/white_mw038.bmp'><br><font color='red'><strong>Keep</strong></font></div><div class='tc'><img class='introPic' src='trustrating_stim/white_mw003.bmp'><br><font color='red'><strong>Keep</strong></font></div><div class='tr'><img class='introPic' src='trustrating_stim/white_mw012.bmp'><br><font color='green'><strong>Share</strong></font></div></div></div>","null","ARRAY","3","trustrating_stim/white_mw038.bmp,trustrating_stim/white_mw003.bmp,trustrating_stim/white_mw012.bmp","0,0,1","Match","e","4500","","","","","",""
"html-keyboard-response","37","1549488","0.0-7.0-3.0","5e2cd786dc63ca2ff798a0ca","bdp_wmem","Mon Mar 13 2023 13:39:55 GMT-0500 (Central Daylight Time)","1985201","Match,No Match","","null","","","","","","<div class='trialBorder'><div class='vertical-center'><img src='img/fixation2_sml.jpg'</img></div></div>","null","DELAY","","","","","","","","","","","",""
"html-keyboard-response","38","1549830","0.0-7.0-4.0","5e2cd786dc63ca2ff798a0ca","bdp_wmem","Mon Mar 13 2023 13:39:55 GMT-0500 (Central Daylight Time)","1985201","Match,No Match","","337","","","","","","<div class='trialBorder'><div class='targDiv'><div class='tc'><img class='introPic' src='trustrating_stim/white_mw012.bmp'><br><font color='green'><strong>Share</strong></font></div></div><div class='respDiv'><div class='respDivL'>Match<br>(e)</div><div class='respDivR'>No Match<br>(i)</div></div></div>","e","TARGET","3","trustrating_stim/white_mw038.bmp,trustrating_stim/white_mw003.bmp,trustrating_stim/white_mw012.bmp","0,0,1","Match","e","4500","trustrating_stim/white_mw012.bmp","green","Share","REAL","1",""
"html-keyboard-response","39","1550337","0.0-7.0-5.0","5e2cd786dc63ca2ff798a0ca","bdp_wmem","Mon Mar 13 2023 13:39:55 GMT-0500 (Central Daylight Time)","1985201","Match,No Match","","null","","","","","","<div class='trialBorder'><div class='vertical-center'><img src='img/correct.jpg'></div><div class='respDiv'><div class='respDivL'><font style='color:orange'>Match<br>(e)</font></div><div class='respDivR'>No Match<br>(i)</div></div></div>","null","FEEDBACK","","","","","","","","","","","",""
"html-keyboard-response","40","1550840","0.0-7.0-1.1","5e2cd786dc63ca2ff798a0ca","bdp_wmem","Mon Mar 13 2023 13:39:55 GMT-0500 (Central Daylight Time)","1985201","Match,No Match","","null","","","","","","<div class='trialBorder'><div class='vertical-center'><img src='img/fixation2_sml.jpg'</img></div></div>","null","FIX","","","","","","","","","","","",""
"html-keyboard-response","41","1552345","0.0-7.0-2.1","5e2cd786dc63ca2ff798a0ca","bdp_wmem","Mon Mar 13 2023 13:39:55 GMT-0500 (Central Daylight Time)","1985201","Match,No Match","","null","","","","","","<div class='trialBorder'><div class='vertical-center'><img style='vertical-align:center; align:center' src='img/fixation2_sml.jpg'></div><div class='arrayDiv1'><div class='tc'><img class='introPic' src='trustrating_stim/white_mw003.bmp'><br><font color='red'><strong>Keep</strong></font></div></div></div>","null","ARRAY","1","trustrating_stim/white_mw003.bmp","0","Match","e","1500","","","","","",""
"html-keyboard-response","42","1556353","0.0-7.0-3.1","5e2cd786dc63ca2ff798a0ca","bdp_wmem","Mon Mar 13 2023 13:39:55 GMT-0500 (Central Daylight Time)","1985201","Match,No Match","","null","","","","","","<div class='trialBorder'><div class='vertical-center'><img src='img/fixation2_sml.jpg'</img></div></div>","null","DELAY","","","","","","","","","","","",""
"html-keyboard-response","43","1556749","0.0-7.0-4.1","5e2cd786dc63ca2ff798a0ca","bdp_wmem","Mon Mar 13 2023 13:39:55 GMT-0500 (Central Daylight Time)","1985201","Match,No Match","","393","","","","","","<div class='trialBorder'><div class='targDiv'><div class='tc'><img class='introPic' src='trustrating_stim/white_mw003.bmp'><br><font color='red'><strong>Keep</strong></font></div></div><div class='respDiv'><div class='respDivL'>Match<br>(e)</div><div class='respDivR'>No Match<br>(i)</div></div></div>","e","TARGET","1","trustrating_stim/white_mw003.bmp","0","Match","e","1500","trustrating_stim/white_mw003.bmp","red","Keep","REAL","1",""
"html-keyboard-response","44","1557257","0.0-7.0-5.1","5e2cd786dc63ca2ff798a0ca","bdp_wmem","Mon Mar 13 2023 13:39:55 GMT-0500 (Central Daylight Time)","1985201","Match,No Match","","null","","","","","","<div class='trialBorder'><div class='vertical-center'><img src='img/correct.jpg'></div><div class='respDiv'><div class='respDivL'><font style='color:orange'>Match<br>(e)</font></div><div class='respDivR'>No Match<br>(i)</div></div></div>","null","FEEDBACK","","","","","","","","","","","",""
"html-keyboard-response","45","1557760","0.0-7.0-1.2","5e2cd786dc63ca2ff798a0ca","bdp_wmem","Mon Mar 13 2023 13:39:55 GMT-0500 (Central Daylight Time)","1985201","Match,No Match","","null","","","","","","<div class='trialBorder'><div class='vertical-center'><img src='img/fixation2_sml.jpg'</img></div></div>","null","FIX","","","","","","","","","","","",""
"html-keyboard-response","46","1559265","0.0-7.0-2.2","5e2cd786dc63ca2ff798a0ca","bdp_wmem","Mon Mar 13 2023 13:39:55 GMT-0500 (Central Daylight Time)","1985201","Match,No Match","","null","","","","","","<div class='trialBorder'><div class='vertical-center'><img style='vertical-align:center; align:center' src='img/fixation2_sml.jpg'></div><div class='arrayDiv1'><div class='tc'><img class='introPic' src='trustrating_stim/white_mw013.bmp'><br><font color='red'><strong>Keep</strong></font></div></div></div>","null","ARRAY","1","trustrating_stim/white_mw013.bmp","0","Match","e","1500","","","","","",""
"html-keyboard-response","47","1563273","0.0-7.0-3.2","5e2cd786dc63ca2ff798a0ca","bdp_wmem","Mon Mar 13 2023 13:39:55 GMT-0500 (Central Daylight Time)","1985201","Match,No Match","","null","","","","","","<div class='trialBorder'><div class='vertical-center'><img src='img/fixation2_sml.jpg'</img></div></div>","null","DELAY","","","","","","","","","","","",""
"html-keyboard-response","48","1565555","0.0-7.0-4.2","5e2cd786dc63ca2ff798a0ca","bdp_wmem","Mon Mar 13 2023 13:39:55 GMT-0500 (Central Daylight Time)","1985201","Match,No Match","","2280","","","","","","<div class='trialBorder'><div class='targDiv'><div class='tc'><img class='introPic' src='trustrating_stim/white_mw013.bmp'><br><font color='red'><strong>Keep</strong></font></div></div><div class='respDiv'><div class='respDivL'>Match<br>(e)</div><div class='respDivR'>No Match<br>(i)</div></div></div>","e","TARGET","1","trustrating_stim/white_mw013.bmp","0","Match","e","1500","trustrating_stim/white_mw013.bmp","red","Keep","REAL","1",""
"html-keyboard-response","49","1566065","0.0-7.0-5.2","5e2cd786dc63ca2ff798a0ca","bdp_wmem","Mon Mar 13 2023 13:39:55 GMT-0500 (Central Daylight Time)","1985201","Match,No Match","","null","","","","","","<div class='trialBorder'><div class='vertical-center'><img src='img/correct.jpg'></div><div class='respDiv'><div class='respDivL'><font style='color:orange'>Match<br>(e)</font></div><div class='respDivR'>No Match<br>(i)</div></div></div>","null","FEEDBACK","","","","","","","","","","","",""
"html-keyboard-response","50","1566569","0.0-7.0-1.3","5e2cd786dc63ca2ff798a0ca","bdp_wmem","Mon Mar 13 2023 13:39:55 GMT-0500 (Central Daylight Time)","1985201","Match,No Match","","null","","","","","","<div class='trialBorder'><div class='vertical-center'><img src='img/fixation2_sml.jpg'</img></div></div>","null","FIX","","","","","","","","","","","",""
"html-keyboard-response","51","1568073","0.0-7.0-2.3","5e2cd786dc63ca2ff798a0ca","bdp_wmem","Mon Mar 13 2023 13:39:55 GMT-0500 (Central Daylight Time)","1985201","Match,No Match","","null","","","","","","<div class='trialBorder'><div class='vertical-center'><img style='vertical-align:center; align:center' src='img/fixation2_sml.jpg'></div><div class='arrayDiv1'><div class='tc'><img class='introPic' src='trustrating_stim/white_mw010.bmp'><br><font color='green'><strong>Share</strong></font></div></div></div>","null","ARRAY","1","trustrating_stim/white_mw010.bmp","1","noMatchOutcome","i","1500","","","","","",""
"html-keyboard-response","52","1572080","0.0-7.0-3.3","5e2cd786dc63ca2ff798a0ca","bdp_wmem","Mon Mar 13 2023 13:39:55 GMT-0500 (Central Daylight Time)","1985201","Match,No Match","","null","","","","","","<div class='trialBorder'><div class='vertical-center'><img src='img/fixation2_sml.jpg'</img></div></div>","null","DELAY","","","","","","","","","","","",""
"html-keyboard-response","53","1572392","0.0-7.0-4.3","5e2cd786dc63ca2ff798a0ca","bdp_wmem","Mon Mar 13 2023 13:39:55 GMT-0500 (Central Daylight Time)","1985201","Match,No Match","","308","","","","","","<div class='trialBorder'><div class='targDiv'><div class='tc'><img class='introPic' src='trustrating_stim/white_mw010.bmp'><br><font color='red'><strong>Keep</strong></font></div></div><div class='respDiv'><div class='respDivL'>Match<br>(e)</div><div class='respDivR'>No Match<br>(i)</div></div></div>","e","TARGET","1","trustrating_stim/white_mw010.bmp","1","noMatchOutcome","i","1500","trustrating_stim/white_mw010.bmp","red","Keep","REAL","0",""
"html-keyboard-response","54","1572897","0.0-7.0-5.3","5e2cd786dc63ca2ff798a0ca","bdp_wmem","Mon Mar 13 2023 13:39:55 GMT-0500 (Central Daylight Time)","1985201","Match,No Match","","null","","","","","","<div class='trialBorder'><div class='vertical-center'><img src='img/error.jpg'></div><div class='respDiv'><div class='respDivL'><font style='color:orange'>Match<br>(e)</font></div><div class='respDivR'>No Match<br>(i)</div></div></div>","null","FEEDBACK","","","","","","","","","","","",""
"html-keyboard-response","55","1573401","0.0-7.0-1.4","5e2cd786dc63ca2ff798a0ca","bdp_wmem","Mon Mar 13 2023 13:39:55 GMT-0500 (Central Daylight Time)","1985201","Match,No Match","","null","","","","","","<div class='trialBorder'><div class='vertical-center'><img src='img/fixation2_sml.jpg'</img></div></div>","null","FIX","","","","","","","","","","","",""
"html-keyboard-response","56","1576408","0.0-7.0-2.4","5e2cd786dc63ca2ff798a0ca","bdp_wmem","Mon Mar 13 2023 13:39:55 GMT-0500 (Central Daylight Time)","1985201","Match,No Match","","null","","","","","","<div class='trialBorder'><div class='vertical-center'><img style='vertical-align:center; align:center' src='img/fixation2_sml.jpg'></div><div class='arrayDiv2'><div class='tl'><img class='introPic' src='trustrating_stim/white_mw003.bmp'><br><font color='red'><strong>Keep</strong></font></div><div class='tr'><img class='introPic' src='trustrating_stim/white_mw010.bmp'><br><font color='green'><strong>Share</strong></font></div></div></div>","null","ARRAY","2","trustrating_stim/white_mw003.bmp,trustrating_stim/white_mw010.bmp","0,1","noMatchFace","i","3000","","","","","",""
"html-keyboard-response","57","1580417","0.0-7.0-3.4","5e2cd786dc63ca2ff798a0ca","bdp_wmem","Mon Mar 13 2023 13:39:55 GMT-0500 (Central Daylight Time)","1985201","Match,No Match","","null","","","","","","<div class='trialBorder'><div class='vertical-center'><img src='img/fixation2_sml.jpg'</img></div></div>","null","DELAY","","","","","","","","","","","",""
"html-keyboard-response","58","1580921","0.0-7.0-4.4","5e2cd786dc63ca2ff798a0ca","bdp_wmem","Mon Mar 13 2023 13:39:55 GMT-0500 (Central Daylight Time)","1985201","Match,No Match","","501","","","","","","<div class='trialBorder'><div class='targDiv'><div class='tc'><img class='introPic' src='trustrating_stim/white_mw085.bmp'><br><font color='red'><strong>Keep</strong></font></div></div><div class='respDiv'><div class='respDivL'>Match<br>(e)</div><div class='respDivR'>No Match<br>(i)</div></div></div>","e","TARGET","2","trustrating_stim/white_mw003.bmp,trustrating_stim/white_mw010.bmp","0,1","noMatchFace","i","3000","trustrating_stim/white_mw085.bmp","red","Keep","REAL","0",""
"html-keyboard-response","59","1581425","0.0-7.0-5.4","5e2cd786dc63ca2ff798a0ca","bdp_wmem","Mon Mar 13 2023 13:39:55 GMT-0500 (Central Daylight Time)","1985201","Match,No Match","","null","","","","","","<div class='trialBorder'><div class='vertical-center'><img src='img/error.jpg'></div><div class='respDiv'><div class='respDivL'><font style='color:orange'>Match<br>(e)</font></div><div class='respDivR'>No Match<br>(i)</div></div></div>","null","FEEDBACK","","","","","","","","","","","",""
"html-keyboard-response","60","1581929","0.0-7.0-1.5","5e2cd786dc63ca2ff798a0ca","bdp_wmem","Mon Mar 13 2023 13:39:55 GMT-0500 (Central Daylight Time)","1985201","Match,No Match","","null","","","","","","<div class='trialBorder'><div class='vertical-center'><img src='img/fixation2_sml.jpg'</img></div></div>","null","FIX","","","","","","","","","","","",""
"html-keyboard-response","61","1584937","0.0-7.0-2.5","5e2cd786dc63ca2ff798a0ca","bdp_wmem","Mon Mar 13 2023 13:39:55 GMT-0500 (Central Daylight Time)","1985201","Match,No Match","","null","","","","","","<div class='trialBorder'><div class='vertical-center'><img style='vertical-align:center; align:center' src='img/fixation2_sml.jpg'></div><div class='arrayDiv2'><div class='tl'><img class='introPic' src='trustrating_stim/white_mw012.bmp'><br><font color='green'><strong>Share</strong></font></div><div class='tr'><img class='introPic' src='trustrating_stim/white_mw038.bmp'><br><font color='red'><strong>Keep</strong></font></div></div></div>","null","ARRAY","2","trustrating_stim/white_mw012.bmp,trustrating_stim/white_mw038.bmp","1,0","Match","e","3000","","","","","",""
"html-keyboard-response","62","1588945","0.0-7.0-3.5","5e2cd786dc63ca2ff798a0ca","bdp_wmem","Mon Mar 13 2023 13:39:55 GMT-0500 (Central Daylight Time)","1985201","Match,No Match","","null","","","","","","<div class='trialBorder'><div class='vertical-center'><img src='img/fixation2_sml.jpg'</img></div></div>","null","DELAY","","","","","","","","","","","",""
"html-keyboard-response","63","1589252","0.0-7.0-4.5","5e2cd786dc63ca2ff798a0ca","bdp_wmem","Mon Mar 13 2023 13:39:55 GMT-0500 (Central Daylight Time)","1985201","Match,No Match","","303","","","","","","<div class='trialBorder'><div class='targDiv'><div class='tc'><img class='introPic' src='trustrating_stim/white_mw038.bmp'><br><font color='red'><strong>Keep</strong></font></div></div><div class='respDiv'><div class='respDivL'>Match<br>(e)</div><div class='respDivR'>No Match<br>(i)</div></div></div>","i","TARGET","2","trustrating_stim/white_mw012.bmp,trustrating_stim/white_mw038.bmp","1,0","Match","e","3000","trustrating_stim/white_mw038.bmp","red","Keep","REAL","0",""
"html-keyboard-response","64","1589761","0.0-7.0-5.5","5e2cd786dc63ca2ff798a0ca","bdp_wmem","Mon Mar 13 2023 13:39:55 GMT-0500 (Central Daylight Time)","1985201","Match,No Match","","null","","","","","","<div class='trialBorder'><div class='vertical-center'><img src='img/error.jpg'></div><div class='respDiv'><div class='respDivL'>Match<br>(e)</div><div class='respDivR'><font style='color:orange'>No Match<br>(i)</font></div></div></div>","null","FEEDBACK","","","","","","","","","","","",""
"html-keyboard-response","65","1590265","0.0-7.0-1.6","5e2cd786dc63ca2ff798a0ca","bdp_wmem","Mon Mar 13 2023 13:39:55 GMT-0500 (Central Daylight Time)","1985201","Match,No Match","","null","","","","","","<div class='trialBorder'><div class='vertical-center'><img src='img/fixation2_sml.jpg'</img></div></div>","null","FIX","","","","","","","","","","","",""
"","","","","5e2cd786dc63ca2ff798a0ca","bdp_wmem","Mon Mar 13 2023 13:39:55 GMT-0500 (Central Daylight Time)","1985201","Match,No Match","","","blur","66","1590842","blurevent","","","","","","","","","","","","","","","","1"
"","","","","5e2cd786dc63ca2ff798a0ca","bdp_wmem","Mon Mar 13 2023 13:39:55 GMT-0500 (Central Daylight Time)","1985201","Match,No Match","","","focus","66","1590844","focusevent","","","","","","","","","","","","","","","",""
"html-keyboard-response","66","1594769","0.0-7.0-2.6","5e2cd786dc63ca2ff798a0ca","bdp_wmem","Mon Mar 13 2023 13:39:55 GMT-0500 (Central Daylight Time)","1985201","Match,No Match","","null","blur","66","1590842","","","<div class='trialBorder'><div class='vertical-center'><img style='vertical-align:center; align:center' src='img/fixation2_sml.jpg'></div><div class='arrayDiv3'><div class='tl'><img class='introPic' src='trustrating_stim/white_mw091.bmp'><br><font color='red'><strong>Keep</strong></font></div><div class='tc'><img class='introPic' src='trustrating_stim/white_mw070.bmp'><br><font color='green'><strong>Share</strong></font></div><div class='tr'><img class='introPic' src='trustrating_stim/white_mw092.bmp'><br><font color='green'><strong>Share</strong></font></div></div></div>","null","ARRAY","3","trustrating_stim/white_mw091.bmp,trustrating_stim/white_mw070.bmp,trustrating_stim/white_mw092.bmp","0,1,1","noMatchFace","i","4500","","","","","","1"
"html-keyboard-response","67","1598777","0.0-7.0-3.6","5e2cd786dc63ca2ff798a0ca","bdp_wmem","Mon Mar 13 2023 13:39:55 GMT-0500 (Central Daylight Time)","1985201","Match,No Match","","null","blur","66","1590842","","","<div class='trialBorder'><div class='vertical-center'><img src='img/fixation2_sml.jpg'</img></div></div>","null","DELAY","","","","","","","","","","","","1"
"html-keyboard-response","68","1599742","0.0-7.0-4.6","5e2cd786dc63ca2ff798a0ca","bdp_wmem","Mon Mar 13 2023 13:39:55 GMT-0500 (Central Daylight Time)","1985201","Match,No Match","","963","blur","66","1590842","","","<div class='trialBorder'><div class='targDiv'><div class='tc'><img class='introPic' src='trustrating_stim/white_mw085.bmp'><br><font color='green'><strong>Share</strong></font></div></div><div class='respDiv'><div class='respDivL'>Match<br>(e)</div><div class='respDivR'>No Match<br>(i)</div></div></div>","e","TARGET","3","trustrating_stim/white_mw091.bmp,trustrating_stim/white_mw070.bmp,trustrating_stim/white_mw092.bmp","0,1,1","noMatchFace","i","4500","trustrating_stim/white_mw085.bmp","green","Share","REAL","0","1"
"html-keyboard-response","69","1600249","0.0-7.0-5.6","5e2cd786dc63ca2ff798a0ca","bdp_wmem","Mon Mar 13 2023 13:39:55 GMT-0500 (Central Daylight Time)","1985201","Match,No Match","","null","blur","66","1590842","","","<div class='trialBorder'><div class='vertical-center'><img src='img/error.jpg'></div><div class='respDiv'><div class='respDivL'><font style='color:orange'>Match<br>(e)</font></div><div class='respDivR'>No Match<br>(i)</div></div></div>","null","FEEDBACK","","","","","","","","","","","","1"
"image-keyboard-response","70","1602706","0.0-7.0-0.7-0.7","5e2cd786dc63ca2ff798a0ca","bdp_wmem","Mon Mar 13 2023 13:39:55 GMT-0500 (Central Daylight Time)","1985201","Match,No Match","","2455","","","","blurwarn","","","49","","","","","","","","","","","","","1"
"html-keyboard-response","71","1603465","0.0-7.0-1.7","5e2cd786dc63ca2ff798a0ca","bdp_wmem","Mon Mar 13 2023 13:39:55 GMT-0500 (Central Daylight Time)","1985201","Match,No Match","","null","","","","","","<div class='trialBorder'><div class='vertical-center'><img src='img/fixation2_sml.jpg'</img></div></div>","null","FIX","","","","","","","","","","","",""
"html-keyboard-response","72","1607969","0.0-7.0-2.7","5e2cd786dc63ca2ff798a0ca","bdp_wmem","Mon Mar 13 2023 13:39:55 GMT-0500 (Central Daylight Time)","1985201","Match,No Match","","null","","","","","","<div class='trialBorder'><div class='vertical-center'><img style='vertical-align:center; align:center' src='img/fixation2_sml.jpg'></div><div class='arrayDiv3'><div class='tl'><img class='introPic' src='trustrating_stim/white_mw013.bmp'><br><font color='green'><strong>Share</strong></font></div><div class='tc'><img class='introPic' src='trustrating_stim/white_mw085.bmp'><br><font color='red'><strong>Keep</strong></font></div><div class='tr'><img class='introPic' src='trustrating_stim/white_mw012.bmp'><br><font color='green'><strong>Share</strong></font></div></div></div>","null","ARRAY","3","trustrating_stim/white_mw013.bmp,trustrating_stim/white_mw085.bmp,trustrating_stim/white_mw012.bmp","1,0,1","Match","e","4500","","","","","",""
"html-keyboard-response","73","1611979","0.0-7.0-3.7","5e2cd786dc63ca2ff798a0ca","bdp_wmem","Mon Mar 13 2023 13:39:55 GMT-0500 (Central Daylight Time)","1985201","Match,No Match","","null","","","","","","<div class='trialBorder'><div class='vertical-center'><img src='img/fixation2_sml.jpg'</img></div></div>","null","DELAY","","","","","","","","","","","",""
"html-keyboard-response","74","1612391","0.0-7.0-4.7","5e2cd786dc63ca2ff798a0ca","bdp_wmem","Mon Mar 13 2023 13:39:55 GMT-0500 (Central Daylight Time)","1985201","Match,No Match","","408","","","","","","<div class='trialBorder'><div class='targDiv'><div class='tc'><img class='introPic' src='trustrating_stim/white_mw012.bmp'><br><font color='green'><strong>Share</strong></font></div></div><div class='respDiv'><div class='respDivL'>Match<br>(e)</div><div class='respDivR'>No Match<br>(i)</div></div></div>","i","TARGET","3","trustrating_stim/white_mw013.bmp,trustrating_stim/white_mw085.bmp,trustrating_stim/white_mw012.bmp","1,0,1","Match","e","4500","trustrating_stim/white_mw012.bmp","green","Share","REAL","0",""
"html-keyboard-response","75","1612902","0.0-7.0-5.7","5e2cd786dc63ca2ff798a0ca","bdp_wmem","Mon Mar 13 2023 13:39:55 GMT-0500 (Central Daylight Time)","1985201","Match,No Match","","null","","","","","","<div class='trialBorder'><div class='vertical-center'><img src='img/error.jpg'></div><div class='respDiv'><div class='respDivL'>Match<br>(e)</div><div class='respDivR'><font style='color:orange'>No Match<br>(i)</font></div></div></div>","null","FEEDBACK","","","","","","","","","","","",""
"html-keyboard-response","76","1613409","0.0-7.0-1.8","5e2cd786dc63ca2ff798a0ca","bdp_wmem","Mon Mar 13 2023 13:39:55 GMT-0500 (Central Daylight Time)","1985201","Match,No Match","","null","","","","","","<div class='trialBorder'><div class='vertical-center'><img src='img/fixation2_sml.jpg'</img></div></div>","null","FIX","","","","","","","","","","","",""
"html-keyboard-response","77","1614912","0.0-7.0-2.8","5e2cd786dc63ca2ff798a0ca","bdp_wmem","Mon Mar 13 2023 13:39:55 GMT-0500 (Central Daylight Time)","1985201","Match,No Match","","null","","","","","","<div class='trialBorder'><div class='vertical-center'><img style='vertical-align:center; align:center' src='img/fixation2_sml.jpg'></div><div class='arrayDiv1'><div class='tc'><img class='introPic' src='trustrating_stim/white_mw078.bmp'><br><font color='red'><strong>Keep</strong></font></div></div></div>","null","ARRAY","1","trustrating_stim/white_mw078.bmp","0","noMatchFace","i","1500","","","","","",""
"html-keyboard-response","78","1618921","0.0-7.0-3.8","5e2cd786dc63ca2ff798a0ca","bdp_wmem","Mon Mar 13 2023 13:39:55 GMT-0500 (Central Daylight Time)","1985201","Match,No Match","","null","","","","","","<div class='trialBorder'><div class='vertical-center'><img src='img/fixation2_sml.jpg'</img></div></div>","null","DELAY","","","","","","","","","","","",""
"html-keyboard-response","79","1619084","0.0-7.0-4.8","5e2cd786dc63ca2ff798a0ca","bdp_wmem","Mon Mar 13 2023 13:39:55 GMT-0500 (Central Daylight Time)","1985201","Match,No Match","","159","","","","","","<div class='trialBorder'><div class='targDiv'><div class='tc'><img class='introPic' src='trustrating_stim/white_mw038.bmp'><br><font color='red'><strong>Keep</strong></font></div></div><div class='respDiv'><div class='respDivL'>Match<br>(e)</div><div class='respDivR'>No Match<br>(i)</div></div></div>","e","TARGET","1","trustrating_stim/white_mw078.bmp","0","noMatchFace","i","1500","trustrating_stim/white_mw038.bmp","red","Keep","REAL","0",""
"html-keyboard-response","80","1619593","0.0-7.0-5.8","5e2cd786dc63ca2ff798a0ca","bdp_wmem","Mon Mar 13 2023 13:39:55 GMT-0500 (Central Daylight Time)","1985201","Match,No Match","","null","","","","","","<div class='trialBorder'><div class='vertical-center'><img src='img/error.jpg'></div><div class='respDiv'><div class='respDivL'><font style='color:orange'>Match<br>(e)</font></div><div class='respDivR'>No Match<br>(i)</div></div></div>","null","FEEDBACK","","","","","","","","","","","",""
"html-keyboard-response","81","1620097","0.0-7.0-1.9","5e2cd786dc63ca2ff798a0ca","bdp_wmem","Mon Mar 13 2023 13:39:55 GMT-0500 (Central Daylight Time)","1985201","Match,No Match","","null","","","","","","<div class='trialBorder'><div class='vertical-center'><img src='img/fixation2_sml.jpg'</img></div></div>","null","FIX","","","","","","","","","","","",""
"html-keyboard-response","82","1623105","0.0-7.0-2.9","5e2cd786dc63ca2ff798a0ca","bdp_wmem","Mon Mar 13 2023 13:39:55 GMT-0500 (Central Daylight Time)","1985201","Match,No Match","","null","","","","","","<div class='trialBorder'><div class='vertical-center'><img style='vertical-align:center; align:center' src='img/fixation2_sml.jpg'></div><div class='arrayDiv2'><div class='tl'><img class='introPic' src='trustrating_stim/white_mw070.bmp'><br><font color='green'><strong>Share</strong></font></div><div class='tr'><img class='introPic' src='trustrating_stim/white_mw091.bmp'><br><font color='red'><strong>Keep</strong></font></div></div></div>","null","ARRAY","2","trustrating_stim/white_mw070.bmp,trustrating_stim/white_mw091.bmp","1,0","Match","e","3000","","","","","",""
"html-keyboard-response","83","1627113","0.0-7.0-3.9","5e2cd786dc63ca2ff798a0ca","bdp_wmem","Mon Mar 13 2023 13:39:55 GMT-0500 (Central Daylight Time)","1985201","Match,No Match","","null","","","","","","<div class='trialBorder'><div class='vertical-center'><img src='img/fixation2_sml.jpg'</img></div></div>","null","DELAY","","","","","","","","","","","",""
"html-keyboard-response","84","1627401","0.0-7.0-4.9","5e2cd786dc63ca2ff798a0ca","bdp_wmem","Mon Mar 13 2023 13:39:55 GMT-0500 (Central Daylight Time)","1985201","Match,No Match","","285","","","","","","<div class='trialBorder'><div class='targDiv'><div class='tc'><img class='introPic' src='trustrating_stim/white_mw091.bmp'><br><font color='red'><strong>Keep</strong></font></div></div><div class='respDiv'><div class='respDivL'>Match<br>(e)</div><div class='respDivR'>No Match<br>(i)</div></div></div>","e","TARGET","2","trustrating_stim/white_mw070.bmp,trustrating_stim/white_mw091.bmp","1,0","Match","e","3000","trustrating_stim/white_mw091.bmp","red","Keep","REAL","1",""
"html-keyboard-response","85","1627905","0.0-7.0-5.9","5e2cd786dc63ca2ff798a0ca","bdp_wmem","Mon Mar 13 2023 13:39:55 GMT-0500 (Central Daylight Time)","1985201","Match,No Match","","null","","","","","","<div class='trialBorder'><div class='vertical-center'><img src='img/correct.jpg'></div><div class='respDiv'><div class='respDivL'><font style='color:orange'>Match<br>(e)</font></div><div class='respDivR'>No Match<br>(i)</div></div></div>","null","FEEDBACK","","","","","","","","","","","",""
"html-keyboard-response","86","1628409","0.0-7.0-1.10","5e2cd786dc63ca2ff798a0ca","bdp_wmem","Mon Mar 13 2023 13:39:55 GMT-0500 (Central Daylight Time)","1985201","Match,No Match","","null","","","","","","<div class='trialBorder'><div class='vertical-center'><img src='img/fixation2_sml.jpg'</img></div></div>","null","FIX","","","","","","","","","","","",""
"html-keyboard-response","87","1629913","0.0-7.0-2.10","5e2cd786dc63ca2ff798a0ca","bdp_wmem","Mon Mar 13 2023 13:39:55 GMT-0500 (Central Daylight Time)","1985201","Match,No Match","","null","","","","","","<div class='trialBorder'><div class='vertical-center'><img style='vertical-align:center; align:center' src='img/fixation2_sml.jpg'></div><div class='arrayDiv1'><div class='tc'><img class='introPic' src='trustrating_stim/white_mw038.bmp'><br><font color='green'><strong>Share</strong></font></div></div></div>","null","ARRAY","1","trustrating_stim/white_mw038.bmp","1","noMatchFace","i","1500","","","","","",""
"html-keyboard-response","88","1633921","0.0-7.0-3.10","5e2cd786dc63ca2ff798a0ca","bdp_wmem","Mon Mar 13 2023 13:39:55 GMT-0500 (Central Daylight Time)","1985201","Match,No Match","","null","","","","","","<div class='trialBorder'><div class='vertical-center'><img src='img/fixation2_sml.jpg'</img></div></div>","null","DELAY","","","","","","","","","","","",""
"html-keyboard-response","89","1634311","0.0-7.0-4.10","5e2cd786dc63ca2ff798a0ca","bdp_wmem","Mon Mar 13 2023 13:39:55 GMT-0500 (Central Daylight Time)","1985201","Match,No Match","","388","","","","","","<div class='trialBorder'><div class='targDiv'><div class='tc'><img class='introPic' src='trustrating_stim/white_mw040.bmp'><br><font color='green'><strong>Share</strong></font></div></div><div class='respDiv'><div class='respDivL'>Match<br>(e)</div><div class='respDivR'>No Match<br>(i)</div></div></div>","e","TARGET","1","trustrating_stim/white_mw038.bmp","1","noMatchFace","i","1500","trustrating_stim/white_mw040.bmp","green","Share","REAL","0",""
"html-keyboard-response","90","1634817","0.0-7.0-5.10","5e2cd786dc63ca2ff798a0ca","bdp_wmem","Mon Mar 13 2023 13:39:55 GMT-0500 (Central Daylight Time)","1985201","Match,No Match","","null","","","","","","<div class='trialBorder'><div class='vertical-center'><img src='img/error.jpg'></div><div class='respDiv'><div class='respDivL'><font style='color:orange'>Match<br>(e)</font></div><div class='respDivR'>No Match<br>(i)</div></div></div>","null","FEEDBACK","","","","","","","","","","","",""
"html-keyboard-response","91","1635321","0.0-7.0-1.11","5e2cd786dc63ca2ff798a0ca","bdp_wmem","Mon Mar 13 2023 13:39:55 GMT-0500 (Central Daylight Time)","1985201","Match,No Match","","null","","","","","","<div class='trialBorder'><div class='vertical-center'><img src='img/fixation2_sml.jpg'</img></div></div>","null","FIX","","","","","","","","","","","",""
"html-keyboard-response","92","1639825","0.0-7.0-2.11","5e2cd786dc63ca2ff798a0ca","bdp_wmem","Mon Mar 13 2023 13:39:55 GMT-0500 (Central Daylight Time)","1985201","Match,No Match","","null","","","","","","<div class='trialBorder'><div class='vertical-center'><img style='vertical-align:center; align:center' src='img/fixation2_sml.jpg'></div><div class='arrayDiv3'><div class='tl'><img class='introPic' src='trustrating_stim/white_mw012.bmp'><br><font color='green'><strong>Share</strong></font></div><div class='tc'><img class='introPic' src='trustrating_stim/white_mw003.bmp'><br><font color='red'><strong>Keep</strong></font></div><div class='tr'><img class='introPic' src='trustrating_stim/white_mw042.bmp'><br><font color='red'><strong>Keep</strong></font></div></div></div>","null","ARRAY","3","trustrating_stim/white_mw012.bmp,trustrating_stim/white_mw003.bmp,trustrating_stim/white_mw042.bmp","1,0,0","Match","e","4500","","","","","",""
"html-keyboard-response","93","1643833","0.0-7.0-3.11","5e2cd786dc63ca2ff798a0ca","bdp_wmem","Mon Mar 13 2023 13:39:55 GMT-0500 (Central Daylight Time)","1985201","Match,No Match","","null","","","","","","<div class='trialBorder'><div class='vertical-center'><img src='img/fixation2_sml.jpg'</img></div></div>","null","DELAY","","","","","","","","","","","",""
"html-keyboard-response","94","1644384","0.0-7.0-4.11","5e2cd786dc63ca2ff798a0ca","bdp_wmem","Mon Mar 13 2023 13:39:55 GMT-0500 (Central Daylight Time)","1985201","Match,No Match","","548","","","","","","<div class='trialBorder'><div class='targDiv'><div class='tc'><img class='introPic' src='trustrating_stim/white_mw012.bmp'><br><font color='green'><strong>Share</strong></font></div></div><div class='respDiv'><div class='respDivL'>Match<br>(e)</div><div class='respDivR'>No Match<br>(i)</div></div></div>","e","TARGET","3","trustrating_stim/white_mw012.bmp,trustrating_stim/white_mw003.bmp,trustrating_stim/white_mw042.bmp","1,0,0","Match","e","4500","trustrating_stim/white_mw012.bmp","green","Share","REAL","1",""
"html-keyboard-response","95","1644889","0.0-7.0-5.11","5e2cd786dc63ca2ff798a0ca","bdp_wmem","Mon Mar 13 2023 13:39:55 GMT-0500 (Central Daylight Time)","1985201","Match,No Match","","null","","","","","","<div class='trialBorder'><div class='vertical-center'><img src='img/correct.jpg'></div><div class='respDiv'><div class='respDivL'><font style='color:orange'>Match<br>(e)</font></div><div class='respDivR'>No Match<br>(i)</div></div></div>","null","FEEDBACK","","","","","","","","","","","",""
"html-keyboard-response","96","1645393","0.0-7.0-1.12","5e2cd786dc63ca2ff798a0ca","bdp_wmem","Mon Mar 13 2023 13:39:55 GMT-0500 (Central Daylight Time)","1985201","Match,No Match","","null","","","","","","<div class='trialBorder'><div class='vertical-center'><img src='img/fixation2_sml.jpg'</img></div></div>","null","FIX","","","","","","","","","","","",""
"html-keyboard-response","97","1648401","0.0-7.0-2.12","5e2cd786dc63ca2ff798a0ca","bdp_wmem","Mon Mar 13 2023 13:39:55 GMT-0500 (Central Daylight Time)","1985201","Match,No Match","","null","","","","","","<div class='trialBorder'><div class='vertical-center'><img style='vertical-align:center; align:center' src='img/fixation2_sml.jpg'></div><div class='arrayDiv2'><div class='tl'><img class='introPic' src='trustrating_stim/white_mw091.bmp'><br><font color='green'><strong>Share</strong></font></div><div class='tr'><img class='introPic' src='trustrating_stim/white_mw078.bmp'><br><font color='red'><strong>Keep</strong></font></div></div></div>","null","ARRAY","2","trustrating_stim/white_mw091.bmp,trustrating_stim/white_mw078.bmp","1,0","Match","e","3000","","","","","",""
"html-keyboard-response","98","1652409","0.0-7.0-3.12","5e2cd786dc63ca2ff798a0ca","bdp_wmem","Mon Mar 13 2023 13:39:55 GMT-0500 (Central Daylight Time)","1985201","Match,No Match","","null","","","","","","<div class='trialBorder'><div class='vertical-center'><img src='img/fixation2_sml.jpg'</img></div></div>","null","DELAY","","","","","","","","","","","",""
"html-keyboard-response","99","1652697","0.0-7.0-4.12","5e2cd786dc63ca2ff798a0ca","bdp_wmem","Mon Mar 13 2023 13:39:55 GMT-0500 (Central Daylight Time)","1985201","Match,No Match","","285","","","","","","<div class='trialBorder'><div class='targDiv'><div class='tc'><img class='introPic' src='trustrating_stim/white_mw078.bmp'><br><font color='red'><strong>Keep</strong></font></div></div><div class='respDiv'><div class='respDivL'>Match<br>(e)</div><div class='respDivR'>No Match<br>(i)</div></div></div>","e","TARGET","2","trustrating_stim/white_mw091.bmp,trustrating_stim/white_mw078.bmp","1,0","Match","e","3000","trustrating_stim/white_mw078.bmp","red","Keep","REAL","1",""
"html-keyboard-response","100","1653200","0.0-7.0-5.12","5e2cd786dc63ca2ff798a0ca","bdp_wmem","Mon Mar 13 2023 13:39:55 GMT-0500 (Central Daylight Time)","1985201","Match,No Match","","null","","","","","","<div class='trialBorder'><div class='vertical-center'><img src='img/correct.jpg'></div><div class='respDiv'><div class='respDivL'><font style='color:orange'>Match<br>(e)</font></div><div class='respDivR'>No Match<br>(i)</div></div></div>","null","FEEDBACK","","","","","","","","","","","",""
"html-keyboard-response","101","1653705","0.0-7.0-1.13","5e2cd786dc63ca2ff798a0ca","bdp_wmem","Mon Mar 13 2023 13:39:55 GMT-0500 (Central Daylight Time)","1985201","Match,No Match","","null","","","","","","<div class='trialBorder'><div class='vertical-center'><img src='img/fixation2_sml.jpg'</img></div></div>","null","FIX","","","","","","","","","","","",""
"html-keyboard-response","102","1655209","0.0-7.0-2.13","5e2cd786dc63ca2ff798a0ca","bdp_wmem","Mon Mar 13 2023 13:39:55 GMT-0500 (Central Daylight Time)","1985201","Match,No Match","","null","","","","","","<div class='trialBorder'><div class='vertical-center'><img style='vertical-align:center; align:center' src='img/fixation2_sml.jpg'></div><div class='arrayDiv1'><div class='tc'><img class='introPic' src='trustrating_stim/white_mw040.bmp'><br><font color='green'><strong>Share</strong></font></div></div></div>","null","ARRAY","1","trustrating_stim/white_mw040.bmp","1","Match","e","1500","","","","","",""
"html-keyboard-response","103","1659217","0.0-7.0-3.13","5e2cd786dc63ca2ff798a0ca","bdp_wmem","Mon Mar 13 2023 13:39:55 GMT-0500 (Central Daylight Time)","1985201","Match,No Match","","null","","","","","","<div class='trialBorder'><div class='vertical-center'><img src='img/fixation2_sml.jpg'</img></div></div>","null","DELAY","","","","","","","","","","","",""
"html-keyboard-response","104","1659375","0.0-7.0-4.13","5e2cd786dc63ca2ff798a0ca","bdp_wmem","Mon Mar 13 2023 13:39:55 GMT-0500 (Central Daylight Time)","1985201","Match,No Match","","155","","","","","","<div class='trialBorder'><div class='targDiv'><div class='tc'><img class='introPic' src='trustrating_stim/white_mw040.bmp'><br><font color='green'><strong>Share</strong></font></div></div><div class='respDiv'><div class='respDivL'>Match<br>(e)</div><div class='respDivR'>No Match<br>(i)</div></div></div>","e","TARGET","1","trustrating_stim/white_mw040.bmp","1","Match","e","1500","trustrating_stim/white_mw040.bmp","green","Share","REAL","1",""
"html-keyboard-response","105","1659881","0.0-7.0-5.13","5e2cd786dc63ca2ff798a0ca","bdp_wmem","Mon Mar 13 2023 13:39:55 GMT-0500 (Central Daylight Time)","1985201","Match,No Match","","null","","","","","","<div class='trialBorder'><div class='vertical-center'><img src='img/correct.jpg'></div><div class='respDiv'><div class='respDivL'><font style='color:orange'>Match<br>(e)</font></div><div class='respDivR'>No Match<br>(i)</div></div></div>","null","FEEDBACK","","","","","","","","","","","",""
"html-keyboard-response","106","1660385","0.0-7.0-1.14","5e2cd786dc63ca2ff798a0ca","bdp_wmem","Mon Mar 13 2023 13:39:55 GMT-0500 (Central Daylight Time)","1985201","Match,No Match","","null","","","","","","<div class='trialBorder'><div class='vertical-center'><img src='img/fixation2_sml.jpg'</img></div></div>","null","FIX","","","","","","","","","","","",""
"html-keyboard-response","107","1661889","0.0-7.0-2.14","5e2cd786dc63ca2ff798a0ca","bdp_wmem","Mon Mar 13 2023 13:39:55 GMT-0500 (Central Daylight Time)","1985201","Match,No Match","","null","","","","","","<div class='trialBorder'><div class='vertical-center'><img style='vertical-align:center; align:center' src='img/fixation2_sml.jpg'></div><div class='arrayDiv1'><div class='tc'><img class='introPic' src='trustrating_stim/white_mw042.bmp'><br><font color='red'><strong>Keep</strong></font></div></div></div>","null","ARRAY","1","trustrating_stim/white_mw042.bmp","0","Match","e","1500","","","","","",""
"html-keyboard-response","108","1665897","0.0-7.0-3.14","5e2cd786dc63ca2ff798a0ca","bdp_wmem","Mon Mar 13 2023 13:39:55 GMT-0500 (Central Daylight Time)","1985201","Match,No Match","","null","","","","","","<div class='trialBorder'><div class='vertical-center'><img src='img/fixation2_sml.jpg'</img></div></div>","null","DELAY","","","","","","","","","","","",""
"html-keyboard-response","109","1667189","0.0-7.0-4.14","5e2cd786dc63ca2ff798a0ca","bdp_wmem","Mon Mar 13 2023 13:39:55 GMT-0500 (Central Daylight Time)","1985201","Match,No Match","","1289","","","","","","<div class='trialBorder'><div class='targDiv'><div class='tc'><img class='introPic' src='trustrating_stim/white_mw042.bmp'><br><font color='red'><strong>Keep</strong></font></div></div><div class='respDiv'><div class='respDivL'>Match<br>(e)</div><div class='respDivR'>No Match<br>(i)</div></div></div>","e","TARGET","1","trustrating_stim/white_mw042.bmp","0","Match","e","1500","trustrating_stim/white_mw042.bmp","red","Keep","REAL","1",""
"html-keyboard-response","110","1667696","0.0-7.0-5.14","5e2cd786dc63ca2ff798a0ca","bdp_wmem","Mon Mar 13 2023 13:39:55 GMT-0500 (Central Daylight Time)","1985201","Match,No Match","","null","","","","","","<div class='trialBorder'><div class='vertical-center'><img src='img/correct.jpg'></div><div class='respDiv'><div class='respDivL'><font style='color:orange'>Match<br>(e)</font></div><div class='respDivR'>No Match<br>(i)</div></div></div>","null","FEEDBACK","","","","","","","","","","","",""
"html-keyboard-response","111","1668202","0.0-7.0-1.15","5e2cd786dc63ca2ff798a0ca","bdp_wmem","Mon Mar 13 2023 13:39:55 GMT-0500 (Central Daylight Time)","1985201","Match,No Match","","null","","","","","","<div class='trialBorder'><div class='vertical-center'><img src='img/fixation2_sml.jpg'</img></div></div>","null","FIX","","","","","","","","","","","",""
"html-keyboard-response","112","1669712","0.0-7.0-2.15","5e2cd786dc63ca2ff798a0ca","bdp_wmem","Mon Mar 13 2023 13:39:55 GMT-0500 (Central Daylight Time)","1985201","Match,No Match","","null","","","","","","<div class='trialBorder'><div class='vertical-center'><img style='vertical-align:center; align:center' src='img/fixation2_sml.jpg'></div><div class='arrayDiv1'><div class='tc'><img class='introPic' src='trustrating_stim/white_mw092.bmp'><br><font color='red'><strong>Keep</strong></font></div></div></div>","null","ARRAY","1","trustrating_stim/white_mw092.bmp","0","noMatchOutcome","i","1500","","","","","",""
"html-keyboard-response","113","1673721","0.0-7.0-3.15","5e2cd786dc63ca2ff798a0ca","bdp_wmem","Mon Mar 13 2023 13:39:55 GMT-0500 (Central Daylight Time)","1985201","Match,No Match","","null","","","","","","<div class='trialBorder'><div class='vertical-center'><img src='img/fixation2_sml.jpg'</img></div></div>","null","DELAY","","","","","","","","","","","",""
"html-keyboard-response","114","1674454","0.0-7.0-4.15","5e2cd786dc63ca2ff798a0ca","bdp_wmem","Mon Mar 13 2023 13:39:55 GMT-0500 (Central Daylight Time)","1985201","Match,No Match","","731","","","","","","<div class='trialBorder'><div class='targDiv'><div class='tc'><img class='introPic' src='trustrating_stim/white_mw092.bmp'><br><font color='green'><strong>Share</strong></font></div></div><div class='respDiv'><div class='respDivL'>Match<br>(e)</div><div class='respDivR'>No Match<br>(i)</div></div></div>","e","TARGET","1","trustrating_stim/white_mw092.bmp","0","noMatchOutcome","i","1500","trustrating_stim/white_mw092.bmp","green","Share","REAL","0",""
"html-keyboard-response","115","1674961","0.0-7.0-5.15","5e2cd786dc63ca2ff798a0ca","bdp_wmem","Mon Mar 13 2023 13:39:55 GMT-0500 (Central Daylight Time)","1985201","Match,No Match","","null","","","","","","<div class='trialBorder'><div class='vertical-center'><img src='img/error.jpg'></div><div class='respDiv'><div class='respDivL'><font style='color:orange'>Match<br>(e)</font></div><div class='respDivR'>No Match<br>(i)</div></div></div>","null","FEEDBACK","","","","","","","","","","","",""
"html-keyboard-response","116","1675464","0.0-7.0-1.16","5e2cd786dc63ca2ff798a0ca","bdp_wmem","Mon Mar 13 2023 13:39:55 GMT-0500 (Central Daylight Time)","1985201","Match,No Match","","null","","","","","","<div class='trialBorder'><div class='vertical-center'><img src='img/fixation2_sml.jpg'</img></div></div>","null","FIX","","","","","","","","","","","",""
"html-keyboard-response","117","1678473","0.0-7.0-2.16","5e2cd786dc63ca2ff798a0ca","bdp_wmem","Mon Mar 13 2023 13:39:55 GMT-0500 (Central Daylight Time)","1985201","Match,No Match","","null","","","","","","<div class='trialBorder'><div class='vertical-center'><img style='vertical-align:center; align:center' src='img/fixation2_sml.jpg'></div><div class='arrayDiv2'><div class='tl'><img class='introPic' src='trustrating_stim/white_mw091.bmp'><br><font color='green'><strong>Share</strong></font></div><div class='tr'><img class='introPic' src='trustrating_stim/white_mw040.bmp'><br><font color='red'><strong>Keep</strong></font></div></div></div>","null","ARRAY","2","trustrating_stim/white_mw091.bmp,trustrating_stim/white_mw040.bmp","1,0","noMatchOutcome","i","3000","","","","","",""
"html-keyboard-response","118","1682480","0.0-7.0-3.16","5e2cd786dc63ca2ff798a0ca","bdp_wmem","Mon Mar 13 2023 13:39:55 GMT-0500 (Central Daylight Time)","1985201","Match,No Match","","null","","","","","","<div class='trialBorder'><div class='vertical-center'><img src='img/fixation2_sml.jpg'</img></div></div>","null","DELAY","","","","","","","","","","","",""
"html-keyboard-response","119","1682619","0.0-7.0-4.16","5e2cd786dc63ca2ff798a0ca","bdp_wmem","Mon Mar 13 2023 13:39:55 GMT-0500 (Central Daylight Time)","1985201","Match,No Match","","135","","","","","","<div class='trialBorder'><div class='targDiv'><div class='tc'><img class='introPic' src='trustrating_stim/white_mw091.bmp'><br><font color='red'><strong>Keep</strong></font></div></div><div class='respDiv'><div class='respDivL'>Match<br>(e)</div><div class='respDivR'>No Match<br>(i)</div></div></div>","e","TARGET","2","trustrating_stim/white_mw091.bmp,trustrating_stim/white_mw040.bmp","1,0","noMatchOutcome","i","3000","trustrating_stim/white_mw091.bmp","red","Keep","REAL","0",""
"html-keyboard-response","120","1683129","0.0-7.0-5.16","5e2cd786dc63ca2ff798a0ca","bdp_wmem","Mon Mar 13 2023 13:39:55 GMT-0500 (Central Daylight Time)","1985201","Match,No Match","","null","","","","","","<div class='trialBorder'><div class='vertical-center'><img src='img/error.jpg'></div><div class='respDiv'><div class='respDivL'><font style='color:orange'>Match<br>(e)</font></div><div class='respDivR'>No Match<br>(i)</div></div></div>","null","FEEDBACK","","","","","","","","","","","",""
"html-keyboard-response","121","1683633","0.0-7.0-1.17","5e2cd786dc63ca2ff798a0ca","bdp_wmem","Mon Mar 13 2023 13:39:55 GMT-0500 (Central Daylight Time)","1985201","Match,No Match","","null","","","","","","<div class='trialBorder'><div class='vertical-center'><img src='img/fixation2_sml.jpg'</img></div></div>","null","FIX","","","","","","","","","","","",""
"html-keyboard-response","122","1685137","0.0-7.0-2.17","5e2cd786dc63ca2ff798a0ca","bdp_wmem","Mon Mar 13 2023 13:39:55 GMT-0500 (Central Daylight Time)","1985201","Match,No Match","","null","","","","","","<div class='trialBorder'><div class='vertical-center'><img style='vertical-align:center; align:center' src='img/fixation2_sml.jpg'></div><div class='arrayDiv1'><div class='tc'><img class='introPic' src='trustrating_stim/white_mw085.bmp'><br><font color='green'><strong>Share</strong></font></div></div></div>","null","ARRAY","1","trustrating_stim/white_mw085.bmp","1","noMatchFace","i","1500","","","","","",""
"html-keyboard-response","123","1689145","0.0-7.0-3.17","5e2cd786dc63ca2ff798a0ca","bdp_wmem","Mon Mar 13 2023 13:39:55 GMT-0500 (Central Daylight Time)","1985201","Match,No Match","","null","","","","","","<div class='trialBorder'><div class='vertical-center'><img src='img/fixation2_sml.jpg'</img></div></div>","null","DELAY","","","","","","","","","","","",""
"html-keyboard-response","124","1689680","0.0-7.0-4.17","5e2cd786dc63ca2ff798a0ca","bdp_wmem","Mon Mar 13 2023 13:39:55 GMT-0500 (Central Daylight Time)","1985201","Match,No Match","","533","","","","","","<div class='trialBorder'><div class='targDiv'><div class='tc'><img class='introPic' src='trustrating_stim/white_mw078.bmp'><br><font color='green'><strong>Share</strong></font></div></div><div class='respDiv'><div class='respDivL'>Match<br>(e)</div><div class='respDivR'>No Match<br>(i)</div></div></div>","e","TARGET","1","trustrating_stim/white_mw085.bmp","1","noMatchFace","i","1500","trustrating_stim/white_mw078.bmp","green","Share","REAL","0",""
"html-keyboard-response","125","1690185","0.0-7.0-5.17","5e2cd786dc63ca2ff798a0ca","bdp_wmem","Mon Mar 13 2023 13:39:55 GMT-0500 (Central Daylight Time)","1985201","Match,No Match","","null","","","","","","<div class='trialBorder'><div class='vertical-center'><img src='img/error.jpg'></div><div class='respDiv'><div class='respDivL'><font style='color:orange'>Match<br>(e)</font></div><div class='respDivR'>No Match<br>(i)</div></div></div>","null","FEEDBACK","","","","","","","","","","","",""
"html-keyboard-response","126","1690689","0.0-7.0-1.18","5e2cd786dc63ca2ff798a0ca","bdp_wmem","Mon Mar 13 2023 13:39:55 GMT-0500 (Central Daylight Time)","1985201","Match,No Match","","null","","","","","","<div class='trialBorder'><div class='vertical-center'><img src='img/fixation2_sml.jpg'</img></div></div>","null","FIX","","","","","","","","","","","",""
"html-keyboard-response","127","1692193","0.0-7.0-2.18","5e2cd786dc63ca2ff798a0ca","bdp_wmem","Mon Mar 13 2023 13:39:55 GMT-0500 (Central Daylight Time)","1985201","Match,No Match","","null","","","","","","<div class='trialBorder'><div class='vertical-center'><img style='vertical-align:center; align:center' src='img/fixation2_sml.jpg'></div><div class='arrayDiv1'><div class='tc'><img class='introPic' src='trustrating_stim/white_mw010.bmp'><br><font color='green'><strong>Share</strong></font></div></div></div>","null","ARRAY","1","trustrating_stim/white_mw010.bmp","1","Match","e","1500","","","","","",""
"html-keyboard-response","128","1696201","0.0-7.0-3.18","5e2cd786dc63ca2ff798a0ca","bdp_wmem","Mon Mar 13 2023 13:39:55 GMT-0500 (Central Daylight Time)","1985201","Match,No Match","","null","","","","","","<div class='trialBorder'><div class='vertical-center'><img src='img/fixation2_sml.jpg'</img></div></div>","null","DELAY","","","","","","","","","","","",""
"html-keyboard-response","129","1697719","0.0-7.0-4.18","5e2cd786dc63ca2ff798a0ca","bdp_wmem","Mon Mar 13 2023 13:39:55 GMT-0500 (Central Daylight Time)","1985201","Match,No Match","","1515","","","","","","<div class='trialBorder'><div class='targDiv'><div class='tc'><img class='introPic' src='trustrating_stim/white_mw010.bmp'><br><font color='green'><strong>Share</strong></font></div></div><div class='respDiv'><div class='respDivL'>Match<br>(e)</div><div class='respDivR'>No Match<br>(i)</div></div></div>","i","TARGET","1","trustrating_stim/white_mw010.bmp","1","Match","e","1500","trustrating_stim/white_mw010.bmp","green","Share","REAL","0",""
"html-keyboard-response","130","1698225","0.0-7.0-5.18","5e2cd786dc63ca2ff798a0ca","bdp_wmem","Mon Mar 13 2023 13:39:55 GMT-0500 (Central Daylight Time)","1985201","Match,No Match","","null","","","","","","<div class='trialBorder'><div class='vertical-center'><img src='img/error.jpg'></div><div class='respDiv'><div class='respDivL'>Match<br>(e)</div><div class='respDivR'><font style='color:orange'>No Match<br>(i)</font></div></div></div>","null","FEEDBACK","","","","","","","","","","","",""
"html-keyboard-response","131","1698729","0.0-7.0-1.19","5e2cd786dc63ca2ff798a0ca","bdp_wmem","Mon Mar 13 2023 13:39:55 GMT-0500 (Central Daylight Time)","1985201","Match,No Match","","null","","","","","","<div class='trialBorder'><div class='vertical-center'><img src='img/fixation2_sml.jpg'</img></div></div>","null","FIX","","","","","","","","","","","",""
"html-keyboard-response","132","1701737","0.0-7.0-2.19","5e2cd786dc63ca2ff798a0ca","bdp_wmem","Mon Mar 13 2023 13:39:55 GMT-0500 (Central Daylight Time)","1985201","Match,No Match","","null","","","","","","<div class='trialBorder'><div class='vertical-center'><img style='vertical-align:center; align:center' src='img/fixation2_sml.jpg'></div><div class='arrayDiv2'><div class='tl'><img class='introPic' src='trustrating_stim/white_mw012.bmp'><br><font color='red'><strong>Keep</strong></font></div><div class='tr'><img class='introPic' src='trustrating_stim/white_mw085.bmp'><br><font color='green'><strong>Share</strong></font></div></div></div>","null","ARRAY","2","trustrating_stim/white_mw012.bmp,trustrating_stim/white_mw085.bmp","0,1","Match","e","3000","","","","","",""
"html-keyboard-response","133","1705745","0.0-7.0-3.19","5e2cd786dc63ca2ff798a0ca","bdp_wmem","Mon Mar 13 2023 13:39:55 GMT-0500 (Central Daylight Time)","1985201","Match,No Match","","null","","","","","","<div class='trialBorder'><div class='vertical-center'><img src='img/fixation2_sml.jpg'</img></div></div>","null","DELAY","","","","","","","","","","","",""
"html-keyboard-response","134","1706692","0.0-7.0-4.19","5e2cd786dc63ca2ff798a0ca","bdp_wmem","Mon Mar 13 2023 13:39:55 GMT-0500 (Central Daylight Time)","1985201","Match,No Match","","944","","","","","","<div class='trialBorder'><div class='targDiv'><div class='tc'><img class='introPic' src='trustrating_stim/white_mw012.bmp'><br><font color='red'><strong>Keep</strong></font></div></div><div class='respDiv'><div class='respDivL'>Match<br>(e)</div><div class='respDivR'>No Match<br>(i)</div></div></div>","e","TARGET","2","trustrating_stim/white_mw012.bmp,trustrating_stim/white_mw085.bmp","0,1","Match","e","3000","trustrating_stim/white_mw012.bmp","red","Keep","REAL","1",""
"html-keyboard-response","135","1707201","0.0-7.0-5.19","5e2cd786dc63ca2ff798a0ca","bdp_wmem","Mon Mar 13 2023 13:39:55 GMT-0500 (Central Daylight Time)","1985201","Match,No Match","","null","","","","","","<div class='trialBorder'><div class='vertical-center'><img src='img/correct.jpg'></div><div class='respDiv'><div class='respDivL'><font style='color:orange'>Match<br>(e)</font></div><div class='respDivR'>No Match<br>(i)</div></div></div>","null","FEEDBACK","","","","","","","","","","","",""
"html-keyboard-response","136","1707705","0.0-7.0-1.20","5e2cd786dc63ca2ff798a0ca","bdp_wmem","Mon Mar 13 2023 13:39:55 GMT-0500 (Central Daylight Time)","1985201","Match,No Match","","null","","","","","","<div class='trialBorder'><div class='vertical-center'><img src='img/fixation2_sml.jpg'</img></div></div>","null","FIX","","","","","","","","","","","",""
"html-keyboard-response","137","1712209","0.0-7.0-2.20","5e2cd786dc63ca2ff798a0ca","bdp_wmem","Mon Mar 13 2023 13:39:55 GMT-0500 (Central Daylight Time)","1985201","Match,No Match","","null","","","","","","<div class='trialBorder'><div class='vertical-center'><img style='vertical-align:center; align:center' src='img/fixation2_sml.jpg'></div><div class='arrayDiv3'><div class='tl'><img class='introPic' src='trustrating_stim/white_mw092.bmp'><br><font color='green'><strong>Share</strong></font></div><div class='tc'><img class='introPic' src='trustrating_stim/white_mw003.bmp'><br><font color='red'><strong>Keep</strong></font></div><div class='tr'><img class='introPic' src='trustrating_stim/white_mw042.bmp'><br><font color='green'><strong>Share</strong></font></div></div></div>","null","ARRAY","3","trustrating_stim/white_mw092.bmp,trustrating_stim/white_mw003.bmp,trustrating_stim/white_mw042.bmp","1,0,1","noMatchFace","i","4500","","","","","",""
"html-keyboard-response","138","1716217","0.0-7.0-3.20","5e2cd786dc63ca2ff798a0ca","bdp_wmem","Mon Mar 13 2023 13:39:55 GMT-0500 (Central Daylight Time)","1985201","Match,No Match","","null","","","","","","<div class='trialBorder'><div class='vertical-center'><img src='img/fixation2_sml.jpg'</img></div></div>","null","DELAY","","","","","","","","","","","",""
"html-keyboard-response","139","1716409","0.0-7.0-4.20","5e2cd786dc63ca2ff798a0ca","bdp_wmem","Mon Mar 13 2023 13:39:55 GMT-0500 (Central Daylight Time)","1985201","Match,No Match","","190","","","","","","<div class='trialBorder'><div class='targDiv'><div class='tc'><img class='introPic' src='trustrating_stim/white_mw085.bmp'><br><font color='green'><strong>Share</strong></font></div></div><div class='respDiv'><div class='respDivL'>Match<br>(e)</div><div class='respDivR'>No Match<br>(i)</div></div></div>","i","TARGET","3","trustrating_stim/white_mw092.bmp,trustrating_stim/white_mw003.bmp,trustrating_stim/white_mw042.bmp","1,0,1","noMatchFace","i","4500","trustrating_stim/white_mw085.bmp","green","Share","REAL","1",""
"html-keyboard-response","140","1716913","0.0-7.0-5.20","5e2cd786dc63ca2ff798a0ca","bdp_wmem","Mon Mar 13 2023 13:39:55 GMT-0500 (Central Daylight Time)","1985201","Match,No Match","","null","","","","","","<div class='trialBorder'><div class='vertical-center'><img src='img/correct.jpg'></div><div class='respDiv'><div class='respDivL'>Match<br>(e)</div><div class='respDivR'><font style='color:orange'>No Match<br>(i)</font></div></div></div>","null","FEEDBACK","","","","","","","","","","","",""
"html-keyboard-response","141","1717417","0.0-7.0-1.21","5e2cd786dc63ca2ff798a0ca","bdp_wmem","Mon Mar 13 2023 13:39:55 GMT-0500 (Central Daylight Time)","1985201","Match,No Match","","null","","","","","","<div class='trialBorder'><div class='vertical-center'><img src='img/fixation2_sml.jpg'</img></div></div>","null","FIX","","","","","","","","","","","",""
"html-keyboard-response","142","1718922","0.0-7.0-2.21","5e2cd786dc63ca2ff798a0ca","bdp_wmem","Mon Mar 13 2023 13:39:55 GMT-0500 (Central Daylight Time)","1985201","Match,No Match","","null","","","","","","<div class='trialBorder'><div class='vertical-center'><img style='vertical-align:center; align:center' src='img/fixation2_sml.jpg'></div><div class='arrayDiv1'><div class='tc'><img class='introPic' src='trustrating_stim/white_mw003.bmp'><br><font color='green'><strong>Share</strong></font></div></div></div>","null","ARRAY","1","trustrating_stim/white_mw003.bmp","1","Match","e","1500","","","","","",""
"html-keyboard-response","143","1722928","0.0-7.0-3.21","5e2cd786dc63ca2ff798a0ca","bdp_wmem","Mon Mar 13 2023 13:39:55 GMT-0500 (Central Daylight Time)","1985201","Match,No Match","","null","","","","","","<div class='trialBorder'><div class='vertical-center'><img src='img/fixation2_sml.jpg'</img></div></div>","null","DELAY","","","","","","","","","","","",""
"html-keyboard-response","144","1723165","0.0-7.0-4.21","5e2cd786dc63ca2ff798a0ca","bdp_wmem","Mon Mar 13 2023 13:39:55 GMT-0500 (Central Daylight Time)","1985201","Match,No Match","","233","","","","","","<div class='trialBorder'><div class='targDiv'><div class='tc'><img class='introPic' src='trustrating_stim/white_mw003.bmp'><br><font color='green'><strong>Share</strong></font></div></div><div class='respDiv'><div class='respDivL'>Match<br>(e)</div><div class='respDivR'>No Match<br>(i)</div></div></div>","i","TARGET","1","trustrating_stim/white_mw003.bmp","1","Match","e","1500","trustrating_stim/white_mw003.bmp","green","Share","REAL","0",""
"html-keyboard-response","145","1723673","0.0-7.0-5.21","5e2cd786dc63ca2ff798a0ca","bdp_wmem","Mon Mar 13 2023 13:39:55 GMT-0500 (Central Daylight Time)","1985201","Match,No Match","","null","","","","","","<div class='trialBorder'><div class='vertical-center'><img src='img/error.jpg'></div><div class='respDiv'><div class='respDivL'>Match<br>(e)</div><div class='respDivR'><font style='color:orange'>No Match<br>(i)</font></div></div></div>","null","FEEDBACK","","","","","","","","","","","",""
"html-keyboard-response","146","1724176","0.0-7.0-1.22","5e2cd786dc63ca2ff798a0ca","bdp_wmem","Mon Mar 13 2023 13:39:55 GMT-0500 (Central Daylight Time)","1985201","Match,No Match","","null","","","","","","<div class='trialBorder'><div class='vertical-center'><img src='img/fixation2_sml.jpg'</img></div></div>","null","FIX","","","","","","","","","","","",""
"html-keyboard-response","147","1728681","0.0-7.0-2.22","5e2cd786dc63ca2ff798a0ca","bdp_wmem","Mon Mar 13 2023 13:39:55 GMT-0500 (Central Daylight Time)","1985201","Match,No Match","","null","","","","","","<div class='trialBorder'><div class='vertical-center'><img style='vertical-align:center; align:center' src='img/fixation2_sml.jpg'></div><div class='arrayDiv3'><div class='tl'><img class='introPic' src='trustrating_stim/white_mw013.bmp'><br><font color='green'><strong>Share</strong></font></div><div class='tc'><img class='introPic' src='trustrating_stim/white_mw070.bmp'><br><font color='red'><strong>Keep</strong></font></div><div class='tr'><img class='introPic' src='trustrating_stim/white_mw010.bmp'><br><font color='green'><strong>Share</strong></font></div></div></div>","null","ARRAY","3","trustrating_stim/white_mw013.bmp,trustrating_stim/white_mw070.bmp,trustrating_stim/white_mw010.bmp","1,0,1","noMatchFace","i","4500","","","","","",""
"html-keyboard-response","148","1732689","0.0-7.0-3.22","5e2cd786dc63ca2ff798a0ca","bdp_wmem","Mon Mar 13 2023 13:39:55 GMT-0500 (Central Daylight Time)","1985201","Match,No Match","","null","","","","","","<div class='trialBorder'><div class='vertical-center'><img src='img/fixation2_sml.jpg'</img></div></div>","null","DELAY","","","","","","","","","","","",""
"html-keyboard-response","149","1732719","0.0-7.0-4.22","5e2cd786dc63ca2ff798a0ca","bdp_wmem","Mon Mar 13 2023 13:39:55 GMT-0500 (Central Daylight Time)","1985201","Match,No Match","","26","","","","","","<div class='trialBorder'><div class='targDiv'><div class='tc'><img class='introPic' src='trustrating_stim/white_mw040.bmp'><br><font color='green'><strong>Share</strong></font></div></div><div class='respDiv'><div class='respDivL'>Match<br>(e)</div><div class='respDivR'>No Match<br>(i)</div></div></div>","i","TARGET","3","trustrating_stim/white_mw013.bmp,trustrating_stim/white_mw070.bmp,trustrating_stim/white_mw010.bmp","1,0,1","noMatchFace","i","4500","trustrating_stim/white_mw040.bmp","green","Share","REAL","1",""
"html-keyboard-response","150","1733225","0.0-7.0-5.22","5e2cd786dc63ca2ff798a0ca","bdp_wmem","Mon Mar 13 2023 13:39:55 GMT-0500 (Central Daylight Time)","1985201","Match,No Match","","null","","","","","","<div class='trialBorder'><div class='vertical-center'><img src='img/correct.jpg'></div><div class='respDiv'><div class='respDivL'>Match<br>(e)</div><div class='respDivR'><font style='color:orange'>No Match<br>(i)</font></div></div></div>","null","FEEDBACK","","","","","","","","","","","",""
"html-keyboard-response","151","1733729","0.0-7.0-1.23","5e2cd786dc63ca2ff798a0ca","bdp_wmem","Mon Mar 13 2023 13:39:55 GMT-0500 (Central Daylight Time)","1985201","Match,No Match","","null","","","","","","<div class='trialBorder'><div class='vertical-center'><img src='img/fixation2_sml.jpg'</img></div></div>","null","FIX","","","","","","","","","","","",""
"html-keyboard-response","152","1736734","0.0-7.0-2.23","5e2cd786dc63ca2ff798a0ca","bdp_wmem","Mon Mar 13 2023 13:39:55 GMT-0500 (Central Daylight Time)","1985201","Match,No Match","","null","","","","","","<div class='trialBorder'><div class='vertical-center'><img style='vertical-align:center; align:center' src='img/fixation2_sml.jpg'></div><div class='arrayDiv2'><div class='tl'><img class='introPic' src='trustrating_stim/white_mw013.bmp'><br><font color='green'><strong>Share</strong></font></div><div class='tr'><img class='introPic' src='trustrating_stim/white_mw042.bmp'><br><font color='red'><strong>Keep</strong></font></div></div></div>","null","ARRAY","2","trustrating_stim/white_mw013.bmp,trustrating_stim/white_mw042.bmp","1,0","noMatchFace","i","3000","","","","","",""
"html-keyboard-response","153","1740737","0.0-7.0-3.23","5e2cd786dc63ca2ff798a0ca","bdp_wmem","Mon Mar 13 2023 13:39:55 GMT-0500 (Central Daylight Time)","1985201","Match,No Match","","null","","","","","","<div class='trialBorder'><div class='vertical-center'><img src='img/fixation2_sml.jpg'</img></div></div>","null","DELAY","","","","","","","","","","","",""
"html-keyboard-response","154","1741699","0.0-7.0-4.23","5e2cd786dc63ca2ff798a0ca","bdp_wmem","Mon Mar 13 2023 13:39:55 GMT-0500 (Central Daylight Time)","1985201","Match,No Match","","959","","","","","","<div class='trialBorder'><div class='targDiv'><div class='tc'><img class='introPic' src='trustrating_stim/white_mw085.bmp'><br><font color='green'><strong>Share</strong></font></div></div><div class='respDiv'><div class='respDivL'>Match<br>(e)</div><div class='respDivR'>No Match<br>(i)</div></div></div>","e","TARGET","2","trustrating_stim/white_mw013.bmp,trustrating_stim/white_mw042.bmp","1,0","noMatchFace","i","3000","trustrating_stim/white_mw085.bmp","green","Share","REAL","0",""
"html-keyboard-response","155","1742209","0.0-7.0-5.23","5e2cd786dc63ca2ff798a0ca","bdp_wmem","Mon Mar 13 2023 13:39:55 GMT-0500 (Central Daylight Time)","1985201","Match,No Match","","null","","","","","","<div class='trialBorder'><div class='vertical-center'><img src='img/error.jpg'></div><div class='respDiv'><div class='respDivL'><font style='color:orange'>Match<br>(e)</font></div><div class='respDivR'>No Match<br>(i)</div></div></div>","null","FEEDBACK","","","","","","","","","","","",""
"html-keyboard-response","156","1742712","0.0-7.0-1.24","5e2cd786dc63ca2ff798a0ca","bdp_wmem","Mon Mar 13 2023 13:39:55 GMT-0500 (Central Daylight Time)","1985201","Match,No Match","","null","","","","","","<div class='trialBorder'><div class='vertical-center'><img src='img/fixation2_sml.jpg'</img></div></div>","null","FIX","","","","","","","","","","","",""
"html-keyboard-response","157","1745721","0.0-7.0-2.24","5e2cd786dc63ca2ff798a0ca","bdp_wmem","Mon Mar 13 2023 13:39:55 GMT-0500 (Central Daylight Time)","1985201","Match,No Match","","null","","","","","","<div class='trialBorder'><div class='vertical-center'><img style='vertical-align:center; align:center' src='img/fixation2_sml.jpg'></div><div class='arrayDiv2'><div class='tl'><img class='introPic' src='trustrating_stim/white_mw038.bmp'><br><font color='red'><strong>Keep</strong></font></div><div class='tr'><img class='introPic' src='trustrating_stim/white_mw042.bmp'><br><font color='green'><strong>Share</strong></font></div></div></div>","null","ARRAY","2","trustrating_stim/white_mw038.bmp,trustrating_stim/white_mw042.bmp","0,1","noMatchOutcome","i","3000","","","","","",""
"html-keyboard-response","158","1749728","0.0-7.0-3.24","5e2cd786dc63ca2ff798a0ca","bdp_wmem","Mon Mar 13 2023 13:39:55 GMT-0500 (Central Daylight Time)","1985201","Match,No Match","","null","","","","","","<div class='trialBorder'><div class='vertical-center'><img src='img/fixation2_sml.jpg'</img></div></div>","null","DELAY","","","","","","","","","","","",""
"html-keyboard-response","159","1750113","0.0-7.0-4.24","5e2cd786dc63ca2ff798a0ca","bdp_wmem","Mon Mar 13 2023 13:39:55 GMT-0500 (Central Daylight Time)","1985201","Match,No Match","","382","","","","","","<div class='trialBorder'><div class='targDiv'><div class='tc'><img class='introPic' src='trustrating_stim/white_mw042.bmp'><br><font color='red'><strong>Keep</strong></font></div></div><div class='respDiv'><div class='respDivL'>Match<br>(e)</div><div class='respDivR'>No Match<br>(i)</div></div></div>","e","TARGET","2","trustrating_stim/white_mw038.bmp,trustrating_stim/white_mw042.bmp","0,1","noMatchOutcome","i","3000","trustrating_stim/white_mw042.bmp","red","Keep","REAL","0",""
"html-keyboard-response","160","1750616","0.0-7.0-5.24","5e2cd786dc63ca2ff798a0ca","bdp_wmem","Mon Mar 13 2023 13:39:55 GMT-0500 (Central Daylight Time)","1985201","Match,No Match","","null","","","","","","<div class='trialBorder'><div class='vertical-center'><img src='img/error.jpg'></div><div class='respDiv'><div class='respDivL'><font style='color:orange'>Match<br>(e)</font></div><div class='respDivR'>No Match<br>(i)</div></div></div>","null","FEEDBACK","","","","","","","","","","","",""
"html-keyboard-response","161","1751121","0.0-7.0-1.25","5e2cd786dc63ca2ff798a0ca","bdp_wmem","Mon Mar 13 2023 13:39:55 GMT-0500 (Central Daylight Time)","1985201","Match,No Match","","null","","","","","","<div class='trialBorder'><div class='vertical-center'><img src='img/fixation2_sml.jpg'</img></div></div>","null","FIX","","","","","","","","","","","",""
"html-keyboard-response","162","1755625","0.0-7.0-2.25","5e2cd786dc63ca2ff798a0ca","bdp_wmem","Mon Mar 13 2023 13:39:55 GMT-0500 (Central Daylight Time)","1985201","Match,No Match","","null","","","","","","<div class='trialBorder'><div class='vertical-center'><img style='vertical-align:center; align:center' src='img/fixation2_sml.jpg'></div><div class='arrayDiv3'><div class='tl'><img class='introPic' src='trustrating_stim/white_mw003.bmp'><br><font color='green'><strong>Share</strong></font></div><div class='tc'><img class='introPic' src='trustrating_stim/white_mw091.bmp'><br><font color='red'><strong>Keep</strong></font></div><div class='tr'><img class='introPic' src='trustrating_stim/white_mw085.bmp'><br><font color='red'><strong>Keep</strong></font></div></div></div>","null","ARRAY","3","trustrating_stim/white_mw003.bmp,trustrating_stim/white_mw091.bmp,trustrating_stim/white_mw085.bmp","1,0,0","Match","e","4500","","","","","",""
"html-keyboard-response","163","1759633","0.0-7.0-3.25","5e2cd786dc63ca2ff798a0ca","bdp_wmem","Mon Mar 13 2023 13:39:55 GMT-0500 (Central Daylight Time)","1985201","Match,No Match","","null","","","","","","<div class='trialBorder'><div class='vertical-center'><img src='img/fixation2_sml.jpg'</img></div></div>","null","DELAY","","","","","","","","","","","",""
"html-keyboard-response","164","1760439","0.0-7.0-4.25","5e2cd786dc63ca2ff798a0ca","bdp_wmem","Mon Mar 13 2023 13:39:55 GMT-0500 (Central Daylight Time)","1985201","Match,No Match","","803","","","","","","<div class='trialBorder'><div class='targDiv'><div class='tc'><img class='introPic' src='trustrating_stim/white_mw091.bmp'><br><font color='red'><strong>Keep</strong></font></div></div><div class='respDiv'><div class='respDivL'>Match<br>(e)</div><div class='respDivR'>No Match<br>(i)</div></div></div>","e","TARGET","3","trustrating_stim/white_mw003.bmp,trustrating_stim/white_mw091.bmp,trustrating_stim/white_mw085.bmp","1,0,0","Match","e","4500","trustrating_stim/white_mw091.bmp","red","Keep","REAL","1",""
"html-keyboard-response","165","1760945","0.0-7.0-5.25","5e2cd786dc63ca2ff798a0ca","bdp_wmem","Mon Mar 13 2023 13:39:55 GMT-0500 (Central Daylight Time)","1985201","Match,No Match","","null","","","","","","<div class='trialBorder'><div class='vertical-center'><img src='img/correct.jpg'></div><div class='respDiv'><div class='respDivL'><font style='color:orange'>Match<br>(e)</font></div><div class='respDivR'>No Match<br>(i)</div></div></div>","null","FEEDBACK","","","","","","","","","","","",""
"html-keyboard-response","166","1761449","0.0-7.0-1.26","5e2cd786dc63ca2ff798a0ca","bdp_wmem","Mon Mar 13 2023 13:39:55 GMT-0500 (Central Daylight Time)","1985201","Match,No Match","","null","","","","","","<div class='trialBorder'><div class='vertical-center'><img src='img/fixation2_sml.jpg'</img></div></div>","null","FIX","","","","","","","","","","","",""
"html-keyboard-response","167","1762953","0.0-7.0-2.26","5e2cd786dc63ca2ff798a0ca","bdp_wmem","Mon Mar 13 2023 13:39:55 GMT-0500 (Central Daylight Time)","1985201","Match,No Match","","null","","","","","","<div class='trialBorder'><div class='vertical-center'><img style='vertical-align:center; align:center' src='img/fixation2_sml.jpg'></div><div class='arrayDiv1'><div class='tc'><img class='introPic' src='trustrating_stim/white_mw092.bmp'><br><font color='green'><strong>Share</strong></font></div></div></div>","null","ARRAY","1","trustrating_stim/white_mw092.bmp","1","noMatchOutcome","i","1500","","","","","",""
"html-keyboard-response","168","1766961","0.0-7.0-3.26","5e2cd786dc63ca2ff798a0ca","bdp_wmem","Mon Mar 13 2023 13:39:55 GMT-0500 (Central Daylight Time)","1985201","Match,No Match","","null","","","","","","<div class='trialBorder'><div class='vertical-center'><img src='img/fixation2_sml.jpg'</img></div></div>","null","DELAY","","","","","","","","","","","",""
"html-keyboard-response","169","1769696","0.0-7.0-4.26","5e2cd786dc63ca2ff798a0ca","bdp_wmem","Mon Mar 13 2023 13:39:55 GMT-0500 (Central Daylight Time)","1985201","Match,No Match","","2733","","","","","","<div class='trialBorder'><div class='targDiv'><div class='tc'><img class='introPic' src='trustrating_stim/white_mw092.bmp'><br><font color='red'><strong>Keep</strong></font></div></div><div class='respDiv'><div class='respDivL'>Match<br>(e)</div><div class='respDivR'>No Match<br>(i)</div></div></div>","e","TARGET","1","trustrating_stim/white_mw092.bmp","1","noMatchOutcome","i","1500","trustrating_stim/white_mw092.bmp","red","Keep","REAL","0",""
"html-keyboard-response","170","1770201","0.0-7.0-5.26","5e2cd786dc63ca2ff798a0ca","bdp_wmem","Mon Mar 13 2023 13:39:55 GMT-0500 (Central Daylight Time)","1985201","Match,No Match","","null","","","","","","<div class='trialBorder'><div class='vertical-center'><img src='img/error.jpg'></div><div class='respDiv'><div class='respDivL'><font style='color:orange'>Match<br>(e)</font></div><div class='respDivR'>No Match<br>(i)</div></div></div>","null","FEEDBACK","","","","","","","","","","","",""
"html-keyboard-response","171","1770705","0.0-7.0-1.27","5e2cd786dc63ca2ff798a0ca","bdp_wmem","Mon Mar 13 2023 13:39:55 GMT-0500 (Central Daylight Time)","1985201","Match,No Match","","null","","","","","","<div class='trialBorder'><div class='vertical-center'><img src='img/fixation2_sml.jpg'</img></div></div>","null","FIX","","","","","","","","","","","",""
"html-keyboard-response","172","1775209","0.0-7.0-2.27","5e2cd786dc63ca2ff798a0ca","bdp_wmem","Mon Mar 13 2023 13:39:55 GMT-0500 (Central Daylight Time)","1985201","Match,No Match","","null","","","","","","<div class='trialBorder'><div class='vertical-center'><img style='vertical-align:center; align:center' src='img/fixation2_sml.jpg'></div><div class='arrayDiv3'><div class='tl'><img class='introPic' src='trustrating_stim/white_mw040.bmp'><br><font color='red'><strong>Keep</strong></font></div><div class='tc'><img class='introPic' src='trustrating_stim/white_mw038.bmp'><br><font color='red'><strong>Keep</strong></font></div><div class='tr'><img class='introPic' src='trustrating_stim/white_mw003.bmp'><br><font color='green'><strong>Share</strong></font></div></div></div>","null","ARRAY","3","trustrating_stim/white_mw040.bmp,trustrating_stim/white_mw038.bmp,trustrating_stim/white_mw003.bmp","0,0,1","Match","e","4500","","","","","",""
"html-keyboard-response","173","1779217","0.0-7.0-3.27","5e2cd786dc63ca2ff798a0ca","bdp_wmem","Mon Mar 13 2023 13:39:55 GMT-0500 (Central Daylight Time)","1985201","Match,No Match","","null","","","","","","<div class='trialBorder'><div class='vertical-center'><img src='img/fixation2_sml.jpg'</img></div></div>","null","DELAY","","","","","","","","","","","",""
"html-keyboard-response","174","1781555","0.0-7.0-4.27","5e2cd786dc63ca2ff798a0ca","bdp_wmem","Mon Mar 13 2023 13:39:55 GMT-0500 (Central Daylight Time)","1985201","Match,No Match","","2335","","","","","","<div class='trialBorder'><div class='targDiv'><div class='tc'><img class='introPic' src='trustrating_stim/white_mw003.bmp'><br><font color='green'><strong>Share</strong></font></div></div><div class='respDiv'><div class='respDivL'>Match<br>(e)</div><div class='respDivR'>No Match<br>(i)</div></div></div>","i","TARGET","3","trustrating_stim/white_mw040.bmp,trustrating_stim/white_mw038.bmp,trustrating_stim/white_mw003.bmp","0,0,1","Match","e","4500","trustrating_stim/white_mw003.bmp","green","Share","REAL","0",""
"html-keyboard-response","175","1782057","0.0-7.0-5.27","5e2cd786dc63ca2ff798a0ca","bdp_wmem","Mon Mar 13 2023 13:39:55 GMT-0500 (Central Daylight Time)","1985201","Match,No Match","","null","","","","","","<div class='trialBorder'><div class='vertical-center'><img src='img/error.jpg'></div><div class='respDiv'><div class='respDivL'>Match<br>(e)</div><div class='respDivR'><font style='color:orange'>No Match<br>(i)</font></div></div></div>","null","FEEDBACK","","","","","","","","","","","",""
"html-keyboard-response","176","1782560","0.0-7.0-1.28","5e2cd786dc63ca2ff798a0ca","bdp_wmem","Mon Mar 13 2023 13:39:55 GMT-0500 (Central Daylight Time)","1985201","Match,No Match","","null","","","","","","<div class='trialBorder'><div class='vertical-center'><img src='img/fixation2_sml.jpg'</img></div></div>","null","FIX","","","","","","","","","","","",""
"html-keyboard-response","177","1784065","0.0-7.0-2.28","5e2cd786dc63ca2ff798a0ca","bdp_wmem","Mon Mar 13 2023 13:39:55 GMT-0500 (Central Daylight Time)","1985201","Match,No Match","","null","","","","","","<div class='trialBorder'><div class='vertical-center'><img style='vertical-align:center; align:center' src='img/fixation2_sml.jpg'></div><div class='arrayDiv1'><div class='tc'><img class='introPic' src='trustrating_stim/white_mw085.bmp'><br><font color='red'><strong>Keep</strong></font></div></div></div>","null","ARRAY","1","trustrating_stim/white_mw085.bmp","0","Match","e","1500","","","","","",""
"html-keyboard-response","178","1788073","0.0-7.0-3.28","5e2cd786dc63ca2ff798a0ca","bdp_wmem","Mon Mar 13 2023 13:39:55 GMT-0500 (Central Daylight Time)","1985201","Match,No Match","","null","","","","","","<div class='trialBorder'><div class='vertical-center'><img src='img/fixation2_sml.jpg'</img></div></div>","null","DELAY","","","","","","","","","","","",""
"html-keyboard-response","179","1788299","0.0-7.0-4.28","5e2cd786dc63ca2ff798a0ca","bdp_wmem","Mon Mar 13 2023 13:39:55 GMT-0500 (Central Daylight Time)","1985201","Match,No Match","","223","","","","","","<div class='trialBorder'><div class='targDiv'><div class='tc'><img class='introPic' src='trustrating_stim/white_mw085.bmp'><br><font color='red'><strong>Keep</strong></font></div></div><div class='respDiv'><div class='respDivL'>Match<br>(e)</div><div class='respDivR'>No Match<br>(i)</div></div></div>","i","TARGET","1","trustrating_stim/white_mw085.bmp","0","Match","e","1500","trustrating_stim/white_mw085.bmp","red","Keep","REAL","0",""
"html-keyboard-response","180","1788801","0.0-7.0-5.28","5e2cd786dc63ca2ff798a0ca","bdp_wmem","Mon Mar 13 2023 13:39:55 GMT-0500 (Central Daylight Time)","1985201","Match,No Match","","null","","","","","","<div class='trialBorder'><div class='vertical-center'><img src='img/error.jpg'></div><div class='respDiv'><div class='respDivL'>Match<br>(e)</div><div class='respDivR'><font style='color:orange'>No Match<br>(i)</font></div></div></div>","null","FEEDBACK","","","","","","","","","","","",""
"html-keyboard-response","181","1789305","0.0-7.0-1.29","5e2cd786dc63ca2ff798a0ca","bdp_wmem","Mon Mar 13 2023 13:39:55 GMT-0500 (Central Daylight Time)","1985201","Match,No Match","","null","","","","","","<div class='trialBorder'><div class='vertical-center'><img src='img/fixation2_sml.jpg'</img></div></div>","null","FIX","","","","","","","","","","","",""
"html-keyboard-response","182","1790809","0.0-7.0-2.29","5e2cd786dc63ca2ff798a0ca","bdp_wmem","Mon Mar 13 2023 13:39:55 GMT-0500 (Central Daylight Time)","1985201","Match,No Match","","null","","","","","","<div class='trialBorder'><div class='vertical-center'><img style='vertical-align:center; align:center' src='img/fixation2_sml.jpg'></div><div class='arrayDiv1'><div class='tc'><img class='introPic' src='trustrating_stim/white_mw003.bmp'><br><font color='red'><strong>Keep</strong></font></div></div></div>","null","ARRAY","1","trustrating_stim/white_mw003.bmp","0","noMatchFace","i","1500","","","","","",""
"html-keyboard-response","183","1794817","0.0-7.0-3.29","5e2cd786dc63ca2ff798a0ca","bdp_wmem","Mon Mar 13 2023 13:39:55 GMT-0500 (Central Daylight Time)","1985201","Match,No Match","","null","","","","","","<div class='trialBorder'><div class='vertical-center'><img src='img/fixation2_sml.jpg'</img></div></div>","null","DELAY","","","","","","","","","","","",""
"html-keyboard-response","184","1795311","0.0-7.0-4.29","5e2cd786dc63ca2ff798a0ca","bdp_wmem","Mon Mar 13 2023 13:39:55 GMT-0500 (Central Daylight Time)","1985201","Match,No Match","","492","","","","","","<div class='trialBorder'><div class='targDiv'><div class='tc'><img class='introPic' src='trustrating_stim/white_mw070.bmp'><br><font color='red'><strong>Keep</strong></font></div></div><div class='respDiv'><div class='respDivL'>Match<br>(e)</div><div class='respDivR'>No Match<br>(i)</div></div></div>","i","TARGET","1","trustrating_stim/white_mw003.bmp","0","noMatchFace","i","1500","trustrating_stim/white_mw070.bmp","red","Keep","REAL","1",""
"html-keyboard-response","185","1795817","0.0-7.0-5.29","5e2cd786dc63ca2ff798a0ca","bdp_wmem","Mon Mar 13 2023 13:39:55 GMT-0500 (Central Daylight Time)","1985201","Match,No Match","","null","","","","","","<div class='trialBorder'><div class='vertical-center'><img src='img/correct.jpg'></div><div class='respDiv'><div class='respDivL'>Match<br>(e)</div><div class='respDivR'><font style='color:orange'>No Match<br>(i)</font></div></div></div>","null","FEEDBACK","","","","","","","","","","","",""
"html-keyboard-response","186","1796321","0.0-7.0-1.30","5e2cd786dc63ca2ff798a0ca","bdp_wmem","Mon Mar 13 2023 13:39:55 GMT-0500 (Central Daylight Time)","1985201","Match,No Match","","null","","","","","","<div class='trialBorder'><div class='vertical-center'><img src='img/fixation2_sml.jpg'</img></div></div>","null","FIX","","","","","","","","","","","",""
"html-keyboard-response","187","1799329","0.0-7.0-2.30","5e2cd786dc63ca2ff798a0ca","bdp_wmem","Mon Mar 13 2023 13:39:55 GMT-0500 (Central Daylight Time)","1985201","Match,No Match","","null","","","","","","<div class='trialBorder'><div class='vertical-center'><img style='vertical-align:center; align:center' src='img/fixation2_sml.jpg'></div><div class='arrayDiv2'><div class='tl'><img class='introPic' src='trustrating_stim/white_mw091.bmp'><br><font color='red'><strong>Keep</strong></font></div><div class='tr'><img class='introPic' src='trustrating_stim/white_mw013.bmp'><br><font color='green'><strong>Share</strong></font></div></div></div>","null","ARRAY","2","trustrating_stim/white_mw091.bmp,trustrating_stim/white_mw013.bmp","0,1","noMatchFace","i","3000","","","","","",""
"html-keyboard-response","188","1803337","0.0-7.0-3.30","5e2cd786dc63ca2ff798a0ca","bdp_wmem","Mon Mar 13 2023 13:39:55 GMT-0500 (Central Daylight Time)","1985201","Match,No Match","","null","","","","","","<div class='trialBorder'><div class='vertical-center'><img src='img/fixation2_sml.jpg'</img></div></div>","null","DELAY","","","","","","","","","","","",""
